#time,accel_x,accel_y,accel_z
185.176959,2987.772442,-222.061783,9622.677246
185.177267,2987.772442,-444.123565,9474.636058
185.177575,2757.943793,-74.020594,9696.697840
185.177883,2757.943793,-370.102971,9770.718434
185.178191,3064.381992,-222.061783,9622.677246
185.178499,2911.162892,370.102971,9178.553681
185.178808,3447.429741,666.185348,9178.553681
185.179116,4136.915689,814.226536,9770.718434
185.179424,3524.039291,962.267725,8808.450710
185.179732,3294.210641,1184.329507,8216.285956
185.180040,3447.429741,888.247130,9326.594869
185.180348,3140.991542,1036.288319,9474.636058
185.180657,2298.286494,888.247130,10362.883188
185.180965,2298.286494,592.164754,9918.759623
185.181273,2068.457845,-0.000000,10362.883188
185.181581,1608.800546,-518.144159,10658.965565
185.181889,1991.848295,-518.144159,11029.068536
185.182197,2068.457845,-1036.288319,11473.192101
185.182506,1685.410096,-1850.514855,11251.130318
185.182814,2374.896044,-1406.391290,11547.212695
185.183122,2528.115143,-1110.308913,11473.192101
185.183430,2911.162892,-592.164754,9918.759623
185.183738,3600.648841,-0.000000,9622.677246
185.184046,4290.134789,-0.000000,9696.697840
185.184355,4290.134789,-0.000000,9104.533087
185.184663,4826.401637,-148.041188,9548.656652
185.184971,4979.620737,-148.041188,9030.512492
185.185279,4749.792088,-148.041188,8882.471304
185.185587,5056.230287,-222.061783,8438.347739
185.185895,5132.839837,-0.000000,8586.388927
185.186204,5515.887586,444.123565,8438.347739
185.186512,5669.106685,666.185348,8364.327145
185.186820,5822.325785,814.226536,8290.306550
185.187128,6511.811733,888.247130,8142.265362
185.187436,6052.154434,1258.350101,8364.327145
185.187744,6665.030833,962.267725,8068.244768
185.188053,5898.935335,1258.350101,7920.203579
185.188361,5898.935335,1776.494261,8290.306550
185.188669,5745.716235,2072.576638,8216.285956
185.188977,5209.449386,2072.576638,8660.409521
185.189285,4596.572988,1924.535449,8882.471304
185.189593,4903.011187,1776.494261,9474.636058
185.189902,4060.306139,1110.308913,9474.636058
185.190210,3294.210641,666.185348,10214.842000
185.190518,2681.334243,666.185348,10955.047942
185.190826,2221.676944,148.041188,11325.150913
185.191134,1532.190996,-0.000000,11621.233289
185.191442,1302.362347,-0.000000,11399.171507
185.191751,1149.143247,-370.102971,11473.192101
185.192059,1532.190996,-444.123565,11251.130318
185.192367,1838.629195,-296.082377,11103.089130
185.192675,1225.752797,-148.041188,11103.089130
185.192983,1685.410096,-0.000000,10214.842000
185.193291,1915.238745,-0.000000,9918.759623
185.193600,2068.457845,-74.020594,9770.718434
185.193908,2451.505594,-0.000000,9400.615463
185.194216,2834.553343,-148.041188,9252.574275
185.194524,2757.943793,-148.041188,9326.594869
185.194832,2987.772442,-518.144159,9104.533087
185.195140,2604.724693,-296.082377,9178.553681
185.195449,2451.505594,-962.267725,9030.512492
185.195757,2834.553343,-1110.308913,8956.491898
185.196065,2987.772442,-1110.308913,8956.491898
185.196373,2681.334243,-814.226536,9178.553681
185.196681,2221.676944,-444.123565,9104.533087
185.196989,2987.772442,-666.185348,8956.491898
185.197298,2987.772442,-592.164754,9474.636058
185.197606,2451.505594,-814.226536,9104.533087
185.197914,2451.505594,-592.164754,8586.388927
185.198222,2374.896044,-518.144159,9326.594869
185.198530,1455.581446,-814.226536,9918.759623
185.198838,1302.362347,-222.061783,9918.759623
185.199147,919.314598,-0.000000,9622.677246
185.199455,1225.752797,814.226536,9696.697840
185.199763,1455.581446,1554.432478,9474.636058
185.200071,1455.581446,2072.576638,9326.594869
185.200379,1838.629195,2590.720797,8882.471304
185.200687,1532.190996,3034.844362,8364.327145
185.200996,1762.019645,3552.988522,8438.347739
185.201304,1685.410096,3182.885551,9030.512492
185.201612,1532.190996,2812.782580,8882.471304
185.201920,383.047749,2072.576638,9918.759623
185.202228,-306.438199,962.267725,10436.903782
185.202536,-995.924147,-444.123565,11843.295072
185.202845,-2451.505594,-1110.308913,12509.480420
185.203153,-2834.553343,-2220.617826,12953.603985
185.203461,-2911.162892,-2590.720797,12805.562797
185.203769,-2221.676944,-2738.761985,12953.603985
185.204077,-1225.752797,-2442.679609,12139.377449
185.204385,-153.219100,-2368.659014,11325.150913
185.204694,229.828649,-1184.329507,10214.842000
185.205002,1915.238745,-592.164754,9474.636058
185.205310,2145.067394,-0.000000,8290.306550
185.205618,2298.286494,592.164754,7846.182985
185.205926,3064.381992,444.123565,7920.203579
185.206234,2451.505594,666.185348,7105.977043
185.206543,2528.115143,-222.061783,7105.977043
185.206851,2298.286494,-0.000000,7846.182985
185.207159,1991.848295,296.082377,7994.224174
185.207467,1838.629195,592.164754,6513.812290
185.207775,2374.896044,1036.288319,7328.038826
185.208083,2068.457845,1480.411884,7476.080014
185.208392,1762.019645,1998.556043,7105.977043
185.208700,1149.143247,2294.638420,8068.244768
185.209008,1225.752797,2072.576638,9178.553681
185.209316,383.047749,962.267725,9178.553681
185.209624,-229.828649,814.226536,9992.780217
185.209932,-1762.019645,-370.102971,10362.883188
185.210241,-2298.286494,-1332.370696,12213.398043
185.210549,-3064.381992,-2294.638420,13175.665768
185.210857,-4060.306139,-2442.679609,13323.706956
185.211165,-3753.867940,-3182.885551,13397.727550
185.211473,-2911.162892,-3775.050304,13767.830521
185.211781,-2451.505594,-3034.844362,12879.583391
185.212090,-536.266849,-1554.432478,11769.274478
185.212398,1838.629195,-592.164754,10288.862594
185.212706,1455.581446,1184.329507,8586.388927
185.213014,3370.820191,2516.700203,8216.285956
185.213322,4749.792088,3256.906145,7550.100608
185.213630,4060.306139,3330.926739,6513.812290
185.213939,4519.963438,2664.741391,6735.874072
185.214247,3600.648841,2072.576638,7105.977043
185.214555,2298.286494,1184.329507,7920.203579
185.214863,1838.629195,814.226536,7920.203579
185.215171,1149.143247,1110.308913,8364.327145
185.215479,1455.581446,592.164754,8438.347739
185.215788,1072.533697,1628.453072,7846.182985
185.216096,1532.190996,2072.576638,8364.327145
185.216404,1838.629195,1924.535449,8734.430116
185.216712,995.924147,1924.535449,8882.471304
185.217020,612.876398,1406.391290,9622.677246
185.217328,-306.438199,296.082377,10584.944971
185.217637,-1838.629195,-222.061783,10807.006753
185.217945,-2145.067394,-1998.556043,12731.542202
185.218253,-3447.429741,-3182.885551,13693.809927
185.218561,-4596.572988,-4145.153275,14211.954086
185.218869,-4060.306139,-4959.379811,14730.098246
185.219177,-3294.210641,-5181.441594,14508.036463
185.219486,-2145.067394,-5181.441594,12731.542202
185.219794,-229.828649,-3330.926739,11251.130318
185.220102,612.876398,-1110.308913,9326.594869
185.220410,3524.039291,296.082377,8882.471304
185.220718,5056.230287,2368.659014,7105.977043
185.221027,5439.278036,3997.112087,5329.482782
185.221335,5592.497135,3775.050304,5329.482782
185.221643,5975.544884,3923.091493,5107.421000
185.221951,5132.839837,4293.194464,5551.544565
185.222260,4673.182538,4367.215058,5107.421000
185.222568,3370.820191,3256.906145,6439.791695
185.222876,2451.505594,2368.659014,7328.038826
185.223184,1302.362347,2146.597232,7920.203579
185.223492,689.485948,1332.370696,9474.636058
185.223801,459.657299,222.061783,10955.047942
185.224109,-306.438199,-666.185348,11325.150913
185.224417,-1532.190996,-0.000000,9992.780217
185.224725,-1378.971896,-1036.288319,12213.398043
185.225033,-1685.410096,-1554.432478,12879.583391
185.225342,-2451.505594,-1332.370696,12805.562797
185.225650,-2757.943793,-1850.514855,13545.768739
185.225958,-3064.381992,-2516.700203,13841.851115
185.226266,-2757.943793,-3256.906145,14656.077652
185.226574,-2451.505594,-2960.823768,13101.645173
185.226883,-1149.143247,-2812.782580,12657.521608
185.227191,76.609550,-1628.453072,10584.944971
185.227499,919.314598,-518.144159,9548.656652
185.227807,3524.039291,370.102971,9400.615463
185.228115,3830.477490,1628.453072,6735.874072
185.228424,4979.620737,2368.659014,6735.874072
185.228732,5209.449386,2516.700203,6291.750507
185.229040,4673.182538,2516.700203,5625.565159
185.229348,4366.744339,2960.823768,5181.441594
185.229656,3907.087040,3330.926739,5477.523971
185.229965,4136.915689,2886.803174,6661.853478
185.230273,2681.334243,2886.803174,5699.585753
185.230581,2604.724693,2886.803174,7105.977043
185.230889,1378.971896,2516.700203,7476.080014
185.231198,842.705048,1998.556043,9178.553681
185.231506,842.705048,1480.411884,10807.006753
185.231814,153.219100,-0.000000,9474.636058
185.232122,-1072.533697,-74.020594,9622.677246
185.232430,-1149.143247,-1258.350101,12435.459826
185.232739,-2298.286494,-2146.597232,13175.665768
185.233047,-3907.087040,-2960.823768,14211.954086
185.233355,-4366.744339,-4145.153275,14952.160028
185.233663,-4903.011187,-4959.379811,15988.448347
185.233971,-4519.963438,-5181.441594,15174.221811
185.234280,-3524.039291,-3997.112087,13545.768739
185.234588,-1149.143247,-2960.823768,12287.418637
185.234896,-153.219100,-1406.391290,9474.636058
185.235204,1762.019645,1036.288319,8660.409521
185.235512,4290.134789,1776.494261,7550.100608
185.235821,5132.839837,3182.885551,5477.523971
185.236129,4903.011187,4071.132681,4885.359217
185.236437,5286.058936,3701.029710,4959.379811
185.236745,5056.230287,3849.070898,5551.544565
185.237053,3753.867940,4145.153275,5551.544565
185.237362,3600.648841,4219.173869,5033.400406
185.237670,2681.334243,3627.009116,6439.791695
185.237978,1225.752797,2442.679609,6809.894666
185.238286,76.609550,1850.514855,8808.450710
185.238594,-383.047749,370.102971,10362.883188
185.238903,-842.705048,-814.226536,10955.047942
185.239211,-2681.334243,-666.185348,10066.800811
185.239519,-2221.676944,-2294.638420,12213.398043
185.239827,-3064.381992,-2812.782580,13619.789333
185.240136,-4290.134789,-2664.741391,13397.727550
185.240444,-4366.744339,-3034.844362,13841.851115
185.240752,-4443.353888,-3701.029710,14211.954086
185.241060,-4673.182538,-5107.421000,15100.201217
185.241368,-4290.134789,-3923.091493,13841.851115
185.241677,-1915.238745,-2664.741391,12953.603985
185.241985,-1225.752797,-2146.597232,10955.047942
185.242293,0.000000,-444.123565,9178.553681
185.242601,2911.162892,444.123565,9548.656652
185.242909,3830.477490,1628.453072,7031.956449
185.243218,3830.477490,2812.782580,6291.750507
185.243526,4903.011187,2368.659014,5921.647536
185.243834,4903.011187,2442.679609,5847.626942
185.244142,4826.401637,2516.700203,6143.709319
185.244450,4213.525239,3256.906145,4959.379811
185.244759,4366.744339,3034.844362,6291.750507
185.245067,3600.648841,2812.782580,5773.606348
185.245375,3064.381992,3404.947333,6439.791695
185.245683,2528.115143,3404.947333,7476.080014
185.245991,2374.896044,2664.741391,7698.141797
185.246300,612.876398,2146.597232,9178.553681
185.246608,919.314598,1184.329507,10288.862594
185.246916,-536.266849,-0.000000,10436.903782
185.247224,-1685.410096,-666.185348,11473.192101
185.247532,-1608.800546,-2294.638420,13693.809927
185.247841,-2987.772442,-3034.844362,14508.036463
185.248149,-3830.477490,-4441.235652,14804.118840
185.248457,-3677.258390,-5255.462188,15544.324782
185.248765,-3677.258390,-5625.565159,15914.427753
185.249074,-2604.724693,-5033.400406,14285.974681
185.249382,-1072.533697,-3404.947333,12361.439231
185.249690,383.047749,-1406.391290,9918.759623
185.249998,2987.772442,-148.041188,9844.739029
185.250306,5056.230287,2072.576638,8290.306550
185.250615,5898.935335,3627.009116,5403.503377
185.250923,6971.469032,3923.091493,4959.379811
185.251231,6818.249932,4441.235652,4441.235652
185.251539,7354.516781,4071.132681,4885.359217
185.251847,5745.716235,4589.276840,4367.215058
185.252156,5132.839837,4515.256246,4885.359217
185.252464,3983.696590,3552.988522,6069.688724
185.252772,2528.115143,3108.864956,6957.935855
185.253080,1991.848295,2664.741391,8216.285956
185.253388,306.438199,1850.514855,9622.677246
185.253697,0.000000,592.164754,10807.006753
185.254005,-459.657299,-148.041188,11325.150913
185.254313,-2068.457845,-592.164754,10436.903782
185.254621,-2374.896044,-1554.432478,12657.521608
185.254929,-2834.553343,-2442.679609,13767.830521
185.255238,-3753.867940,-2590.720797,13915.871710
185.255546,-4673.182538,-3182.885551,14508.036463
185.255854,-4673.182538,-4145.153275,15026.180623
185.256162,-4443.353888,-4663.297435,15840.407159
185.256470,-3907.087040,-3552.988522,13249.686362
185.256779,-1762.019645,-2738.761985,12287.418637
185.257087,-383.047749,-1776.494261,10881.027347
185.257395,306.438199,222.061783,8660.409521
185.257703,3140.991542,1554.432478,8660.409521
185.258012,4366.744339,2368.659014,6217.729913
185.258320,4519.963438,2812.782580,6217.729913
185.258628,4366.744339,2812.782580,5699.585753
185.258936,4749.792088,2960.823768,5625.565159
185.259244,3983.696590,3108.864956,5699.585753
185.259553,3294.210641,3775.050304,4663.297435
185.259861,3217.601092,3478.967927,5921.647536
185.260169,2757.943793,3108.864956,5625.565159
185.260477,2604.724693,3108.864956,6143.709319
185.260785,995.924147,2368.659014,7994.224174
185.261094,153.219100,666.185348,9474.636058
185.261402,-459.657299,-0.000000,10510.924376
185.261710,-2145.067394,-518.144159,9770.718434
185.262018,-2145.067394,-2294.638420,12805.562797
185.262326,-3600.648841,-3552.988522,13915.871710
185.262635,-4366.744339,-3923.091493,14211.954086
185.262943,-5439.278036,-4737.318029,15174.221811
185.263251,-4903.011187,-5847.626942,15766.386565
185.263559,-4826.401637,-5847.626942,16062.468941
185.263867,-4213.525239,-4663.297435,13841.851115
185.264176,-1762.019645,-3552.988522,12139.377449
185.264484,-995.924147,-1924.535449,9474.636058
185.264792,1378.971896,370.102971,8956.491898
185.265100,4366.744339,1480.411884,8290.306550
185.265409,4749.792088,2738.761985,5181.441594
185.265717,5362.668486,3478.967927,5181.441594
185.266025,5592.497135,3552.988522,4589.276840
185.266333,5745.716235,4219.173869,6143.709319
185.266641,4749.792088,3849.070898,4737.318029
185.266950,4443.353888,4441.235652,5255.462188
185.267258,3830.477490,3923.091493,5995.668130
185.267566,2528.115143,3627.009116,5699.585753
185.267874,2374.896044,3182.885551,7624.121203
185.268182,689.485948,2220.617826,8660.409521
185.268491,153.219100,740.205942,10436.903782
185.268799,0.000000,-148.041188,10955.047942
185.269107,-2221.676944,-592.164754,10658.965565
185.269415,-2221.676944,-1998.556043,13323.706956
185.269723,-3294.210641,-2886.803174,13989.892304
185.270032,-3677.258390,-2738.761985,14656.077652
185.270340,-4749.792088,-3701.029710,15248.242405
185.270648,-4443.353888,-4811.338623,15470.304188
185.270956,-3677.258390,-4663.297435,15100.201217
185.271264,-2604.724693,-3478.967927,13101.645173
185.271573,-229.828649,-2368.659014,12509.480420
185.271881,-306.438199,-888.247130,9474.636058
185.272189,2757.943793,296.082377,10214.842000
185.272497,4213.525239,1850.514855,8216.285956
185.272805,4673.182538,2516.700203,6513.812290
185.273114,5745.716235,2368.659014,7328.038826
185.273422,5286.058936,2516.700203,5181.441594
185.273730,5056.230287,2072.576638,6143.709319
185.274038,4749.792088,2368.659014,5773.606348
185.274347,4749.792088,2960.823768,5847.626942
185.274655,3677.258390,3182.885551,5329.482782
185.274963,3907.087040,3701.029710,5329.482782
185.275271,3600.648841,3997.112087,6439.791695
185.275579,2528.115143,3552.988522,7105.977043
185.275888,1838.629195,3849.070898,8512.368333
185.276196,1532.190996,2072.576638,9696.697840
185.276504,0.000000,296.082377,10807.006753
185.276812,-1991.848295,-444.123565,10881.027347
185.277120,-2604.724693,-2146.597232,13249.686362
185.277429,-3677.258390,-3849.070898,14952.160028
185.277737,-4979.620737,-4663.297435,15248.242405
185.278045,-4903.011187,-5773.606348,16136.489536
185.278353,-4979.620737,-6291.750507,16136.489536
185.278661,-3830.477490,-5625.565159,15100.201217
185.278970,-2374.896044,-3849.070898,12657.521608
185.279278,-153.219100,-2294.638420,10584.944971
185.279586,1455.581446,-0.000000,9104.533087
185.279894,4673.182538,1702.473667,8438.347739
185.280202,5745.716235,3478.967927,5255.462188
185.280511,6894.859482,3997.112087,5255.462188
185.280819,6665.030833,3923.091493,4219.173869
185.281127,5898.935335,4441.235652,4515.256246
185.281435,5439.278036,3775.050304,4959.379811
185.281743,4136.915689,3849.070898,4663.297435
185.282052,3600.648841,3627.009116,5921.647536
185.282360,2528.115143,2886.803174,5995.668130
185.282668,1838.629195,2368.659014,7698.141797
185.282976,0.000000,1258.350101,8734.430116
185.283285,229.828649,-0.000000,11103.089130
185.283593,-919.314598,-592.164754,10807.006753
185.283901,-2604.724693,-962.267725,9918.759623
185.284209,-2221.676944,-2146.597232,12879.583391
185.284517,-3294.210641,-2516.700203,13915.871710
185.284826,-4136.915689,-3108.864956,13915.871710
185.285134,-5056.230287,-3552.988522,14730.098246
185.285442,-4903.011187,-3849.070898,15470.304188
185.285750,-4826.401637,-4441.235652,15988.448347
185.286058,-4213.525239,-3701.029710,13323.706956
185.286367,-2145.067394,-2738.761985,12879.583391
185.286675,-995.924147,-1776.494261,10140.821405
185.286983,689.485948,370.102971,8882.471304
185.287291,3830.477490,1184.329507,8512.368333
185.287599,3677.258390,2294.638420,5773.606348
185.287908,5056.230287,2664.741391,6291.750507
185.288216,5592.497135,3108.864956,5329.482782
185.288524,4749.792088,2516.700203,5625.565159
185.288832,4060.306139,2960.823768,4959.379811
185.289140,4443.353888,3849.070898,5255.462188
185.289449,3983.696590,3701.029710,6143.709319
185.289757,3294.210641,3256.906145,5477.523971
185.290065,3217.601092,4293.194464,6957.935855
185.290373,1762.019645,3478.967927,7550.100608
185.290681,842.705048,2072.576638,8882.471304
185.290990,689.485948,1258.350101,10732.986159
185.291298,-919.314598,-0.000000,10140.821405
185.291606,-2528.115143,-1332.370696,11621.233289
185.291914,-3064.381992,-2738.761985,13841.851115
185.292223,-4519.963438,-3849.070898,14508.036463
185.292531,-5286.058936,-4885.359217,15618.345376
185.292839,-5362.668486,-5625.565159,16284.530724
185.293147,-4596.572988,-6217.729913,16876.695478
185.293455,-4060.306139,-5477.523971,14359.995275
185.293764,-2145.067394,-4071.132681,12361.439231
185.294072,-689.485948,-2368.659014,10362.883188
185.294380,1532.190996,-296.082377,9474.636058
185.294688,4443.353888,1554.432478,8216.285956
185.294996,5362.668486,3701.029710,5403.503377
185.295305,5975.544884,3330.926739,5847.626942
185.295613,6128.763984,4071.132681,4367.215058
185.295921,5745.716235,4515.256246,4515.256246
185.296229,5669.106685,4145.153275,4737.318029
185.296537,4596.572988,3997.112087,4737.318029
185.296846,4136.915689,3627.009116,6143.709319
185.297154,2604.724693,3478.967927,5847.626942
185.297462,2374.896044,2516.700203,7254.018232
185.297770,1072.533697,1702.473667,8586.388927
185.298078,0.000000,814.226536,10510.924376
185.298387,0.000000,-222.061783,11103.089130
185.298695,-1991.848295,-592.164754,10510.924376
185.299003,-2374.896044,-1332.370696,12065.356855
185.299311,-2681.334243,-2368.659014,13619.789333
185.299619,-3677.258390,-2368.659014,14434.015869
185.299928,-4749.792088,-3108.864956,14359.995275
185.300236,-4903.011187,-3701.029710,15100.201217
185.300544,-4060.306139,-4737.318029,15692.365970
185.300852,-4136.915689,-3775.050304,14211.954086
185.301161,-1991.848295,-3552.988522,12731.542202
185.301469,-1302.362347,-1702.473667,10510.924376
185.301777,536.266849,-740.205942,9474.636058
185.302085,3983.696590,666.185348,8734.430116
185.302393,3524.039291,1850.514855,6513.812290
185.302702,4596.572988,2442.679609,6291.750507
185.303010,5439.278036,2664.741391,5329.482782
185.303318,5132.839837,2738.761985,5329.482782
185.303626,4826.401637,3034.844362,5033.400406
185.303934,4749.792088,3627.009116,5033.400406
185.304243,4290.134789,3552.988522,5403.503377
185.304551,3677.258390,3478.967927,5255.462188
185.304859,3294.210641,3552.988522,6069.688724
185.305167,1838.629195,2960.823768,7328.038826
185.305475,1225.752797,2590.720797,9326.594869
185.305784,383.047749,1184.329507,10288.862594
185.306092,-536.266849,-370.102971,10807.006753
185.306400,-2298.286494,-962.267725,11325.150913
185.306708,-2834.553343,-2442.679609,13619.789333
185.307016,-3524.039291,-3552.988522,15026.180623
185.307325,-4749.792088,-4293.194464,15174.221811
185.307633,-4979.620737,-5033.400406,15618.345376
185.307941,-4596.572988,-5995.668130,16136.489536
185.308249,-3983.696590,-5477.523971,14878.139434
185.308557,-2681.334243,-4293.194464,12657.521608
185.308866,-306.438199,-2368.659014,11325.150913
185.309174,842.705048,-296.082377,9030.512492
185.309482,4443.353888,1480.411884,8956.491898
185.309790,4903.011187,3330.926739,5625.565159
185.310099,6665.030833,4071.132681,4737.318029
185.310407,6588.421283,4367.215058,3775.050304
185.310715,6435.202183,4515.256246,4145.153275
185.311023,5822.325785,3849.070898,4959.379811
185.311331,4749.792088,4515.256246,4663.297435
185.311640,4519.963438,4219.173869,5995.668130
185.311948,2987.772442,3108.864956,6439.791695
185.312256,2145.067394,2738.761985,7772.162391
185.312564,383.047749,1924.535449,9252.574275
185.312872,-612.876398,518.144159,10288.862594
185.313181,-1072.533697,-370.102971,11251.130318
185.313489,-2451.505594,-592.164754,10881.027347
185.313797,-2604.724693,-1554.432478,13101.645173
185.314105,-2987.772442,-2590.720797,13989.892304
185.314413,-3677.258390,-2368.659014,14211.954086
185.314722,-4136.915689,-2960.823768,14508.036463
185.315030,-4290.134789,-3478.967927,14508.036463
185.315338,-4213.525239,-4145.153275,15692.365970
185.315646,-3753.867940,-3849.070898,13693.809927
185.315954,-2068.457845,-3034.844362,12583.501014
185.316263,-459.657299,-2368.659014,11029.068536
185.316571,229.828649,-444.123565,9326.594869
185.316879,3600.648841,370.102971,9548.656652
185.317187,4136.915689,2294.638420,6513.812290
185.317495,5362.668486,2146.597232,6513.812290
185.317803,5439.278036,2442.679609,5329.482782
185.318111,4826.401637,3108.864956,4441.235652
185.318419,4979.620737,3034.844362,5181.441594
185.318727,4673.182538,3849.070898,4367.215058
185.319035,4366.744339,4145.153275,5255.462188
185.319344,3753.867940,3997.112087,5477.523971
185.319652,2757.943793,3404.947333,5995.668130
185.319960,1685.410096,3330.926739,7254.018232
185.320268,612.876398,1998.556043,9178.553681
185.320576,153.219100,296.082377,10881.027347
185.320884,-1225.752797,-592.164754,10214.842000
185.321192,-2834.553343,-1406.391290,11769.274478
185.321500,-3064.381992,-3404.947333,14359.995275
185.321808,-4136.915689,-4071.132681,14878.139434
185.322116,-5286.058936,-4441.235652,15396.283594
185.322424,-4979.620737,-5477.523971,15470.304188
185.322732,-4673.182538,-5847.626942,16136.489536
185.323040,-4136.915689,-4885.359217,14508.036463
185.323348,-2221.676944,-3256.906145,12287.418637
185.323656,-306.438199,-1258.350101,9918.759623
185.323964,1378.971896,-0.000000,9400.615463
185.324272,4979.620737,1554.432478,8438.347739
185.324581,4749.792088,3256.906145,4663.297435
185.324889,6665.030833,3552.988522,5107.421000
185.325197,5975.544884,3552.988522,4441.235652
185.325505,5439.278036,3701.029710,5255.462188
185.325813,5362.668486,3404.947333,5773.606348
185.326121,4519.963438,3478.967927,5107.421000
185.326429,3907.087040,2960.823768,6143.709319
185.326737,3370.820191,3552.988522,6069.688724
185.327045,1991.848295,2738.761985,7846.182985
185.327353,0.000000,2072.576638,9104.533087
185.327661,-229.828649,1332.370696,10288.862594
185.327969,-766.095498,-74.020594,11177.109724
185.328277,-2068.457845,-666.185348,10510.924376
185.328585,-2757.943793,-1406.391290,12361.439231
185.328893,-2757.943793,-1998.556043,13619.789333
185.329201,-3600.648841,-2812.782580,13989.892304
185.329509,-4366.744339,-2960.823768,14730.098246
185.329818,-4979.620737,-3849.070898,15100.201217
185.330126,-4826.401637,-4589.276840,16284.530724
185.330434,-4136.915689,-4219.173869,14211.954086
185.330742,-2145.067394,-3404.947333,13101.645173
185.331050,-842.705048,-2294.638420,11103.089130
185.331358,459.657299,-0.000000,9252.574275
185.331666,3830.477490,-0.000000,9696.697840
185.331974,4290.134789,2442.679609,6143.709319
185.332282,5515.887586,2516.700203,5847.626942
185.332590,5745.716235,3108.864956,4811.338623
185.332898,5132.839837,2812.782580,4959.379811
185.333206,5592.497135,2960.823768,5995.668130
185.333514,4903.011187,3923.091493,4811.338623
185.333822,4060.306139,3627.009116,5773.606348
185.334130,4213.525239,3701.029710,5181.441594
185.334438,2757.943793,3775.050304,6735.874072
185.334746,1838.629195,3034.844362,7772.162391
185.335055,612.876398,2368.659014,8586.388927
185.335363,153.219100,1702.473667,10436.903782
185.335671,-612.876398,-74.020594,10732.986159
185.335979,-2068.457845,-1332.370696,11473.192101
185.336287,-2911.162892,-2146.597232,13545.768739
185.336595,-3677.258390,-3552.988522,14656.077652
185.336903,-4443.353888,-4367.215058,15470.304188
185.337211,-5592.497135,-5033.400406,15766.386565
185.337519,-4596.572988,-5329.482782,16210.510130
185.337827,-4443.353888,-5107.421000,14656.077652
185.338135,-2604.724693,-4145.153275,12731.542202
185.338443,-229.828649,-2368.659014,10955.047942
185.338751,612.876398,-666.185348,9178.553681
185.339059,4136.915689,740.205942,9104.533087
185.339367,5515.887586,2960.823768,6217.729913
185.339675,6588.421283,3997.112087,4589.276840
185.339983,6281.983084,3997.112087,4219.173869
185.340291,6818.249932,4219.173869,4737.318029
185.340600,6052.154434,4071.132681,5107.421000
185.340908,4826.401637,4071.132681,4441.235652
185.341216,3907.087040,3775.050304,5921.647536
185.341524,2757.943793,2886.803174,6217.729913
185.341832,2145.067394,2442.679609,7698.141797
185.342140,229.828649,1776.494261,9030.512492
185.342448,-459.657299,962.267725,10214.842000
185.342756,-842.705048,-222.061783,10955.047942
185.343064,-1455.581446,-592.164754,10436.903782
185.343372,-2221.676944,-740.205942,11695.253884
185.343680,-2604.724693,-2368.659014,13249.686362
185.343988,-2911.162892,-2516.700203,14211.954086
185.344296,-3830.477490,-2960.823768,14211.954086
185.344604,-5132.839837,-3701.029710,14508.036463
185.344912,-4979.620737,-4367.215058,15618.345376
185.345220,-4519.963438,-4515.256246,14656.077652
185.345528,-3064.381992,-3404.947333,13397.727550
185.345837,-1072.533697,-2368.659014,11991.336260
185.346145,0.000000,-518.144159,9474.636058
185.346453,2834.553343,962.267725,9326.594869
185.346761,4366.744339,2368.659014,7105.977043
185.347069,5056.230287,3182.885551,5699.585753
185.347377,5515.887586,3034.844362,5551.544565
185.347685,5286.058936,3404.947333,4145.153275
185.347993,4979.620737,3627.009116,5255.462188
185.348301,4903.011187,3849.070898,4885.359217
185.348609,3753.867940,3849.070898,4811.338623
185.348917,2987.772442,3627.009116,5921.647536
185.349225,2298.286494,3997.112087,6217.729913
185.349533,1378.971896,2442.679609,7994.224174
185.349841,0.000000,1702.473667,9326.594869
185.350149,-842.705048,518.144159,11177.109724
185.350457,-1455.581446,-740.205942,11251.130318
185.350765,-3370.820191,-1628.453072,11547.212695
185.351074,-2911.162892,-2960.823768,13915.871710
185.351382,-3983.696590,-3701.029710,14434.015869
185.351690,-4290.134789,-3997.112087,15174.221811
185.351998,-4749.792088,-4959.379811,14582.057057
185.352306,-4596.572988,-5033.400406,15618.345376
185.352614,-4213.525239,-4811.338623,14508.036463
185.352922,-2911.162892,-3478.967927,12139.377449
185.353230,76.609550,-2442.679609,11103.089130
185.353538,536.266849,-444.123565,8734.430116
185.353846,4366.744339,1036.288319,8438.347739
185.354154,5132.839837,2294.638420,6143.709319
185.354462,6511.811733,3404.947333,5329.482782
185.354770,6052.154434,3330.926739,4737.318029
185.355078,6128.763984,4071.132681,4441.235652
185.355386,6052.154434,3330.926739,5255.462188
185.355694,5286.058936,4219.173869,4293.194464
185.356002,4903.011187,4071.132681,5477.523971
185.356311,3753.867940,3108.864956,5773.606348
185.356619,2757.943793,3034.844362,6661.853478
185.356927,766.095498,1998.556043,8142.265362
185.357235,0.000000,1184.329507,10066.800811
185.357543,-536.266849,-0.000000,10955.047942
185.357851,-1455.581446,-518.144159,10510.924376
185.358159,-2145.067394,-814.226536,11695.253884
185.358467,-2451.505594,-2368.659014,13397.727550
185.358775,-2987.772442,-2886.803174,14730.098246
185.359083,-3907.087040,-3330.926739,15026.180623
185.359391,-4519.963438,-3775.050304,15322.262999
185.359699,-4596.572988,-4737.318029,15322.262999
185.360007,-3753.867940,-4071.132681,14285.974681
185.360315,-2374.896044,-3330.926739,12953.603985
185.360623,-383.047749,-2368.659014,11399.171507
185.360931,995.924147,-222.061783,8882.471304
185.361239,3830.477490,740.205942,9326.594869
185.361548,4443.353888,2146.597232,6957.935855
185.361856,5592.497135,2812.782580,6143.709319
185.362164,5362.668486,2664.741391,5255.462188
185.362472,5362.668486,2886.803174,4737.318029
185.362780,5439.278036,2960.823768,5773.606348
185.363088,4596.572988,4071.132681,4441.235652
185.363396,4443.353888,3478.967927,5255.462188
185.363704,3524.039291,3701.029710,5699.585753
185.364012,2528.115143,3701.029710,6661.853478
185.364320,1915.238745,3404.947333,7698.141797
185.364628,919.314598,2442.679609,8734.430116
185.364936,-153.219100,1480.411884,10288.862594
185.365244,-689.485948,-74.020594,10881.027347
185.365552,-1915.238745,-1258.350101,11103.089130
185.365860,-2987.772442,-2516.700203,12731.542202
185.366168,-3447.429741,-3627.009116,14878.139434
185.366476,-4366.744339,-4663.297435,15322.262999
185.366784,-5439.278036,-5033.400406,15544.324782
185.367093,-4903.011187,-5403.503377,16062.468941
185.367401,-4290.134789,-5255.462188,15026.180623
185.367709,-2987.772442,-3775.050304,12805.562797
185.368017,153.219100,-2812.782580,11029.068536
185.368325,459.657299,-518.144159,8438.347739
185.368633,4290.134789,1406.391290,8364.327145
185.368941,5515.887586,3182.885551,6513.812290
185.369249,5975.544884,4367.215058,4811.338623
185.369557,5975.544884,4145.153275,4811.338623
185.369865,5822.325785,3775.050304,4737.318029
185.370173,5439.278036,3256.906145,5773.606348
185.370481,3677.258390,3108.864956,4589.276840
185.370789,3524.039291,3034.844362,5921.647536
185.371097,2681.334243,2442.679609,7105.977043
185.371405,919.314598,2146.597232,7624.121203
185.371713,76.609550,1850.514855,8808.450710
185.372021,-383.047749,740.205942,9622.677246
185.372330,-766.095498,-0.000000,11103.089130
185.372638,-1378.971896,-222.061783,10362.883188
185.372946,-2221.676944,-740.205942,11325.150913
185.373254,-3140.991542,-1554.432478,13027.624579
185.373562,-3294.210641,-2072.576638,14137.933492
185.373870,-3830.477490,-2812.782580,14952.160028
185.374178,-4443.353888,-3552.988522,14804.118840
185.374486,-4290.134789,-4293.194464,15322.262999
185.374794,-4060.306139,-3923.091493,14211.954086
185.375102,-2528.115143,-3627.009116,12583.501014
185.375410,-919.314598,-3108.864956,11251.130318
185.375718,306.438199,-888.247130,9178.553681
185.376026,3294.210641,444.123565,9400.615463
185.376334,4596.572988,1480.411884,7179.997637
185.376642,4749.792088,2664.741391,6143.709319
185.376950,5209.449386,2960.823768,5181.441594
185.377258,5362.668486,3108.864956,4737.318029
185.377567,5515.887586,3404.947333,5847.626942
185.377875,4519.963438,4219.173869,4663.297435
185.378183,4290.134789,4071.132681,5699.585753
185.378491,3370.820191,3552.988522,5625.565159
185.378799,2451.505594,3849.070898,6735.874072
185.379107,1608.800546,2886.803174,8142.265362
185.379415,306.438199,1924.535449,9252.574275
185.379723,-689.485948,740.205942,10584.944971
185.380031,-919.314598,-148.041188,11103.089130
185.380339,-1532.190996,-888.247130,11399.171507
185.380647,-2528.115143,-1924.535449,12287.418637
185.380955,-2757.943793,-3108.864956,14434.015869
185.381263,-3830.477490,-3775.050304,14582.057057
185.381571,-4290.134789,-4219.173869,14952.160028
185.381879,-4136.915689,-4737.318029,15396.283594
185.382187,-3830.477490,-4441.235652,14730.098246
185.382495,-2298.286494,-3478.967927,12879.583391
185.382804,0.000000,-2368.659014,11251.130318
185.383112,919.314598,-222.061783,9030.512492
185.383420,3140.991542,962.267725,8586.388927
185.383728,4826.401637,2220.617826,6957.935855
185.384036,5286.058936,3182.885551,5107.421000
185.384344,5515.887586,3182.885551,5403.503377
185.384652,5898.935335,3256.906145,5329.482782
185.384960,5132.839837,3034.844362,5699.585753
185.385268,3983.696590,3627.009116,4737.318029
185.385576,3753.867940,3404.947333,5551.544565
185.385884,3064.381992,2812.782580,6809.894666
185.386192,1838.629195,2516.700203,6883.915261
185.386500,1608.800546,2442.679609,8512.368333
185.386808,306.438199,1628.453072,9252.574275
185.387116,-612.876398,888.247130,10140.821405
185.387424,-995.924147,-0.000000,10807.006753
185.387732,-1915.238745,-666.185348,10955.047942
185.388041,-2298.286494,-1184.329507,12583.501014
185.388349,-2987.772442,-2516.700203,13471.748144
185.388657,-4290.134789,-2960.823768,14211.954086
185.388965,-4673.182538,-3923.091493,14878.139434
185.389273,-4290.134789,-4145.153275,14952.160028
185.389581,-3983.696590,-4663.297435,14804.118840
185.389889,-3140.991542,-3849.070898,13101.645173
185.390197,-612.876398,-2664.741391,12065.356855
185.390505,0.000000,-1258.350101,9844.739029
185.390813,1532.190996,666.185348,8734.430116
185.391121,4213.525239,1480.411884,7994.224174
185.391429,4749.792088,2738.761985,5847.626942
185.391737,5056.230287,2590.720797,5625.565159
185.392045,4903.011187,2886.803174,4885.359217
185.392353,4903.011187,3034.844362,5403.503377
185.392661,3830.477490,3108.864956,5551.544565
185.392969,4060.306139,3552.988522,4737.318029
185.393278,3907.087040,3256.906145,5847.626942
185.393586,2834.553343,3182.885551,5921.647536
185.393894,2068.457845,3034.844362,7402.059420
185.394202,1302.362347,2442.679609,8660.409521
185.394510,76.609550,1480.411884,9474.636058
185.394818,-612.876398,444.123565,10658.965565
185.395126,-1302.362347,-1036.288319,11695.253884
185.395434,-2374.896044,-1480.411884,11991.336260
185.395742,-2757.943793,-2738.761985,13619.789333
185.396050,-3064.381992,-3627.009116,14804.118840
185.396358,-4443.353888,-4293.194464,14730.098246
185.396666,-4290.134789,-4737.318029,14878.139434
185.396974,-3677.258390,-4737.318029,14730.098246
185.397282,-2451.505594,-4219.173869,13249.686362
185.397590,-766.095498,-2812.782580,11473.192101
185.397898,1532.190996,-1110.308913,9992.780217
185.398206,2528.115143,740.205942,8438.347739
185.398514,4749.792088,2072.576638,7994.224174
185.398823,5286.058936,3182.885551,5773.606348
185.399131,5362.668486,3701.029710,4811.338623
185.399439,5515.887586,3330.926739,5033.400406
185.399747,5592.497135,3478.967927,5033.400406
185.400055,4290.134789,3552.988522,5255.462188
185.400363,3677.258390,3330.926739,5847.626942
185.400671,3217.601092,2960.823768,6809.894666
185.400979,1838.629195,2442.679609,7105.977043
185.401287,995.924147,2368.659014,8216.285956
185.401595,229.828649,1628.453072,9474.636058
185.401903,-919.314598,740.205942,10436.903782
185.402211,-842.705048,-370.102971,11547.212695
185.402519,-1915.238745,-370.102971,10881.027347
185.402827,-2451.505594,-370.102971,12213.398043
185.403135,-2451.505594,-1776.494261,13545.768739
185.403443,-3677.258390,-2146.597232,13545.768739
185.403751,-4290.134789,-2886.803174,14582.057057
185.404060,-4443.353888,-4145.153275,15026.180623
185.404368,-4366.744339,-4293.194464,15470.304188
185.404676,-3447.429741,-3849.070898,13841.851115
185.404984,-1608.800546,-3330.926739,12287.418637
185.405292,0.000000,-1480.411884,10362.883188
185.405600,842.705048,-148.041188,8956.491898
185.405908,3524.039291,814.226536,8660.409521
185.406216,4749.792088,2220.617826,6143.709319
185.406524,4903.011187,2960.823768,5625.565159
185.406832,5056.230287,3182.885551,4959.379811
185.407140,5592.497135,3182.885551,5107.421000
185.407448,4443.353888,3108.864956,4885.359217
185.407756,4443.353888,3923.091493,4515.256246
185.408064,3830.477490,3849.070898,5921.647536
185.408372,2757.943793,3627.009116,5847.626942
185.408680,1991.848295,3034.844362,7179.997637
185.408988,689.485948,2072.576638,8660.409521
185.409297,-459.657299,592.164754,10288.862594
185.409605,-1608.800546,-518.144159,11547.212695
185.409913,-2068.457845,-1332.370696,11917.315666
185.410221,-3140.991542,-2590.720797,12435.459826
185.410529,-3753.867940,-3404.947333,13915.871710
185.410837,-3524.039291,-3256.906145,14285.974681
185.411145,-3983.696590,-3849.070898,14211.954086
185.411453,-3753.867940,-4515.256246,14211.954086
185.411761,-3217.601092,-4071.132681,14359.995275
185.412069,-1915.238745,-3330.926739,13471.748144
185.412377,-995.924147,-2146.597232,10955.047942
185.412685,1225.752797,-222.061783,9770.718434
185.412993,2298.286494,740.205942,8660.409521
185.413301,4366.744339,1480.411884,8290.306550
185.413609,4979.620737,2590.720797,5699.585753
185.413917,5209.449386,2886.803174,5477.523971
185.414225,5056.230287,2664.741391,5551.544565
185.414534,4903.011187,2664.741391,6217.729913
185.414842,4979.620737,3182.885551,5699.585753
185.415150,3524.039291,3330.926739,5625.565159
185.415458,3677.258390,3478.967927,6365.771101
185.415766,2451.505594,3034.844362,6735.874072
185.416074,1532.190996,2960.823768,7624.121203
185.416382,842.705048,2220.617826,8734.430116
185.416690,-229.828649,1554.432478,9696.697840
185.416998,-1149.143247,222.061783,10510.924376
185.417306,-1608.800546,-518.144159,11325.150913
185.417614,-2528.115143,-1406.391290,11917.315666
185.417922,-3370.820191,-2886.803174,13989.892304
185.418230,-3907.087040,-3478.967927,14656.077652
185.418538,-4749.792088,-3701.029710,15174.221811
185.418846,-4749.792088,-4663.297435,15914.427753
185.419154,-4596.572988,-4811.338623,15322.262999
185.419462,-3294.210641,-4145.153275,13767.830521
185.419770,-1455.581446,-2812.782580,12287.418637
185.420078,229.828649,-666.185348,10807.006753
185.420386,1302.362347,740.205942,8586.388927
185.420694,4826.401637,1850.514855,8142.265362
185.421002,5209.449386,3256.906145,5699.585753
185.421310,5822.325785,3775.050304,4811.338623
185.421618,6052.154434,3701.029710,4737.318029
185.421926,5592.497135,3552.988522,5551.544565
185.422234,5056.230287,3775.050304,4589.276840
185.422542,4596.572988,3478.967927,4959.379811
185.422850,3907.087040,3627.009116,6291.750507
185.423158,2451.505594,3034.844362,6587.832884
185.423466,1685.410096,2960.823768,7846.182985
185.423774,919.314598,2146.597232,9178.553681
185.424082,0.000000,1258.350101,10140.821405
185.424390,-1072.533697,-0.000000,10881.027347
185.424698,-1838.629195,-592.164754,11473.192101
185.425006,-2221.676944,-1480.411884,12139.377449
185.425314,-2681.334243,-2812.782580,13397.727550
185.425622,-3370.820191,-3775.050304,14730.098246
185.425930,-4443.353888,-4293.194464,14582.057057
185.426238,-4749.792088,-4589.276840,14508.036463
185.426546,-3524.039291,-4441.235652,14434.015869
185.426854,-2757.943793,-4145.153275,13545.768739
185.427162,-1149.143247,-3108.864956,11843.295072
185.427470,612.876398,-1628.453072,9992.780217
185.427778,1532.190996,370.102971,8660.409521
185.428086,4443.353888,1554.432478,8216.285956
185.428394,5286.058936,2812.782580,5921.647536
185.428702,5515.887586,3256.906145,4885.359217
185.429010,5439.278036,3108.864956,4811.338623
185.429318,5975.544884,3034.844362,5625.565159
185.429626,4673.182538,3256.906145,5699.585753
185.429934,3830.477490,3256.906145,5181.441594
185.430242,3294.210641,3256.906145,6291.750507
185.430550,2298.286494,2516.700203,6513.812290
185.430858,1532.190996,2220.617826,7328.038826
185.431166,612.876398,2146.597232,8512.368333
185.431474,-153.219100,814.226536,9696.697840
185.431782,-842.705048,-222.061783,10955.047942
185.432090,-1532.190996,-518.144159,11177.109724
185.432398,-2681.334243,-1406.391290,11843.295072
185.432706,-3447.429741,-2442.679609,14211.954086
185.433014,-4213.525239,-3330.926739,14582.057057
185.433322,-5056.230287,-3923.091493,15766.386565
185.433630,-5132.839837,-4515.256246,15618.345376
185.433938,-4213.525239,-4441.235652,15026.180623
185.434246,-3600.648841,-3701.029710,14211.954086
185.434554,-1838.629195,-3404.947333,12139.377449
185.434862,0.000000,-1702.473667,11103.089130
185.435170,1149.143247,444.123565,8290.306550
185.435478,4213.525239,1924.535449,7994.224174
185.435786,5439.278036,3034.844362,5847.626942
185.436094,5362.668486,3775.050304,4811.338623
185.436402,5822.325785,3923.091493,5255.462188
185.436710,5822.325785,2960.823768,5329.482782
185.437018,4826.401637,3034.844362,5995.668130
185.437326,3447.429741,3997.112087,5033.400406
185.437634,3677.258390,3478.967927,5773.606348
185.437942,3064.381992,3404.947333,6883.915261
185.438250,1991.848295,3404.947333,7105.977043
185.438558,1762.019645,2886.803174,8512.368333
185.438866,306.438199,1998.556043,9326.594869
185.439174,153.219100,1036.288319,9992.780217
185.439482,76.609550,-222.061783,11029.068536
185.439790,-1225.752797,-1480.411884,11843.295072
185.440098,-2911.162892,-2368.659014,12731.542202
185.440406,-3370.820191,-3923.091493,14434.015869
185.440714,-4290.134789,-4293.194464,15248.242405
185.441022,-4903.011187,-5033.400406,15618.345376
185.441330,-4903.011187,-5181.441594,15766.386565
185.441638,-3907.087040,-4737.318029,14730.098246
185.441946,-1915.238745,-3923.091493,12953.603985
185.442254,-306.438199,-1998.556043,11029.068536
185.442562,1838.629195,-0.000000,8882.471304
185.442870,3140.991542,1554.432478,7402.059420
185.443178,5898.935335,2664.741391,7105.977043
185.443486,5669.106685,3627.009116,4441.235652
185.443794,5822.325785,3923.091493,4145.153275
185.444102,6358.592633,3404.947333,5403.503377
185.444410,4596.572988,3849.070898,5551.544565
185.444718,3677.258390,3478.967927,4959.379811
185.445026,3064.381992,3627.009116,5477.523971
185.445334,2834.553343,3108.864956,6513.812290
185.445642,1455.581446,2664.741391,6809.894666
185.445950,1455.581446,2368.659014,8290.306550
185.446258,612.876398,1406.391290,9474.636058
185.446566,-1302.362347,-0.000000,10510.924376
185.446874,-1378.971896,-1036.288319,11177.109724
185.447182,-2604.724693,-1776.494261,11473.192101
185.447490,-3217.601092,-2664.741391,13397.727550
185.447798,-3983.696590,-3775.050304,14656.077652
185.448106,-4673.182538,-3849.070898,15100.201217
185.448414,-5209.449386,-4737.318029,15692.365970
185.448722,-5209.449386,-4663.297435,15322.262999
185.449030,-3983.696590,-4219.173869,14656.077652
185.449338,-2528.115143,-3552.988522,12213.398043
185.449646,-306.438199,-1628.453072,11251.130318
185.449954,1302.362347,370.102971,8734.430116
185.450262,2987.772442,1776.494261,7624.121203
185.450570,5592.497135,2664.741391,7105.977043
185.450878,5975.544884,3404.947333,4515.256246
185.451186,5822.325785,3701.029710,4589.276840
185.451494,5592.497135,2960.823768,4885.359217
185.451802,5362.668486,3330.926739,5773.606348
185.452110,3983.696590,3627.009116,5181.441594
185.452418,3600.648841,3923.091493,5181.441594
185.452726,3753.867940,3775.050304,6439.791695
185.453034,2528.115143,3478.967927,6735.874072
185.453342,1838.629195,3330.926739,7920.203579
185.453650,1455.581446,1924.535449,8660.409521
185.453958,76.609550,962.267725,9918.759623
185.454266,-766.095498,-296.082377,11103.089130
185.454574,-995.924147,-1406.391290,11769.274478
185.454882,-2757.943793,-2368.659014,13175.665768
185.455190,-3830.477490,-3849.070898,14582.057057
185.455498,-4519.963438,-4367.215058,15322.262999
185.455806,-5056.230287,-5033.400406,16136.489536
185.456114,-5362.668486,-5255.462188,15840.407159
185.456422,-4443.353888,-4663.297435,15174.221811
185.456730,-2681.334243,-4071.132681,13619.789333
185.457038,-766.095498,-2442.679609,11547.212695
185.457346,1149.143247,-592.164754,9400.615463
185.457654,2681.334243,1406.391290,7328.038826
185.457962,5362.668486,1998.556043,7550.100608
185.458270,5822.325785,3701.029710,5329.482782
185.458578,5822.325785,4071.132681,3997.112087
185.458886,5745.716235,3330.926739,5329.482782
185.459194,5286.058936,3034.844362,5181.441594
185.459502,3907.087040,3849.070898,4737.318029
185.459810,3524.039291,3849.070898,5033.400406
185.460118,3677.258390,3701.029710,5847.626942
185.460426,2604.724693,3552.988522,6365.771101
185.460734,1915.238745,2960.823768,7105.977043
185.461041,1685.410096,2368.659014,8808.450710
185.461349,-306.438199,666.185348,9696.697840
185.461657,-919.314598,-1036.288319,11251.130318
185.461965,-2298.286494,-1480.411884,11621.233289
185.462273,-3907.087040,-2664.741391,13397.727550
185.462581,-4903.011187,-4145.153275,15100.201217
185.462889,-5362.668486,-4441.235652,15766.386565
185.463197,-5286.058936,-4811.338623,17024.736666
185.463505,-5209.449386,-5403.503377,15618.345376
185.463813,-3983.696590,-4811.338623,15026.180623
185.464121,-2528.115143,-3701.029710,13471.748144
185.464429,-1072.533697,-2442.679609,11399.171507
185.464737,1072.533697,-74.020594,9326.594869
185.465045,2681.334243,1628.453072,7920.203579
185.465353,5362.668486,2294.638420,7179.997637
185.465661,6128.763984,3404.947333,4737.318029
185.465969,5898.935335,3775.050304,4589.276840
185.466277,5515.887586,3034.844362,5255.462188
185.466585,5056.230287,3404.947333,5847.626942
185.466893,4366.744339,3849.070898,4959.379811
185.467201,3830.477490,3923.091493,4737.318029
185.467509,4136.915689,3997.112087,5403.503377
185.467817,3064.381992,3775.050304,6069.688724
185.468125,2451.505594,3849.070898,7179.997637
185.468433,1685.410096,2368.659014,8068.244768
185.468741,153.219100,962.267725,9696.697840
185.469049,-612.876398,-222.061783,11399.171507
185.469357,-1302.362347,-1628.453072,11621.233289
185.469665,-2987.772442,-2368.659014,13027.624579
185.469973,-4290.134789,-3997.112087,14285.974681
185.470281,-4826.401637,-4515.256246,15618.345376
185.470589,-4826.401637,-5107.421000,16432.571912
185.470897,-5822.325785,-5329.482782,15988.448347
185.471205,-4213.525239,-4959.379811,14952.160028
185.471513,-3294.210641,-4441.235652,14063.912898
185.471821,-1378.971896,-2738.761985,11991.336260
185.472129,842.705048,-740.205942,9918.759623
185.472437,2374.896044,1184.329507,7624.121203
185.472745,5132.839837,1998.556043,7550.100608
185.473053,6052.154434,3330.926739,5847.626942
185.473361,5286.058936,4219.173869,3923.091493
185.473669,5898.935335,2960.823768,5699.585753
185.473977,5669.106685,3404.947333,5403.503377
185.474285,4366.744339,4367.215058,4885.359217
185.474593,3677.258390,4219.173869,4737.318029
185.474901,3524.039291,3923.091493,5625.565159
185.475209,3217.601092,3775.050304,6513.812290
185.475517,2681.334243,3701.029710,6735.874072
185.475825,1991.848295,2516.700203,8586.388927
185.476133,842.705048,1110.308913,9252.574275
185.476441,-459.657299,-0.000000,11399.171507
185.476749,-1915.238745,-1480.411884,11769.274478
185.477057,-3217.601092,-3034.844362,13175.665768
185.477365,-4903.011187,-3997.112087,14730.098246
185.477673,-5286.058936,-5033.400406,15914.427753
185.477981,-5669.106685,-5403.503377,16432.571912
185.478289,-5745.716235,-5403.503377,15766.386565
185.478597,-4443.353888,-5181.441594,15100.201217
185.478905,-3294.210641,-3997.112087,14137.933492
185.479213,-1302.362347,-2960.823768,12953.603985
185.479521,536.266849,-888.247130,9844.739029
185.479829,1455.581446,1554.432478,7772.162391
185.480137,4903.011187,2146.597232,8068.244768
185.480445,6435.202183,3923.091493,5551.544565
185.480753,5209.449386,4441.235652,3997.112087
185.481061,5822.325785,4293.194464,3997.112087
185.481369,5822.325785,3923.091493,5403.503377
185.481677,4826.401637,3997.112087,4959.379811
185.481985,3677.258390,4145.153275,4441.235652
185.482293,3830.477490,3997.112087,5477.523971
185.482601,3294.210641,3478.967927,6143.709319
185.482909,2604.724693,3256.906145,6809.894666
185.483217,1685.410096,2664.741391,7846.182985
185.483525,1149.143247,1110.308913,9548.656652
185.483833,-919.314598,-0.000000,10584.944971
185.484141,-1149.143247,-1184.329507,12213.398043
185.484449,-3064.381992,-2368.659014,13027.624579
185.484757,-4443.353888,-3701.029710,14211.954086
185.485065,-4673.182538,-4219.173869,15248.242405
185.485373,-5362.668486,-4589.276840,16432.571912
185.485681,-5056.230287,-5181.441594,15692.365970
185.485989,-3983.696590,-4959.379811,15100.201217
185.486297,-3217.601092,-3923.091493,14359.995275
185.486605,-2068.457845,-3552.988522,12435.459826
185.486913,153.219100,-1628.453072,10807.006753
185.487221,1532.190996,370.102971,8364.327145
185.487529,4443.353888,1554.432478,7920.203579
185.487837,6281.983084,2812.782580,6735.874072
185.488145,5132.839837,4145.153275,3923.091493
185.488453,5822.325785,3627.009116,5329.482782
185.488761,6052.154434,3923.091493,5181.441594
185.489069,4979.620737,4737.318029,4589.276840
185.489377,4519.963438,4885.359217,4367.215058
185.489685,4136.915689,4441.235652,4737.318029
185.489993,3600.648841,4219.173869,6217.729913
185.490301,2451.505594,4367.215058,6291.750507
185.490609,2298.286494,2664.741391,7772.162391
185.490917,383.047749,888.247130,9252.574275
185.491225,-1072.533697,-592.164754,10807.006753
185.491533,-2221.676944,-1998.556043,12805.562797
185.491841,-4060.306139,-3256.906145,13471.748144
185.492149,-5209.449386,-4219.173869,14730.098246
185.492457,-5362.668486,-5033.400406,15840.407159
185.492765,-4979.620737,-5255.462188,16580.613101
185.493073,-5209.449386,-4811.338623,16062.468941
185.493381,-4519.963438,-4959.379811,14878.139434
185.493689,-2834.553343,-4663.297435,14656.077652
185.493997,-1762.019645,-2664.741391,11991.336260
185.494305,383.047749,-666.185348,10732.986159
185.494613,2068.457845,1036.288319,8290.306550
185.494921,4596.572988,2146.597232,7846.182985
185.495229,6435.202183,3108.864956,5551.544565
185.495537,5209.449386,4367.215058,3701.029710
185.495845,6358.592633,3552.988522,5477.523971
185.496153,5975.544884,3627.009116,5107.421000
185.496461,5132.839837,4071.132681,4663.297435
185.496769,3983.696590,3923.091493,4293.194464
185.497077,3677.258390,3552.988522,5847.626942
185.497385,3447.429741,3552.988522,6365.771101
185.497693,2757.943793,4145.153275,6217.729913
185.498001,2757.943793,3330.926739,7254.018232
185.498309,1455.581446,1924.535449,8586.388927
185.498617,-612.876398,740.205942,10732.986159
185.498925,-1302.362347,-962.267725,12435.459826
185.499233,-3064.381992,-2590.720797,13471.748144
185.499541,-4749.792088,-3701.029710,14063.912898
185.499849,-4903.011187,-4885.359217,15322.262999
185.500157,-5056.230287,-5625.565159,16876.695478
185.500465,-5745.716235,-6069.688724,15988.448347
185.500773,-5209.449386,-5107.421000,15544.324782
185.501081,-3600.648841,-4663.297435,14582.057057
185.501389,-1991.848295,-3552.988522,12065.356855
185.501697,0.000000,-1554.432478,10436.903782
185.502005,1762.019645,518.144159,9030.512492
185.502313,5669.106685,1406.391290,8364.327145
185.502621,5669.106685,3330.926739,4737.318029
185.502929,6281.983084,4367.215058,4071.132681
185.503237,7048.078582,4515.256246,5403.503377
185.503545,6205.373534,4145.153275,4071.132681
185.503853,5745.716235,4737.318029,4145.153275
185.504161,4749.792088,4145.153275,4663.297435
185.504469,4060.306139,3701.029710,5181.441594
185.504777,2757.943793,3701.029710,5921.647536
185.505085,2451.505594,3330.926739,6661.853478
185.505393,842.705048,1628.453072,8364.327145
185.505701,-383.047749,370.102971,9622.677246
185.506009,-766.095498,-666.185348,11547.212695
185.506317,-2451.505594,-1998.556043,12287.418637
185.506625,-4136.915689,-3108.864956,13175.665768
185.506933,-5286.058936,-4145.153275,14359.995275
185.507241,-5439.278036,-4811.338623,16210.510130
185.507549,-5669.106685,-5181.441594,16580.613101
185.507857,-5286.058936,-4737.318029,15248.242405
185.508165,-3830.477490,-4071.132681,15692.365970
185.508473,-3370.820191,-4145.153275,13249.686362
185.508781,-1762.019645,-2368.659014,11769.274478
185.509089,0.000000,-592.164754,9992.780217
185.509397,1915.238745,1110.308913,8586.388927
185.509705,5439.278036,1998.556043,7402.059420
185.510013,6358.592633,3997.112087,4367.215058
185.510321,6281.983084,4515.256246,3997.112087
185.510629,6205.373534,3330.926739,5329.482782
185.510937,5975.544884,3997.112087,4663.297435
185.511245,4979.620737,3849.070898,4737.318029
185.511553,4290.134789,3627.009116,4589.276840
185.511861,3830.477490,3701.029710,5773.606348
185.512169,2834.553343,3182.885551,6439.791695
185.512477,2681.334243,3478.967927,7105.977043
185.512785,1991.848295,2812.782580,7698.141797
185.513093,0.000000,1184.329507,9252.574275
185.513401,-689.485948,296.082377,11325.150913
185.513709,-1225.752797,-888.247130,11843.295072
185.514017,-2987.772442,-2220.617826,13101.645173
185.514325,-4443.353888,-3478.967927,13471.748144
185.514633,-4826.401637,-3849.070898,15174.221811
185.514940,-4519.963438,-4959.379811,16876.695478
185.515248,-4903.011187,-5329.482782,15618.345376
185.515556,-4366.744339,-4885.359217,15248.242405
185.515864,-3370.820191,-4737.318029,14656.077652
185.516172,-1762.019645,-3775.050304,12435.459826
185.516480,76.609550,-1924.535449,10732.986159
185.516788,2068.457845,518.144159,8808.450710
185.517096,5362.668486,1554.432478,8068.244768
185.517404,5975.544884,3108.864956,4293.194464
185.517713,5822.325785,4737.318029,4589.276840
185.518021,6741.640382,3182.885551,5477.523971
185.518329,5898.935335,4589.276840,4219.173869
185.518637,5286.058936,4737.318029,4737.318029
185.518945,4749.792088,4663.297435,4589.276840
185.519253,4060.306139,4219.173869,5329.482782
185.519561,2911.162892,4145.153275,5847.626942
185.519869,2451.505594,3849.070898,6883.915261
185.520177,842.705048,2072.576638,8882.471304
185.520485,-919.314598,-0.000000,10510.924376
185.520793,-1072.533697,-592.164754,11917.315666
185.521101,-2987.772442,-1998.556043,12583.501014
185.521409,-4673.182538,-3182.885551,13471.748144
185.521717,-5439.278036,-3923.091493,14508.036463
185.522025,-5515.887586,-4959.379811,15914.427753
185.522333,-5209.449386,-4811.338623,16580.613101
185.522641,-5362.668486,-4737.318029,15026.180623
185.522949,-4060.306139,-4589.276840,15470.304188
185.523257,-3753.867940,-4145.153275,13471.748144
185.523565,-1455.581446,-2368.659014,11843.295072
185.523873,229.828649,-518.144159,9252.574275
185.524181,2451.505594,1702.473667,8142.265362
185.524489,6281.983084,2960.823768,7179.997637
185.524797,6052.154434,4219.173869,3997.112087
185.525105,6052.154434,4219.173869,4589.276840
185.525413,6665.030833,2960.823768,4811.338623
185.525721,5056.230287,3478.967927,5107.421000
185.526029,4749.792088,3404.947333,5255.462188
185.526337,3907.087040,2886.803174,5921.647536
185.526645,3294.210641,3108.864956,6439.791695
185.526953,2834.553343,3182.885551,6513.812290
185.527261,2451.505594,3627.009116,7105.977043
185.527569,1838.629195,1924.535449,7920.203579
185.527877,-153.219100,1036.288319,9548.656652
185.528185,-306.438199,592.164754,10732.986159
185.528494,-1685.410096,-666.185348,11547.212695
185.528802,-2911.162892,-1924.535449,12657.521608
185.529110,-3830.477490,-2812.782580,13323.706956
185.529418,-4443.353888,-4293.194464,15026.180623
185.529726,-4749.792088,-4811.338623,16284.530724
185.530034,-5286.058936,-5255.462188,15396.283594
185.530342,-4519.963438,-5181.441594,15618.345376
185.530650,-3753.867940,-4811.338623,14063.912898
185.530958,-1838.629195,-3552.988522,12361.439231
185.531266,153.219100,-1258.350101,10362.883188
185.531574,2451.505594,518.144159,9030.512492
185.531882,5745.716235,1776.494261,8290.306550
185.532190,5592.497135,3478.967927,3997.112087
185.532498,6665.030833,4367.215058,4367.215058
185.532806,7354.516781,3627.009116,5033.400406
185.533114,5822.325785,4663.297435,4071.132681
185.533422,5132.839837,4515.256246,4737.318029
185.533730,4826.401637,4293.194464,4589.276840
185.534038,4136.915689,4219.173869,5773.606348
185.534346,2374.896044,3701.029710,6143.709319
185.534654,1838.629195,3034.844362,7254.018232
185.534962,0.000000,592.164754,9918.759623
185.535270,-919.314598,148.041188,10288.862594
185.535578,-1762.019645,-740.205942,12139.377449
185.535886,-3294.210641,-2294.638420,12435.459826
185.536194,-4749.792088,-3108.864956,13471.748144
185.536502,-5362.668486,-3701.029710,14582.057057
185.536810,-4903.011187,-4515.256246,15692.365970
185.537118,-5669.106685,-4441.235652,14952.160028
185.537426,-4443.353888,-4145.153275,14434.015869
185.537734,-3524.039291,-4293.194464,15026.180623
185.538042,-3524.039291,-3775.050304,13027.624579
185.538350,-1225.752797,-2368.659014,11695.253884
185.538658,536.266849,-444.123565,9400.615463
185.538967,2604.724693,1110.308913,8438.347739
185.539275,5898.935335,2294.638420,7476.080014
185.539583,5975.544884,3330.926739,4071.132681
185.539891,5669.106685,3627.009116,4515.256246
185.540199,6358.592633,2664.741391,5699.585753
185.540507,5439.278036,3478.967927,5181.441594
185.540815,4596.572988,3256.906145,5329.482782
185.541123,4290.134789,3182.885551,5551.544565
185.541431,3294.210641,3404.947333,5921.647536
185.541739,3447.429741,3108.864956,5921.647536
185.542047,2145.067394,3256.906145,6957.935855
185.542355,1302.362347,1998.556043,8512.368333
185.542663,-153.219100,1332.370696,10214.842000
185.542971,-536.266849,518.144159,11177.109724
185.543279,-1762.019645,-1258.350101,11917.315666
185.543587,-2911.162892,-2146.597232,12953.603985
185.543895,-4060.306139,-2886.803174,13249.686362
185.544203,-4290.134789,-4219.173869,15396.283594
185.544511,-4749.792088,-5255.462188,15914.427753
185.544819,-4903.011187,-5403.503377,15100.201217
185.545127,-4213.525239,-5033.400406,15618.345376
185.545435,-2987.772442,-4737.318029,13841.851115
185.545743,-1608.800546,-3404.947333,12213.398043
185.546051,536.266849,-1036.288319,10288.862594
185.546359,2528.115143,666.185348,8660.409521
185.546667,6052.154434,1702.473667,8068.244768
185.546975,6205.373534,3627.009116,3552.988522
185.547283,6588.421283,3997.112087,4515.256246
185.547591,7431.126331,3478.967927,5255.462188
185.547899,6128.763984,4663.297435,3923.091493
185.548207,5362.668486,4515.256246,4737.318029
185.548515,4673.182538,4219.173869,4737.318029
185.548823,3753.867940,3849.070898,5995.668130
185.549131,2068.457845,3923.091493,5773.606348
185.549439,2374.896044,2960.823768,7550.100608
185.549748,0.000000,1258.350101,8734.430116
185.550056,-1149.143247,-74.020594,11029.068536
185.550364,-1532.190996,-888.247130,12213.398043
185.550672,-2987.772442,-2072.576638,12583.501014
185.550980,-4213.525239,-2886.803174,13841.851115
185.551288,-4903.011187,-3627.009116,14211.954086
185.551596,-4903.011187,-3997.112087,16284.530724
185.551904,-5286.058936,-4663.297435,15840.407159
185.552212,-5515.887586,-3997.112087,14656.077652
185.552520,-3524.039291,-4071.132681,15396.283594
185.552828,-3064.381992,-3478.967927,13545.768739
185.553136,-1225.752797,-1998.556043,11325.150913
185.553444,689.485948,148.041188,9178.553681
185.553752,2834.553343,1554.432478,8734.430116
185.554060,5822.325785,2812.782580,7179.997637
185.554368,6052.154434,3997.112087,4589.276840
185.554676,5669.106685,3627.009116,4811.338623
185.554984,5822.325785,2368.659014,5773.606348
185.555292,5286.058936,3330.926739,5033.400406
185.555600,4366.744339,2886.803174,5551.544565
185.555908,3447.429741,2738.761985,5847.626942
185.556216,3064.381992,3108.864956,6291.750507
185.556524,2451.505594,3034.844362,6661.853478
185.556832,2528.115143,2738.761985,7105.977043
185.557140,995.924147,2220.617826,8216.285956
185.557448,-306.438199,1258.350101,9474.636058
185.557756,-536.266849,666.185348,10658.965565
185.558064,-1608.800546,-962.267725,11621.233289
185.558372,-2834.553343,-1998.556043,12879.583391
185.558680,-4443.353888,-3108.864956,13249.686362
185.558988,-4596.572988,-3775.050304,14952.160028
185.559296,-4903.011187,-4959.379811,16210.510130
185.559604,-4519.963438,-5181.441594,15396.283594
185.559912,-4136.915689,-5255.462188,15100.201217
185.560220,-3140.991542,-4737.318029,13767.830521
185.560529,-1455.581446,-3034.844362,11769.274478
185.560837,612.876398,-1110.308913,10140.821405
185.561145,2604.724693,370.102971,8364.327145
185.561453,5132.839837,1702.473667,7772.162391
185.561761,6281.983084,3552.988522,4293.194464
185.562069,5898.935335,4515.256246,4145.153275
185.562377,6052.154434,3775.050304,5773.606348
185.562685,5592.497135,4219.173869,4663.297435
185.562993,4979.620737,4515.256246,5033.400406
185.563301,4596.572988,3997.112087,4885.359217
185.563609,3447.429741,3775.050304,5921.647536
185.563917,2681.334243,3701.029710,6291.750507
185.564225,1838.629195,3182.885551,7550.100608
185.564533,76.609550,1184.329507,9326.594869
185.564841,-1072.533697,-148.041188,10214.842000
185.565149,-1302.362347,-740.205942,11621.233289
185.565457,-3140.991542,-2294.638420,12287.418637
185.565765,-3830.477490,-3256.906145,13175.665768
185.566073,-4903.011187,-3404.947333,13915.871710
185.566381,-4903.011187,-4145.153275,15470.304188
185.566689,-4596.572988,-4219.173869,15618.345376
185.566997,-4673.182538,-4071.132681,14656.077652
185.567305,-3753.867940,-4071.132681,14434.015869
185.567613,-2528.115143,-3552.988522,13101.645173
185.567921,-1302.362347,-2146.597232,11547.212695
185.568229,306.438199,-518.144159,9992.780217
185.568537,2374.896044,1036.288319,8512.368333
185.568845,4903.011187,2146.597232,7920.203579
185.569153,5592.497135,3330.926739,5033.400406
185.569461,5056.230287,3108.864956,4959.379811
185.569769,5898.935335,2590.720797,5403.503377
185.570077,5056.230287,3330.926739,4663.297435
185.570385,4979.620737,3330.926739,5551.544565
185.570693,4290.134789,2886.803174,5625.565159
185.571002,4136.915689,2812.782580,5773.606348
185.571310,2911.162892,3182.885551,6291.750507
185.571618,2911.162892,3256.906145,6661.853478
185.571926,1915.238745,2368.659014,7994.224174
185.572234,0.000000,1554.432478,9474.636058
185.572542,-383.047749,888.247130,10584.944971
185.572850,-1378.971896,-444.123565,11695.253884
185.573158,-2834.553343,-1850.514855,13175.665768
185.573466,-4213.525239,-2812.782580,13101.645173
185.573774,-4673.182538,-3552.988522,14508.036463
185.574082,-4673.182538,-4663.297435,15840.407159
185.574390,-4673.182538,-4737.318029,15618.345376
185.574698,-4673.182538,-4959.379811,14730.098246
185.575006,-3064.381992,-4737.318029,14211.954086
185.575314,-2145.067394,-3404.947333,12139.377449
185.575622,76.609550,-1258.350101,10362.883188
185.575930,1991.848295,148.041188,8512.368333
185.576238,4596.572988,1702.473667,8512.368333
185.576546,6128.763984,3478.967927,5921.647536
185.576854,5745.716235,4811.338623,4293.194464
185.577162,6511.811733,3775.050304,5773.606348
185.577470,6588.421283,4663.297435,4219.173869
185.577778,5898.935335,4885.359217,4589.276840
185.578086,4903.011187,3997.112087,4737.318029
185.578394,4290.134789,3182.885551,5773.606348
185.578702,2451.505594,3701.029710,6587.832884
185.579010,2834.553343,3256.906145,6809.894666
185.579318,995.924147,1332.370696,8956.491898
185.579626,-1378.971896,296.082377,10288.862594
185.579934,-1225.752797,-592.164754,12139.377449
185.580242,-3140.991542,-2294.638420,12731.542202
185.580550,-4136.915689,-3182.885551,13471.748144
185.580858,-4826.401637,-3627.009116,13989.892304
185.581166,-4366.744339,-4071.132681,15766.386565
185.581474,-4673.182538,-4515.256246,15544.324782
185.581783,-4673.182538,-4145.153275,14137.933492
185.582091,-3370.820191,-3627.009116,14582.057057
185.582399,-2757.943793,-3256.906145,13027.624579
185.582707,-1302.362347,-1924.535449,11399.171507
185.583015,536.266849,-370.102971,10214.842000
185.583323,1915.238745,814.226536,8438.347739
185.583631,4903.011187,1628.453072,8216.285956
185.583939,5515.887586,2812.782580,5551.544565
185.584247,4596.572988,3552.988522,4885.359217
185.584555,6358.592633,2368.659014,6143.709319
185.584863,4826.401637,3478.967927,4737.318029
185.585171,4903.011187,3182.885551,5773.606348
185.585479,4290.134789,3034.844362,4959.379811
185.585787,3907.087040,3182.885551,5995.668130
185.586095,3064.381992,3108.864956,5921.647536
185.586403,2911.162892,3478.967927,7179.997637
185.586711,2221.676944,2812.782580,8142.265362
185.587019,459.657299,2072.576638,8586.388927
185.587327,-536.266849,888.247130,11103.089130
185.587635,-1455.581446,-444.123565,11769.274478
185.587943,-2604.724693,-1998.556043,13101.645173
185.588251,-4060.306139,-2516.700203,13249.686362
185.588559,-4213.525239,-3997.112087,13915.871710
185.588867,-4366.744339,-4811.338623,16358.551318
185.589175,-4979.620737,-4959.379811,15914.427753
185.589483,-4136.915689,-4959.379811,14582.057057
185.589791,-3447.429741,-4589.276840,14137.933492
185.590099,-1838.629195,-3552.988522,12065.356855
185.590407,-153.219100,-1850.514855,10658.965565
185.590715,1838.629195,148.041188,8734.430116
185.591023,3830.477490,666.185348,8734.430116
185.591331,5515.887586,2368.659014,5329.482782
185.591639,5209.449386,3923.091493,4071.132681
185.591947,6894.859482,3552.988522,5773.606348
185.592255,6358.592633,4737.318029,3849.070898
185.592564,5975.544884,5181.441594,4293.194464
185.592872,5132.839837,4293.194464,4441.235652
185.593180,4290.134789,3849.070898,5033.400406
185.593488,3370.820191,3404.947333,5995.668130
185.593796,2757.943793,3034.844362,7031.956449
185.594104,766.095498,1628.453072,8734.430116
185.594412,-1455.581446,-0.000000,10288.862594
185.594720,-1915.238745,-1110.308913,12435.459826
185.595028,-3294.210641,-2220.617826,12287.418637
185.595336,-4443.353888,-2738.761985,13841.851115
185.595644,-4979.620737,-3478.967927,14211.954086
185.595952,-5209.449386,-3849.070898,15470.304188
185.596260,-4826.401637,-4663.297435,16210.510130
185.596568,-4826.401637,-3923.091493,14508.036463
185.596876,-3217.601092,-3256.906145,14211.954086
185.597184,-2451.505594,-3182.885551,13249.686362
185.597492,-1302.362347,-2072.576638,11621.233289
185.597800,459.657299,-370.102971,9770.718434
185.598108,1915.238745,1036.288319,8586.388927
185.598416,4596.572988,1554.432478,8142.265362
185.598724,5286.058936,3108.864956,5403.503377
185.599032,5362.668486,2960.823768,4811.338623
185.599340,5975.544884,2072.576638,6291.750507
185.599648,5056.230287,2664.741391,5329.482782
185.599956,4519.963438,2738.761985,5477.523971
185.600264,3830.477490,2442.679609,5773.606348
185.600572,3447.429741,2590.720797,6513.812290
185.600880,3064.381992,2812.782580,7031.956449
185.601188,2604.724693,3182.885551,7031.956449
185.601496,1608.800546,2960.823768,7179.997637
185.601804,459.657299,1998.556043,8512.368333
185.602112,-459.657299,1332.370696,10214.842000
185.602420,-995.924147,-74.020594,10807.006753
185.602728,-2374.896044,-888.247130,12287.418637
185.603037,-3600.648841,-2368.659014,12805.562797
185.603345,-4213.525239,-3552.988522,13841.851115
185.603653,-4366.744339,-4959.379811,15914.427753
185.603961,-5592.497135,-5329.482782,15840.407159
185.604269,-4979.620737,-5255.462188,15248.242405
185.604577,-3907.087040,-5625.565159,15248.242405
185.604885,-2221.676944,-4515.256246,13027.624579
185.605193,-1149.143247,-2294.638420,10955.047942
185.605501,1149.143247,-444.123565,9844.739029
185.605809,4596.572988,888.247130,8808.450710
185.606117,5286.058936,2960.823768,5033.400406
185.606425,5822.325785,4589.276840,3923.091493
185.606733,7354.516781,4145.153275,5107.421000
185.607041,6741.640382,5255.462188,3330.926739
185.607349,6128.763984,5551.544565,4219.173869
185.607657,4903.011187,4737.318029,4293.194464
185.607965,4290.134789,3849.070898,5255.462188
185.608273,3064.381992,3775.050304,6809.894666
185.608581,2221.676944,3256.906145,6957.935855
185.608889,459.657299,1332.370696,8734.430116
185.609197,-1455.581446,-0.000000,10584.944971
185.609505,-1991.848295,-814.226536,12287.418637
185.609813,-2987.772442,-1702.473667,12583.501014
185.610121,-3753.867940,-2442.679609,13545.768739
185.610429,-4673.182538,-3256.906145,13915.871710
185.610737,-5132.839837,-3775.050304,14730.098246
185.611045,-4519.963438,-4145.153275,16062.468941
185.611353,-5132.839837,-3775.050304,14508.036463
185.611661,-3907.087040,-3552.988522,14508.036463
185.611969,-3064.381992,-3478.967927,13693.809927
185.612277,-1991.848295,-2368.659014,12065.356855
185.612585,0.000000,-962.267725,10584.944971
185.612893,689.485948,518.144159,8660.409521
185.613201,3600.648841,1110.308913,8660.409521
185.613509,5515.887586,2738.761985,6143.709319
185.613818,5439.278036,3034.844362,4293.194464
185.614126,5822.325785,2442.679609,5699.585753
185.614434,5745.716235,2738.761985,5107.421000
185.614742,5209.449386,3330.926739,4959.379811
185.615050,4903.011187,2886.803174,4811.338623
185.615358,4060.306139,3108.864956,5255.462188
185.615666,3294.210641,3108.864956,6069.688724
185.615974,3064.381992,3182.885551,6883.915261
185.616282,2298.286494,3256.906145,7328.038826
185.616590,919.314598,2220.617826,8142.265362
185.616898,-383.047749,1184.329507,10214.842000
185.617206,-919.314598,-0.000000,11325.150913
185.617514,-2221.676944,-1332.370696,12731.542202
185.617822,-4136.915689,-2590.720797,13397.727550
185.618130,-4903.011187,-4219.173869,13989.892304
185.618438,-4673.182538,-5181.441594,16210.510130
185.618746,-5745.716235,-5477.523971,16728.654289
185.619054,-5132.839837,-5403.503377,15100.201217
185.619362,-3830.477490,-5107.421000,15026.180623
185.619670,-2068.457845,-4589.276840,12657.521608
185.619978,-995.924147,-2368.659014,10807.006753
185.620286,1532.190996,-592.164754,9400.615463
185.620594,4903.011187,1036.288319,8882.471304
185.620902,6435.202183,3182.885551,4811.338623
185.621210,6052.154434,4811.338623,3627.009116
185.621518,7354.516781,3849.070898,5181.441594
185.621826,6665.030833,4737.318029,3256.906145
185.622134,6358.592633,5107.421000,4145.153275
185.622442,4979.620737,4293.194464,4293.194464
185.622750,3677.258390,3701.029710,4959.379811
185.623058,2757.943793,3256.906145,6439.791695
185.623366,2374.896044,3404.947333,7698.141797
185.623674,536.266849,1850.514855,8216.285956
185.623982,-1302.362347,888.247130,9474.636058
185.624290,-1532.190996,-0.000000,12065.356855
185.624598,-2374.896044,-1406.391290,11917.315666
185.624906,-3447.429741,-2146.597232,13101.645173
185.625214,-4136.915689,-2738.761985,13471.748144
185.625522,-5209.449386,-3849.070898,14359.995275
185.625829,-4826.401637,-4145.153275,15988.448347
185.626137,-4826.401637,-4293.194464,14508.036463
185.626445,-4519.963438,-3849.070898,14730.098246
185.626753,-3524.039291,-3775.050304,14285.974681
185.627061,-2604.724693,-2738.761985,12435.459826
185.627369,-459.657299,-1554.432478,11103.089130
185.627677,1072.533697,-74.020594,8512.368333
185.627985,3753.867940,1332.370696,8660.409521
185.628293,5439.278036,2146.597232,6957.935855
185.628601,4903.011187,3478.967927,4515.256246
185.628909,5898.935335,2590.720797,5699.585753
185.629217,6052.154434,2960.823768,5255.462188
185.629525,5056.230287,3701.029710,4737.318029
185.629833,4826.401637,3404.947333,5181.441594
185.630141,3983.696590,2886.803174,5403.503377
185.630449,2911.162892,3256.906145,6217.729913
185.630757,2911.162892,3404.947333,6587.832884
185.631065,2374.896044,3330.926739,7772.162391
185.631373,306.438199,1850.514855,8364.327145
185.631681,-612.876398,1184.329507,10288.862594
185.631989,-842.705048,-74.020594,11547.212695
185.632297,-2298.286494,-1702.473667,12805.562797
185.632605,-3677.258390,-2812.782580,13545.768739
185.632913,-5056.230287,-4071.132681,14211.954086
185.633221,-4443.353888,-4663.297435,16580.613101
185.633529,-5515.887586,-5403.503377,16062.468941
185.633837,-4826.401637,-4737.318029,14804.118840
185.634145,-3294.210641,-5033.400406,14730.098246
185.634453,-2298.286494,-4367.215058,12435.459826
185.634761,-766.095498,-2072.576638,10881.027347
185.635069,1225.752797,-444.123565,9178.553681
185.635377,3907.087040,1258.350101,8882.471304
185.635685,5592.497135,2442.679609,5699.585753
185.635993,5822.325785,4441.235652,3997.112087
185.636301,6818.249932,3849.070898,5551.544565
185.636609,6971.469032,4663.297435,3775.050304
185.636917,6358.592633,5403.503377,4219.173869
185.637225,5515.887586,4441.235652,4885.359217
185.637533,4290.134789,3478.967927,5107.421000
185.637841,3447.429741,3256.906145,6513.812290
185.638149,2451.505594,3256.906145,6661.853478
185.638457,2145.067394,2516.700203,7772.162391
185.638765,-229.828649,962.267725,8956.491898
185.639073,-1302.362347,-74.020594,11991.336260
185.639381,-1762.019645,-1480.411884,12213.398043
185.639689,-3140.991542,-1998.556043,13175.665768
185.639997,-4060.306139,-3182.885551,13915.871710
185.640305,-4903.011187,-3701.029710,13397.727550
185.640612,-3830.477490,-4145.153275,16432.571912
185.640920,-4979.620737,-4515.256246,16062.468941
185.641228,-4443.353888,-3701.029710,14137.933492
185.641536,-3140.991542,-3627.009116,14434.015869
185.641844,-2145.067394,-2960.823768,12583.501014
185.642152,229.828649,-1406.391290,11251.130318
185.642460,1072.533697,296.082377,8956.491898
185.642768,2987.772442,740.205942,8438.347739
185.643076,5132.839837,2368.659014,6587.832884
185.643384,4903.011187,3330.926739,4293.194464
185.643692,5439.278036,2664.741391,6143.709319
185.644000,5286.058936,2368.659014,5477.523971
185.644308,4903.011187,2886.803174,5551.544565
185.644616,4060.306139,2812.782580,5699.585753
185.644924,3907.087040,3034.844362,5625.565159
185.645232,3370.820191,3478.967927,6957.935855
185.645540,3294.210641,3849.070898,6217.729913
185.645848,2834.553343,3997.112087,6809.894666
185.646156,1532.190996,2812.782580,7179.997637
185.646464,229.828649,1702.473667,9400.615463
185.646772,-306.438199,592.164754,10658.965565
185.647080,-1915.238745,-888.247130,12805.562797
185.647388,-3907.087040,-2812.782580,13619.789333
185.647696,-5056.230287,-4515.256246,13767.830521
185.648004,-5056.230287,-4959.379811,16210.510130
185.648312,-5515.887586,-5847.626942,16876.695478
185.648620,-5745.716235,-5625.565159,15026.180623
185.648928,-4213.525239,-5477.523971,15026.180623
185.649236,-2528.115143,-4737.318029,13767.830521
185.649544,-995.924147,-3108.864956,11325.150913
185.649852,1072.533697,-0.000000,9548.656652
185.650160,3830.477490,1184.329507,8734.430116
185.650468,6665.030833,2664.741391,6291.750507
185.650776,5592.497135,5329.482782,3182.885551
185.651084,7354.516781,4515.256246,5033.400406
185.651392,7201.297681,4515.256246,4293.194464
185.651700,5822.325785,5329.482782,3775.050304
185.652008,5592.497135,4515.256246,4959.379811
185.652316,4060.306139,3552.988522,5625.565159
185.652624,2911.162892,3108.864956,6661.853478
185.652932,1991.848295,3256.906145,7105.977043
185.653240,1991.848295,2590.720797,7476.080014
185.653548,-229.828649,962.267725,8364.327145
185.653856,-1532.190996,-74.020594,10881.027347
185.654164,-1685.410096,-1258.350101,12287.418637
185.654472,-3294.210641,-2146.597232,13175.665768
185.654780,-4290.134789,-2812.782580,14211.954086
185.655088,-5439.278036,-3627.009116,13915.871710
185.655395,-4903.011187,-4145.153275,16062.468941
185.655703,-4903.011187,-4367.215058,16358.551318
185.656011,-4826.401637,-3478.967927,14211.954086
185.656319,-3524.039291,-3701.029710,14656.077652
185.656627,-2451.505594,-3627.009116,13397.727550
185.656935,-919.314598,-2368.659014,11843.295072
185.657243,306.438199,-444.123565,10214.842000
185.657551,2451.505594,1036.288319,8808.450710
185.657859,4213.525239,1850.514855,7846.182985
185.658167,4826.401637,3108.864956,4737.318029
185.658475,5056.230287,3330.926739,5107.421000
185.658783,6128.763984,2664.741391,5773.606348
185.659091,5592.497135,4071.132681,4663.297435
185.659399,5132.839837,3997.112087,5033.400406
185.659707,4596.572988,4145.153275,4811.338623
185.660015,3217.601092,3997.112087,5995.668130
185.660323,3294.210641,4441.235652,6291.750507
185.660631,3753.867940,4737.318029,6069.688724
185.660939,2298.286494,3182.885551,6883.915261
185.661247,0.000000,1554.432478,8956.491898
185.661555,-919.314598,-0.000000,11473.192101
185.661863,-1838.629195,-2220.617826,12509.480420
185.662171,-3830.477490,-2886.803174,14211.954086
185.662479,-5056.230287,-4515.256246,14063.912898
185.662787,-5669.106685,-4959.379811,15692.365970
185.663095,-5132.839837,-5847.626942,17616.901420
185.663403,-5056.230287,-5699.585753,15618.345376
185.663711,-4136.915689,-5181.441594,14804.118840
185.664019,-2528.115143,-4663.297435,14063.912898
185.664327,-1532.190996,-3256.906145,11917.315666
185.664635,766.095498,-962.267725,9696.697840
185.664943,3677.258390,1406.391290,8734.430116
185.665251,5439.278036,2368.659014,6513.812290
185.665559,5822.325785,4367.215058,4441.235652
185.665867,6971.469032,4589.276840,4515.256246
185.666175,6894.859482,4441.235652,4293.194464
185.666483,6205.373534,5107.421000,4293.194464
185.666791,5362.668486,4663.297435,4589.276840
185.667099,5132.839837,3627.009116,4737.318029
185.667407,3907.087040,3627.009116,5551.544565
185.667715,2911.162892,3552.988522,6439.791695
185.668023,2681.334243,3552.988522,6809.894666
185.668331,842.705048,1776.494261,7846.182985
185.668639,-1532.190996,148.041188,10436.903782
185.668947,-1608.800546,-888.247130,12213.398043
185.669255,-2221.676944,-2368.659014,13101.645173
185.669563,-4596.572988,-2516.700203,13989.892304
185.669871,-5515.887586,-4071.132681,13767.830521
185.670178,-5132.839837,-4589.276840,15470.304188
185.670486,-5362.668486,-4515.256246,16802.674883
185.670794,-4979.620737,-4367.215058,14656.077652
185.671102,-3907.087040,-4071.132681,14730.098246
185.671410,-2681.334243,-3701.029710,13175.665768
185.671718,-1378.971896,-2442.679609,11917.315666
185.672026,842.705048,-888.247130,10658.965565
185.672334,1685.410096,148.041188,7920.203579
185.672642,4366.744339,814.226536,8068.244768
185.672950,5132.839837,2590.720797,4885.359217
185.673258,4903.011187,3108.864956,5255.462188
185.673566,5745.716235,2220.617826,6143.709319
185.673874,4903.011187,3849.070898,4811.338623
185.674182,5515.887586,3627.009116,4959.379811
185.674490,4979.620737,3923.091493,4441.235652
185.674798,4290.134789,4219.173869,5181.441594
185.675106,3753.867940,4441.235652,5255.462188
185.675414,4060.306139,5033.400406,5995.668130
185.675722,2681.334243,3775.050304,6587.832884
185.676030,536.266849,1924.535449,8512.368333
185.676338,-689.485948,370.102971,11103.089130
185.676646,-1532.190996,-1554.432478,12287.418637
185.676954,-3907.087040,-3108.864956,13693.809927
185.677262,-5209.449386,-4367.215058,14211.954086
185.677570,-6128.763984,-5403.503377,15396.283594
185.677878,-5975.544884,-6291.750507,17838.963202
185.678186,-5975.544884,-6069.688724,16580.613101
185.678494,-4979.620737,-5255.462188,15174.221811
185.678802,-2681.334243,-5107.421000,14952.160028
185.679110,-1149.143247,-3478.967927,11843.295072
185.679418,306.438199,-1184.329507,10066.800811
185.679726,2834.553343,1332.370696,9474.636058
185.680034,5669.106685,2516.700203,7772.162391
185.680342,5209.449386,4663.297435,3627.009116
185.680650,6741.640382,5107.421000,4071.132681
185.680958,7584.345430,4737.318029,4959.379811
185.681266,6205.373534,5403.503377,3552.988522
185.681574,5669.106685,5181.441594,4515.256246
185.681882,5592.497135,3627.009116,4811.338623
185.682190,3524.039291,3627.009116,5699.585753
185.682498,2681.334243,3552.988522,6587.832884
185.682806,2528.115143,3330.926739,7476.080014
185.683114,612.876398,1184.329507,8364.327145
185.683422,-1762.019645,-0.000000,10362.883188
185.683730,-1991.848295,-740.205942,12139.377449
185.684038,-2604.724693,-2072.576638,12435.459826
185.684346,-3907.087040,-2590.720797,13915.871710
185.684654,-4136.915689,-3330.926739,13619.789333
185.684961,-5056.230287,-3849.070898,15100.201217
185.685269,-5209.449386,-4737.318029,16432.571912
185.685577,-4979.620737,-4071.132681,14434.015869
185.685885,-4290.134789,-4145.153275,15100.201217
185.686193,-2604.724693,-4811.338623,13693.809927
185.686501,-2221.676944,-3330.926739,11769.274478
185.686809,76.609550,-1554.432478,10658.965565
185.687117,1072.533697,-222.061783,8882.471304
185.687425,4136.915689,1184.329507,8438.347739
185.687733,5286.058936,2738.761985,5255.462188
185.688041,5209.449386,3108.864956,4811.338623
185.688349,6128.763984,2590.720797,5625.565159
185.688657,5898.935335,3478.967927,4737.318029
185.688965,5669.106685,4441.235652,4145.153275
185.689273,5898.935335,4441.235652,4071.132681
185.689581,4519.963438,4663.297435,4441.235652
185.689889,4213.525239,4737.318029,4959.379811
185.690197,3830.477490,4663.297435,5699.585753
185.690505,2451.505594,3627.009116,6809.894666
185.690813,153.219100,1332.370696,8290.306550
185.691121,-1532.190996,222.061783,11029.068536
185.691429,-1608.800546,-2072.576638,12361.439231
185.691737,-3830.477490,-3627.009116,14211.954086
185.692045,-5209.449386,-3775.050304,14211.954086
185.692353,-5669.106685,-5551.544565,15322.262999
185.692661,-5439.278036,-5847.626942,17394.839637
185.692969,-5822.325785,-5995.668130,16358.551318
185.693277,-4519.963438,-5403.503377,15248.242405
185.693585,-2451.505594,-4885.359217,14359.995275
185.693893,-1532.190996,-3256.906145,11473.192101
185.694201,766.095498,-1036.288319,10288.862594
185.694509,2911.162892,888.247130,9178.553681
185.694817,5745.716235,2072.576638,7772.162391
185.695125,5209.449386,4663.297435,3552.988522
185.695433,6665.030833,4811.338623,4367.215058
185.695741,7124.688131,3775.050304,5255.462188
185.696049,5975.544884,5033.400406,3775.050304
185.696357,5592.497135,4515.256246,5107.421000
185.696665,5362.668486,4219.173869,5107.421000
185.696973,3677.258390,3478.967927,5403.503377
185.697281,2757.943793,3478.967927,6513.812290
185.697589,2604.724693,3775.050304,7328.038826
185.697897,612.876398,2146.597232,7846.182985
185.698205,-919.314598,962.267725,9770.718434
185.698513,-1532.190996,-0.000000,11251.130318
185.698821,-2451.505594,-1702.473667,12435.459826
185.699129,-3600.648841,-2738.761985,13767.830521
185.699437,-4596.572988,-2812.782580,13545.768739
185.699744,-5209.449386,-4145.153275,15248.242405
185.700052,-5286.058936,-4811.338623,16802.674883
185.700360,-5286.058936,-4515.256246,14952.160028
185.700668,-4290.134789,-4663.297435,15322.262999
185.700976,-3600.648841,-4589.276840,14211.954086
185.701284,-1915.238745,-3701.029710,12583.501014
185.701592,76.609550,-1776.494261,10807.006753
185.701900,1072.533697,-74.020594,8660.409521
185.702208,4290.134789,1406.391290,8586.388927
185.702516,5515.887586,3034.844362,5329.482782
185.702824,5515.887586,3923.091493,4441.235652
185.703132,6894.859482,3182.885551,5181.441594
185.703440,6358.592633,3997.112087,4441.235652
185.703748,5745.716235,4145.153275,4663.297435
185.704056,5439.278036,4071.132681,3997.112087
185.704364,4519.963438,4367.215058,4663.297435
185.704672,3677.258390,4145.153275,5699.585753
185.704980,3294.210641,4367.215058,5995.668130
185.705288,1915.238745,3108.864956,7254.018232
185.705596,306.438199,888.247130,9030.512492
185.705904,-842.705048,-74.020594,10807.006753
185.706212,-1838.629195,-1480.411884,12139.377449
185.706520,-3753.867940,-3108.864956,13397.727550
185.706828,-4903.011187,-4145.153275,14137.933492
185.707136,-5822.325785,-5329.482782,15248.242405
185.707444,-5592.497135,-5847.626942,17246.798449
185.707752,-5669.106685,-5847.626942,15692.365970
185.708060,-4979.620737,-4959.379811,14952.160028
185.708368,-3064.381992,-4811.338623,14211.954086
185.708676,-1608.800546,-3404.947333,11843.295072
185.708984,-459.657299,-1036.288319,9992.780217
185.709292,2451.505594,740.205942,9326.594869
185.709600,5745.716235,2220.617826,7328.038826
185.709908,5669.106685,4219.173869,3552.988522
185.710216,6818.249932,4663.297435,4367.215058
185.710524,7201.297681,3478.967927,5403.503377
185.710832,6205.373534,4737.318029,4145.153275
185.711140,5745.716235,4515.256246,4663.297435
185.711448,5286.058936,3478.967927,5181.441594
185.711756,4060.306139,3552.988522,5773.606348
185.712064,2681.334243,3404.947333,6365.771101
185.712372,2604.724693,3404.947333,7031.956449
185.712680,995.924147,1776.494261,8216.285956
185.712988,-459.657299,592.164754,9918.759623
185.713296,-919.314598,-666.185348,12065.356855
185.713604,-1608.800546,-1628.453072,12287.418637
185.713912,-3830.477490,-2072.576638,13471.748144
185.714220,-3983.696590,-2812.782580,13545.768739
185.714527,-4903.011187,-3701.029710,14656.077652
185.714835,-4903.011187,-4219.173869,16506.592507
185.715143,-5132.839837,-4515.256246,15322.262999
185.715451,-4290.134789,-4589.276840,15026.180623
185.715759,-3370.820191,-4737.318029,14656.077652
185.716067,-2451.505594,-3182.885551,12361.439231
185.716375,0.000000,-2072.576638,11547.212695
185.716683,1302.362347,222.061783,9326.594869
185.716991,3447.429741,1702.473667,7179.997637
185.717299,6205.373534,2886.803174,6587.832884
185.717607,5515.887586,3775.050304,3775.050304
185.717915,6435.202183,3997.112087,4367.215058
185.718223,6818.249932,3404.947333,5551.544565
185.718531,5209.449386,4145.153275,4367.215058
185.718839,4443.353888,3849.070898,4737.318029
185.719147,4366.744339,4589.276840,4811.338623
185.719455,3983.696590,4441.235652,5699.585753
185.719763,2911.162892,4589.276840,5403.503377
185.720071,2451.505594,3182.885551,7328.038826
185.720379,383.047749,1258.350101,9400.615463
185.720687,-306.438199,-0.000000,10436.903782
185.720995,-1378.971896,-1554.432478,11695.253884
185.721303,-3217.601092,-3330.926739,12583.501014
185.721611,-4596.572988,-4663.297435,14878.139434
185.721919,-5592.497135,-4959.379811,15026.180623
185.722227,-5822.325785,-5403.503377,16580.613101
185.722535,-5592.497135,-6143.709319,16580.613101
185.722843,-5132.839837,-5403.503377,15248.242405
185.723151,-3983.696590,-4145.153275,14878.139434
185.723459,-2374.896044,-3701.029710,13101.645173
185.723767,-306.438199,-1776.494261,11547.212695
185.724075,2221.676944,1110.308913,8808.450710
185.724383,3983.696590,2664.741391,6069.688724
185.724691,6741.640382,3552.988522,5995.668130
185.724999,6052.154434,5033.400406,3923.091493
185.725307,6588.421283,4737.318029,3775.050304
185.725615,6052.154434,3627.009116,5329.482782
185.725923,4903.011187,4219.173869,4219.173869
185.726231,5439.278036,4071.132681,4959.379811
185.726539,4136.915689,3849.070898,5329.482782
185.726847,3370.820191,3849.070898,6365.771101
185.727155,2757.943793,3849.070898,6365.771101
185.727463,1915.238745,3182.885551,7179.997637
185.727771,76.609550,1258.350101,9696.697840
185.728079,-689.485948,222.061783,10658.965565
185.728387,-1225.752797,-962.267725,11917.315666
185.728695,-3217.601092,-2442.679609,12657.521608
185.729003,-4213.525239,-3849.070898,14434.015869
185.729311,-4979.620737,-4515.256246,15248.242405
185.729619,-5745.716235,-4885.359217,16580.613101
185.729927,-5209.449386,-5477.523971,16580.613101
185.730235,-4903.011187,-4811.338623,15618.345376
185.730543,-4366.744339,-4959.379811,14878.139434
185.730851,-3294.210641,-3775.050304,13249.686362
185.731159,-536.266849,-2072.576638,11991.336260
185.731467,1149.143247,-0.000000,9548.656652
185.731775,3370.820191,1850.514855,6809.894666
185.732083,5362.668486,3182.885551,6291.750507
185.732391,6281.983084,3478.967927,5107.421000
185.732699,5592.497135,4441.235652,3997.112087
185.733007,5745.716235,3182.885551,5329.482782
185.733315,5669.106685,3849.070898,5107.421000
185.733623,4366.744339,4441.235652,4589.276840
185.733931,3753.867940,4145.153275,4737.318029
185.734239,3753.867940,4515.256246,5181.441594
185.734547,3447.429741,4663.297435,5995.668130
185.734855,3830.477490,4885.359217,6291.750507
185.735163,2757.943793,2886.803174,6809.894666
185.735471,0.000000,370.102971,9622.677246
185.735779,-306.438199,-962.267725,11695.253884
185.736087,-2374.896044,-2442.679609,12657.521608
185.736395,-4749.792088,-3849.070898,14211.954086
185.736703,-5362.668486,-5551.544565,15618.345376
185.737011,-6358.592633,-5921.647536,16210.510130
185.737319,-6128.763984,-5995.668130,17912.983796
185.737627,-5669.106685,-6735.874072,16580.613101
185.737935,-3830.477490,-4959.379811,15396.283594
185.738243,-3524.039291,-4293.194464,13619.789333
185.738551,-1302.362347,-2960.823768,12361.439231
185.738859,1685.410096,-222.061783,10214.842000
185.739167,3294.210641,2368.659014,7402.059420
185.739475,5439.278036,3478.967927,6143.709319
185.739783,6894.859482,4441.235652,4737.318029
185.740091,6358.592633,4959.379811,3923.091493
185.740399,6052.154434,4663.297435,4737.318029
185.740707,5592.497135,4071.132681,4589.276840
185.741015,4903.011187,4737.318029,4811.338623
185.741323,3907.087040,4219.173869,4515.256246
185.741631,3217.601092,3775.050304,5477.523971
185.741939,2987.772442,3997.112087,6365.771101
185.742247,3983.696590,4515.256246,6587.832884
185.742555,1685.410096,2590.720797,7254.018232
185.742863,-383.047749,-74.020594,10288.862594
185.743171,-842.705048,-1184.329507,12065.356855
185.743479,-1915.238745,-1924.535449,11695.253884
185.743787,-4519.963438,-3034.844362,13767.830521
185.744095,-4596.572988,-4737.318029,15100.201217
185.744403,-5745.716235,-5107.421000,15544.324782
185.744711,-5439.278036,-5403.503377,17616.901420
185.745019,-5132.839837,-6217.729913,16136.489536
185.745327,-4596.572988,-5033.400406,14878.139434
185.745635,-3447.429741,-4441.235652,14211.954086
185.745943,-2145.067394,-3034.844362,12361.439231
185.746251,-229.828649,-1702.473667,11917.315666
185.746559,1991.848295,888.247130,8808.450710
185.746867,3907.087040,2294.638420,5921.647536
185.747175,5362.668486,2738.761985,5625.565159
185.747483,5975.544884,3404.947333,4959.379811
185.747791,5439.278036,4219.173869,4589.276840
185.748099,4903.011187,3256.906145,5551.544565
185.748407,5132.839837,4885.359217,4367.215058
185.748715,4673.182538,5403.503377,3923.091493
185.749023,4443.353888,4885.359217,4219.173869
185.749331,4060.306139,5033.400406,4885.359217
185.749639,3907.087040,5625.565159,5921.647536
185.749947,3600.648841,4293.194464,5995.668130
185.750255,1608.800546,1850.514855,7550.100608
185.750563,-536.266849,-888.247130,10881.027347
185.750871,-1915.238745,-1850.514855,13027.624579
185.751179,-3294.210641,-3775.050304,13841.851115
185.751487,-5439.278036,-5107.421000,14952.160028
185.751795,-5592.497135,-6217.729913,16136.489536
185.752103,-6435.202183,-6735.874072,17098.757260
185.752411,-5515.887586,-6365.771101,17764.942608
185.752719,-4749.792088,-6365.771101,16432.571912
185.753027,-3370.820191,-4071.132681,14434.015869
185.753335,-1762.019645,-3108.864956,12805.562797
185.753643,383.047749,-1332.370696,11177.109724
185.753951,2451.505594,962.267725,9326.594869
185.754259,4596.572988,2886.803174,6661.853478
185.754567,5592.497135,3701.029710,5107.421000
185.754875,5592.497135,4219.173869,4885.359217
185.755183,5209.449386,4219.173869,4811.338623
185.755491,5286.058936,4515.256246,5551.544565
185.755799,4519.963438,4441.235652,4737.318029
185.756107,4290.134789,4071.132681,5033.400406
185.756415,3524.039291,4737.318029,4811.338623
185.756723,3294.210641,4071.132681,5773.606348
185.757031,3294.210641,4515.256246,6291.750507
185.757339,3447.429741,4293.194464,5921.647536
185.757647,1685.410096,1924.535449,7698.141797
185.757955,-612.876398,-222.061783,11251.130318
185.758263,-995.924147,-1480.411884,11917.315666
185.758571,-2987.772442,-2590.720797,13027.624579
185.758879,-4903.011187,-4145.153275,13915.871710
185.759187,-4826.401637,-5773.606348,16358.551318
185.759495,-6435.202183,-5921.647536,16580.613101
185.759803,-5898.935335,-5847.626942,17246.798449
185.760111,-5515.887586,-5995.668130,16062.468941
185.760419,-4290.134789,-4959.379811,14285.974681
185.760727,-2528.115143,-3775.050304,13323.706956
185.761035,-1378.971896,-2072.576638,11843.295072
185.761343,919.314598,-222.061783,11029.068536
185.761651,3140.991542,1554.432478,7698.141797
185.761959,4673.182538,3404.947333,4737.318029
185.762267,5975.544884,3849.070898,6069.688724
185.762575,6052.154434,3997.112087,4737.318029
185.762882,5669.106685,5033.400406,4367.215058
185.763190,5592.497135,4589.276840,4885.359217
185.763498,5286.058936,5255.462188,3923.091493
185.763806,4290.134789,5181.441594,3849.070898
185.764114,3753.867940,4885.359217,4663.297435
185.764422,4060.306139,4589.276840,5921.647536
185.764730,2911.162892,4293.194464,6291.750507
185.765038,1378.971896,1850.514855,7624.121203
185.765346,-459.657299,-370.102971,10658.965565
185.765654,-1149.143247,-1850.514855,12065.356855
185.765962,-2987.772442,-3256.906145,13471.748144
185.766270,-5286.058936,-4737.318029,14508.036463
185.766578,-5515.887586,-6291.750507,16136.489536
185.766886,-6511.811733,-5847.626942,16580.613101
185.767194,-5745.716235,-6365.771101,16950.716072
185.767502,-4060.306139,-6069.688724,16062.468941
185.767810,-3753.867940,-4515.256246,13915.871710
185.768118,-1838.629195,-3256.906145,12657.521608
185.768426,-306.438199,-1924.535449,11843.295072
185.768734,1532.190996,-74.020594,10288.862594
185.769042,3753.867940,1776.494261,7624.121203
185.769350,4903.011187,3330.926739,5033.400406
185.769658,5975.544884,3182.885551,5477.523971
185.769966,5592.497135,3701.029710,5403.503377
185.770274,5822.325785,4737.318029,4885.359217
185.770582,5286.058936,4293.194464,5181.441594
185.770890,4673.182538,4737.318029,4145.153275
185.771198,4290.134789,5107.421000,4219.173869
185.771506,4749.792088,3997.112087,5107.421000
185.771814,3830.477490,4663.297435,5699.585753
185.772122,3677.258390,5033.400406,6217.729913
185.772430,2221.676944,2886.803174,6809.894666
185.772738,-766.095498,148.041188,10140.821405
185.773046,-919.314598,-1036.288319,11695.253884
185.773354,-2145.067394,-2664.741391,12509.480420
185.773662,-4673.182538,-4441.235652,14137.933492
185.773970,-5439.278036,-5551.544565,15544.324782
185.774278,-6281.983084,-6365.771101,17468.860231
185.774586,-6128.763984,-5995.668130,17320.819043
185.774894,-5056.230287,-6069.688724,16580.613101
185.775202,-4596.572988,-5107.421000,14878.139434
185.775510,-2528.115143,-4293.194464,13841.851115
185.775818,-1762.019645,-2368.659014,11843.295072
185.776126,536.266849,-296.082377,11399.171507
185.776434,3064.381992,1776.494261,8956.491898
185.776742,5132.839837,3701.029710,5329.482782
185.777050,5515.887586,4219.173869,4663.297435
185.777358,6052.154434,3849.070898,4737.318029
185.777666,5132.839837,4737.318029,4441.235652
185.777974,5132.839837,4811.338623,5033.400406
185.778282,4903.011187,4737.318029,4811.338623
185.778590,3830.477490,5255.462188,3701.029710
185.778898,3983.696590,4959.379811,4663.297435
185.779206,4060.306139,4811.338623,5699.585753
185.779514,3677.258390,5033.400406,5699.585753
185.779822,2681.334243,3775.050304,6661.853478
185.780130,459.657299,740.205942,8660.409521
185.780438,-1302.362347,-1480.411884,11769.274478
185.780746,-2451.505594,-2664.741391,12879.583391
185.781054,-4136.915689,-4145.153275,14508.036463
185.781362,-5898.935335,-5699.585753,15396.283594
185.781670,-5515.887586,-6809.894666,16580.613101
185.781978,-5822.325785,-5921.647536,17394.839637
185.782286,-4443.353888,-6365.771101,16580.613101
185.782594,-3294.210641,-4885.359217,14285.974681
185.782902,-2221.676944,-3627.009116,12953.603985
185.783210,-229.828649,-2738.761985,12435.459826
185.783518,1225.752797,-814.226536,9992.780217
185.783826,3677.258390,1110.308913,7920.203579
185.784134,5822.325785,3034.844362,4959.379811
185.784442,6128.763984,3849.070898,4737.318029
185.784750,6358.592633,4145.153275,5403.503377
185.785058,6128.763984,4811.338623,4219.173869
185.785366,6281.983084,5181.441594,4737.318029
185.785674,5209.449386,4663.297435,4071.132681
185.785982,4136.915689,4737.318029,5033.400406
185.786290,3140.991542,3552.988522,6143.709319
185.786598,3217.601092,3701.029710,7179.997637
185.786906,2068.457845,3701.029710,7402.059420
185.787214,536.266849,1998.556043,9030.512492
185.787522,-459.657299,222.061783,10807.006753
185.787830,-1915.238745,-592.164754,11843.295072
185.788138,-3600.648841,-2368.659014,13989.892304
185.788446,-4596.572988,-4441.235652,15248.242405
185.788754,-5898.935335,-4737.318029,14878.139434
185.789062,-6435.202183,-5255.462188,16506.592507
185.789370,-5439.278036,-5773.606348,17246.798449
185.789678,-5439.278036,-5107.421000,16062.468941
185.789986,-4596.572988,-4367.215058,15026.180623
185.790294,-2604.724693,-3552.988522,13545.768739
185.790602,-1455.581446,-1924.535449,11769.274478
185.790910,612.876398,666.185348,9252.574275
185.791218,3600.648841,2368.659014,6883.915261
185.791526,5822.325785,2960.823768,6957.935855
185.791834,6128.763984,3627.009116,4145.153275
185.792142,5745.716235,5033.400406,2442.679609
185.792450,7967.393179,5033.400406,3997.112087
185.792758,6665.030833,4737.318029,3034.844362
185.793066,4826.401637,5033.400406,3182.885551
185.793374,4749.792088,4367.215058,3923.091493
185.793682,3677.258390,3108.864956,5773.606348
185.793990,689.485948,2516.700203,6883.915261
185.794298,1532.190996,2146.597232,8290.306550
185.794606,459.657299,370.102971,9992.780217
185.794914,-1838.629195,-1406.391290,10510.924376
185.795222,-2298.286494,-2146.597232,12509.480420
185.795530,-3217.601092,-3330.926739,13027.624579
185.795838,-4519.963438,-5033.400406,14211.954086
185.796146,-5056.230287,-5329.482782,14952.160028
185.796454,-5209.449386,-5625.565159,15470.304188
185.796762,-4979.620737,-5921.647536,16506.592507
185.797070,-4749.792088,-5107.421000,14508.036463
185.797378,-3217.601092,-3627.009116,13619.789333
185.797686,-1532.190996,-2886.803174,12361.439231
185.797994,229.828649,-1258.350101,9992.780217
185.798302,2681.334243,518.144159,8660.409521
185.798610,3830.477490,1850.514855,6587.832884
185.798918,6128.763984,2664.741391,6217.729913
185.799226,6281.983084,4589.276840,4515.256246
185.799534,6818.249932,4589.276840,3849.070898
185.799842,7048.078582,4441.235652,4589.276840
185.800150,5898.935335,4737.318029,3775.050304
185.800458,5132.839837,4367.215058,4589.276840
185.800766,4060.306139,4071.132681,4959.379811
185.801074,2834.553343,3478.967927,6735.874072
185.801382,1302.362347,2738.761985,7846.182985
185.801690,459.657299,2664.741391,9400.615463
185.801998,0.000000,1184.329507,9696.697840
185.802306,-1225.752797,148.041188,10807.006753
185.802614,-2374.896044,-1480.411884,12583.501014
185.802922,-3600.648841,-2812.782580,13841.851115
185.803230,-4596.572988,-4071.132681,15470.304188
185.803538,-5592.497135,-5033.400406,15618.345376
185.803846,-5822.325785,-5033.400406,16136.489536
185.804154,-4596.572988,-5329.482782,16580.613101
185.804462,-4826.401637,-4293.194464,15618.345376
185.804770,-3600.648841,-3404.947333,14582.057057
185.805078,-1532.190996,-2368.659014,12953.603985
185.805386,76.609550,-518.144159,10436.903782
185.805694,2374.896044,1258.350101,8808.450710
185.806002,4366.744339,2516.700203,6809.894666
185.806310,6971.469032,3849.070898,5921.647536
185.806618,7201.297681,4663.297435,3627.009116
185.806926,7124.688131,5255.462188,3256.906145
185.807234,7124.688131,4663.297435,3997.112087
185.807542,5822.325785,4515.256246,3997.112087
185.807850,4826.401637,3849.070898,4737.318029
185.808158,4136.915689,3404.947333,5551.544565
185.808466,2451.505594,3034.844362,6661.853478
185.808774,1762.019645,2368.659014,8068.244768
185.809082,1225.752797,2146.597232,9770.718434
185.809390,-383.047749,1036.288319,10066.800811
185.809698,-1378.971896,-370.102971,11103.089130
185.810006,-2374.896044,-1406.391290,12139.377449
185.810314,-3600.648841,-2960.823768,13175.665768
185.810622,-4136.915689,-3997.112087,14508.036463
185.810930,-5056.230287,-4663.297435,14952.160028
185.811238,-5592.497135,-4737.318029,15100.201217
185.811546,-5056.230287,-5255.462188,16284.530724
185.811854,-4519.963438,-4959.379811,14508.036463
185.812162,-3600.648841,-3552.988522,13989.892304
185.812470,-1762.019645,-2664.741391,12287.418637
185.812778,383.047749,-1036.288319,10510.924376
185.813086,2987.772442,814.226536,7920.203579
185.813394,4366.744339,2442.679609,6291.750507
185.813702,6741.640382,3034.844362,6069.688724
185.814010,6818.249932,4441.235652,3997.112087
185.814318,6894.859482,4811.338623,3330.926739
185.814626,7048.078582,4589.276840,4293.194464
185.814934,5669.106685,4515.256246,3923.091493
185.815242,4596.572988,3923.091493,4737.318029
185.815550,3524.039291,3478.967927,5921.647536
185.815858,1838.629195,2664.741391,6809.894666
185.816166,612.876398,2220.617826,8142.265362
185.816474,383.047749,1110.308913,9178.553681
185.816782,-612.876398,370.102971,9992.780217
185.817090,-1685.410096,-888.247130,11103.089130
185.817398,-2757.943793,-2072.576638,12287.418637
185.817706,-3600.648841,-3182.885551,13619.789333
185.818014,-4596.572988,-4219.173869,15026.180623
185.818322,-5209.449386,-4885.359217,14582.057057
185.818630,-4443.353888,-4737.318029,15174.221811
185.818938,-4290.134789,-5329.482782,15470.304188
185.819246,-4136.915689,-4367.215058,14285.974681
185.819554,-3064.381992,-3182.885551,13471.748144
185.819862,-1532.190996,-2664.741391,12435.459826
185.820170,0.000000,-814.226536,10214.842000
185.820478,2451.505594,740.205942,8512.368333
185.820786,4596.572988,2368.659014,6809.894666
185.821094,6052.154434,3182.885551,6069.688724
185.821402,6665.030833,4663.297435,3552.988522
185.821710,7048.078582,5033.400406,3701.029710
185.822018,6894.859482,4663.297435,3997.112087
185.822326,5592.497135,4293.194464,3997.112087
185.822633,4596.572988,4293.194464,4811.338623
185.822941,3830.477490,3330.926739,5921.647536
185.823249,2374.896044,2812.782580,7031.956449
185.823557,995.924147,2590.720797,8438.347739
185.823865,612.876398,1924.535449,8808.450710
185.824173,-229.828649,814.226536,10214.842000
185.824481,-1455.581446,-444.123565,11547.212695
185.824789,-2374.896044,-1702.473667,12435.459826
185.825097,-3294.210641,-2960.823768,13323.706956
185.825404,-4060.306139,-4071.132681,14582.057057
185.825712,-4366.744339,-4589.276840,14730.098246
185.826020,-3677.258390,-4515.256246,15322.262999
185.826328,-4519.963438,-4811.338623,15322.262999
185.826636,-3753.867940,-4293.194464,14359.995275
185.826944,-2911.162892,-3108.864956,13767.830521
185.827252,-1225.752797,-2220.617826,12435.459826
185.827560,459.657299,-666.185348,10658.965565
185.827868,2528.115143,1184.329507,8438.347739
185.828175,4443.353888,2294.638420,6735.874072
185.828483,5745.716235,3182.885551,6069.688724
185.828791,6741.640382,4515.256246,4811.338623
185.829099,6818.249932,4663.297435,3775.050304
185.829407,6205.373534,4441.235652,4219.173869
185.829715,5592.497135,4071.132681,4367.215058
185.830023,4136.915689,3849.070898,5107.421000
185.830331,3217.601092,3034.844362,5995.668130
185.830639,1685.410096,2442.679609,7254.018232
185.830946,229.828649,2294.638420,8586.388927
185.831254,229.828649,1258.350101,9474.636058
185.831562,-612.876398,518.144159,10436.903782
185.831870,-1378.971896,-444.123565,11251.130318
185.832178,-2757.943793,-1998.556043,12213.398043
185.832486,-3600.648841,-3108.864956,13471.748144
185.832794,-4903.011187,-4367.215058,14508.036463
185.833102,-4903.011187,-4515.256246,15026.180623
185.833410,-4979.620737,-4589.276840,15248.242405
185.833717,-4673.182538,-4959.379811,15618.345376
185.834025,-4290.134789,-4219.173869,14211.954086
185.834333,-3217.601092,-3552.988522,13619.789333
185.834641,-1608.800546,-2368.659014,11917.315666
185.834949,153.219100,-222.061783,10214.842000
185.835257,2604.724693,962.267725,8068.244768
185.835565,4060.306139,2516.700203,6809.894666
185.835873,6511.811733,3034.844362,5773.606348
185.836181,7277.907231,4219.173869,3923.091493
185.836488,6971.469032,4885.359217,3182.885551
185.836796,6894.859482,4145.153275,4145.153275
185.837104,5592.497135,4145.153275,4293.194464
185.837412,4749.792088,3775.050304,5181.441594
185.837720,3217.601092,3034.844362,5773.606348
185.838028,2298.286494,2442.679609,7105.977043
185.838336,1532.190996,2664.741391,8068.244768
185.838644,612.876398,1850.514855,9622.677246
185.838952,-383.047749,666.185348,9992.780217
185.839259,-1838.629195,-666.185348,11103.089130
185.839567,-2451.505594,-2072.576638,12805.562797
185.839875,-3447.429741,-2960.823768,13249.686362
185.840183,-4060.306139,-3997.112087,14804.118840
185.840491,-4903.011187,-4737.318029,14730.098246
185.840799,-4596.572988,-4589.276840,15248.242405
185.841107,-4060.306139,-4737.318029,15766.386565
185.841415,-3753.867940,-4293.194464,14359.995275
185.841723,-2911.162892,-3108.864956,13397.727550
185.842030,-1225.752797,-2220.617826,11917.315666
185.842338,842.705048,-666.185348,10066.800811
185.842646,2604.724693,666.185348,8216.285956
185.842954,4136.915689,2738.761985,6587.832884
185.843262,6435.202183,3108.864956,5847.626942
185.843570,7431.126331,3923.091493,4219.173869
185.843878,6665.030833,4663.297435,3627.009116
185.844186,6818.249932,4367.215058,4515.256246
185.844494,5745.716235,3849.070898,4515.256246
185.844801,4136.915689,4071.132681,4885.359217
185.845109,3677.258390,3256.906145,6513.812290
185.845417,2451.505594,2738.761985,7328.038826
185.845725,1149.143247,2886.803174,8734.430116
185.846033,842.705048,2442.679609,9326.594869
185.846341,-459.657299,1110.308913,10214.842000
185.846649,-1685.410096,-444.123565,11473.192101
185.846957,-2604.724693,-1628.453072,12287.418637
185.847264,-3524.039291,-2960.823768,13545.768739
185.847572,-4596.572988,-4293.194464,14878.139434
185.847880,-5209.449386,-4663.297435,14878.139434
185.848188,-5209.449386,-4663.297435,15840.407159
185.848496,-5439.278036,-5033.400406,15766.386565
185.848804,-4826.401637,-4441.235652,14730.098246
185.849112,-3753.867940,-3478.967927,13693.809927
185.849420,-1455.581446,-2442.679609,12435.459826
185.849728,76.609550,-740.205942,10288.862594
185.850035,2834.553343,1258.350101,8882.471304
185.850343,3753.867940,2442.679609,6439.791695
185.850651,6128.763984,3034.844362,5921.647536
185.850959,7354.516781,4737.318029,4071.132681
185.851267,7048.078582,5329.482782,3108.864956
185.851575,6741.640382,4441.235652,4145.153275
185.851883,5439.278036,4219.173869,4071.132681
185.852191,4749.792088,3775.050304,5255.462188
185.852499,3064.381992,2812.782580,5995.668130
185.852806,2068.457845,2516.700203,7105.977043
185.853114,919.314598,2220.617826,8068.244768
185.853422,306.438199,1628.453072,9326.594869
185.853730,-306.438199,740.205942,9992.780217
185.854038,-1762.019645,-148.041188,11251.130318
185.854346,-2451.505594,-1480.411884,12361.439231
185.854654,-3677.258390,-3034.844362,13323.706956
185.854962,-4060.306139,-3849.070898,14656.077652
185.855270,-4673.182538,-4737.318029,14804.118840
185.855577,-4673.182538,-4441.235652,15100.201217
185.855885,-4903.011187,-4589.276840,15618.345376
185.856193,-4290.134789,-4219.173869,14434.015869
185.856501,-3600.648841,-3256.906145,13249.686362
185.856809,-1072.533697,-2220.617826,11621.233289
185.857117,383.047749,-962.267725,9696.697840
185.857425,2681.334243,666.185348,8734.430116
185.857733,4136.915689,1258.350101,6809.894666
185.858041,5898.935335,2664.741391,5847.626942
185.858348,6741.640382,3701.029710,4663.297435
185.858656,6588.421283,4441.235652,3775.050304
185.858964,6511.811733,4071.132681,4737.318029
185.859272,5592.497135,3923.091493,4441.235652
185.859580,4519.963438,3923.091493,4811.338623
185.859888,3294.210641,3404.947333,5995.668130
185.860196,2451.505594,2590.720797,6957.935855
185.860504,1455.581446,2368.659014,7846.182985
185.860812,766.095498,1924.535449,9030.512492
185.861119,-229.828649,1184.329507,10362.883188
185.861427,-1685.410096,-296.082377,11399.171507
185.861735,-2911.162892,-1850.514855,12435.459826
185.862043,-3983.696590,-2738.761985,13915.871710
185.862351,-4519.963438,-4145.153275,15026.180623
185.862659,-4673.182538,-4367.215058,14730.098246
185.862967,-4519.963438,-4515.256246,15248.242405
185.863275,-4519.963438,-4589.276840,15988.448347
185.863583,-4366.744339,-4219.173869,14730.098246
185.863890,-3064.381992,-3404.947333,13693.809927
185.864198,-1455.581446,-2368.659014,12213.398043
185.864506,842.705048,-518.144159,10140.821405
185.864814,2834.553343,1258.350101,8216.285956
185.865122,4290.134789,2368.659014,6587.832884
185.865430,6665.030833,3330.926739,6513.812290
185.865738,6588.421283,4441.235652,3034.844362
185.866046,6818.249932,4441.235652,3701.029710
185.866354,7354.516781,4071.132681,4589.276840
185.866661,5515.887586,4071.132681,4589.276840
185.866969,3753.867940,3404.947333,4737.318029
185.867277,3753.867940,2738.761985,5773.606348
185.867585,2528.115143,2886.803174,6957.935855
185.867893,995.924147,2442.679609,7550.100608
185.868201,1225.752797,2072.576638,8808.450710
185.868509,-153.219100,1480.411884,9770.718434
185.868817,-1378.971896,-148.041188,11325.150913
185.869125,-2374.896044,-1110.308913,12213.398043
185.869432,-2987.772442,-2368.659014,13471.748144
185.869740,-3600.648841,-3552.988522,14211.954086
185.870048,-4596.572988,-4515.256246,14211.954086
185.870356,-4673.182538,-4293.194464,14952.160028
185.870664,-4673.182538,-4959.379811,15396.283594
185.870972,-4060.306139,-4293.194464,14359.995275
185.871280,-3140.991542,-3627.009116,13545.768739
185.871588,-1532.190996,-2738.761985,12287.418637
185.871896,153.219100,-1332.370696,10658.965565
185.872203,2681.334243,-0.000000,9104.533087
185.872511,4443.353888,1702.473667,7328.038826
185.872819,6205.373534,2516.700203,5847.626942
185.873127,6511.811733,3923.091493,4885.359217
185.873435,6588.421283,4145.153275,3849.070898
185.873743,6588.421283,4071.132681,4071.132681
185.874051,5898.935335,4441.235652,3849.070898
185.874359,4596.572988,4515.256246,4663.297435
185.874667,3677.258390,3849.070898,4959.379811
185.874974,3294.210641,3108.864956,6883.915261
185.875282,1455.581446,2664.741391,7476.080014
185.875590,995.924147,2368.659014,8734.430116
185.875898,-766.095498,1406.391290,9918.759623
185.876206,-1762.019645,-296.082377,11325.150913
185.876514,-3064.381992,-1628.453072,12731.542202
185.876822,-4443.353888,-3330.926739,14137.933492
185.877130,-4826.401637,-4811.338623,15248.242405
185.877438,-5056.230287,-4737.318029,14952.160028
185.877745,-5362.668486,-4367.215058,16062.468941
185.878053,-5132.839837,-5181.441594,16210.510130
185.878361,-4826.401637,-4367.215058,14952.160028
185.878669,-3447.429741,-3552.988522,13989.892304
185.878977,-1762.019645,-2738.761985,12287.418637
185.879285,0.000000,-1184.329507,10658.965565
185.879593,2451.505594,592.164754,9326.594869
185.879901,3294.210641,2146.597232,7402.059420
185.880209,6052.154434,2738.761985,6439.791695
185.880516,6588.421283,4663.297435,3701.029710
185.880824,7354.516781,5329.482782,3701.029710
185.881132,7048.078582,4663.297435,4145.153275
185.881440,6052.154434,4441.235652,3552.988522
185.881748,5056.230287,4293.194464,4663.297435
185.882056,3830.477490,3478.967927,5551.544565
185.882364,2604.724693,2960.823768,7031.956449
185.882672,1455.581446,2664.741391,7698.141797
185.882980,459.657299,2072.576638,9326.594869
185.883287,-766.095498,1110.308913,9844.739029
185.883595,-1378.971896,-0.000000,11251.130318
185.883903,-2374.896044,-1184.329507,12065.356855
185.884211,-3370.820191,-2442.679609,13249.686362
185.884519,-3677.258390,-3478.967927,14656.077652
185.884827,-4366.744339,-4071.132681,14582.057057
185.885135,-4596.572988,-4589.276840,14952.160028
185.885443,-4673.182538,-4959.379811,15322.262999
185.885751,-3983.696590,-4515.256246,14582.057057
185.886058,-3600.648841,-4219.173869,13989.892304
185.886366,-1915.238745,-3552.988522,12879.583391
185.886674,383.047749,-1850.514855,10807.006753
185.886982,2068.457845,-296.082377,8438.347739
185.887290,4060.306139,1258.350101,7402.059420
185.887598,6971.469032,2442.679609,6143.709319
185.887906,6741.640382,3701.029710,3701.029710
185.888214,7660.954980,4515.256246,3330.926739
185.888522,7584.345430,4589.276840,3330.926739
185.888829,6435.202183,4885.359217,3330.926739
185.889137,5439.278036,4515.256246,4367.215058
185.889445,4136.915689,3997.112087,4885.359217
185.889753,2911.162892,3034.844362,6587.832884
185.890061,612.876398,2738.761985,7994.224174
185.890369,0.000000,2220.617826,9474.636058
185.890677,-766.095498,740.205942,10362.883188
185.890985,-2145.067394,-962.267725,11843.295072
185.891293,-3677.258390,-2072.576638,12731.542202
185.891600,-4826.401637,-3404.947333,14211.954086
185.891908,-4979.620737,-4737.318029,15026.180623
185.892216,-5439.278036,-4071.132681,14656.077652
185.892524,-5056.230287,-4145.153275,15396.283594
185.892832,-4903.011187,-4663.297435,15692.365970
185.893140,-4519.963438,-4071.132681,14804.118840
185.893448,-3294.210641,-3478.967927,13915.871710
185.893756,-1608.800546,-2516.700203,12287.418637
185.894064,0.000000,-888.247130,10288.862594
185.894371,1991.848295,740.205942,8438.347739
185.894679,4749.792088,1924.535449,7254.018232
185.894987,6205.373534,3552.988522,5921.647536
185.895295,6358.592633,4515.256246,3775.050304
185.895603,7584.345430,4737.318029,3627.009116
185.895911,7201.297681,4293.194464,4441.235652
185.896219,5669.106685,4441.235652,4145.153275
185.896527,4826.401637,3701.029710,5181.441594
185.896835,3524.039291,3849.070898,6513.812290
185.897142,1991.848295,3182.885551,7105.977043
185.897450,1455.581446,2664.741391,8142.265362
185.897758,383.047749,2294.638420,9474.636058
185.898066,-1072.533697,1258.350101,10362.883188
185.898374,-1608.800546,-0.000000,11251.130318
185.898682,-2221.676944,-1110.308913,12139.377449
185.898990,-3447.429741,-2664.741391,13249.686362
185.899298,-3983.696590,-3478.967927,14359.995275
185.899605,-4366.744339,-4071.132681,14656.077652
185.899913,-4596.572988,-4515.256246,15248.242405
185.900221,-4596.572988,-5181.441594,15470.304188
185.900529,-4136.915689,-4885.359217,15470.304188
185.900837,-3830.477490,-4441.235652,14211.954086
185.901145,-1378.971896,-3256.906145,12361.439231
185.901453,766.095498,-1850.514855,10436.903782
185.901761,2681.334243,-0.000000,8438.347739
185.902069,4290.134789,2146.597232,6365.771101
185.902376,6894.859482,3478.967927,5329.482782
185.902684,7354.516781,4515.256246,3923.091493
185.902992,7354.516781,5107.421000,3108.864956
185.903300,7277.907231,5033.400406,3552.988522
185.903608,5975.544884,4367.215058,3775.050304
185.903916,4443.353888,4367.215058,4737.318029
185.904224,2987.772442,3923.091493,5773.606348
185.904532,1838.629195,2812.782580,7476.080014
185.904840,0.000000,1924.535449,8586.388927
185.905147,-536.266849,1628.453072,9770.718434
185.905455,-1378.971896,370.102971,10807.006753
185.905763,-2681.334243,-1258.350101,11769.274478
185.906071,-3753.867940,-2368.659014,13397.727550
185.906379,-4290.134789,-3849.070898,14582.057057
185.906687,-4903.011187,-4441.235652,14656.077652
185.906995,-4903.011187,-4589.276840,14285.974681
185.907303,-4903.011187,-4589.276840,15026.180623
185.907611,-4366.744339,-4737.318029,14952.160028
185.907918,-4366.744339,-4071.132681,13989.892304
185.908226,-2757.943793,-3182.885551,12879.583391
185.908534,-766.095498,-2220.617826,11621.233289
185.908842,842.705048,-444.123565,9326.594869
185.909150,3447.429741,1554.432478,7846.182985
185.909458,4903.011187,2664.741391,7105.977043
185.909766,5822.325785,3775.050304,5773.606348
185.910074,6281.983084,4589.276840,3701.029710
185.910382,7048.078582,4441.235652,3997.112087
185.910689,6894.859482,3997.112087,4071.132681
185.910997,5439.278036,3775.050304,4441.235652
185.911305,4519.963438,3108.864956,5329.482782
185.911613,2987.772442,2146.597232,6439.791695
185.911921,1838.629195,2516.700203,7920.203579
185.912229,689.485948,1850.514855,8586.388927
185.912537,0.000000,1554.432478,10066.800811
185.912845,-689.485948,666.185348,10214.842000
185.913153,-1762.019645,-148.041188,11399.171507
185.913460,-2681.334243,-1184.329507,12287.418637
185.913768,-3140.991542,-2442.679609,13693.809927
185.914076,-3983.696590,-3330.926739,14211.954086
185.914384,-3907.087040,-3552.988522,14804.118840
185.914692,-4290.134789,-4071.132681,14952.160028
185.915000,-4213.525239,-4367.215058,14878.139434
185.915308,-2987.772442,-4293.194464,14952.160028
185.915616,-3294.210641,-3182.885551,12879.583391
185.915924,-995.924147,-2516.700203,12139.377449
185.916231,1302.362347,-666.185348,10732.986159
185.916539,2681.334243,888.247130,8290.306550
185.916847,4443.353888,1776.494261,6809.894666
185.917155,5898.935335,3330.926739,5255.462188
185.917463,7277.907231,3849.070898,4885.359217
185.917771,6741.640382,4885.359217,3701.029710
185.918079,7201.297681,4737.318029,3923.091493
185.918387,6281.983084,4515.256246,4441.235652
185.918695,4749.792088,4367.215058,4885.359217
185.919002,3677.258390,4145.153275,6809.894666
185.919310,1915.238745,3256.906145,7772.162391
185.919618,612.876398,2368.659014,8882.471304
185.919926,-536.266849,1702.473667,9548.656652
185.920234,-995.924147,518.144159,10881.027347
185.920542,-2451.505594,-814.226536,11843.295072
185.920850,-3447.429741,-2590.720797,13101.645173
185.921158,-4443.353888,-3627.009116,14063.912898
185.921465,-4366.744339,-4441.235652,14434.015869
185.921773,-4443.353888,-4663.297435,14434.015869
185.922081,-4443.353888,-4071.132681,14804.118840
185.922389,-4366.744339,-4663.297435,14878.139434
185.922697,-3753.867940,-3997.112087,14211.954086
185.923005,-2911.162892,-2960.823768,13175.665768
185.923313,-995.924147,-2368.659014,11621.233289
185.923621,842.705048,-148.041188,9474.636058
185.923929,3294.210641,1850.514855,7402.059420
185.924236,3907.087040,2812.782580,6365.771101
185.924544,5745.716235,3775.050304,5329.482782
185.924852,6435.202183,4219.173869,3849.070898
185.925160,6435.202183,4293.194464,3997.112087
185.925468,6052.154434,4071.132681,4219.173869
185.925776,5592.497135,2960.823768,5255.462188
185.926084,3217.601092,2442.679609,5847.626942
185.926392,2681.334243,2146.597232,6291.750507
185.926700,1685.410096,1850.514855,7550.100608
185.927007,459.657299,1480.411884,9030.512492
185.927315,0.000000,1184.329507,9474.636058
185.927623,-689.485948,888.247130,9622.677246
185.927931,-1225.752797,-0.000000,11103.089130
185.928239,-2451.505594,-1406.391290,11843.295072
185.928547,-2451.505594,-1998.556043,12509.480420
185.928855,-3370.820191,-2812.782580,13767.830521
185.929163,-4213.525239,-3627.009116,14285.974681
185.929471,-4366.744339,-4071.132681,14285.974681
185.929778,-4443.353888,-4589.276840,15174.221811
185.930086,-4519.963438,-4441.235652,15100.201217
185.930394,-3830.477490,-3775.050304,14211.954086
185.930702,-1225.752797,-2294.638420,12805.562797
185.931010,536.266849,-962.267725,10066.800811
185.931318,2834.553343,518.144159,8290.306550
185.931626,5209.449386,2294.638420,6439.791695
185.931934,6358.592633,3775.050304,5403.503377
185.932242,7507.735880,4219.173869,4515.256246
185.932549,7354.516781,5107.421000,3330.926739
185.932857,7201.297681,4737.318029,4293.194464
185.933165,6052.154434,4219.173869,4515.256246
185.933473,4443.353888,4145.153275,5033.400406
185.933781,3677.258390,2738.761985,6661.853478
185.934089,1915.238745,2294.638420,7105.977043
185.934397,612.876398,1776.494261,9474.636058
185.934705,-536.266849,1406.391290,9918.759623
185.935013,-1378.971896,518.144159,11325.150913
185.935320,-2681.334243,-962.267725,12435.459826
185.935628,-3830.477490,-2368.659014,12953.603985
185.935936,-3907.087040,-2886.803174,14211.954086
185.936244,-4519.963438,-3775.050304,14434.015869
185.936552,-5669.106685,-3701.029710,14063.912898
185.936860,-4519.963438,-3923.091493,14730.098246
185.937168,-4060.306139,-3923.091493,14878.139434
185.937476,-3830.477490,-3478.967927,14063.912898
185.937784,-2221.676944,-2886.803174,12657.521608
185.938091,-306.438199,-1776.494261,10955.047942
185.938399,1149.143247,296.082377,8882.471304
185.938707,3294.210641,1110.308913,7698.141797
185.939015,5515.887586,1850.514855,6291.750507
185.939323,5745.716235,3330.926739,4589.276840
185.939631,7124.688131,3627.009116,4293.194464
185.939939,7201.297681,3701.029710,4071.132681
185.940247,6205.373534,2738.761985,4367.215058
185.940555,5132.839837,2516.700203,5181.441594
185.940862,3217.601092,2072.576638,5995.668130
185.941170,2068.457845,1110.308913,7254.018232
185.941478,1149.143247,1036.288319,8290.306550
185.941786,536.266849,1036.288319,9326.594869
185.942094,-689.485948,962.267725,10066.800811
185.942402,-1302.362347,740.205942,10807.006753
185.942710,-1608.800546,222.061783,11177.109724
185.943018,-2298.286494,-74.020594,11917.315666
185.943326,-2221.676944,-962.267725,13027.624579
185.943633,-2987.772442,-1776.494261,12953.603985
185.943941,-3447.429741,-2516.700203,13397.727550
185.944249,-3370.820191,-3108.864956,13989.892304
185.944557,-3600.648841,-3627.009116,14137.933492
185.944865,-3983.696590,-4071.132681,13693.809927
185.945173,-2834.553343,-3775.050304,13027.624579
185.945481,-536.266849,-3034.844362,11695.253884
185.945789,689.485948,-1480.411884,9992.780217
185.946097,2374.896044,666.185348,8512.368333
185.946404,4519.963438,1406.391290,7105.977043
185.946712,6281.983084,2442.679609,5847.626942
