#time,accel_x,accel_y,accel_z
299.832029,459.657299,444.123565,9622.677246
299.832337,766.095498,518.144159,9992.780217
299.832645,612.876398,222.061783,9770.718434
299.832953,383.047749,666.185348,9696.697840
299.833260,612.876398,444.123565,9474.636058
299.833568,536.266849,148.041188,9548.656652
299.833876,766.095498,296.082377,9474.636058
299.834184,689.485948,222.061783,9548.656652
299.834492,612.876398,-0.000000,9474.636058
299.834800,459.657299,-0.000000,9474.636058
299.835108,842.705048,148.041188,9696.697840
299.835415,689.485948,370.102971,9548.656652
299.835723,229.828649,-74.020594,9474.636058
299.836031,612.876398,148.041188,9548.656652
299.836339,459.657299,-0.000000,9474.636058
299.836647,612.876398,-0.000000,9622.677246
299.836955,0.000000,222.061783,9622.677246
299.837263,612.876398,-0.000000,9696.697840
299.837570,536.266849,222.061783,9918.759623
299.837878,459.657299,-0.000000,9400.615463
299.838186,919.314598,-0.000000,9622.677246
299.838494,383.047749,148.041188,9548.656652
299.838802,689.485948,148.041188,9548.656652
299.839110,306.438199,-0.000000,9548.656652
299.839418,612.876398,370.102971,9918.759623
299.839725,536.266849,-0.000000,9474.636058
299.840033,229.828649,-0.000000,9474.636058
299.840341,536.266849,-0.000000,9474.636058
299.840649,689.485948,222.061783,9696.697840
299.840957,459.657299,370.102971,9622.677246
299.841265,612.876398,148.041188,9622.677246
299.841573,459.657299,222.061783,9548.656652
299.841881,766.095498,222.061783,9844.739029
299.842188,612.876398,444.123565,9918.759623
299.842496,612.876398,-0.000000,9844.739029
299.842804,919.314598,-0.000000,9918.759623
299.843112,459.657299,-74.020594,10066.800811
299.843420,766.095498,-444.123565,10214.842000
299.843728,306.438199,-592.164754,9696.697840
299.844036,612.876398,-370.102971,9844.739029
299.844343,1072.533697,-296.082377,10510.924376
299.844651,1302.362347,-148.041188,10066.800811
299.844959,1455.581446,-222.061783,9178.553681
299.845267,1762.019645,222.061783,9104.533087
299.845575,1915.238745,518.144159,9104.533087
299.845883,2068.457845,518.144159,9104.533087
299.846191,1762.019645,444.123565,9178.553681
299.846498,1608.800546,-0.000000,9326.594869
299.846806,1532.190996,-222.061783,9770.718434
299.847114,1608.800546,222.061783,10362.883188
299.847422,1838.629195,-296.082377,9992.780217
299.847730,1838.629195,-370.102971,9696.697840
299.848038,2068.457845,-518.144159,9548.656652
299.848346,2145.067394,-0.000000,9992.780217
299.848653,2145.067394,-148.041188,9918.759623
299.848961,2374.896044,-0.000000,9770.718434
299.849269,2528.115143,296.082377,9178.553681
299.849577,2681.334243,592.164754,9252.574275
299.849885,2451.505594,444.123565,9326.594869
299.850193,2221.676944,296.082377,9548.656652
299.850501,3140.991542,518.144159,9400.615463
299.850808,2911.162892,518.144159,9474.636058
299.851116,2604.724693,222.061783,9548.656652
299.851424,2911.162892,-0.000000,9474.636058
299.851732,2681.334243,148.041188,9770.718434
299.852040,2757.943793,148.041188,9992.780217
299.852348,3370.820191,-222.061783,9770.718434
299.852656,2834.553343,-370.102971,10066.800811
299.852964,3370.820191,-0.000000,9918.759623
299.853271,3524.039291,-0.000000,9918.759623
299.853579,3753.867940,-0.000000,9622.677246
299.853887,3753.867940,-0.000000,9474.636058
299.854195,4673.182538,-74.020594,9548.656652
299.854503,4443.353888,370.102971,9474.636058
299.854811,4213.525239,740.205942,9474.636058
299.855119,4596.572988,444.123565,9326.594869
299.855426,4443.353888,296.082377,9400.615463
299.855734,4519.963438,222.061783,9326.594869
299.856042,4596.572988,370.102971,9326.594869
299.856350,4519.963438,222.061783,9548.656652
299.856658,4519.963438,222.061783,9622.677246
299.856966,4673.182538,296.082377,9548.656652
299.857274,4519.963438,296.082377,9326.594869
299.857581,4903.011187,444.123565,9326.594869
299.857889,4673.182538,962.267725,9178.553681
299.858197,4826.401637,1184.329507,9104.533087
299.858505,4596.572988,1258.350101,9474.636058
299.858813,3830.477490,1110.308913,9400.615463
299.859121,4213.525239,1036.288319,8660.409521
299.859429,3983.696590,-0.000000,9474.636058
299.859736,4366.744339,1110.308913,9918.759623
299.860044,3140.991542,518.144159,9474.636058
299.860352,2987.772442,370.102971,10140.821405
299.860660,2757.943793,518.144159,9622.677246
299.860968,2374.896044,370.102971,10510.924376
299.861276,2757.943793,592.164754,10436.903782
299.861584,2145.067394,222.061783,9622.677246
299.861891,2681.334243,814.226536,10362.883188
299.862199,1149.143247,592.164754,9622.677246
299.862507,2145.067394,444.123565,10066.800811
299.862815,1915.238745,148.041188,9770.718434
299.863123,1608.800546,-0.000000,10214.842000
299.863431,1149.143247,-592.164754,10510.924376
299.863739,1302.362347,-814.226536,10510.924376
299.864046,1838.629195,-1258.350101,10436.903782
299.864354,1455.581446,-1776.494261,10807.006753
299.864662,2145.067394,-1776.494261,10510.924376
299.864970,2757.943793,-1628.453072,10214.842000
299.865278,3140.991542,-1776.494261,9844.739029
299.865586,3294.210641,-1628.453072,9770.718434
299.865894,3447.429741,-1110.308913,9400.615463
299.866202,3907.087040,-518.144159,9104.533087
299.866509,4673.182538,-222.061783,9178.553681
299.866817,4979.620737,592.164754,8882.471304
299.867125,4749.792088,814.226536,8586.388927
299.867433,4903.011187,370.102971,8364.327145
299.867741,4596.572988,592.164754,8142.265362
299.868049,4290.134789,222.061783,8438.347739
299.868357,4136.915689,222.061783,8956.491898
299.868664,3677.258390,-0.000000,9474.636058
299.868972,3294.210641,-74.020594,9844.739029
299.869280,3064.381992,-0.000000,9622.677246
299.869588,2987.772442,370.102971,9548.656652
299.869896,2834.553343,1184.329507,8808.450710
299.870204,3983.696590,2590.720797,8808.450710
299.870512,4060.306139,2738.761985,8512.368333
299.870819,4136.915689,2738.761985,8364.327145
299.871127,4060.306139,2442.679609,8734.430116
299.871435,3447.429741,1110.308913,10362.883188
299.871743,2451.505594,-0.000000,10807.006753
299.872051,1608.800546,-1110.308913,11843.295072
299.872359,1225.752797,-2516.700203,12879.583391
299.872667,536.266849,-3256.906145,13175.665768
299.872974,1225.752797,-3552.988522,13249.686362
299.873282,2068.457845,-2960.823768,12361.439231
299.873590,3140.991542,-1998.556043,10658.965565
299.873898,4826.401637,-518.144159,9844.739029
299.874206,7277.907231,1036.288319,8438.347739
299.874514,6511.811733,2220.617826,5921.647536
299.874822,7814.174080,3627.009116,6291.750507
299.875129,8120.612279,4293.194464,5699.585753
299.875437,7124.688131,4737.318029,5107.421000
299.875745,6435.202183,4663.297435,5773.606348
299.876053,4979.620737,4219.173869,6957.935855
299.876361,3294.210641,2590.720797,8142.265362
299.876669,2451.505594,370.102971,9326.594869
299.876977,1762.019645,-518.144159,10955.047942
299.877285,229.828649,-1924.535449,12657.521608
299.877592,-383.047749,-3775.050304,13693.809927
299.877900,-229.828649,-3627.009116,13915.871710
299.878208,306.438199,-4515.256246,13841.851115
299.878516,1455.581446,-3627.009116,12879.583391
299.878824,2681.334243,-2664.741391,12139.377449
299.879132,4826.401637,-2294.638420,10955.047942
299.879440,5209.449386,-444.123565,8660.409521
299.879747,6052.154434,1110.308913,7846.182985
299.880055,6588.421283,2146.597232,6735.874072
299.880363,6665.030833,3256.906145,6069.688724
299.880671,6358.592633,3849.070898,5329.482782
299.880979,6128.763984,3701.029710,5847.626942
299.881287,5745.716235,2220.617826,7328.038826
299.881595,2987.772442,1258.350101,7402.059420
299.881902,2987.772442,-1332.370696,10214.842000
299.882210,919.314598,-2960.823768,12065.356855
299.882518,76.609550,-4145.153275,13471.748144
299.882826,383.047749,-4293.194464,13545.768739
299.883134,995.924147,-2590.720797,12287.418637
299.883442,3294.210641,-1184.329507,11621.233289
299.883750,5209.449386,1850.514855,8068.244768
299.884057,7124.688131,3552.988522,5921.647536
299.884365,7507.735880,5625.565159,4515.256246
299.884673,8120.612279,6735.874072,4219.173869
299.884981,7354.516781,6661.853478,5255.462188
299.885289,5592.497135,5107.421000,6069.688724
299.885597,3370.820191,1776.494261,9622.677246
299.885905,459.657299,-518.144159,10955.047942
299.886212,-3140.991542,-3775.050304,13249.686362
299.886520,-4060.306139,-5255.462188,16580.613101
299.886828,-4519.963438,-7254.018232,17468.860231
299.887136,-3907.087040,-6513.812290,17764.942608
299.887444,-1608.800546,-3923.091493,14063.912898
299.887752,1225.752797,-1406.391290,10658.965565
299.888060,3983.696590,1554.432478,7402.059420
299.888368,6358.592633,4737.318029,5699.585753
299.888675,8733.488677,6439.791695,4367.215058
299.888983,8656.879127,6217.729913,2368.659014
299.889291,8273.831378,6439.791695,2960.823768
299.889599,5056.230287,3478.967927,5699.585753
299.889907,1915.238745,-370.102971,8956.491898
299.890215,-995.924147,-3775.050304,11991.336260
299.890523,-3983.696590,-6217.729913,14508.036463
299.890830,-4290.134789,-7476.080014,15544.324782
299.891138,-3294.210641,-6809.894666,14508.036463
299.891446,0.000000,-3552.988522,12509.480420
299.891754,3677.258390,-592.164754,9548.656652
299.892062,5362.668486,1850.514855,6735.874072
299.892370,7354.516781,4293.194464,5773.606348
299.892678,8350.440928,6217.729913,4441.235652
299.892985,7431.126331,5847.626942,4737.318029
299.893293,5515.887586,5033.400406,6217.729913
299.893601,3140.991542,2294.638420,7994.224174
299.893909,229.828649,-962.267725,11473.192101
299.894217,-2451.505594,-3330.926739,14285.974681
299.894525,-4826.401637,-4737.318029,14952.160028
299.894833,-5439.278036,-5403.503377,15322.262999
299.895140,-4366.744339,-5181.441594,14508.036463
299.895448,-612.876398,-2072.576638,12139.377449
299.895756,2221.676944,-0.000000,9400.615463
299.896064,4443.353888,1110.308913,6957.935855
299.896372,5592.497135,3404.947333,6069.688724
299.896680,6741.640382,4293.194464,6217.729913
299.896988,5745.716235,4367.215058,6069.688724
299.897295,3830.477490,3404.947333,7624.121203
299.897603,2374.896044,2960.823768,8216.285956
299.897911,1225.752797,2368.659014,8586.388927
299.898219,459.657299,1998.556043,9474.636058
299.898527,1838.629195,1110.308913,10362.883188
299.898835,919.314598,296.082377,9474.636058
299.899143,1378.971896,222.061783,9918.759623
299.899451,1532.190996,-1184.329507,10510.924376
299.899759,76.609550,-2368.659014,11325.150913
299.900067,-919.314598,-3849.070898,12065.356855
299.900375,-1532.190996,-3923.091493,12583.501014
299.900683,-1915.238745,-2812.782580,12213.398043
299.900991,-2145.067394,-1406.391290,10732.986159
299.901299,-612.876398,1184.329507,9548.656652
299.901607,383.047749,2812.782580,8956.491898
299.901915,1608.800546,3034.844362,7179.997637
299.902223,2834.553343,4071.132681,6735.874072
299.902531,3064.381992,2812.782580,6883.915261
299.902839,1685.410096,-0.000000,8586.388927
299.903147,766.095498,-1924.535449,10362.883188
299.903455,-1608.800546,-4441.235652,12435.459826
299.903763,-2757.943793,-4737.318029,12509.480420
299.904071,-2068.457845,-3552.988522,11991.336260
299.904379,-612.876398,-1702.473667,11029.068536
299.904687,1378.971896,592.164754,9104.533087
299.904995,3524.039291,2220.617826,7105.977043
299.905303,4596.572988,3701.029710,5329.482782
299.905611,5209.449386,3108.864956,5477.523971
299.905919,4596.572988,2960.823768,6957.935855
299.906227,3677.258390,1258.350101,9844.739029
299.906535,1532.190996,-1332.370696,10881.027347
299.906843,-2451.505594,-1776.494261,11695.253884
299.907151,-2911.162892,-3701.029710,13693.809927
299.907459,-4443.353888,-2886.803174,13027.624579
299.907767,-3753.867940,-740.205942,12583.501014
299.908075,-153.219100,-0.000000,11177.109724
299.908383,995.924147,2220.617826,8290.306550
299.908691,2681.334243,1702.473667,7328.038826
299.908999,3370.820191,2146.597232,6513.812290
299.909307,2604.724693,2738.761985,7328.038826
299.909615,2451.505594,1554.432478,8808.450710
299.909923,1915.238745,1406.391290,10066.800811
299.910231,383.047749,1702.473667,9770.718434
299.910539,76.609550,1702.473667,9770.718434
299.910847,306.438199,2442.679609,9770.718434
299.911155,1072.533697,1924.535449,9622.677246
299.911463,1685.410096,518.144159,9696.697840
299.911771,1072.533697,-0.000000,9918.759623
299.912079,306.438199,-1776.494261,10510.924376
299.912387,-919.314598,-3182.885551,11843.295072
299.912695,-1838.629195,-4145.153275,12435.459826
299.913003,-1685.410096,-3775.050304,11843.295072
299.913311,-1685.410096,-1998.556043,10510.924376
299.913619,-306.438199,740.205942,9252.574275
299.913927,306.438199,2220.617826,8734.430116
299.914235,2374.896044,3404.947333,8068.244768
299.914543,3140.991542,3330.926739,5625.565159
299.914851,3064.381992,3256.906145,5699.585753
299.915159,2528.115143,592.164754,8142.265362
299.915467,459.657299,-1184.329507,9918.759623
299.915775,0.000000,-2664.741391,11917.315666
299.916083,-1685.410096,-3701.029710,11843.295072
299.916391,-1762.019645,-2812.782580,11547.212695
299.916699,-766.095498,-1480.411884,10658.965565
299.917007,1225.752797,740.205942,9696.697840
299.917315,2681.334243,2072.576638,8734.430116
299.917623,3983.696590,2516.700203,7179.997637
299.917931,3907.087040,2442.679609,6513.812290
299.918239,2681.334243,1850.514855,7328.038826
299.918547,2834.553343,740.205942,9178.553681
299.918855,1225.752797,-444.123565,10584.944971
299.919163,-1225.752797,-1480.411884,11621.233289
299.919471,-2911.162892,-1776.494261,12139.377449
299.919779,-3524.039291,-888.247130,11917.315666
299.920087,-2528.115143,814.226536,11325.150913
299.920395,0.000000,2072.576638,9844.739029
299.920703,919.314598,2146.597232,8734.430116
299.921011,2298.286494,2146.597232,8216.285956
299.921319,1838.629195,888.247130,8068.244768
299.921627,1149.143247,518.144159,9030.512492
299.921935,1302.362347,-592.164754,10732.986159
299.922243,76.609550,-592.164754,10510.924376
299.922551,-383.047749,-0.000000,10288.862594
299.922859,0.000000,444.123565,9252.574275
299.923167,1302.362347,1850.514855,8808.450710
299.923475,2681.334243,2072.576638,9326.594869
299.923783,2604.724693,2294.638420,7328.038826
299.924091,2451.505594,888.247130,8290.306550
299.924399,1608.800546,-666.185348,9474.636058
299.924707,536.266849,-1628.453072,10288.862594
299.925015,-919.314598,-2812.782580,11399.171507
299.925323,-1991.848295,-3182.885551,11621.233289
299.925631,-2911.162892,-2368.659014,11251.130318
299.925939,-2145.067394,-222.061783,9992.780217
299.926247,-306.438199,1628.453072,9844.739029
299.926555,612.876398,2590.720797,7994.224174
299.926863,1532.190996,2960.823768,6883.915261
299.927171,2221.676944,2368.659014,7402.059420
299.927479,1378.971896,814.226536,8438.347739
299.927787,842.705048,-814.226536,10658.965565
299.928095,-153.219100,-1776.494261,11473.192101
299.928403,-1378.971896,-2738.761985,11177.109724
299.928711,-1991.848295,-2590.720797,11547.212695
299.929019,-995.924147,-1184.329507,11103.089130
299.929327,536.266849,518.144159,9992.780217
299.929635,1762.019645,1110.308913,8512.368333
299.929943,2604.724693,1702.473667,8216.285956
299.930251,3064.381992,1332.370696,7772.162391
299.930559,2298.286494,1036.288319,7846.182985
299.930867,1991.848295,-0.000000,10214.842000
299.931175,306.438199,-814.226536,10362.883188
299.931483,-1302.362347,-888.247130,10436.903782
299.931791,-1915.238745,-1036.288319,11029.068536
299.932099,-1838.629195,370.102971,10066.800811
299.932407,-1302.362347,2072.576638,9326.594869
299.932715,919.314598,1924.535449,8882.471304
299.933023,1838.629195,1850.514855,7254.018232
299.933331,2374.896044,1702.473667,7550.100608
299.933639,2451.505594,370.102971,8290.306550
299.933947,1532.190996,-518.144159,10066.800811
299.934255,459.657299,-1776.494261,11029.068536
299.934563,0.000000,-2146.597232,10955.047942
299.934871,-766.095498,-1480.411884,10436.903782
299.935179,536.266849,-518.144159,10140.821405
299.935487,1608.800546,1702.473667,9030.512492
299.935795,2451.505594,2294.638420,8808.450710
299.936103,3677.258390,1850.514855,7698.141797
299.936411,3294.210641,1850.514855,7624.121203
299.936719,3064.381992,-0.000000,9326.594869
299.937027,1302.362347,-888.247130,9992.780217
299.937335,-229.828649,-1776.494261,11843.295072
299.937643,-1302.362347,-2368.659014,11991.336260
299.937951,-1762.019645,-1554.432478,11621.233289
299.938259,-1302.362347,-370.102971,10732.986159
299.938567,0.000000,1406.391290,9992.780217
299.938875,1225.752797,2516.700203,8142.265362
299.939183,2221.676944,2812.782580,7402.059420
299.939491,2911.162892,2442.679609,7402.059420
299.939799,1685.410096,1184.329507,8216.285956
299.940107,1991.848295,-0.000000,10510.924376
299.940415,1455.581446,-592.164754,11103.089130
299.940723,-766.095498,-444.123565,10140.821405
299.941031,-153.219100,-666.185348,11769.274478
299.941339,-383.047749,-296.082377,9844.739029
299.941647,-383.047749,2442.679609,9326.594869
299.941955,2298.286494,888.247130,10510.924376
299.942263,1915.238745,1776.494261,7476.080014
299.942571,2145.067394,888.247130,9030.512492
299.942879,1608.800546,222.061783,9178.553681
299.943187,612.876398,-518.144159,10362.883188
299.943495,-306.438199,-1776.494261,11029.068536
299.943803,-1532.190996,-1332.370696,11029.068536
299.944111,-2221.676944,-1110.308913,11177.109724
299.944419,-2451.505594,-444.123565,10436.903782
299.944727,-612.876398,1184.329507,10066.800811
299.945035,383.047749,2072.576638,8142.265362
299.945343,1302.362347,1924.535449,7772.162391
299.945651,2374.896044,1406.391290,7550.100608
299.945959,1838.629195,444.123565,7920.203579
299.946267,1378.971896,-888.247130,10140.821405
299.946575,153.219100,-1850.514855,10584.944971
299.946883,-383.047749,-1924.535449,10584.944971
299.947191,-689.485948,-1480.411884,10732.986159
299.947499,0.000000,-222.061783,9770.718434
299.947807,919.314598,1406.391290,9178.553681
299.948115,1302.362347,2220.617826,8808.450710
299.948424,3064.381992,1628.453072,7920.203579
299.948732,2604.724693,1406.391290,7179.997637
299.949040,1762.019645,-74.020594,9030.512492
299.949348,842.705048,-1554.432478,10732.986159
299.949656,-612.876398,-1998.556043,11251.130318
299.949964,-2068.457845,-2812.782580,11621.233289
299.950272,-3064.381992,-2368.659014,11547.212695
299.950580,-2604.724693,-222.061783,10658.965565
299.950888,-1225.752797,1406.391290,10140.821405
299.951196,459.657299,2368.659014,8586.388927
299.951504,1838.629195,2368.659014,7105.977043
299.951812,2374.896044,1998.556043,7254.018232
299.952120,1685.410096,1480.411884,7920.203579
299.952428,1685.410096,-74.020594,9252.574275
299.952736,536.266849,-740.205942,10955.047942
299.953044,0.000000,-814.226536,10732.986159
299.953352,-383.047749,-518.144159,9918.759623
299.953660,536.266849,-0.000000,10510.924376
299.953968,459.657299,1258.350101,9030.512492
299.954276,2145.067394,1924.535449,8956.491898
299.954584,2604.724693,1258.350101,8956.491898
299.954892,2757.943793,444.123565,8216.285956
299.955200,1685.410096,-222.061783,8808.450710
299.955508,842.705048,-888.247130,10732.986159
299.955816,-612.876398,-1924.535449,11621.233289
299.956124,-1685.410096,-1628.453072,11621.233289
299.956432,-2068.457845,-1480.411884,11843.295072
299.956740,-1991.848295,666.185348,9918.759623
299.957048,-536.266849,1332.370696,9844.739029
299.957356,919.314598,2220.617826,8660.409521
299.957664,1532.190996,2516.700203,7105.977043
299.957972,2221.676944,1702.473667,7698.141797
299.958280,2068.457845,666.185348,8438.347739
299.958588,1455.581446,-296.082377,9992.780217
299.958896,459.657299,-1628.453072,11103.089130
299.959204,-229.828649,-1998.556043,11769.274478
299.959512,-612.876398,-814.226536,10807.006753
299.959820,153.219100,-148.041188,10066.800811
299.960128,1455.581446,1406.391290,9474.636058
299.960436,1991.848295,2072.576638,8290.306550
299.960744,2987.772442,2368.659014,8290.306550
299.961052,2834.553343,1332.370696,7920.203579
299.961360,1991.848295,518.144159,9104.533087
299.961668,1225.752797,-1036.288319,10510.924376
299.961976,-536.266849,-1554.432478,11103.089130
299.962284,-1838.629195,-2146.597232,11917.315666
299.962592,-2068.457845,-1554.432478,11251.130318
299.962900,-1302.362347,296.082377,10214.842000
299.963208,-383.047749,1480.411884,9178.553681
299.963516,1149.143247,2442.679609,8142.265362
299.963824,1915.238745,2368.659014,7402.059420
299.964132,2528.115143,1184.329507,7105.977043
299.964440,2221.676944,740.205942,7772.162391
299.964748,1532.190996,-74.020594,9696.697840
299.965056,1149.143247,-1850.514855,10288.862594
299.965364,-306.438199,-1628.453072,10732.986159
299.965672,-689.485948,-1406.391290,10732.986159
299.965980,-306.438199,-444.123565,10214.842000
299.966288,306.438199,740.205942,9918.759623
299.966596,1915.238745,1628.453072,9400.615463
299.966904,3140.991542,1110.308913,8734.430116
299.967212,2068.457845,592.164754,8068.244768
299.967520,2221.676944,-1184.329507,9474.636058
299.967828,995.924147,-1924.535449,9992.780217
299.968136,-383.047749,-2368.659014,11547.212695
299.968444,-1762.019645,-2220.617826,11473.192101
299.968752,-1762.019645,-1406.391290,10807.006753
299.969060,-1378.971896,-0.000000,10288.862594
299.969368,0.000000,1480.411884,8808.450710
299.969676,2298.286494,3034.844362,7328.038826
299.969984,2911.162892,2812.782580,7105.977043
299.970292,3064.381992,1998.556043,7105.977043
299.970600,2374.896044,1406.391290,7994.224174
299.970908,2145.067394,-222.061783,9918.759623
299.971216,306.438199,-962.267725,10140.821405
299.971524,-229.828649,-1406.391290,10955.047942
299.971832,-306.438199,-518.144159,10658.965565
299.972140,0.000000,666.185348,10807.006753
299.972448,612.876398,1332.370696,9918.759623
299.972756,1532.190996,2220.617826,8882.471304
299.973064,1915.238745,1702.473667,8734.430116
299.973372,1608.800546,592.164754,9326.594869
299.973680,1225.752797,-814.226536,9992.780217
299.973988,0.000000,-1406.391290,11843.295072
299.974296,-612.876398,-2442.679609,12435.459826
299.974604,-1455.581446,-1924.535449,11843.295072
299.974912,-2374.896044,-592.164754,11769.274478
299.975220,-612.876398,518.144159,9992.780217
299.975528,459.657299,2590.720797,8512.368333
299.975836,1991.848295,3108.864956,7476.080014
299.976144,2834.553343,2960.823768,6661.853478
299.976452,3677.258390,2220.617826,6143.709319
299.976760,2604.724693,370.102971,8512.368333
299.977068,1838.629195,-296.082377,9178.553681
299.977376,76.609550,-1184.329507,10066.800811
299.977684,0.000000,-1332.370696,11917.315666
299.977992,-1072.533697,-592.164754,10584.944971
299.978300,-1072.533697,222.061783,10658.965565
299.978608,459.657299,962.267725,10362.883188
299.978916,1762.019645,1406.391290,8808.450710
299.979224,2374.896044,1258.350101,8882.471304
299.979532,2374.896044,-0.000000,8290.306550
299.979840,1685.410096,-592.164754,9696.697840
299.980148,153.219100,-1776.494261,10955.047942
299.980456,-1072.533697,-2664.741391,11843.295072
299.980764,-2451.505594,-2442.679609,11843.295072
299.981072,-2221.676944,-1332.370696,11547.212695
299.981380,-1762.019645,-0.000000,10288.862594
299.981688,0.000000,1628.453072,8660.409521
299.981996,1455.581446,1998.556043,8068.244768
299.982304,2145.067394,2442.679609,6883.915261
299.982612,2681.334243,1480.411884,7031.956449
299.982920,2528.115143,592.164754,8438.347739
299.983228,2221.676944,-296.082377,8956.491898
299.983536,1149.143247,-666.185348,9178.553681
299.983844,0.000000,-888.247130,10732.986159
299.984152,0.000000,-518.144159,10881.027347
299.984460,-459.657299,814.226536,9696.697840
299.984768,1072.533697,1406.391290,9474.636058
299.985076,1532.190996,1776.494261,8808.450710
299.985384,2374.896044,1628.453072,8364.327145
299.985692,2298.286494,222.061783,8956.491898
299.986000,1378.971896,-962.267725,9548.656652
299.986308,383.047749,-2294.638420,11621.233289
299.986616,-1149.143247,-3034.844362,12805.562797
299.986924,-2834.553343,-3034.844362,11991.336260
299.987232,-2911.162892,-1628.453072,11177.109724
299.987540,-1762.019645,148.041188,11103.089130
299.987848,0.000000,1332.370696,9178.553681
299.988156,1685.410096,2886.803174,7920.203579
299.988464,3064.381992,2664.741391,7328.038826
299.988772,3753.867940,2146.597232,6735.874072
299.989080,2987.772442,1406.391290,7402.059420
299.989388,2681.334243,740.205942,9474.636058
299.989696,1302.362347,-888.247130,10288.862594
299.990004,0.000000,-888.247130,10658.965565
299.990312,-383.047749,-592.164754,10881.027347
299.990620,-919.314598,370.102971,10510.924376
299.990928,536.266849,1628.453072,9696.697840
299.991236,2374.896044,1998.556043,9178.553681
299.991544,2221.676944,1480.411884,8068.244768
299.991852,2757.943793,814.226536,8438.347739
299.992160,1762.019645,-814.226536,9844.739029
299.992468,153.219100,-1850.514855,11769.274478
299.992776,-1378.971896,-2442.679609,12139.377449
299.993084,-2451.505594,-2516.700203,12583.501014
299.993392,-2451.505594,-1480.411884,12361.439231
299.993700,-1685.410096,-0.000000,9992.780217
299.994008,306.438199,2516.700203,9474.636058
299.994316,1991.848295,2664.741391,8068.244768
299.994624,2834.553343,2812.782580,6809.894666
299.994932,2911.162892,2294.638420,7105.977043
299.995240,2911.162892,1332.370696,7772.162391
299.995548,2068.457845,-0.000000,8290.306550
299.995856,1149.143247,-370.102971,9844.739029
299.996164,-306.438199,-1036.288319,10881.027347
299.996472,-229.828649,-370.102971,10436.903782
299.996780,-612.876398,962.267725,10510.924376
299.997088,1072.533697,1776.494261,9918.759623
299.997396,2757.943793,1998.556043,7994.224174
299.997702,2068.457845,1480.411884,8142.265362
299.998010,2451.505594,-0.000000,8734.430116
299.998318,1378.971896,-1258.350101,10140.821405
299.998626,0.000000,-1924.535449,12139.377449
299.998934,-1455.581446,-3478.967927,12583.501014
299.999243,-2911.162892,-3034.844362,12287.418637
299.999551,-2834.553343,-2072.576638,11917.315666
299.999859,-2068.457845,296.082377,10140.821405
300.000167,153.219100,1554.432478,9696.697840
300.000475,1378.971896,2368.659014,7920.203579
300.000783,2298.286494,2590.720797,6735.874072
300.001091,2834.553343,1702.473667,7550.100608
300.001400,2528.115143,666.185348,7994.224174
300.001708,1838.629195,-296.082377,8734.430116
300.002016,1149.143247,-592.164754,9918.759623
300.002324,153.219100,-888.247130,10214.842000
300.002632,-766.095498,296.082377,9918.759623
300.002940,0.000000,1406.391290,9474.636058
300.003248,1302.362347,2368.659014,8882.471304
300.003557,2068.457845,2072.576638,7698.141797
300.003865,2681.334243,1184.329507,8216.285956
300.004173,2145.067394,-0.000000,8364.327145
300.004481,306.438199,-1184.329507,10510.924376
300.004789,-1072.533697,-2294.638420,12065.356855
300.005097,-1532.190996,-3182.885551,12953.603985
300.005406,-3064.381992,-2886.803174,12731.542202
300.005714,-2911.162892,-1702.473667,11769.274478
300.006022,-1302.362347,814.226536,10732.986159
300.006330,-153.219100,1406.391290,9400.615463
300.006638,1608.800546,2368.659014,7994.224174
300.006946,2604.724693,2886.803174,6735.874072
300.007254,2681.334243,2146.597232,6809.894666
300.007563,2834.553343,1036.288319,7402.059420
300.007871,2145.067394,740.205942,8438.347739
300.008179,2068.457845,-222.061783,10214.842000
300.008487,229.828649,-444.123565,10066.800811
300.008795,229.828649,222.061783,9992.780217
300.009103,612.876398,1110.308913,9622.677246
300.009411,1455.581446,1924.535449,9178.553681
300.009720,2298.286494,1850.514855,8586.388927
300.010028,2604.724693,1184.329507,8586.388927
300.010336,1991.848295,-222.061783,9030.512492
300.010644,995.924147,-1628.453072,10362.883188
300.010952,0.000000,-2590.720797,11991.336260
300.011260,-1685.410096,-3775.050304,12287.418637
300.011569,-2221.676944,-2960.823768,12287.418637
300.011877,-2374.896044,-1628.453072,11917.315666
300.012185,-1991.848295,-0.000000,10732.986159
300.012493,-229.828649,1628.453072,9326.594869
300.012801,1302.362347,2738.761985,8142.265362
300.013109,2451.505594,1924.535449,7698.141797
300.013417,2604.724693,1702.473667,7328.038826
300.013726,2528.115143,518.144159,7920.203579
300.014034,1838.629195,222.061783,9178.553681
300.014342,1455.581446,-592.164754,9622.677246
300.014650,0.000000,-370.102971,9844.739029
300.014958,-383.047749,370.102971,9918.759623
300.015266,459.657299,814.226536,9622.677246
300.015574,1455.581446,1850.514855,8660.409521
300.015883,2911.162892,1406.391290,8216.285956
300.016191,3217.601092,1332.370696,7698.141797
300.016499,1685.410096,518.144159,8512.368333
300.016807,1378.971896,-1110.308913,10732.986159
300.017115,0.000000,-1998.556043,11473.192101
300.017423,-1762.019645,-2442.679609,12509.480420
300.017731,-2681.334243,-2516.700203,12657.521608
300.018040,-2987.772442,-1406.391290,11547.212695
300.018348,-1608.800546,-370.102971,10955.047942
300.018656,0.000000,1480.411884,9696.697840
300.018964,1149.143247,2146.597232,8216.285956
300.019272,2298.286494,1702.473667,7254.018232
300.019580,2834.553343,1480.411884,7254.018232
300.019889,2374.896044,444.123565,7920.203579
300.020197,1915.238745,-74.020594,9474.636058
300.020505,995.924147,-370.102971,9548.656652
300.020813,0.000000,-222.061783,10362.883188
300.021121,229.828649,-74.020594,10214.842000
300.021429,459.657299,888.247130,9770.718434
300.021737,1455.581446,2072.576638,8660.409521
300.022046,2374.896044,1776.494261,8512.368333
300.022354,2604.724693,1036.288319,8216.285956
300.022662,1991.848295,592.164754,8586.388927
300.022970,536.266849,-962.267725,10362.883188
300.023278,-459.657299,-2072.576638,11473.192101
300.023586,-1685.410096,-2590.720797,12361.439231
300.023894,-2451.505594,-2220.617826,12731.542202
300.024203,-2834.553343,-1480.411884,11695.253884
300.024511,-2145.067394,296.082377,10584.944971
300.024819,0.000000,1702.473667,9474.636058
300.025127,1225.752797,2072.576638,8216.285956
300.025435,2757.943793,2146.597232,7920.203579
300.025743,3064.381992,1480.411884,6809.894666
300.026052,2987.772442,1184.329507,7920.203579
300.026360,2068.457845,444.123565,8734.430116
300.026668,1225.752797,-148.041188,9622.677246
300.026976,153.219100,-370.102971,9770.718434
300.027284,-459.657299,-148.041188,10066.800811
300.027592,0.000000,814.226536,10066.800811
300.027900,1608.800546,1332.370696,9770.718434
300.028209,2068.457845,1480.411884,8512.368333
300.028517,2451.505594,518.144159,8216.285956
300.028825,2145.067394,-370.102971,8808.450710
300.029133,842.705048,-1036.288319,10436.903782
300.029441,-612.876398,-2368.659014,11991.336260
300.029749,-1608.800546,-2960.823768,12657.521608
300.030057,-2757.943793,-1998.556043,11991.336260
300.030366,-2834.553343,-962.267725,11695.253884
300.030674,-229.828649,-296.082377,11399.171507
300.030982,-995.924147,2368.659014,9104.533087
300.031290,2221.676944,1480.411884,8882.471304
300.031598,2681.334243,2368.659014,7328.038826
300.031906,2987.772442,1480.411884,7179.997637
300.032214,2374.896044,962.267725,8068.244768
300.032523,1991.848295,-370.102971,9178.553681
300.032831,1378.971896,-1036.288319,9918.759623
300.033139,0.000000,-0.000000,8956.491898
300.033447,919.314598,370.102971,10436.903782
300.033755,306.438199,1776.494261,9104.533087
300.034063,1762.019645,2442.679609,8808.450710
300.034372,2757.943793,2664.741391,7994.224174
300.034680,3064.381992,1406.391290,8512.368333
300.034988,2145.067394,888.247130,9252.574275
300.035296,1225.752797,-962.267725,9770.718434
300.035604,0.000000,-2368.659014,12287.418637
300.035912,-1991.848295,-3034.844362,13471.748144
300.036220,-2604.724693,-2368.659014,12509.480420
300.036529,-3064.381992,-1776.494261,11843.295072
300.036837,-1991.848295,-0.000000,10807.006753
300.037145,0.000000,2072.576638,9474.636058
300.037453,1532.190996,1924.535449,8068.244768
300.037761,2681.334243,1998.556043,6735.874072
300.038069,3677.258390,1998.556043,6513.812290
300.038377,3064.381992,1258.350101,7698.141797
300.038686,2221.676944,-0.000000,9474.636058
300.038994,1149.143247,-222.061783,9548.656652
300.039302,0.000000,-518.144159,10066.800811
300.039610,-459.657299,222.061783,10140.821405
300.039918,229.828649,814.226536,9400.615463
300.040226,1838.629195,2146.597232,8882.471304
300.040535,2604.724693,1850.514855,7994.224174
300.040843,2987.772442,1332.370696,8290.306550
300.041151,2068.457845,222.061783,8364.327145
300.041459,612.876398,-1184.329507,10214.842000
300.041767,-612.876398,-2664.741391,12287.418637
300.042075,-2451.505594,-3108.864956,12657.521608
300.042383,-4060.306139,-2812.782580,12583.501014
300.042692,-3677.258390,-1406.391290,12213.398043
300.043000,-2221.676944,-518.144159,11695.253884
300.043308,-1302.362347,1036.288319,9104.533087
300.043616,842.705048,1850.514855,8438.347739
300.043924,2068.457845,1628.453072,7179.997637
300.044232,2604.724693,1332.370696,6957.935855
300.044540,2145.067394,592.164754,8068.244768
300.044849,2451.505594,-222.061783,8586.388927
300.045157,1762.019645,-0.000000,9400.615463
300.045465,306.438199,-0.000000,9844.739029
300.045773,0.000000,740.205942,9400.615463
300.046081,536.266849,1554.432478,9178.553681
300.046389,1838.629195,2368.659014,8734.430116
300.046697,2911.162892,2368.659014,7550.100608
300.047006,2834.553343,1480.411884,7624.121203
300.047314,2145.067394,148.041188,8808.450710
300.047622,1072.533697,-888.247130,10510.924376
300.047930,0.000000,-2368.659014,12361.439231
300.048238,-2298.286494,-2738.761985,12361.439231
300.048546,-3370.820191,-2812.782580,12879.583391
300.048855,-3524.039291,-1776.494261,12731.542202
300.049163,-3064.381992,-370.102971,11547.212695
300.049471,-383.047749,1406.391290,10658.965565
300.049779,919.314598,1702.473667,8956.491898
300.050087,1915.238745,1850.514855,7846.182985
300.050395,2911.162892,1184.329507,8142.265362
300.050703,2068.457845,814.226536,8290.306550
300.051012,1915.238745,296.082377,9474.636058
300.051320,919.314598,-444.123565,9844.739029
300.051628,76.609550,-0.000000,10362.883188
300.051936,306.438199,370.102971,10066.800811
300.052244,1532.190996,2368.659014,8734.430116
300.052552,2374.896044,2442.679609,8364.327145
300.052860,3753.867940,2738.761985,7254.018232
300.053169,4290.134789,2738.761985,7179.997637
300.053477,2757.943793,962.267725,7476.080014
300.053785,2068.457845,-518.144159,9474.636058
300.054093,459.657299,-1480.411884,11029.068536
300.054401,-1455.581446,-2590.720797,11843.295072
300.054709,-2911.162892,-2886.803174,12213.398043
300.055018,-3064.381992,-1554.432478,12065.356855
300.055326,-3217.601092,-296.082377,11991.336260
300.055634,-766.095498,592.164754,10584.944971
300.055942,536.266849,1406.391290,9178.553681
300.056250,1762.019645,1110.308913,8660.409521
300.056558,2911.162892,888.247130,7328.038826
300.056866,2528.115143,518.144159,8142.265362
300.057175,2221.676944,-74.020594,8808.450710
300.057483,2145.067394,-296.082377,9474.636058
300.057791,766.095498,-0.000000,9622.677246
300.058099,306.438199,148.041188,10214.842000
300.058407,1225.752797,1480.411884,8438.347739
300.058715,2068.457845,2368.659014,7994.224174
300.059023,3140.991542,1850.514855,8142.265362
300.059332,3140.991542,1258.350101,7328.038826
300.059640,2221.676944,-0.000000,8586.388927
300.059948,1838.629195,-1850.514855,9622.677246
300.060256,0.000000,-1998.556043,10807.006753
300.060564,-1838.629195,-2590.720797,12139.377449
300.060872,-2987.772442,-2590.720797,12213.398043
300.061181,-3524.039291,-1110.308913,11843.295072
300.061489,-2068.457845,-0.000000,11399.171507
300.061797,-612.876398,1406.391290,10066.800811
300.062105,459.657299,1776.494261,8512.368333
300.062413,2451.505594,888.247130,7994.224174
300.062721,1685.410096,1332.370696,7624.121203
300.063029,1991.848295,-0.000000,9178.553681
300.063338,1455.581446,-518.144159,9622.677246
300.063646,306.438199,-592.164754,9992.780217
300.063954,0.000000,-518.144159,10288.862594
300.064262,0.000000,444.123565,9918.759623
300.064570,612.876398,1850.514855,9326.594869
300.064878,2451.505594,1998.556043,8142.265362
300.065186,3294.210641,2220.617826,7624.121203
300.065495,3140.991542,1702.473667,7550.100608
300.065803,2068.457845,222.061783,9104.533087
300.066111,689.485948,-740.205942,9992.780217
300.066419,-766.095498,-1998.556043,11917.315666
300.066727,-2068.457845,-2590.720797,12065.356855
300.067035,-2987.772442,-1998.556043,11695.253884
300.067343,-3447.429741,-1258.350101,12139.377449
300.067652,-2834.553343,-74.020594,11103.089130
300.067960,-919.314598,1406.391290,9770.718434
300.068268,536.266849,1924.535449,8586.388927
300.068576,2604.724693,1554.432478,7920.203579
300.068884,2681.334243,1110.308913,7624.121203
300.069192,2451.505594,444.123565,8808.450710
300.069501,2145.067394,-444.123565,9844.739029
300.069809,1302.362347,-74.020594,9474.636058
300.070117,153.219100,-518.144159,10584.944971
300.070425,459.657299,-0.000000,9696.697840
300.070733,995.924147,1480.411884,9030.512492
300.071041,2068.457845,1924.535449,8512.368333
300.071349,3217.601092,2294.638420,7328.038826
300.071658,3983.696590,1850.514855,7994.224174
300.071966,2681.334243,370.102971,8586.388927
300.072274,1991.848295,-666.185348,9548.656652
300.072582,306.438199,-1776.494261,11103.089130
300.072890,-1991.848295,-2368.659014,11843.295072
300.073198,-2911.162892,-2072.576638,11917.315666
300.073506,-2911.162892,-1406.391290,11843.295072
300.073815,-2604.724693,148.041188,11103.089130
300.074123,-919.314598,1702.473667,10436.903782
300.074431,1302.362347,1332.370696,9400.615463
300.074739,1762.019645,1184.329507,8216.285956
300.075047,1991.848295,444.123565,8216.285956
300.075355,2374.896044,-296.082377,9104.533087
300.075664,1302.362347,-296.082377,9252.574275
300.075972,612.876398,-1258.350101,10807.006753
300.076280,0.000000,-740.205942,10362.883188
300.076588,76.609550,-0.000000,9770.718434
300.076896,919.314598,1184.329507,9548.656652
300.077204,2757.943793,2442.679609,7994.224174
300.077512,3600.648841,2368.659014,7105.977043
300.077821,3370.820191,1702.473667,7328.038826
300.078129,2757.943793,370.102971,8142.265362
300.078437,2221.676944,-0.000000,9252.574275
300.078745,229.828649,-888.247130,10807.006753
300.079053,-689.485948,-1628.453072,11103.089130
300.079361,-2451.505594,-1702.473667,11843.295072
300.079669,-3524.039291,-814.226536,12213.398043
300.079978,-2145.067394,74.020594,10807.006753
300.080286,-1072.533697,1850.514855,10066.800811
300.080594,306.438199,1406.391290,10140.821405
300.080902,1225.752797,1184.329507,9030.512492
300.081210,1455.581446,666.185348,8808.450710
300.081518,1225.752797,-1110.308913,10066.800811
300.081826,612.876398,-592.164754,10584.944971
300.082135,612.876398,-1110.308913,11399.171507
300.082443,-229.828649,-888.247130,11177.109724
300.082751,-383.047749,296.082377,10510.924376
300.083059,995.924147,1406.391290,9548.656652
300.083367,2374.896044,2146.597232,8142.265362
300.083675,3370.820191,2664.741391,7402.059420
300.083984,3830.477490,1850.514855,7402.059420
300.084292,3294.210641,1554.432478,8364.327145
300.084600,1838.629195,-0.000000,9400.615463
300.084908,1072.533697,-666.185348,10066.800811
300.085216,-995.924147,-1554.432478,10881.027347
300.085524,-2221.676944,-1110.308913,11399.171507
300.085832,-2451.505594,-518.144159,11473.192101
300.086141,-1915.238745,1184.329507,10436.903782
300.086449,306.438199,1258.350101,9622.677246
300.086757,1225.752797,1480.411884,8068.244768
300.087065,1455.581446,1184.329507,7846.182985
300.087373,1991.848295,-296.082377,8808.450710
300.087681,1455.581446,-222.061783,9104.533087
300.087989,995.924147,-1036.288319,9992.780217
300.088298,153.219100,-2072.576638,10807.006753
300.088606,-689.485948,-1702.473667,10955.047942
300.088914,-383.047749,-1184.329507,10732.986159
300.089222,153.219100,148.041188,9844.739029
300.089530,1302.362347,1406.391290,9474.636058
300.089838,2987.772442,962.267725,8216.285956
300.090147,3140.991542,888.247130,7698.141797
300.090455,2834.553343,296.082377,7920.203579
300.090763,2374.896044,-296.082377,9178.553681
300.091071,842.705048,-1036.288319,9474.636058
300.091379,-612.876398,-1850.514855,10436.903782
300.091687,-1991.848295,-1332.370696,11029.068536
300.091995,-1991.848295,-814.226536,10288.862594
300.092304,-1838.629195,1110.308913,10066.800811
300.092612,0.000000,1480.411884,9178.553681
300.092920,1302.362347,1702.473667,8438.347739
300.093228,2451.505594,1850.514855,7994.224174
300.093536,2145.067394,1036.288319,7698.141797
300.093844,1608.800546,222.061783,9400.615463
300.094152,1455.581446,-370.102971,10066.800811
300.094461,0.000000,-1406.391290,11029.068536
300.094769,-842.705048,-1258.350101,11251.130318
300.095077,-766.095498,-222.061783,10658.965565
300.095385,76.609550,1184.329507,10436.903782
300.095693,1225.752797,1776.494261,9696.697840
300.096001,2374.896044,1850.514855,8512.368333
300.096309,2911.162892,1332.370696,8364.327145
300.096618,2221.676944,740.205942,9030.512492
300.096926,1455.581446,-296.082377,9770.718434
300.097234,612.876398,-1406.391290,10436.903782
300.097542,-1072.533697,-1776.494261,11251.130318
300.097850,-2221.676944,-962.267725,11769.274478
300.098158,-2145.067394,-296.082377,11547.212695
300.098467,-1608.800546,1406.391290,10510.924376
300.098775,459.657299,1702.473667,9104.533087
300.099083,1225.752797,2220.617826,8216.285956
300.099391,2451.505594,1480.411884,7476.080014
300.099699,2604.724693,962.267725,7550.100608
300.100007,2068.457845,370.102971,9030.512492
300.100315,1149.143247,-666.185348,9992.780217
300.100623,0.000000,-1184.329507,10584.944971
300.100931,-842.705048,-1110.308913,10807.006753
300.101238,0.000000,-222.061783,10732.986159
300.101546,-153.219100,1480.411884,9844.739029
300.101854,306.438199,2072.576638,9474.636058
300.102162,2451.505594,1628.453072,8586.388927
300.102470,2528.115143,888.247130,8290.306550
300.102778,1838.629195,296.082377,8660.409521
300.103086,995.924147,-1036.288319,9992.780217
300.103394,0.000000,-1924.535449,10510.924376
300.103702,-2068.457845,-2294.638420,11695.253884
300.104010,-2987.772442,-1998.556043,12509.480420
300.104318,-2528.115143,-592.164754,11177.109724
300.104626,-1378.971896,666.185348,10436.903782
300.104934,-383.047749,1776.494261,9252.574275
300.105242,1225.752797,1924.535449,8290.306550
300.105550,2451.505594,1850.514855,7328.038826
300.105858,2528.115143,1036.288319,7105.977043
300.106166,1915.238745,444.123565,8438.347739
300.106474,1072.533697,-444.123565,9474.636058
300.106782,0.000000,-592.164754,10436.903782
300.107090,-383.047749,-1628.453072,10584.944971
300.107398,-459.657299,-222.061783,10214.842000
300.107705,612.876398,814.226536,9474.636058
300.108013,1455.581446,1406.391290,8956.491898
300.108321,2451.505594,1332.370696,8512.368333
300.108629,2987.772442,666.185348,8068.244768
300.108937,2145.067394,-74.020594,8512.368333
300.109245,995.924147,-1480.411884,9992.780217
300.109553,-153.219100,-2294.638420,11029.068536
300.109861,-1838.629195,-2146.597232,11621.233289
300.110169,-2451.505594,-2072.576638,11695.253884
300.110477,-2604.724693,-592.164754,11103.089130
300.110785,-1838.629195,888.247130,10584.944971
300.111093,383.047749,1406.391290,9178.553681
300.111401,1685.410096,2220.617826,7920.203579
300.111709,2681.334243,1850.514855,7179.997637
300.112017,3294.210641,1036.288319,7254.018232
300.112325,2298.286494,592.164754,8808.450710
300.112633,1455.581446,-370.102971,9696.697840
300.112941,306.438199,-962.267725,10732.986159
300.113249,-229.828649,-814.226536,10955.047942
300.113557,0.000000,-592.164754,10140.821405
300.113865,459.657299,1110.308913,9548.656652
300.114172,1608.800546,1776.494261,9474.636058
300.114480,2911.162892,1998.556043,8512.368333
300.114788,2681.334243,1554.432478,8068.244768
300.115096,2681.334243,518.144159,9030.512492
300.115404,1685.410096,-962.267725,9992.780217
300.115712,-229.828649,-1702.473667,11103.089130
300.116020,-1455.581446,-2738.761985,12657.521608
300.116328,-2987.772442,-1628.453072,12065.356855
300.116636,-2451.505594,-296.082377,11695.253884
300.116944,-995.924147,666.185348,10510.924376
300.117252,689.485948,2146.597232,8882.471304
300.117560,2145.067394,2738.761985,7476.080014
300.117868,3370.820191,2294.638420,6883.915261
300.118176,3064.381992,1998.556043,7179.997637
300.118484,2911.162892,592.164754,8068.244768
300.118792,1991.848295,148.041188,9844.739029
300.119100,1225.752797,-518.144159,9918.759623
300.119408,153.219100,-962.267725,9844.739029
300.119716,-229.828649,-222.061783,10140.821405
300.120024,306.438199,296.082377,9992.780217
300.120332,995.924147,1184.329507,9622.677246
300.120639,2298.286494,1110.308913,8956.491898
300.120947,2145.067394,296.082377,8808.450710
300.121255,1608.800546,-666.185348,9474.636058
300.121563,1072.533697,-1628.453072,10066.800811
300.121871,-689.485948,-2738.761985,11695.253884
300.122179,-2374.896044,-2738.761985,11991.336260
300.122487,-2681.334243,-2220.617826,11991.336260
300.122795,-2451.505594,-444.123565,10807.006753
300.123103,-1762.019645,1110.308913,9548.656652
300.123411,689.485948,2220.617826,9178.553681
300.123719,2528.115143,2812.782580,7402.059420
300.124027,2681.334243,2368.659014,6735.874072
300.124335,2911.162892,1850.514855,6957.935855
300.124643,2374.896044,1110.308913,8068.244768
300.124951,1608.800546,-592.164754,9548.656652
300.125259,153.219100,-888.247130,9770.718434
300.125567,-229.828649,-888.247130,10066.800811
300.125875,-229.828649,-592.164754,10658.965565
300.126183,0.000000,814.226536,9992.780217
300.126491,995.924147,814.226536,9844.739029
300.126799,1915.238745,962.267725,9104.533087
300.127106,2374.896044,814.226536,8068.244768
300.127414,1838.629195,-0.000000,8956.491898
300.127722,919.314598,-1258.350101,10510.924376
300.128030,-766.095498,-2220.617826,11177.109724
300.128338,-2298.286494,-2368.659014,12139.377449
300.128646,-2528.115143,-2368.659014,12065.356855
300.128954,-2987.772442,-666.185348,10658.965565
300.129262,-1149.143247,888.247130,10362.883188
300.129570,306.438199,1850.514855,8956.491898
300.129878,2068.457845,2294.638420,7698.141797
300.130186,2681.334243,2220.617826,7254.018232
300.130494,2911.162892,1628.453072,7254.018232
300.130802,2681.334243,1036.288319,8216.285956
300.131110,2451.505594,-0.000000,9326.594869
300.131418,995.924147,-222.061783,10362.883188
300.131726,229.828649,-518.144159,9918.759623
300.132034,0.000000,222.061783,10066.800811
300.132342,842.705048,1184.329507,9770.718434
300.132650,1762.019645,1924.535449,9030.512492
300.132958,2604.724693,1258.350101,8808.450710
300.133266,2604.724693,962.267725,8290.306550
300.133573,2221.676944,-0.000000,9326.594869
300.133881,995.924147,-1036.288319,10584.944971
300.134189,-383.047749,-2368.659014,12065.356855
300.134497,-2145.067394,-2664.741391,12361.439231
300.134805,-3140.991542,-2072.576638,12065.356855
300.135113,-2604.724693,-962.267725,11695.253884
300.135421,-1225.752797,888.247130,10288.862594
300.135729,612.876398,2294.638420,9252.574275
300.136037,2451.505594,2442.679609,8142.265362
300.136345,2911.162892,2072.576638,7105.977043
300.136653,2681.334243,2072.576638,7254.018232
300.136961,2451.505594,518.144159,8660.409521
300.137269,1685.410096,-296.082377,9474.636058
300.137577,153.219100,-962.267725,9696.697840
300.137885,0.000000,-370.102971,10066.800811
300.138193,-306.438199,-0.000000,9992.780217
300.138501,459.657299,1036.288319,9770.718434
300.138809,2068.457845,1702.473667,8956.491898
300.139117,3600.648841,1332.370696,7994.224174
300.139425,2757.943793,1036.288319,7994.224174
300.139733,2374.896044,-0.000000,8882.471304
300.140040,919.314598,-1036.288319,9992.780217
300.140348,-306.438199,-1850.514855,11843.295072
300.140656,-1991.848295,-2812.782580,11917.315666
300.140964,-2604.724693,-2146.597232,11991.336260
300.141272,-2451.505594,-1036.288319,11769.274478
300.141580,-1532.190996,666.185348,10288.862594
300.141888,612.876398,1924.535449,9104.533087
300.142196,1915.238745,2146.597232,8142.265362
300.142504,2068.457845,1776.494261,7402.059420
300.142812,2374.896044,1184.329507,7550.100608
300.143120,2451.505594,-0.000000,8882.471304
300.143428,1149.143247,-444.123565,9622.677246
300.143736,76.609550,-666.185348,10362.883188
300.144044,-459.657299,-592.164754,9844.739029
300.144352,-459.657299,222.061783,10066.800811
300.144660,383.047749,1776.494261,9474.636058
300.144968,2221.676944,2294.638420,8660.409521
300.145276,2834.553343,1850.514855,8142.265362
300.145584,2604.724693,740.205942,7476.080014
300.145892,1915.238745,-222.061783,9104.533087
300.146200,842.705048,-1850.514855,10807.006753
300.146507,-612.876398,-2368.659014,11621.233289
300.146815,-2298.286494,-2738.761985,12139.377449
300.147123,-2987.772442,-2368.659014,11917.315666
300.147431,-2374.896044,-592.164754,10584.944971
300.147739,-612.876398,962.267725,9918.759623
300.148047,1072.533697,2146.597232,9030.512492
300.148355,2528.115143,2294.638420,7179.997637
300.148663,3140.991542,2516.700203,6587.832884
300.148971,3140.991542,1998.556043,7698.141797
300.149279,2911.162892,814.226536,8364.327145
300.149587,995.924147,148.041188,9104.533087
300.149895,306.438199,-814.226536,10807.006753
300.150203,0.000000,-370.102971,10584.944971
300.150511,-1225.752797,592.164754,9918.759623
300.150819,766.095498,1110.308913,10436.903782
300.151127,2374.896044,1850.514855,9252.574275
300.151435,2451.505594,1998.556043,8364.327145
300.151743,2987.772442,592.164754,8512.368333
300.152051,2374.896044,-0.000000,8660.409521
300.152359,536.266849,-1110.308913,10584.944971
300.152666,-995.924147,-2368.659014,11621.233289
300.152974,-2068.457845,-2664.741391,11991.336260
300.153282,-3524.039291,-2368.659014,12509.480420
300.153590,-2757.943793,-1184.329507,11769.274478
300.153898,-1225.752797,1036.288319,10362.883188
300.154206,459.657299,1998.556043,9252.574275
300.154514,2145.067394,1924.535449,7920.203579
300.154822,3370.820191,2368.659014,7105.977043
300.155130,3140.991542,1628.453072,7179.997637
300.155438,2298.286494,666.185348,8142.265362
300.155746,1762.019645,444.123565,9030.512492
300.156054,1225.752797,-148.041188,10140.821405
300.156362,-383.047749,-0.000000,9696.697840
300.156670,0.000000,518.144159,9918.759623
300.156978,383.047749,1850.514855,9696.697840
300.157286,1608.800546,1702.473667,9030.512492
300.157594,1991.848295,1554.432478,8364.327145
300.157902,2145.067394,-0.000000,9030.512492
300.158210,842.705048,-740.205942,9474.636058
300.158518,-919.314598,-1776.494261,11251.130318
300.158826,-1762.019645,-3108.864956,13027.624579
300.159133,-3907.087040,-3478.967927,13249.686362
300.159441,-3830.477490,-2664.741391,13027.624579
300.159749,-2834.553343,-1406.391290,11695.253884
300.160057,-2145.067394,592.164754,9918.759623
300.160365,76.609550,1406.391290,9252.574275
300.160673,2911.162892,2146.597232,7550.100608
300.160981,3064.381992,2368.659014,6587.832884
300.161289,3600.648841,1554.432478,6217.729913
300.161597,3677.258390,1406.391290,6809.894666
300.161905,2451.505594,296.082377,8586.388927
300.162213,1378.971896,-0.000000,8882.471304
300.162521,1072.533697,148.041188,9622.677246
300.162829,153.219100,444.123565,9474.636058
300.163137,1225.752797,1406.391290,9474.636058
300.163445,2451.505594,1998.556043,8364.327145
300.163753,2987.772442,1480.411884,8512.368333
300.164061,2528.115143,666.185348,8438.347739
300.164369,1455.581446,-592.164754,9400.615463
300.164677,-459.657299,-2368.659014,11843.295072
300.164985,-1378.971896,-3552.988522,12953.603985
300.165293,-2681.334243,-3256.906145,12657.521608
300.165600,-3217.601092,-2664.741391,13101.645173
300.165908,-2987.772442,-1480.411884,11843.295072
300.166216,-1378.971896,666.185348,10732.986159
300.166524,459.657299,1850.514855,9548.656652
300.166832,2221.676944,2072.576638,7698.141797
300.167140,2604.724693,1998.556043,7254.018232
300.167448,3370.820191,962.267725,7179.997637
300.167756,3447.429741,814.226536,8364.327145
300.168064,2298.286494,296.082377,8586.388927
300.168372,1378.971896,-444.123565,9178.553681
300.168680,995.924147,-0.000000,9474.636058
300.168988,612.876398,1110.308913,9400.615463
300.169296,1072.533697,1924.535449,9326.594869
300.169604,2451.505594,2368.659014,8142.265362
300.169912,3294.210641,1776.494261,7846.182985
300.170220,3064.381992,888.247130,8216.285956
300.170528,1915.238745,-0.000000,9474.636058
300.170836,383.047749,-1628.453072,11177.109724
300.171144,-1915.238745,-2442.679609,12509.480420
300.171452,-2757.943793,-2886.803174,12953.603985
300.171760,-3370.820191,-2294.638420,12805.562797
300.172067,-3524.039291,-962.267725,11917.315666
300.172375,-1762.019645,296.082377,11621.233289
300.172683,-306.438199,1406.391290,9622.677246
300.172991,1302.362347,2220.617826,8808.450710
300.173299,2604.724693,1776.494261,7846.182985
300.173607,2757.943793,1628.453072,7476.080014
300.173915,2451.505594,370.102971,8586.388927
300.174223,1532.190996,-0.000000,9178.553681
300.174531,919.314598,-222.061783,9992.780217
300.174839,76.609550,148.041188,9474.636058
300.175147,459.657299,814.226536,9400.615463
300.175455,995.924147,2072.576638,8956.491898
300.175763,1608.800546,2294.638420,7994.224174
300.176071,2987.772442,1776.494261,7550.100608
300.176379,2834.553343,1110.308913,7772.162391
300.176687,842.705048,-296.082377,9178.553681
300.176995,0.000000,-1924.535449,10881.027347
300.177303,-1532.190996,-2960.823768,12213.398043
300.177611,-3753.867940,-3330.926739,12509.480420
300.177919,-3753.867940,-2738.761985,12805.562797
300.178227,-2374.896044,-1184.329507,11621.233289
300.178534,-1608.800546,962.267725,10881.027347
300.178842,612.876398,1628.453072,8882.471304
300.179150,1991.848295,2294.638420,7550.100608
300.179458,2911.162892,1406.391290,7698.141797
300.179766,2604.724693,666.185348,6809.894666
300.180074,2451.505594,666.185348,8364.327145
300.180382,1685.410096,-592.164754,9474.636058
300.180690,229.828649,-1036.288319,9474.636058
300.180998,76.609550,-370.102971,10140.821405
300.181306,76.609550,-0.000000,9992.780217
300.181614,1072.533697,1406.391290,9178.553681
300.181922,2604.724693,2442.679609,8290.306550
300.182230,3524.039291,2442.679609,7994.224174
300.182538,3294.210641,1036.288319,7772.162391
300.182846,2145.067394,-0.000000,8290.306550
300.183154,1225.752797,-518.144159,9918.759623
300.183462,-919.314598,-2072.576638,11177.109724
300.183770,-1991.848295,-2516.700203,12435.459826
300.184078,-2987.772442,-2146.597232,12435.459826
300.184386,-3370.820191,-1036.288319,11547.212695
300.184694,-1608.800546,222.061783,11547.212695
300.185001,-536.266849,1406.391290,10140.821405
300.185309,842.705048,962.267725,9400.615463
300.185617,2374.896044,740.205942,8438.347739
300.185925,2145.067394,1258.350101,7698.141797
300.186233,2451.505594,-0.000000,9474.636058
300.186541,1378.971896,296.082377,9030.512492
300.186849,1991.848295,-222.061783,9918.759623
300.187157,919.314598,592.164754,9474.636058
300.187465,612.876398,1480.411884,8956.491898
300.187773,1608.800546,2146.597232,9474.636058
300.188081,2528.115143,3034.844362,8438.347739
300.188389,3064.381992,2516.700203,7994.224174
300.188697,2451.505594,1850.514855,7772.162391
300.189005,1915.238745,444.123565,9104.533087
300.189313,0.000000,-1406.391290,10732.986159
300.189621,-1762.019645,-2442.679609,11917.315666
300.189929,-3140.991542,-2738.761985,13027.624579
300.190237,-3677.258390,-2220.617826,12509.480420
300.190545,-2604.724693,-888.247130,12213.398043
300.190853,-2221.676944,518.144159,10732.986159
300.191161,0.000000,1554.432478,10066.800811
300.191468,1532.190996,1628.453072,8512.368333
300.191776,2374.896044,1850.514855,7105.977043
300.192084,2451.505594,148.041188,8438.347739
300.192392,2221.676944,-0.000000,8290.306550
300.192700,2145.067394,-592.164754,9326.594869
300.193008,229.828649,-740.205942,9844.739029
300.193316,536.266849,-370.102971,9918.759623
300.193624,306.438199,888.247130,9030.512492
300.193932,1685.410096,1850.514855,8956.491898
300.194240,3447.429741,2516.700203,7328.038826
300.194548,3370.820191,2368.659014,6957.935855
300.194856,2834.553343,1332.370696,7550.100608
300.195164,2068.457845,222.061783,8438.347739
300.195472,459.657299,-740.205942,10214.842000
300.195780,-919.314598,-2368.659014,11251.130318
300.196088,-2451.505594,-2664.741391,11843.295072
300.196396,-3447.429741,-2516.700203,12361.439231
300.196704,-3447.429741,-2072.576638,11769.274478
300.197012,-1685.410096,-0.000000,11177.109724
300.197320,-766.095498,296.082377,10140.821405
300.197628,995.924147,148.041188,9326.594869
300.197936,2068.457845,740.205942,7476.080014
300.198244,2374.896044,-0.000000,8438.347739
300.198552,2298.286494,-518.144159,9104.533087
300.198860,1302.362347,-814.226536,8882.471304
300.199168,1302.362347,-962.267725,9992.780217
300.199476,536.266849,-370.102971,9326.594869
300.199784,1072.533697,1184.329507,8882.471304
300.200092,2451.505594,2368.659014,8882.471304
300.200400,3600.648841,2812.782580,6957.935855
300.200708,3677.258390,2886.803174,6661.853478
300.201016,3830.477490,1850.514855,7698.141797
300.201325,2451.505594,814.226536,8364.327145
300.201633,459.657299,-962.267725,10362.883188
300.201941,-689.485948,-1998.556043,12805.562797
300.202249,-3140.991542,-2590.720797,11917.315666
300.202557,-3370.820191,-1998.556043,12731.542202
300.202865,-3064.381992,-1110.308913,12583.501014
300.203173,-2068.457845,518.144159,11103.089130
300.203481,-153.219100,1332.370696,10066.800811
300.203789,1762.019645,1628.453072,9178.553681
300.204097,1991.848295,1924.535449,7624.121203
300.204405,2145.067394,814.226536,8438.347739
300.204713,2298.286494,518.144159,9474.636058
300.205022,1302.362347,-296.082377,9696.697840
300.205330,536.266849,-518.144159,10362.883188
300.205638,0.000000,-0.000000,10510.924376
300.205946,536.266849,1110.308913,9696.697840
300.206254,689.485948,1702.473667,9326.594869
300.206562,2298.286494,2072.576638,8808.450710
300.206870,3677.258390,1998.556043,7772.162391
300.207178,2987.772442,1554.432478,7105.977043
300.207486,2528.115143,-74.020594,8660.409521
300.207794,995.924147,-1036.288319,10362.883188
300.208102,-612.876398,-2146.597232,11251.130318
300.208410,-2451.505594,-2146.597232,11621.233289
300.208719,-2681.334243,-2294.638420,11843.295072
300.209027,-2604.724693,-1184.329507,11473.192101
300.209335,-1532.190996,518.144159,10955.047942
300.209643,0.000000,962.267725,10066.800811
300.209951,1072.533697,1628.453072,8586.388927
300.210259,1838.629195,1258.350101,7698.141797
300.210567,2374.896044,592.164754,8290.306550
300.210875,1685.410096,-444.123565,9326.594869
300.211183,919.314598,-666.185348,9918.759623
300.211491,766.095498,-1036.288319,10288.862594
300.211799,-459.657299,-444.123565,10436.903782
300.212107,612.876398,-0.000000,10140.821405
300.212416,1608.800546,1702.473667,8586.388927
300.212724,3140.991542,2072.576638,7624.121203
300.213032,4366.744339,2220.617826,6809.894666
300.213340,3064.381992,1554.432478,7031.956449
300.213648,2834.553343,-518.144159,9030.512492
300.213956,536.266849,-1184.329507,9622.677246
300.214264,-612.876398,-3034.844362,11547.212695
300.214572,-2604.724693,-3034.844362,11843.295072
300.214880,-3217.601092,-2146.597232,11325.150913
300.215188,-2911.162892,-814.226536,11695.253884
300.215496,-1532.190996,814.226536,10288.862594
300.215804,689.485948,2294.638420,9400.615463
300.216113,1685.410096,2146.597232,7994.224174
300.216421,2604.724693,2072.576638,7328.038826
300.216729,2757.943793,740.205942,7772.162391
300.217037,2604.724693,592.164754,9178.553681
300.217345,1072.533697,-444.123565,9252.574275
300.217653,612.876398,-814.226536,10214.842000
300.217961,-306.438199,-296.082377,10140.821405
300.218269,0.000000,-0.000000,9696.697840
300.218577,1225.752797,1258.350101,9104.533087
300.218885,2145.067394,1850.514855,8734.430116
300.219193,2987.772442,1480.411884,8364.327145
300.219501,2145.067394,814.226536,8364.327145
300.219810,1302.362347,-148.041188,9770.718434
300.220118,153.219100,-1258.350101,11029.068536
300.220426,-995.924147,-1554.432478,12287.418637
300.220734,-2374.896044,-1850.514855,12065.356855
300.221042,-3370.820191,-1110.308913,11621.233289
300.221350,-1762.019645,-0.000000,12139.377449
300.221658,-1225.752797,1480.411884,10066.800811
300.221966,76.609550,2072.576638,9474.636058
300.222274,2145.067394,1924.535449,8808.450710
300.222582,2451.505594,1702.473667,7476.080014
300.222890,2374.896044,814.226536,8290.306550
300.223198,1838.629195,-74.020594,9104.533087
300.223507,1149.143247,-814.226536,9992.780217
300.223815,-153.219100,-1184.329507,10881.027347
300.224123,306.438199,-814.226536,10436.903782
300.224431,689.485948,888.247130,9622.677246
300.224739,1302.362347,1702.473667,9104.533087
300.225047,3294.210641,2294.638420,8734.430116
300.225355,3677.258390,2368.659014,7402.059420
300.225663,3447.429741,1776.494261,7772.162391
300.225971,2145.067394,444.123565,8660.409521
300.226279,995.924147,-444.123565,10362.883188
300.226587,-842.705048,-1850.514855,11399.171507
300.226895,-1991.848295,-2442.679609,11769.274478
300.227204,-2604.724693,-1628.453072,11843.295072
300.227512,-2757.943793,-592.164754,11473.192101
300.227820,-1225.752797,296.082377,10658.965565
300.228128,383.047749,888.247130,9622.677246
300.228436,1455.581446,1332.370696,8882.471304
300.228744,2068.457845,222.061783,7402.059420
300.229052,2145.067394,222.061783,8290.306550
300.229360,1378.971896,-1036.288319,9918.759623
300.229668,383.047749,-1406.391290,9992.780217
300.229976,153.219100,-1110.308913,10140.821405
300.230284,-459.657299,-444.123565,9844.739029
300.230592,842.705048,444.123565,9474.636058
300.230901,1532.190996,2442.679609,7994.224174
300.231209,3217.601092,1998.556043,7698.141797
300.231517,3524.039291,1628.453072,7254.018232
300.231825,2834.553343,1776.494261,6883.915261
300.232133,2451.505594,222.061783,9030.512492
300.232441,612.876398,-814.226536,9770.718434
300.232749,-766.095498,-1776.494261,11103.089130
300.233057,-2298.286494,-2368.659014,11917.315666
300.233365,-3294.210641,-1924.535449,11991.336260
300.233673,-2298.286494,-1036.288319,11695.253884
300.233981,-1762.019645,518.144159,10732.986159
300.234289,-383.047749,1184.329507,9770.718434
300.234598,1225.752797,1628.453072,8512.368333
300.234906,1991.848295,1258.350101,7624.121203
300.235214,1838.629195,370.102971,8438.347739
300.235522,1378.971896,-444.123565,9770.718434
300.235830,459.657299,-444.123565,10066.800811
300.236138,153.219100,-1110.308913,10807.006753
300.236446,0.000000,-592.164754,10510.924376
300.236754,-306.438199,592.164754,9918.759623
300.237062,919.314598,1554.432478,9252.574275
300.237370,2451.505594,2516.700203,8512.368333
300.237678,4060.306139,2072.576638,7920.203579
300.237986,2451.505594,1998.556043,7031.956449
300.238295,2757.943793,-222.061783,9400.615463
300.238603,842.705048,-1036.288319,10732.986159
300.238911,-995.924147,-1554.432478,11917.315666
300.239219,-2068.457845,-1924.535449,11547.212695
300.239527,-1762.019645,-1258.350101,11251.130318
300.239835,-1455.581446,-0.000000,11177.109724
300.240143,-919.314598,1924.535449,9104.533087
300.240451,1838.629195,1998.556043,9696.697840
300.240759,1838.629195,1924.535449,8142.265362
300.241067,2451.505594,1332.370696,7550.100608
300.241375,2145.067394,296.082377,9178.553681
300.241683,1225.752797,-888.247130,9696.697840
300.241992,153.219100,-1628.453072,11251.130318
300.242300,-536.266849,-1776.494261,11103.089130
300.242608,-612.876398,-1036.288319,10955.047942
300.242916,-536.266849,-222.061783,10584.944971
300.243224,1762.019645,1628.453072,9474.636058
300.243532,2757.943793,2072.576638,8364.327145
300.243840,3677.258390,1776.494261,7476.080014
300.244148,3907.087040,1628.453072,7698.141797
300.244456,2451.505594,518.144159,8290.306550
300.244764,1532.190996,-592.164754,10362.883188
300.245072,-153.219100,-1480.411884,10066.800811
300.245380,-1762.019645,-1258.350101,11029.068536
300.245689,-2068.457845,-2072.576638,11325.150913
300.245997,-1762.019645,-74.020594,10510.924376
300.246305,-1072.533697,888.247130,10066.800811
300.246613,1149.143247,1258.350101,8808.450710
300.246921,2298.286494,1924.535449,7550.100608
300.247229,2451.505594,1258.350101,7698.141797
300.247537,1991.848295,-0.000000,8660.409521
300.247845,919.314598,-740.205942,9474.636058
300.248153,153.219100,-1184.329507,10510.924376
300.248461,-229.828649,-2072.576638,11251.130318
300.248769,-459.657299,-370.102971,10362.883188
300.249077,0.000000,-0.000000,9992.780217
300.249386,1378.971896,1998.556043,9326.594869
300.249694,1915.238745,2146.597232,7994.224174
300.250002,2911.162892,1628.453072,8734.430116
300.250310,2451.505594,814.226536,7920.203579
300.250618,1838.629195,-0.000000,8956.491898
300.250926,383.047749,-1554.432478,10807.006753
300.251234,-1072.533697,-1776.494261,11399.171507
300.251542,-3064.381992,-2368.659014,11769.274478
300.251850,-2911.162892,-2072.576638,12065.356855
300.252158,-2528.115143,-148.041188,10732.986159
300.252466,-536.266849,1258.350101,9992.780217
300.252774,1225.752797,2146.597232,7846.182985
300.253083,2374.896044,2442.679609,6661.853478
300.253391,3524.039291,1850.514855,6957.935855
300.253699,2221.676944,1258.350101,7179.997637
300.254007,1532.190996,222.061783,8956.491898
300.254315,459.657299,-592.164754,9918.759623
300.254623,-306.438199,-518.144159,10881.027347
300.254931,-842.705048,-888.247130,11473.192101
300.255239,-766.095498,-0.000000,10584.944971
300.255547,689.485948,962.267725,10881.027347
300.255855,1838.629195,1184.329507,9104.533087
300.256163,2757.943793,962.267725,8956.491898
300.256471,2604.724693,888.247130,8438.347739
300.256780,2145.067394,-148.041188,9178.553681
300.257088,1149.143247,-962.267725,10584.944971
300.257396,-536.266849,-2368.659014,11325.150913
300.257704,-2221.676944,-1776.494261,11621.233289
300.258012,-2374.896044,-1702.473667,11843.295072
300.258320,-1762.019645,-370.102971,11325.150913
300.258628,-1762.019645,1406.391290,9696.697840
300.258936,1149.143247,2294.638420,9474.636058
300.259244,2068.457845,2368.659014,7328.038826
300.259552,2298.286494,2368.659014,6809.894666
300.259860,2757.943793,1110.308913,8290.306550
300.260168,1608.800546,740.205942,8734.430116
300.260477,459.657299,-370.102971,9992.780217
300.260785,0.000000,-370.102971,10436.903782
300.261093,-306.438199,-296.082377,10436.903782
300.261401,-153.219100,296.082377,9992.780217
300.261709,995.924147,1406.391290,9622.677246
300.262017,1991.848295,1850.514855,8734.430116
300.262325,2451.505594,1110.308913,8808.450710
300.262633,2834.553343,-0.000000,8882.471304
300.262941,1838.629195,-888.247130,8956.491898
300.263249,459.657299,-2368.659014,10658.965565
300.263557,-1302.362347,-3701.029710,11695.253884
300.263865,-2451.505594,-3034.844362,12287.418637
300.264174,-2834.553343,-2072.576638,12435.459826
300.264482,-1991.848295,-592.164754,11103.089130
300.264790,0.000000,1184.329507,9548.656652
300.265098,1302.362347,2368.659014,7920.203579
300.265406,2374.896044,2442.679609,7105.977043
300.265714,2451.505594,2590.720797,6735.874072
300.266022,2757.943793,1258.350101,7772.162391
300.266330,1685.410096,-0.000000,8586.388927
300.266638,689.485948,-444.123565,9770.718434
300.266946,76.609550,-370.102971,10214.842000
300.267254,-689.485948,-666.185348,10214.842000
300.267562,-229.828649,222.061783,10288.862594
300.267871,612.876398,1184.329507,10066.800811
300.268179,1378.971896,1258.350101,9252.574275
300.268487,2451.505594,1036.288319,8216.285956
300.268795,3064.381992,296.082377,8142.265362
300.269103,1838.629195,-888.247130,9548.656652
300.269411,76.609550,-2072.576638,10732.986159
300.269719,-1225.752797,-2368.659014,12065.356855
300.270027,-2145.067394,-2442.679609,12213.398043
300.270335,-2298.286494,-1332.370696,11547.212695
300.270643,-1915.238745,518.144159,10510.924376
300.270951,0.000000,2072.576638,9770.718434
300.271259,1762.019645,2368.659014,7624.121203
300.271568,2757.943793,3034.844362,6957.935855
300.271876,3294.210641,2590.720797,6365.771101
300.272184,2528.115143,1924.535449,7105.977043
300.272492,2145.067394,222.061783,9326.594869
300.272800,383.047749,-962.267725,10288.862594
300.273108,-229.828649,-1036.288319,10732.986159
300.273416,-459.657299,-962.267725,11103.089130
300.273724,-766.095498,-222.061783,10881.027347
300.274032,689.485948,666.185348,10658.965565
300.274340,1762.019645,1110.308913,9622.677246
300.274648,2911.162892,888.247130,8586.388927
300.274956,2911.162892,296.082377,8142.265362
300.275265,2068.457845,-444.123565,9918.759623
300.275573,689.485948,-1924.535449,11251.130318
300.275881,-1378.971896,-2442.679609,11473.192101
300.276189,-2451.505594,-2368.659014,12213.398043
300.276497,-2528.115143,-1110.308913,11473.192101
300.276805,-1915.238745,592.164754,10510.924376
300.277113,0.000000,2072.576638,9474.636058
300.277421,1991.848295,2886.803174,7846.182985
300.277729,2834.553343,3108.864956,6217.729913
300.278037,2911.162892,2220.617826,7031.956449
300.278345,3140.991542,1406.391290,8142.265362
300.278653,1685.410096,296.082377,9178.553681
300.278962,1149.143247,-296.082377,9918.759623
300.279270,-383.047749,-1036.288319,10436.903782
300.279578,-612.876398,-592.164754,10807.006753
300.279886,76.609550,444.123565,10140.821405
300.280194,766.095498,1406.391290,9474.636058
300.280502,2528.115143,1924.535449,9326.594869
300.280810,2451.505594,444.123565,8956.491898
300.281118,2145.067394,296.082377,8586.388927
300.281426,995.924147,-1406.391290,9770.718434
300.281734,-612.876398,-2220.617826,11029.068536
300.282042,-2145.067394,-2960.823768,12361.439231
300.282350,-1915.238745,-2960.823768,12805.562797
300.282659,-3064.381992,-1702.473667,11103.089130
300.282967,-1915.238745,-222.061783,10584.944971
300.283275,383.047749,1480.411884,9326.594869
300.283583,1991.848295,2886.803174,6883.915261
300.283891,2834.553343,3108.864956,5847.626942
300.284199,3753.867940,2368.659014,6217.729913
300.284507,3294.210641,1924.535449,6735.874072
300.284815,2145.067394,370.102971,9326.594869
300.285123,1225.752797,-666.185348,10140.821405
300.285431,229.828649,-1110.308913,9992.780217
300.285739,-995.924147,-814.226536,10584.944971
300.286047,-459.657299,-0.000000,10214.842000
300.286356,766.095498,1406.391290,9844.739029
300.286664,1915.238745,1406.391290,9178.553681
300.286972,2604.724693,1110.308913,8068.244768
300.287280,2987.772442,666.185348,8438.347739
300.287588,1378.971896,-888.247130,10140.821405
300.287896,459.657299,-2294.638420,11251.130318
300.288204,-1532.190996,-2886.803174,12435.459826
300.288512,-2757.943793,-2368.659014,12879.583391
300.288820,-3753.867940,-1998.556043,11917.315666
300.289128,-2145.067394,148.041188,10807.006753
300.289436,-229.828649,1702.473667,9622.677246
300.289744,1838.629195,2516.700203,7550.100608
300.290053,2987.772442,2368.659014,6735.874072
300.290361,3830.477490,1998.556043,6661.853478
300.290669,2528.115143,1628.453072,7254.018232
300.290977,2068.457845,518.144159,8734.430116
300.291285,612.876398,-296.082377,9474.636058
300.291593,459.657299,-962.267725,10140.821405
300.291901,-383.047749,-370.102971,10140.821405
300.292209,-383.047749,444.123565,10510.924376
300.292517,1302.362347,962.267725,9696.697840
300.292825,2528.115143,1258.350101,9252.574275
300.293133,2834.553343,444.123565,8364.327145
300.293441,2604.724693,-148.041188,8438.347739
300.293750,1532.190996,-1480.411884,10066.800811
300.294058,-306.438199,-2072.576638,11843.295072
300.294366,-1838.629195,-3478.967927,13249.686362
300.294674,-2987.772442,-2812.782580,13397.727550
300.294982,-2911.162892,-1998.556043,12657.521608
300.295290,-2145.067394,370.102971,10807.006753
300.295598,383.047749,1554.432478,8660.409521
300.295906,2298.286494,2886.803174,7920.203579
300.296214,3140.991542,2960.823768,6291.750507
300.296522,3064.381992,2516.700203,6439.791695
300.296830,2681.334243,1184.329507,7550.100608
300.297138,2528.115143,-74.020594,8956.491898
300.297447,1302.362347,-0.000000,9696.697840
300.297755,-536.266849,-1332.370696,10955.047942
300.298063,-383.047749,-444.123565,10658.965565
300.298371,-306.438199,740.205942,9992.780217
300.298679,995.924147,1924.535449,9178.553681
300.298987,2528.115143,1628.453072,8734.430116
300.299295,3140.991542,1628.453072,7994.224174
300.299603,2834.553343,148.041188,8660.409521
300.299911,1149.143247,-814.226536,9474.636058
300.300219,-459.657299,-1776.494261,11769.274478
300.300527,-1838.629195,-3108.864956,12657.521608
300.300835,-3064.381992,-2664.741391,12953.603985
300.301144,-3064.381992,-1850.514855,11917.315666
300.301452,-1762.019645,296.082377,10510.924376
300.301760,76.609550,1998.556043,9104.533087
300.302068,2528.115143,2590.720797,8068.244768
300.302376,3370.820191,2960.823768,6809.894666
300.302684,3753.867940,2516.700203,5847.626942
300.302992,2757.943793,1628.453072,7402.059420
300.303300,2374.896044,592.164754,8586.388927
300.303608,536.266849,-0.000000,10214.842000
300.303916,-229.828649,-888.247130,10658.965565
300.304224,-842.705048,148.041188,10066.800811
300.304532,0.000000,370.102971,10362.883188
300.304841,689.485948,1258.350101,9474.636058
300.305149,2681.334243,962.267725,9030.512492
300.305457,3447.429741,814.226536,8216.285956
300.305765,2298.286494,-0.000000,7994.224174
300.306073,1225.752797,-1702.473667,10066.800811
300.306381,-153.219100,-2960.823768,12065.356855
300.306689,-2068.457845,-3330.926739,12657.521608
300.306997,-3064.381992,-4071.132681,12361.439231
300.307305,-2834.553343,-2368.659014,11843.295072
300.307613,-995.924147,-74.020594,11029.068536
300.307921,0.000000,1776.494261,9548.656652
300.308229,2145.067394,2442.679609,7476.080014
300.308537,3064.381992,2738.761985,6661.853478
300.308845,3524.039291,2368.659014,6513.812290
300.309153,2145.067394,2146.597232,6291.750507
300.309461,3907.087040,148.041188,10066.800811
300.309769,995.924147,296.082377,8512.368333
300.310077,-153.219100,370.102971,9622.677246
300.310385,76.609550,-222.061783,11991.336260
300.310693,-612.876398,2072.576638,9030.512492
300.311001,612.876398,1258.350101,10584.944971
300.311309,2757.943793,2738.761985,8068.244768
300.311617,2757.943793,1184.329507,8142.265362
300.311925,1838.629195,-0.000000,8882.471304
300.312233,1225.752797,-814.226536,10955.047942
300.312541,-919.314598,-2516.700203,12731.542202
300.312849,-3140.991542,-3997.112087,13249.686362
300.313157,-3217.601092,-3404.947333,13175.665768
300.313465,-3753.867940,-2294.638420,11769.274478
300.313774,-2068.457845,-296.082377,11029.068536
300.314082,306.438199,1850.514855,9104.533087
300.314390,1762.019645,2590.720797,7624.121203
300.314698,2757.943793,1850.514855,7328.038826
300.315006,3907.087040,1850.514855,6069.688724
300.315314,3140.991542,1554.432478,8216.285956
300.315622,2374.896044,666.185348,8586.388927
300.315930,1302.362347,592.164754,9104.533087
300.316238,612.876398,-0.000000,9696.697840
300.316546,0.000000,518.144159,9696.697840
300.316854,995.924147,1406.391290,9622.677246
300.317162,1225.752797,2294.638420,9400.615463
300.317470,2911.162892,1110.308913,9400.615463
300.317778,2145.067394,740.205942,7476.080014
300.318086,2298.286494,-222.061783,9178.553681
300.318394,306.438199,-1628.453072,10510.924376
300.318702,-1685.410096,-2738.761985,12139.377449
300.319010,-2528.115143,-3775.050304,13027.624579
300.319318,-3524.039291,-3108.864956,12879.583391
300.319626,-3140.991542,-2072.576638,12583.501014
300.319934,-1991.848295,-296.082377,10658.965565
300.320242,-612.876398,1998.556043,10140.821405
300.320550,1685.410096,1924.535449,7772.162391
300.320858,1455.581446,2664.741391,7105.977043
300.321166,3600.648841,1110.308913,7846.182985
300.321474,1608.800546,1628.453072,6883.915261
300.321782,1608.800546,296.082377,9770.718434
300.322090,1378.971896,-0.000000,9918.759623
300.322398,229.828649,-74.020594,9474.636058
300.322706,-612.876398,-444.123565,9992.780217
300.323014,842.705048,1702.473667,8290.306550
300.323322,2068.457845,2294.638420,8216.285956
300.323630,3064.381992,1998.556043,7328.038826
300.323938,3753.867940,1702.473667,6957.935855
300.324247,2068.457845,370.102971,7624.121203
300.324555,1149.143247,-2294.638420,10362.883188
300.324863,-995.924147,-2146.597232,11029.068536
300.325171,-2528.115143,-3404.947333,13619.789333
300.325479,-3600.648841,-3627.009116,13471.748144
300.325787,-4060.306139,-2220.617826,12065.356855
300.326095,-2451.505594,-592.164754,12065.356855
300.326403,-689.485948,1036.288319,9770.718434
300.326711,1685.410096,2368.659014,8586.388927
300.327019,2528.115143,2146.597232,7772.162391
300.327327,2834.553343,1998.556043,6809.894666
300.327635,2528.115143,1110.308913,7994.224174
300.327943,2221.676944,518.144159,9252.574275
300.328251,1302.362347,296.082377,9178.553681
300.328559,536.266849,222.061783,9474.636058
300.328867,229.828649,518.144159,10140.821405
300.329175,689.485948,1924.535449,8956.491898
300.329483,2451.505594,2220.617826,9030.512492
300.329791,3830.477490,2146.597232,7476.080014
300.330099,3447.429741,1332.370696,7402.059420
300.330407,2834.553343,-0.000000,8882.471304
300.330715,1302.362347,-962.267725,9474.636058
300.331023,-766.095498,-2516.700203,11843.295072
300.331331,-2451.505594,-3256.906145,13027.624579
300.331639,-2757.943793,-3404.947333,13101.645173
300.331947,-3217.601092,-1258.350101,11917.315666
300.332255,-1915.238745,-148.041188,11103.089130
300.332563,0.000000,1628.453072,9474.636058
300.332871,1532.190996,2516.700203,8512.368333
300.333179,2451.505594,2590.720797,7550.100608
300.333487,2604.724693,2072.576638,7105.977043
300.333795,2681.334243,1110.308913,8438.347739
300.334103,1838.629195,222.061783,8660.409521
300.334411,995.924147,-0.000000,9844.739029
300.334719,306.438199,-962.267725,10658.965565
300.335028,0.000000,-74.020594,9548.656652
300.335336,689.485948,814.226536,9992.780217
300.335644,1762.019645,1258.350101,9178.553681
300.335952,2987.772442,2220.617826,7698.141797
300.336260,3983.696590,1184.329507,8142.265362
300.336568,2681.334243,296.082377,8364.327145
300.336876,1072.533697,-888.247130,9474.636058
300.337184,-689.485948,-2146.597232,11399.171507
300.337492,-2374.896044,-2664.741391,12509.480420
300.337800,-2834.553343,-2146.597232,12731.542202
300.338108,-2757.943793,-1480.411884,11991.336260
300.338416,-2068.457845,-0.000000,10658.965565
300.338724,-153.219100,814.226536,9992.780217
300.339032,1149.143247,1998.556043,9178.553681
300.339340,2834.553343,2294.638420,7624.121203
300.339648,2451.505594,1480.411884,7698.141797
300.339956,1991.848295,370.102971,9178.553681
300.340264,2374.896044,-0.000000,9326.594869
300.340572,995.924147,-0.000000,9400.615463
300.340880,306.438199,-222.061783,9844.739029
300.341188,919.314598,-518.144159,9696.697840
300.341496,995.924147,1924.535449,9178.553681
300.341804,2298.286494,1628.453072,8364.327145
300.342112,2834.553343,1702.473667,7994.224174
300.342420,3294.210641,1776.494261,7476.080014
300.342728,1991.848295,222.061783,8364.327145
300.343036,229.828649,-814.226536,10140.821405
300.343344,-536.266849,-2146.597232,11917.315666
300.343652,-2374.896044,-3256.906145,12657.521608
300.343960,-3524.039291,-3330.926739,12879.583391
300.344268,-2987.772442,-1776.494261,11695.253884
300.344576,-1225.752797,-296.082377,11695.253884
300.344884,-383.047749,1184.329507,9622.677246
300.345192,2145.067394,2516.700203,7624.121203
300.345501,3064.381992,2738.761985,7105.977043
300.345809,2911.162892,2072.576638,6957.935855
300.346117,3064.381992,740.205942,7994.224174
300.346425,1915.238745,222.061783,8882.471304
300.346733,229.828649,-962.267725,9992.780217
300.347041,76.609550,-962.267725,10658.965565
300.347349,-306.438199,-0.000000,9844.739029
300.347657,229.828649,962.267725,9918.759623
300.347965,1762.019645,1850.514855,8734.430116
300.348273,3217.601092,2146.597232,7624.121203
300.348581,3447.429741,1850.514855,7402.059420
300.348889,2528.115143,296.082377,8290.306550
300.349197,1302.362347,-740.205942,10584.944971
300.349505,-842.705048,-2738.761985,11695.253884
300.349813,-2451.505594,-3108.864956,12065.356855
300.350121,-3294.210641,-3330.926739,12731.542202
300.350429,-3064.381992,-1998.556043,11843.295072
300.350737,-2528.115143,-666.185348,10881.027347
300.351045,-842.705048,370.102971,10658.965565
300.351353,1378.971896,1850.514855,9400.615463
300.351661,1532.190996,2368.659014,7624.121203
300.351969,1991.848295,1554.432478,7772.162391
300.352277,2068.457845,962.267725,8438.347739
300.352585,1072.533697,370.102971,9104.533087
300.352893,383.047749,-222.061783,9770.718434
300.353201,0.000000,222.061783,9770.718434
300.353509,153.219100,592.164754,9918.759623
300.353817,612.876398,1924.535449,8882.471304
300.354125,2681.334243,2368.659014,8882.471304
300.354433,3753.867940,2664.741391,6957.935855
300.354741,3064.381992,2072.576638,7105.977043
300.355049,2681.334243,222.061783,8364.327145
300.355357,842.705048,-518.144159,9918.759623
300.355665,-1302.362347,-3182.885551,12879.583391
300.355974,-3447.429741,-3108.864956,13101.645173
300.356282,-3600.648841,-2960.823768,13175.665768
300.356590,-3524.039291,-1998.556043,12657.521608
300.356898,-1762.019645,-0.000000,11695.253884
300.357206,229.828649,1850.514855,10066.800811
300.357514,1378.971896,2664.741391,9104.533087
300.357822,2298.286494,2738.761985,7772.162391
300.358130,2451.505594,2146.597232,7624.121203
300.358438,1838.629195,962.267725,9474.636058
300.358746,995.924147,-370.102971,9770.718434
300.359054,76.609550,-666.185348,10510.924376
300.359362,0.000000,-1406.391290,11029.068536
300.359670,-229.828649,-0.000000,9770.718434
300.359978,1302.362347,1332.370696,9474.636058
300.360286,2911.162892,2368.659014,8364.327145
300.360594,4060.306139,2960.823768,6513.812290
300.360902,5056.230287,1628.453072,6291.750507
300.361210,3140.991542,1258.350101,7105.977043
300.361518,1991.848295,-592.164754,9622.677246
300.361826,-459.657299,-2072.576638,11473.192101
300.362134,-2068.457845,-2442.679609,12213.398043
300.362442,-3447.429741,-3108.864956,11843.295072
300.362750,-2911.162892,-1702.473667,11843.295072
300.363058,-1685.410096,-0.000000,10732.986159
300.363366,0.000000,1258.350101,9474.636058
300.363674,1915.238745,1628.453072,8142.265362
300.363982,3217.601092,1406.391290,6809.894666
300.364290,2068.457845,962.267725,7624.121203
300.364598,2451.505594,-296.082377,8512.368333
300.364906,1225.752797,-1036.288319,9104.533087
300.365214,229.828649,-1406.391290,10362.883188
300.365522,-536.266849,-1850.514855,10955.047942
300.365830,229.828649,-222.061783,9474.636058
300.366138,766.095498,518.144159,9474.636058
300.366446,2451.505594,1628.453072,8290.306550
300.366755,3524.039291,2146.597232,7328.038826
300.367063,3140.991542,1850.514855,7624.121203
300.367371,2834.553343,518.144159,8290.306550
300.367679,1149.143247,-370.102971,9400.615463
300.367987,-459.657299,-1924.535449,11325.150913
300.368295,-1532.190996,-2886.803174,11917.315666
300.368603,-3140.991542,-2516.700203,11473.192101
300.368911,-2528.115143,-1480.411884,11843.295072
300.369219,-1455.581446,-74.020594,10881.027347
300.369527,0.000000,1406.391290,9474.636058
300.369835,1455.581446,2072.576638,8586.388927
300.370143,2528.115143,2368.659014,7402.059420
300.370451,2374.896044,1554.432478,7698.141797
300.370759,1838.629195,888.247130,8808.450710
300.371067,1225.752797,-370.102971,10362.883188
300.371375,0.000000,-666.185348,10510.924376
300.371683,-689.485948,-888.247130,10881.027347
300.371991,-689.485948,148.041188,10214.842000
300.372299,536.266849,1702.473667,10362.883188
300.372607,1532.190996,2368.659014,9474.636058
300.372915,2451.505594,2442.679609,8734.430116
300.373223,3064.381992,1924.535449,8808.450710
300.373531,2068.457845,1036.288319,8660.409521
300.373839,1149.143247,-518.144159,9622.677246
300.374147,-459.657299,-1332.370696,11177.109724
300.374455,-2757.943793,-2516.700203,12435.459826
300.374763,-3140.991542,-2590.720797,12805.562797
300.375071,-2911.162892,-1110.308913,11695.253884
300.375379,-1455.581446,-0.000000,10436.903782
300.375687,76.609550,1776.494261,9474.636058
300.375995,2757.943793,2072.576638,8956.491898
300.376303,3370.820191,1702.473667,6883.915261
300.376611,2757.943793,1480.411884,7402.059420
300.376919,2528.115143,592.164754,8586.388927
300.377228,1378.971896,-592.164754,9696.697840
300.377536,229.828649,-888.247130,10955.047942
300.377844,0.000000,-1110.308913,10732.986159
300.378152,76.609550,-0.000000,9770.718434
300.378460,459.657299,814.226536,9622.677246
300.378768,2528.115143,1776.494261,8660.409521
300.379076,3370.820191,2146.597232,7772.162391
300.379384,3140.991542,1480.411884,7624.121203
300.379692,2681.334243,148.041188,7772.162391
300.380000,919.314598,-518.144159,9474.636058
300.380308,-1149.143247,-2220.617826,11917.315666
300.380616,-1378.971896,-3552.988522,12139.377449
300.380924,-2834.553343,-2812.782580,12065.356855
300.381232,-3217.601092,-2368.659014,12213.398043
300.381540,-1608.800546,-666.185348,11251.130318
300.381848,0.000000,1406.391290,9548.656652
300.382156,1378.971896,2146.597232,8512.368333
300.382464,3064.381992,2146.597232,7105.977043
300.382772,3753.867940,1850.514855,7105.977043
300.383080,2451.505594,518.144159,8068.244768
300.383388,1838.629195,-296.082377,8734.430116
300.383696,995.924147,-740.205942,9474.636058
300.384004,-306.438199,-444.123565,9770.718434
300.384312,-229.828649,-74.020594,9030.512492
300.384620,766.095498,962.267725,9104.533087
300.384928,1532.190996,1480.411884,9400.615463
300.385236,2451.505594,1850.514855,7994.224174
300.385544,2451.505594,888.247130,8290.306550
300.385852,1991.848295,-148.041188,8660.409521
300.386160,0.000000,-1554.432478,9548.656652
300.386468,-229.828649,-2886.803174,12583.501014
300.386776,-3447.429741,-2590.720797,11473.192101
300.387084,-2528.115143,-2960.823768,12213.398043
300.387392,-2298.286494,-1776.494261,11547.212695
300.387700,-1838.629195,-222.061783,10288.862594
300.388009,-689.485948,1184.329507,9622.677246
300.388317,3140.991542,1924.535449,8586.388927
300.388625,2068.457845,2738.761985,6217.729913
300.388933,2374.896044,1702.473667,6957.935855
300.389241,2681.334243,370.102971,9400.615463
300.389549,383.047749,-0.000000,9400.615463
300.389857,612.876398,-1258.350101,10732.986159
300.390165,0.000000,-296.082377,9474.636058
300.390473,76.609550,-0.000000,9992.780217
300.390781,229.828649,1998.556043,10288.862594
300.391089,2298.286494,2738.761985,9104.533087
300.391397,2987.772442,2960.823768,8364.327145
300.391705,2911.162892,1776.494261,7328.038826
300.392013,2757.943793,1184.329507,8438.347739
300.392321,1302.362347,-296.082377,10066.800811
300.392629,-383.047749,-1924.535449,11399.171507
300.392937,-2221.676944,-2294.638420,11621.233289
300.393245,-2451.505594,-2368.659014,13249.686362
300.393553,-3370.820191,-1406.391290,11843.295072
300.393861,-1685.410096,296.082377,10881.027347
300.394169,612.876398,1702.473667,10584.944971
300.394477,1685.410096,2368.659014,7698.141797
300.394785,2681.334243,2442.679609,7624.121203
300.395093,2834.553343,1480.411884,7846.182985
300.395401,2604.724693,1110.308913,8512.368333
300.395709,2145.067394,-0.000000,9548.656652
300.396017,1225.752797,-518.144159,10288.862594
300.396325,76.609550,-888.247130,10288.862594
300.396633,0.000000,148.041188,10066.800811
300.396941,1532.190996,1406.391290,9400.615463
300.397249,2298.286494,1702.473667,8660.409521
300.397557,2757.943793,1924.535449,7920.203579
300.397865,3294.210641,888.247130,7624.121203
300.398173,2374.896044,-0.000000,8290.306550
300.398482,536.266849,-1110.308913,9548.656652
300.398790,-383.047749,-2368.659014,11325.150913
300.399098,-2145.067394,-3182.885551,11695.253884
300.399406,-3447.429741,-2738.761985,11843.295072
300.399714,-2987.772442,-1924.535449,11843.295072
300.400022,-1072.533697,-0.000000,11177.109724
300.400330,306.438199,1258.350101,9104.533087
300.400638,1455.581446,1924.535449,8142.265362
300.400946,2911.162892,2072.576638,7550.100608
300.401254,2298.286494,1258.350101,7772.162391
300.401562,1838.629195,296.082377,8364.327145
300.401870,1149.143247,-222.061783,9400.615463
300.402178,306.438199,-962.267725,9992.780217
300.402486,-459.657299,-666.185348,9992.780217
300.402794,-459.657299,-0.000000,9474.636058
300.403102,1532.190996,1554.432478,9474.636058
300.403410,2528.115143,2368.659014,8290.306550
300.403718,3140.991542,2590.720797,7624.121203
300.404026,3217.601092,1702.473667,7624.121203
300.404334,2068.457845,444.123565,8364.327145
300.404642,383.047749,-1036.288319,10362.883188
300.404950,-306.438199,-1998.556043,11473.192101
300.405258,-2298.286494,-3108.864956,11769.274478
300.405566,-3140.991542,-3034.844362,12583.501014
300.405874,-2987.772442,-2072.576638,12435.459826
300.406182,-2221.676944,296.082377,11103.089130
300.406490,0.000000,1258.350101,9770.718434
300.406798,2068.457845,2368.659014,8142.265362
300.407106,2528.115143,2294.638420,7179.997637
300.407414,2374.896044,1924.535449,7846.182985
300.407722,2145.067394,740.205942,9252.574275
300.408030,612.876398,-0.000000,9696.697840
300.408338,0.000000,-666.185348,10510.924376
300.408646,0.000000,-0.000000,9918.759623
300.408954,0.000000,444.123565,9696.697840
300.409262,1072.533697,1702.473667,9548.656652
300.409570,2451.505594,2220.617826,8808.450710
300.409878,3140.991542,2294.638420,8438.347739
300.410186,3370.820191,814.226536,8142.265362
300.410494,2068.457845,370.102971,8364.327145
300.410802,1225.752797,-1406.391290,10732.986159
300.411111,-766.095498,-2220.617826,11399.171507
300.411419,-2374.896044,-2738.761985,11843.295072
300.411727,-2911.162892,-3256.906145,12213.398043
300.412035,-2987.772442,-962.267725,11325.150913
300.412343,-1149.143247,962.267725,11473.192101
300.412651,-689.485948,1924.535449,9474.636058
300.412959,842.705048,2738.761985,9178.553681
300.413267,3140.991542,2072.576638,8512.368333
300.413575,1838.629195,2072.576638,7179.997637
300.413883,1915.238745,814.226536,9178.553681
300.414191,1149.143247,-0.000000,9844.739029
300.414499,76.609550,-444.123565,10881.027347
300.414807,-306.438199,-592.164754,10658.965565
300.415115,-459.657299,148.041188,10436.903782
300.415423,459.657299,592.164754,11029.068536
300.415731,2451.505594,1702.473667,8882.471304
300.416039,3447.429741,2146.597232,8364.327145
300.416347,2987.772442,1110.308913,7698.141797
300.416655,2374.896044,-148.041188,8734.430116
300.416963,766.095498,-1406.391290,10362.883188
300.417271,-229.828649,-2812.782580,11917.315666
300.417579,-1991.848295,-3034.844362,11695.253884
300.417887,-1838.629195,-2960.823768,11769.274478
300.418195,-1991.848295,-1628.453072,11251.130318
300.418503,-689.485948,740.205942,10140.821405
300.418811,919.314598,2368.659014,8364.327145
300.419119,2604.724693,2738.761985,7624.121203
300.419427,3064.381992,2886.803174,6809.894666
300.419735,2757.943793,2294.638420,6883.915261
300.420043,1915.238745,962.267725,9104.533087
300.420351,689.485948,-0.000000,9326.594869
300.420659,-612.876398,-592.164754,10658.965565
300.420967,-995.924147,-1110.308913,10881.027347
300.421275,-612.876398,-148.041188,10807.006753
300.421583,0.000000,740.205942,10362.883188
300.421891,1608.800546,1406.391290,9622.677246
300.422199,2681.334243,1628.453072,8364.327145
300.422507,2987.772442,1184.329507,7476.080014
300.422815,1762.019645,-74.020594,8290.306550
300.423123,1225.752797,-1480.411884,9844.739029
300.423431,0.000000,-2368.659014,11251.130318
300.423739,-2451.505594,-3034.844362,11621.233289
300.424048,-3370.820191,-2886.803174,11991.336260
300.424356,-2528.115143,-1480.411884,11695.253884
300.424664,-842.705048,370.102971,11621.233289
300.424972,0.000000,1776.494261,7920.203579
300.425280,2145.067394,3182.885551,8068.244768
300.425588,3447.429741,2442.679609,6957.935855
300.425896,2834.553343,2812.782580,6365.771101
300.426204,2451.505594,1406.391290,8438.347739
300.426512,1685.410096,296.082377,8734.430116
300.426820,536.266849,-888.247130,10436.903782
300.427128,-612.876398,-814.226536,10066.800811
300.427436,-459.657299,-518.144159,10140.821405
300.427744,459.657299,1184.329507,10436.903782
300.428052,1225.752797,1258.350101,9918.759623
300.428360,2145.067394,1258.350101,9104.533087
300.428668,1991.848295,592.164754,8586.388927
300.428976,1838.629195,-148.041188,9548.656652
300.429284,383.047749,-1554.432478,10510.924376
300.429592,-919.314598,-2664.741391,12065.356855
300.429900,-2298.286494,-3404.947333,12657.521608
300.430208,-3294.210641,-2368.659014,11991.336260
300.430516,-2221.676944,-740.205942,11547.212695
300.430824,-1302.362347,814.226536,10140.821405
300.431132,689.485948,2590.720797,9178.553681
300.431440,2451.505594,2886.803174,7476.080014
300.431748,3217.601092,3775.050304,6143.709319
300.432056,3217.601092,2664.741391,6587.832884
300.432364,2451.505594,1850.514855,8438.347739
300.432672,2068.457845,-0.000000,9474.636058
300.432980,459.657299,-222.061783,10288.862594
300.433288,-766.095498,-666.185348,10881.027347
300.433596,-459.657299,-148.041188,9992.780217
300.433904,76.609550,592.164754,10066.800811
300.434212,1378.971896,1554.432478,9474.636058
300.434520,3064.381992,592.164754,9030.512492
300.434828,3064.381992,814.226536,7624.121203
300.435136,1838.629195,-370.102971,8956.491898
300.435444,612.876398,-1776.494261,11473.192101
300.435752,-1149.143247,-2220.617826,11991.336260
300.436060,-2528.115143,-2738.761985,12583.501014
300.436368,-2987.772442,-3034.844362,12805.562797
300.436676,-2987.772442,-962.267725,11251.130318
300.436984,-1991.848295,666.185348,11177.109724
300.437293,1302.362347,2368.659014,9696.697840
300.437601,2145.067394,3552.988522,6661.853478
300.437909,2834.553343,3034.844362,7476.080014
300.438217,3524.039291,2146.597232,7328.038826
300.438525,2451.505594,1184.329507,7994.224174
300.438833,1838.629195,-0.000000,9400.615463
300.439141,995.924147,-740.205942,9474.636058
300.439449,0.000000,-370.102971,9844.739029
300.439757,229.828649,-74.020594,10510.924376
300.440065,1225.752797,1406.391290,9326.594869
300.440373,2221.676944,1850.514855,9030.512492
300.440681,3064.381992,1628.453072,8216.285956
300.440989,2757.943793,888.247130,7698.141797
300.441297,2145.067394,-666.185348,9474.636058
300.441605,153.219100,-1998.556043,10881.027347
300.441913,-1455.581446,-3034.844362,11843.295072
300.442221,-2987.772442,-3997.112087,13027.624579
300.442529,-3217.601092,-2960.823768,13027.624579
300.442837,-2145.067394,-1258.350101,11621.233289
300.443145,-612.876398,740.205942,9992.780217
300.443453,1302.362347,2220.617826,8808.450710
300.443761,2604.724693,3108.864956,6809.894666
300.444069,3983.696590,2738.761985,6957.935855
300.444377,3447.429741,2368.659014,6809.894666
300.444685,2604.724693,1258.350101,8438.347739
300.444993,2604.724693,222.061783,9030.512492
300.445301,536.266849,-518.144159,10066.800811
300.445609,-383.047749,-1258.350101,10955.047942
300.445917,-766.095498,-148.041188,10214.842000
300.446225,306.438199,518.144159,10214.842000
300.446533,1532.190996,1554.432478,9326.594869
300.446841,2681.334243,1850.514855,8438.347739
300.447149,2834.553343,962.267725,8142.265362
300.447457,1685.410096,-444.123565,9400.615463
300.447765,766.095498,-1702.473667,10436.903782
300.448073,-1225.752797,-2442.679609,11325.150913
300.448381,-2451.505594,-3182.885551,12657.521608
300.448689,-2987.772442,-2294.638420,12213.398043
300.448997,-2451.505594,-592.164754,11251.130318
300.449305,-995.924147,666.185348,9844.739029
300.449613,612.876398,2294.638420,9104.533087
300.449921,1762.019645,2664.741391,7698.141797
300.450230,2911.162892,2590.720797,7105.977043
300.450538,2681.334243,2146.597232,7402.059420
300.450846,1608.800546,1036.288319,8364.327145
300.451154,1455.581446,-0.000000,9474.636058
300.451462,229.828649,-666.185348,10288.862594
300.451770,0.000000,-592.164754,10362.883188
300.452078,-383.047749,-0.000000,9622.677246
300.452386,612.876398,1184.329507,9844.739029
300.452694,2145.067394,1332.370696,9252.574275
300.453002,2528.115143,962.267725,7920.203579
300.453310,2528.115143,1036.288319,8290.306550
300.453618,2068.457845,-518.144159,9326.594869
300.453926,229.828649,-1776.494261,10732.986159
300.454234,-1532.190996,-2442.679609,12213.398043
300.454542,-2528.115143,-2664.741391,12731.542202
300.454850,-3217.601092,-2442.679609,12583.501014
300.455158,-2451.505594,-1110.308913,10955.047942
300.455466,-995.924147,962.267725,10140.821405
300.455774,1302.362347,2220.617826,8956.491898
300.456082,2834.553343,3330.926739,7031.956449
300.456390,2911.162892,3034.844362,6809.894666
300.456698,3370.820191,2072.576638,7550.100608
300.457006,2987.772442,1332.370696,8438.347739
300.457314,1608.800546,518.144159,9400.615463
300.457622,536.266849,-666.185348,10288.862594
300.457930,-306.438199,-740.205942,10288.862594
300.458238,-689.485948,-0.000000,9622.677246
300.458546,919.314598,1184.329507,10584.944971
300.458854,1991.848295,1628.453072,9696.697840
300.459162,2681.334243,1406.391290,7476.080014
300.459470,2528.115143,1184.329507,7994.224174
300.459778,1838.629195,-444.123565,9622.677246
300.460086,766.095498,-2368.659014,11695.253884
300.460394,-1915.238745,-2220.617826,11325.150913
300.460702,-1915.238745,-3404.947333,12731.542202
300.461010,-2757.943793,-2590.720797,11991.336260
300.461318,-2528.115143,-1184.329507,10288.862594
300.461626,-689.485948,666.185348,10584.944971
300.461934,459.657299,2294.638420,9474.636058
300.462242,1838.629195,2294.638420,8290.306550
300.462550,2145.067394,2812.782580,6809.894666
300.462858,2604.724693,1850.514855,7624.121203
300.463166,1915.238745,296.082377,8956.491898
300.463475,995.924147,370.102971,9400.615463
300.463783,766.095498,-1036.288319,10140.821405
300.464091,-1072.533697,-222.061783,9696.697840
300.464399,612.876398,888.247130,9474.636058
300.464707,1685.410096,1850.514855,9104.533087
300.465015,2604.724693,2368.659014,8882.471304
300.465323,2757.943793,1702.473667,8142.265362
300.465631,2451.505594,1036.288319,7994.224174
300.465939,1225.752797,-814.226536,9770.718434
300.466247,-536.266849,-2368.659014,11621.233289
300.466555,-1378.971896,-3034.844362,13027.624579
300.466863,-3370.820191,-3701.029710,12879.583391
300.467171,-3677.258390,-3330.926739,12657.521608
300.467479,-2987.772442,-1258.350101,11769.274478
300.467787,-1378.971896,592.164754,10362.883188
300.468095,689.485948,2072.576638,9030.512492
300.468403,2681.334243,3182.885551,7105.977043
300.468711,2987.772442,3182.885551,6365.771101
300.469019,3830.477490,2220.617826,6957.935855
300.469327,3370.820191,1258.350101,7254.018232
300.469635,2451.505594,888.247130,8364.327145
300.469943,1149.143247,-814.226536,9326.594869
300.470251,76.609550,-888.247130,9474.636058
300.470559,-459.657299,-222.061783,9622.677246
300.470867,995.924147,370.102971,9918.759623
300.471175,2374.896044,888.247130,8956.491898
300.471483,2834.553343,666.185348,8882.471304
300.471791,2681.334243,-0.000000,8290.306550
300.472099,2298.286494,-962.267725,8808.450710
300.472407,919.314598,-1776.494261,10362.883188
300.472715,-612.876398,-2442.679609,11251.130318
300.473023,-1915.238745,-2886.803174,12509.480420
300.473331,-2451.505594,-1998.556043,11843.295072
300.473639,-1915.238745,-518.144159,11399.171507
300.473947,-1149.143247,740.205942,10732.986159
300.474255,842.705048,1850.514855,9178.553681
300.474563,1991.848295,2072.576638,8216.285956
300.474871,2604.724693,2368.659014,7920.203579
300.475179,3064.381992,1332.370696,7698.141797
300.475487,2068.457845,888.247130,8364.327145
300.475795,1915.238745,-370.102971,9622.677246
300.476103,1149.143247,-592.164754,9918.759623
300.476412,229.828649,-148.041188,9918.759623
300.476720,766.095498,222.061783,10066.800811
300.477028,1991.848295,2146.597232,9030.512492
300.477336,3600.648841,2220.617826,8882.471304
300.477644,3600.648841,2664.741391,7476.080014
300.477952,3140.991542,1628.453072,7550.100608
300.478260,1991.848295,-74.020594,9548.656652
300.478568,0.000000,-1924.535449,11695.253884
300.478876,-1915.238745,-2664.741391,13027.624579
300.479184,-3447.429741,-3552.988522,12879.583391
300.479492,-4519.963438,-2960.823768,13841.851115
300.479800,-3217.601092,-1036.288319,11991.336260
300.480108,-2068.457845,1110.308913,10658.965565
300.480416,612.876398,2368.659014,9770.718434
300.480724,2145.067394,3108.864956,7550.100608
300.481032,2374.896044,3478.967927,7328.038826
300.481340,3447.429741,2516.700203,7105.977043
300.481648,3524.039291,1332.370696,7698.141797
300.481956,1838.629195,444.123565,8660.409521
300.482264,536.266849,-444.123565,9622.677246
300.482572,-229.828649,-740.205942,10140.821405
300.482880,-766.095498,-0.000000,10066.800811
300.483188,306.438199,444.123565,9918.759623
300.483496,1915.238745,1406.391290,8586.388927
300.483804,2757.943793,592.164754,8586.388927
300.484112,2221.676944,-0.000000,8512.368333
300.484420,1149.143247,-1036.288319,9474.636058
300.484728,-766.095498,-2146.597232,11177.109724
300.485036,-2145.067394,-3256.906145,12139.377449
300.485344,-2681.334243,-3256.906145,12731.542202
300.485652,-3677.258390,-2294.638420,12287.418637
300.485960,-2298.286494,-592.164754,10881.027347
300.486268,-229.828649,814.226536,9400.615463
300.486576,1302.362347,2146.597232,8438.347739
300.486884,2528.115143,2886.803174,7254.018232
300.487192,3447.429741,2442.679609,6217.729913
300.487500,3447.429741,1924.535449,7179.997637
300.487808,2987.772442,370.102971,7328.038826
300.488116,1915.238745,-592.164754,8734.430116
300.488424,383.047749,-2072.576638,10436.903782
300.488732,0.000000,-1776.494261,10214.842000
300.489040,76.609550,-296.082377,9992.780217
300.489349,1378.971896,962.267725,9918.759623
300.489657,2451.505594,1628.453072,8512.368333
300.489965,2681.334243,1998.556043,7920.203579
300.490273,2834.553343,1110.308913,8142.265362
300.490581,1762.019645,296.082377,8512.368333
300.490889,612.876398,-962.267725,10658.965565
300.491197,-919.314598,-2368.659014,12583.501014
300.491505,-3064.381992,-2590.720797,12435.459826
300.491813,-3217.601092,-2368.659014,12583.501014
300.492121,-2834.553343,-1036.288319,11547.212695
300.492429,-1838.629195,814.226536,10362.883188
300.492737,459.657299,1628.453072,9844.739029
300.493045,2221.676944,2442.679609,8956.491898
300.493353,2757.943793,2738.761985,6735.874072
300.493661,3677.258390,1924.535449,7550.100608
300.493969,3677.258390,962.267725,7772.162391
300.494277,2298.286494,592.164754,8438.347739
300.494585,1072.533697,-296.082377,10288.862594
300.494893,229.828649,222.061783,9844.739029
300.495201,459.657299,592.164754,10436.903782
300.495509,1302.362347,1850.514855,9104.533087
300.495817,2068.457845,2664.741391,8142.265362
300.496125,3217.601092,1850.514855,9030.512492
300.496433,2298.286494,1184.329507,8586.388927
300.496741,536.266849,-0.000000,9844.739029
300.497049,-1149.143247,-1998.556043,11695.253884
300.497357,-2604.724693,-3330.926739,13693.809927
300.497665,-4136.915689,-3108.864956,13027.624579
300.497973,-3983.696590,-2812.782580,12953.603985
300.498281,-3447.429741,-1110.308913,11917.315666
300.498589,-1762.019645,888.247130,11029.068536
300.498897,459.657299,1776.494261,9030.512492
300.499205,1915.238745,2368.659014,7920.203579
300.499513,2911.162892,2220.617826,7105.977043
300.499821,3217.601092,1776.494261,6809.894666
300.500129,2911.162892,518.144159,7772.162391
300.500437,2451.505594,-518.144159,9178.553681
300.500745,995.924147,-1184.329507,9844.739029
300.501053,229.828649,-666.185348,9696.697840
300.501361,766.095498,-0.000000,9400.615463
300.501669,1685.410096,1702.473667,8882.471304
300.501977,2911.162892,2590.720797,8290.306550
300.502285,3600.648841,2442.679609,7179.997637
300.502594,2987.772442,2368.659014,6735.874072
300.502902,2068.457845,592.164754,9252.574275
300.503210,1149.143247,-740.205942,10732.986159
300.503518,-1378.971896,-2368.659014,12361.439231
300.503826,-2911.162892,-3182.885551,13471.748144
300.504134,-4519.963438,-3701.029710,12731.542202
300.504442,-4060.306139,-2072.576638,12731.542202
300.504750,-2451.505594,-1036.288319,11843.295072
300.505058,0.000000,370.102971,9696.697840
300.505366,1149.143247,1332.370696,8216.285956
300.505674,3217.601092,962.267725,7476.080014
300.505982,3983.696590,814.226536,7105.977043
300.506290,3140.991542,296.082377,8142.265362
300.506598,2604.724693,-296.082377,8660.409521
300.506906,1532.190996,-518.144159,8808.450710
300.507214,919.314598,-0.000000,9252.574275
300.507522,1302.362347,1110.308913,8882.471304
300.507830,2298.286494,2664.741391,8364.327145
300.508138,3217.601092,2812.782580,8290.306550
300.508446,3677.258390,2738.761985,7328.038826
300.508754,2987.772442,1702.473667,7772.162391
300.509062,1838.629195,148.041188,9326.594869
300.509370,153.219100,-1480.411884,10732.986159
300.509678,-1915.238745,-2368.659014,12065.356855
300.509986,-3217.601092,-3775.050304,13323.706956
300.510294,-3907.087040,-2368.659014,12805.562797
300.510602,-3294.210641,-740.205942,12065.356855
300.510910,-1455.581446,-222.061783,11473.192101
300.511218,229.828649,2072.576638,9326.594869
300.511526,1838.629195,1998.556043,8586.388927
300.511835,2145.067394,2146.597232,7550.100608
300.512143,2374.896044,1776.494261,7920.203579
300.512451,2068.457845,518.144159,8956.491898
300.512759,612.876398,-222.061783,9844.739029
300.513067,-153.219100,-1110.308913,10288.862594
300.513375,-153.219100,-814.226536,10362.883188
300.513683,612.876398,814.226536,10510.924376
300.513991,1762.019645,1998.556043,8734.430116
300.514299,2834.553343,2738.761985,7846.182985
300.514607,3447.429741,3034.844362,7402.059420
300.514915,3140.991542,1628.453072,7402.059420
300.515223,2145.067394,444.123565,9030.512492
300.515531,383.047749,-1184.329507,11251.130318
300.515839,-1762.019645,-2664.741391,11843.295072
300.516147,-2374.896044,-3256.906145,12953.603985
300.516455,-3447.429741,-2664.741391,12287.418637
300.516763,-3524.039291,-1480.411884,11917.315666
300.517071,-2068.457845,-0.000000,11251.130318
300.517379,-153.219100,1406.391290,9622.677246
300.517687,1455.581446,2368.659014,8290.306550
300.517995,2451.505594,1554.432478,7254.018232
300.518303,2834.553343,1332.370696,7476.080014
300.518611,2757.943793,518.144159,7772.162391
300.518919,1685.410096,-370.102971,9326.594869
300.519227,842.705048,-592.164754,9548.656652
300.519535,229.828649,-444.123565,9474.636058
300.519843,383.047749,592.164754,10066.800811
300.520151,1378.971896,1258.350101,9326.594869
300.520459,2221.676944,2294.638420,7624.121203
300.520767,3677.258390,1850.514855,7698.141797
300.521076,2834.553343,444.123565,7105.977043
300.521384,1838.629195,-222.061783,9104.533087
300.521692,383.047749,-1924.535449,10881.027347
300.522000,-1838.629195,-3182.885551,11917.315666
300.522308,-3064.381992,-3775.050304,12139.377449
300.522616,-3524.039291,-2664.741391,12583.501014
300.522924,-2451.505594,-1184.329507,11769.274478
300.523232,-1532.190996,1110.308913,9844.739029
300.523540,766.095498,2368.659014,8808.450710
300.523848,2451.505594,2886.803174,7328.038826
300.524156,2528.115143,2368.659014,7105.977043
300.524464,2757.943793,1554.432478,7402.059420
300.524772,2451.505594,222.061783,8882.471304
300.525080,1302.362347,-740.205942,9622.677246
300.525388,-229.828649,-1480.411884,11177.109724
300.525696,-383.047749,-888.247130,10584.944971
300.526004,0.000000,148.041188,9918.759623
300.526312,1608.800546,1332.370696,9992.780217
300.526620,2604.724693,2738.761985,7402.059420
300.526928,2834.553343,1998.556043,7920.203579
300.527236,2681.334243,1036.288319,7846.182985
300.527544,1225.752797,-0.000000,9400.615463
300.527852,0.000000,-1480.411884,11547.212695
300.528160,-1915.238745,-2886.803174,11917.315666
300.528468,-3064.381992,-3034.844362,12953.603985
300.528776,-4060.306139,-2294.638420,12361.439231
300.529084,-2757.943793,-0.000000,11769.274478
300.529392,-1685.410096,1406.391290,10732.986159
300.529700,459.657299,2368.659014,9326.594869
300.530008,1838.629195,2590.720797,7550.100608
300.530317,3600.648841,2368.659014,6883.915261
300.530625,3140.991542,1332.370696,8068.244768
300.530933,1838.629195,148.041188,8438.347739
300.531241,842.705048,-1110.308913,10288.862594
300.531549,-306.438199,-1554.432478,10955.047942
300.531857,-766.095498,-888.247130,10436.903782
300.532165,612.876398,296.082377,10658.965565
300.532473,1915.238745,1776.494261,8586.388927
300.532781,2987.772442,2146.597232,7624.121203
300.533089,4060.306139,2294.638420,6957.935855
300.533397,4136.915689,1628.453072,7105.977043
300.533705,2451.505594,-0.000000,8882.471304
300.534013,1149.143247,-888.247130,10584.944971
300.534321,-842.705048,-2442.679609,11695.253884
300.534629,-3064.381992,-2812.782580,12139.377449
300.534937,-3064.381992,-2516.700203,12731.542202
300.535245,-3064.381992,-444.123565,11843.295072
300.535553,-995.924147,-74.020594,10732.986159
300.535861,536.266849,1924.535449,9030.512492
300.536169,2145.067394,2294.638420,7476.080014
300.536477,2604.724693,1850.514855,7031.956449
300.536785,2528.115143,1036.288319,7550.100608
300.537093,2528.115143,-74.020594,9326.594869
300.537401,1225.752797,-1406.391290,9918.759623
300.537709,536.266849,-1258.350101,10732.986159
300.538017,76.609550,-1110.308913,10140.821405
300.538325,383.047749,-0.000000,9622.677246
300.538633,1838.629195,1776.494261,9326.594869
300.538941,3447.429741,2368.659014,7994.224174
300.539249,3677.258390,2294.638420,7179.997637
300.539558,3447.429741,1702.473667,7179.997637
300.539866,2374.896044,222.061783,8216.285956
300.540174,1225.752797,-740.205942,10362.883188
300.540482,-1225.752797,-2220.617826,11843.295072
300.540790,-2911.162892,-2368.659014,11917.315666
300.541098,-3600.648841,-1702.473667,11843.295072
300.541406,-3600.648841,-740.205942,12065.356855
300.541714,-1608.800546,888.247130,11399.171507
300.542022,-459.657299,1554.432478,9104.533087
300.542330,1378.971896,2294.638420,7179.997637
300.542638,2145.067394,1480.411884,7846.182985
300.542946,1685.410096,592.164754,7846.182985
300.543254,1149.143247,-518.144159,9696.697840
300.543562,536.266849,-1406.391290,10214.842000
300.543870,-919.314598,-1554.432478,10214.842000
300.544178,-1072.533697,-1258.350101,10881.027347
300.544486,-153.219100,296.082377,10362.883188
300.544794,1378.971896,1628.453072,9178.553681
300.545102,2834.553343,2590.720797,8290.306550
300.545410,3983.696590,2590.720797,6957.935855
300.545718,2834.553343,1480.411884,7476.080014
300.546026,1762.019645,-0.000000,9104.533087
300.546334,536.266849,-814.226536,10658.965565
300.546642,-1378.971896,-1998.556043,11473.192101
300.546950,-2298.286494,-2590.720797,11843.295072
300.547258,-2911.162892,-1406.391290,11917.315666
300.547566,-1991.848295,-370.102971,11621.233289
300.547874,-383.047749,1258.350101,9696.697840
300.548182,1149.143247,2294.638420,8660.409521
300.548491,2221.676944,2146.597232,7624.121203
300.548799,2681.334243,1776.494261,7550.100608
300.549107,2298.286494,962.267725,8290.306550
300.549415,1378.971896,-74.020594,9548.656652
300.549723,995.924147,-2368.659014,11029.068536
300.550031,-995.924147,-1702.473667,10881.027347
300.550339,-766.095498,-1850.514855,11843.295072
300.550647,0.000000,-148.041188,10288.862594
300.550955,1532.190996,1702.473667,9474.636058
300.551263,3294.210641,2812.782580,8512.368333
300.551571,4060.306139,2812.782580,7105.977043
300.551879,3753.867940,1924.535449,7328.038826
300.552187,2834.553343,296.082377,8586.388927
300.552495,1991.848295,-592.164754,10140.821405
300.552803,-306.438199,-2072.576638,11103.089130
300.553111,-1991.848295,-1998.556043,11991.336260
300.553419,-2681.334243,-1554.432478,11991.336260
300.553727,-2374.896044,-148.041188,10955.047942
300.554035,-689.485948,1776.494261,9844.739029
300.554343,1915.238745,1850.514855,9252.574275
300.554651,1915.238745,2738.761985,7179.997637
300.554959,2911.162892,1702.473667,7846.182985
300.555267,2604.724693,740.205942,8586.388927
300.555575,1378.971896,-370.102971,9400.615463
300.555883,0.000000,-1258.350101,10807.006753
300.556191,-383.047749,-1924.535449,11621.233289
300.556499,-1149.143247,-888.247130,10955.047942
300.556807,-536.266849,296.082377,10510.924376
300.557115,1149.143247,1554.432478,9548.656652
300.557423,2528.115143,2664.741391,8660.409521
300.557732,3064.381992,2368.659014,7920.203579
300.558040,2834.553343,1554.432478,7402.059420
300.558348,1685.410096,444.123565,8956.491898
300.558656,229.828649,-1406.391290,10881.027347
300.558964,-1608.800546,-2146.597232,10881.027347
300.559272,-2911.162892,-2960.823768,11991.336260
300.559580,-3370.820191,-2516.700203,12361.439231
300.559888,-3140.991542,-1406.391290,11251.130318
300.560196,-1532.190996,1184.329507,9992.780217
300.560504,842.705048,1924.535449,9030.512492
300.560812,1838.629195,2516.700203,7179.997637
300.561120,2451.505594,2294.638420,6883.915261
300.561428,2528.115143,962.267725,7698.141797
300.561736,1378.971896,-0.000000,8956.491898
300.562044,766.095498,-1184.329507,10288.862594
300.562352,-536.266849,-1554.432478,10881.027347
300.562660,-612.876398,-1332.370696,10881.027347
300.562968,-229.828649,-0.000000,10436.903782
300.563276,1149.143247,1554.432478,9622.677246
300.563584,2528.115143,1998.556043,8364.327145
300.563892,3830.477490,2146.597232,7624.121203
300.564200,3600.648841,1258.350101,7402.059420
300.564508,2374.896044,-74.020594,9030.512492
300.564816,766.095498,-1628.453072,10658.965565
300.565124,-919.314598,-2812.782580,11843.295072
300.565432,-2834.553343,-2886.803174,12139.377449
300.565740,-2757.943793,-2220.617826,12583.501014
300.566048,-2298.286494,-148.041188,11029.068536
300.566356,-612.876398,1850.514855,9622.677246
300.566664,2145.067394,1924.535449,8734.430116
300.566973,2068.457845,2664.741391,6513.812290
300.567281,3370.820191,2368.659014,7031.956449
300.567589,2681.334243,1110.308913,7846.182985
300.567897,1915.238745,444.123565,9548.656652
300.568205,536.266849,-740.205942,10214.842000
300.568513,-383.047749,-1406.391290,10658.965565
300.568821,-689.485948,-1036.288319,11399.171507
300.569129,-153.219100,-296.082377,9696.697840
300.569437,1532.190996,1628.453072,9992.780217
300.569745,2987.772442,2072.576638,9252.574275
300.570053,2911.162892,1554.432478,7105.977043
300.570361,3294.210641,1332.370696,8364.327145
300.570669,2221.676944,-0.000000,9474.636058
300.570977,536.266849,-1628.453072,11177.109724
300.571285,-1378.971896,-2516.700203,11991.336260
300.571593,-2221.676944,-2960.823768,12361.439231
300.571901,-2911.162892,-2072.576638,12065.356855
300.572209,-1991.848295,-0.000000,11103.089130
300.572517,153.219100,1776.494261,10140.821405
300.572825,1225.752797,2738.761985,8364.327145
300.573133,2681.334243,2886.803174,7402.059420
300.573441,3064.381992,3182.885551,6661.853478
300.573749,2834.553343,1628.453072,7920.203579
300.574057,2298.286494,592.164754,9104.533087
300.574365,1302.362347,-740.205942,9992.780217
300.574673,-842.705048,-888.247130,10807.006753
300.574981,-1455.581446,-1184.329507,11103.089130
300.575289,-306.438199,-0.000000,10584.944971
300.575597,612.876398,1184.329507,9622.677246
300.575905,2298.286494,1628.453072,8586.388927
300.576214,2757.943793,1406.391290,7994.224174
300.576522,2298.286494,444.123565,8586.388927
300.576830,1455.581446,-740.205942,8956.491898
300.577138,-459.657299,-1406.391290,11103.089130
300.577446,-1532.190996,-3108.864956,12139.377449
300.577754,-2604.724693,-2886.803174,11769.274478
300.578062,-2987.772442,-1480.411884,11251.130318
300.578370,-2068.457845,-0.000000,10510.924376
300.578678,0.000000,1924.535449,9104.533087
300.578986,1685.410096,2812.782580,7105.977043
300.579294,2528.115143,2738.761985,6735.874072
300.579602,3294.210641,1924.535449,6439.791695
300.579910,2298.286494,1702.473667,7550.100608
300.580218,1378.971896,-74.020594,9030.512492
300.580526,766.095498,-1110.308913,10140.821405
300.580834,-459.657299,-1998.556043,10955.047942
300.581142,-1225.752797,-1702.473667,11103.089130
300.581450,-229.828649,-518.144159,10140.821405
300.581758,1302.362347,1332.370696,9992.780217
300.582066,1838.629195,1036.288319,9252.574275
300.582374,2451.505594,1332.370696,8216.285956
300.582682,2145.067394,444.123565,8364.327145
300.582990,1225.752797,-814.226536,9548.656652
300.583298,-306.438199,-1702.473667,10732.986159
300.583606,-1378.971896,-3108.864956,12583.501014
300.583914,-3140.991542,-3404.947333,12287.418637
300.584222,-3447.429741,-1850.514855,11621.233289
300.584530,-1685.410096,-296.082377,10658.965565
300.584838,229.828649,1480.411884,9178.553681
300.585146,1685.410096,3256.906145,7328.038826
300.585455,2757.943793,3108.864956,7031.956449
300.585763,3447.429741,2738.761985,6291.750507
300.586071,2834.553343,1998.556043,6883.915261
300.586379,2451.505594,296.082377,9326.594869
300.586687,689.485948,-740.205942,9992.780217
300.586995,153.219100,-1406.391290,10584.944971
300.587303,-766.095498,-1110.308913,10807.006753
300.587611,-306.438199,-0.000000,10658.965565
300.587919,229.828649,1184.329507,10362.883188
300.588227,2451.505594,2072.576638,9474.636058
300.588535,2528.115143,1998.556043,8142.265362
300.588843,2451.505594,740.205942,8956.491898
300.589151,1302.362347,-444.123565,10214.842000
300.589459,-306.438199,-1702.473667,11251.130318
300.589767,-1608.800546,-2590.720797,12879.583391
300.590075,-2757.943793,-2960.823768,12657.521608
300.590383,-3217.601092,-1628.453072,12139.377449
300.590691,-1915.238745,-148.041188,11399.171507
300.590999,76.609550,1850.514855,9696.697840
300.591307,1685.410096,2960.823768,7994.224174
300.591615,3064.381992,3330.926739,7105.977043
300.591923,3753.867940,2738.761985,5477.523971
300.592231,3370.820191,2220.617826,7031.956449
300.592539,2757.943793,518.144159,8586.388927
300.592847,1378.971896,-740.205942,9252.574275
300.593155,306.438199,-1184.329507,9992.780217
300.593463,-229.828649,-1406.391290,10584.944971
300.593771,0.000000,148.041188,10955.047942
300.594079,1225.752797,1258.350101,10510.924376
300.594387,2528.115143,1850.514855,8734.430116
300.594696,2604.724693,1924.535449,7920.203579
300.595004,2757.943793,814.226536,8734.430116
300.595312,1455.581446,-222.061783,9326.594869
300.595620,-306.438199,-1998.556043,11473.192101
300.595928,-1762.019645,-3923.091493,12805.562797
300.596236,-3217.601092,-3182.885551,12583.501014
300.596544,-2604.724693,-2220.617826,12509.480420
300.596852,-1685.410096,-296.082377,11177.109724
300.597160,-383.047749,1776.494261,9326.594869
300.597468,2298.286494,2368.659014,7994.224174
300.597776,2528.115143,3404.947333,6069.688724
300.598084,3294.210641,2220.617826,6883.915261
300.598392,3447.429741,1332.370696,7402.059420
300.598700,1991.848295,444.123565,8734.430116
300.599008,1378.971896,-1332.370696,10066.800811
300.599316,-306.438199,-1036.288319,9474.636058
300.599624,-995.924147,-592.164754,10732.986159
300.599932,0.000000,148.041188,9992.780217
300.600240,919.314598,1850.514855,9400.615463
300.600548,2145.067394,2072.576638,9178.553681
300.600856,2757.943793,1628.453072,8438.347739
300.601164,1378.971896,888.247130,8586.388927
300.601472,612.876398,-1406.391290,10214.842000
300.601780,-842.705048,-2664.741391,11769.274478
300.602088,-2451.505594,-3256.906145,12583.501014
300.602396,-3370.820191,-3775.050304,12731.542202
300.602704,-3830.477490,-1850.514855,12139.377449
300.603012,-1915.238745,-444.123565,11473.192101
300.603320,-306.438199,1776.494261,9844.739029
300.603628,1149.143247,3034.844362,7402.059420
300.603936,3447.429741,2886.803174,6883.915261
300.604244,3140.991542,2146.597232,7031.956449
300.604552,2757.943793,2146.597232,6883.915261
300.604860,2374.896044,-0.000000,9252.574275
300.605168,612.876398,-148.041188,9474.636058
300.605476,0.000000,-1554.432478,10066.800811
300.605784,-689.485948,-518.144159,10362.883188
300.606092,0.000000,-74.020594,10362.883188
300.606400,919.314598,1332.370696,8882.471304
300.606708,2298.286494,2072.576638,8808.450710
300.607016,3217.601092,1998.556043,8586.388927
300.607324,2221.676944,1258.350101,7476.080014
300.607632,766.095498,-444.123565,10214.842000
300.607940,-153.219100,-2220.617826,11177.109724
300.608248,-1762.019645,-3330.926739,12435.459826
300.608556,-3140.991542,-2886.803174,13101.645173
300.608864,-2757.943793,-2146.597232,12361.439231
300.609172,-1838.629195,-222.061783,11621.233289
300.609479,-383.047749,1924.535449,9696.697840
300.609787,2374.896044,3034.844362,8364.327145
300.610095,3217.601092,3330.926739,6513.812290
300.610403,3907.087040,3108.864956,5625.565159
300.610711,3753.867940,2294.638420,6513.812290
300.611019,2604.724693,1184.329507,7698.141797
300.611327,1838.629195,370.102971,9548.656652
300.611635,-689.485948,-0.000000,9474.636058
300.611943,-612.876398,814.226536,9770.718434
300.612251,-842.705048,1184.329507,9992.780217
300.612559,383.047749,2072.576638,9474.636058
300.612867,459.657299,2590.720797,9030.512492
300.613175,842.705048,1554.432478,9326.594869
300.613483,0.000000,370.102971,9844.739029
300.613791,-2145.067394,-1554.432478,11103.089130
