#time,accel_x,accel_y,accel_z
164.340688,2298.286494,-148.041188,9696.697840
164.340996,2528.115143,-296.082377,9474.636058
164.341304,2681.334243,-444.123565,9696.697840
164.341613,2604.724693,-222.061783,9474.636058
164.341921,2987.772442,-74.020594,9400.615463
164.342229,3217.601092,-222.061783,9326.594869
164.342537,3140.991542,-74.020594,9400.615463
164.342845,4290.134789,-0.000000,9474.636058
164.343153,3907.087040,222.061783,9474.636058
164.343461,3600.648841,814.226536,8882.471304
164.343770,3600.648841,962.267725,8808.450710
164.344078,3600.648841,1110.308913,8956.491898
164.344386,3600.648841,1184.329507,8882.471304
164.344694,3524.039291,1036.288319,9178.553681
164.345002,3294.210641,740.205942,9622.677246
164.345310,2911.162892,-148.041188,10362.883188
164.345618,2604.724693,-592.164754,10510.924376
164.345927,2298.286494,-888.247130,10807.006753
164.346235,2068.457845,-962.267725,11029.068536
164.346543,1991.848295,-962.267725,11251.130318
164.346851,2451.505594,-888.247130,11103.089130
164.347159,3294.210641,-370.102971,10436.903782
164.347467,4136.915689,-0.000000,9844.739029
164.347775,4213.525239,222.061783,9104.533087
164.348083,4136.915689,740.205942,9326.594869
164.348392,4366.744339,666.185348,9104.533087
164.348700,4290.134789,592.164754,8586.388927
164.349008,4136.915689,222.061783,8586.388927
164.349316,3983.696590,370.102971,8956.491898
164.349624,4443.353888,222.061783,8882.471304
164.349932,4366.744339,148.041188,9252.574275
164.350240,4136.915689,444.123565,9178.553681
164.350549,4443.353888,-0.000000,9178.553681
164.350857,4213.525239,444.123565,8808.450710
164.351165,4443.353888,592.164754,8808.450710
164.351473,4213.525239,962.267725,8586.388927
164.351781,4213.525239,1110.308913,8734.430116
164.352089,4136.915689,1184.329507,8882.471304
164.352397,3753.867940,740.205942,8956.491898
164.352706,3907.087040,740.205942,9696.697840
164.353014,2911.162892,444.123565,9770.718434
164.353322,2681.334243,296.082377,9844.739029
164.353630,2451.505594,-0.000000,10214.842000
164.353938,2298.286494,-0.000000,10214.842000
164.354246,2451.505594,-0.000000,10436.903782
164.354554,2068.457845,518.144159,10658.965565
164.354863,2757.943793,-0.000000,10362.883188
164.355171,2604.724693,592.164754,9918.759623
164.355479,2604.724693,740.205942,9992.780217
164.355787,1915.238745,888.247130,9918.759623
164.356095,1762.019645,592.164754,9696.697840
164.356403,1378.971896,666.185348,9992.780217
164.356711,1149.143247,444.123565,10140.821405
164.357020,1532.190996,222.061783,10214.842000
164.357328,383.047749,-296.082377,9844.739029
164.357636,459.657299,-296.082377,10732.986159
164.357944,536.266849,-888.247130,10881.027347
164.358252,612.876398,-814.226536,10140.821405
164.358560,766.095498,-888.247130,10066.800811
164.358868,1378.971896,-370.102971,9696.697840
164.359177,1455.581446,-370.102971,9326.594869
164.359485,1762.019645,-444.123565,8808.450710
164.359793,2068.457845,-0.000000,8882.471304
164.360101,2528.115143,-222.061783,8586.388927
164.360409,1685.410096,-0.000000,8734.430116
164.360717,1762.019645,-0.000000,8882.471304
164.361025,1455.581446,-296.082377,9030.512492
164.361334,995.924147,-296.082377,9474.636058
164.361642,1072.533697,-592.164754,9696.697840
164.361950,842.705048,-666.185348,9770.718434
164.362258,1225.752797,-518.144159,10288.862594
164.362566,1072.533697,-296.082377,9696.697840
164.362874,1302.362347,-0.000000,9992.780217
164.363182,995.924147,-370.102971,9770.718434
164.363491,995.924147,-148.041188,9548.656652
164.363799,842.705048,-0.000000,9548.656652
164.364107,612.876398,-296.082377,9548.656652
164.364415,842.705048,74.020594,9918.759623
164.364723,995.924147,370.102971,9548.656652
164.365031,1072.533697,1036.288319,9252.574275
164.365339,1608.800546,1258.350101,8882.471304
164.365648,1915.238745,1998.556043,8364.327145
164.365956,2068.457845,2146.597232,8512.368333
164.366264,2145.067394,2368.659014,8734.430116
164.366572,2374.896044,2368.659014,8734.430116
164.366880,1915.238745,1924.535449,8882.471304
164.367188,1378.971896,1776.494261,9178.553681
164.367496,689.485948,1406.391290,9474.636058
164.367805,-229.828649,370.102971,9992.780217
164.368113,-689.485948,-296.082377,10362.883188
164.368421,-1225.752797,-1184.329507,11103.089130
164.368729,-1762.019645,-1702.473667,11473.192101
164.369037,-1991.848295,-1924.535449,11843.295072
164.369345,-1838.629195,-2590.720797,11621.233289
164.369653,-1762.019645,-1998.556043,11917.315666
164.369961,-842.705048,-1702.473667,11029.068536
164.370270,0.000000,-1258.350101,10584.944971
164.370578,842.705048,-592.164754,9474.636058
164.370886,1532.190996,-74.020594,8808.450710
164.371194,2221.676944,370.102971,8068.244768
164.371502,2221.676944,666.185348,7772.162391
164.371810,2757.943793,740.205942,7994.224174
164.372119,2681.334243,814.226536,7476.080014
164.372427,2911.162892,666.185348,7698.141797
164.372735,2451.505594,370.102971,7328.038826
164.373043,2451.505594,296.082377,8142.265362
164.373352,1838.629195,222.061783,8364.327145
164.373660,1532.190996,296.082377,8512.368333
164.373968,842.705048,296.082377,9178.553681
164.374276,766.095498,1184.329507,9326.594869
164.374585,766.095498,1258.350101,9474.636058
164.374893,76.609550,1850.514855,9474.636058
164.375201,229.828649,1924.535449,9770.718434
164.375510,306.438199,1776.494261,10066.800811
164.375818,0.000000,1776.494261,10066.800811
164.376126,-536.266849,1702.473667,9992.780217
164.376434,-995.924147,1110.308913,11177.109724
164.376743,-689.485948,296.082377,11325.150913
164.377051,-1762.019645,-0.000000,11695.253884
164.377359,-1685.410096,-888.247130,11843.295072
164.377667,-2834.553343,-1628.453072,11843.295072
164.377976,-2911.162892,-2072.576638,11917.315666
164.378284,-2451.505594,-1628.453072,11473.192101
164.378592,-1762.019645,-1258.350101,11547.212695
164.378901,-536.266849,-1406.391290,10807.006753
164.379209,-229.828649,-444.123565,9696.697840
164.379517,1149.143247,-0.000000,9104.533087
164.379825,1762.019645,222.061783,8882.471304
164.380134,1608.800546,740.205942,8290.306550
164.380442,1532.190996,1036.288319,8660.409521
164.380750,1685.410096,296.082377,8438.347739
164.381058,995.924147,296.082377,7994.224174
164.381367,1302.362347,-444.123565,8734.430116
164.381675,1225.752797,-888.247130,9474.636058
164.381983,612.876398,-444.123565,8586.388927
164.382292,919.314598,-1110.308913,9104.533087
164.382600,1225.752797,-1036.288319,9104.533087
164.382908,1225.752797,-962.267725,9326.594869
164.383216,1225.752797,-888.247130,9178.553681
164.383525,1378.971896,-518.144159,9178.553681
164.383833,1072.533697,-222.061783,9400.615463
164.384141,1149.143247,518.144159,9326.594869
164.384449,1685.410096,1332.370696,9178.553681
164.384758,1762.019645,1776.494261,9400.615463
164.385066,1991.848295,2368.659014,9030.512492
164.385374,2068.457845,2664.741391,8734.430116
164.385682,2145.067394,2516.700203,9178.553681
164.385991,2145.067394,2368.659014,9400.615463
164.386299,842.705048,1480.411884,9474.636058
164.386607,612.876398,1332.370696,10066.800811
164.386916,0.000000,666.185348,10732.986159
164.387224,0.000000,-0.000000,10510.924376
164.387532,-612.876398,-666.185348,11177.109724
164.387840,-1072.533697,-1110.308913,11473.192101
164.388149,-1225.752797,-1258.350101,11695.253884
164.388457,-919.314598,-1332.370696,11843.295072
164.388765,-689.485948,-1406.391290,11399.171507
164.389073,-383.047749,-1184.329507,10955.047942
164.389382,995.924147,-148.041188,10584.944971
164.389690,1378.971896,-0.000000,9770.718434
164.389998,1838.629195,222.061783,8586.388927
164.390307,2221.676944,444.123565,8956.491898
164.390615,3064.381992,370.102971,8734.430116
164.390923,2451.505594,962.267725,7624.121203
164.391231,2911.162892,666.185348,7698.141797
164.391540,3294.210641,592.164754,7402.059420
164.391848,3294.210641,370.102971,7254.018232
164.392156,3217.601092,1036.288319,7624.121203
164.392464,2834.553343,666.185348,7624.121203
164.392773,2451.505594,296.082377,8142.265362
164.393081,1532.190996,444.123565,8290.306550
164.393389,1915.238745,592.164754,9030.512492
164.393697,1302.362347,370.102971,9326.594869
164.394006,612.876398,592.164754,9622.677246
164.394314,995.924147,1110.308913,9992.780217
164.394622,229.828649,1258.350101,10362.883188
164.394931,-306.438199,1110.308913,10732.986159
164.395239,-306.438199,962.267725,10658.965565
164.395547,-766.095498,1036.288319,10436.903782
164.395855,-536.266849,666.185348,10436.903782
164.396164,-995.924147,-0.000000,11177.109724
164.396472,-1378.971896,-222.061783,11399.171507
164.396780,-2145.067394,-814.226536,11251.130318
164.397088,-2374.896044,-888.247130,11399.171507
164.397397,-2298.286494,-1110.308913,11547.212695
164.397705,-2145.067394,-962.267725,11177.109724
164.398013,-1915.238745,-592.164754,11029.068536
164.398322,-383.047749,-296.082377,10955.047942
164.398630,0.000000,-444.123565,10214.842000
164.398938,-229.828649,222.061783,9696.697840
164.399246,229.828649,296.082377,9400.615463
164.399555,689.485948,74.020594,9030.512492
164.399863,919.314598,592.164754,8438.347739
164.400171,1149.143247,518.144159,8364.327145
164.400479,1302.362347,444.123565,8734.430116
164.400788,1378.971896,148.041188,8290.306550
164.401096,1455.581446,-296.082377,8586.388927
164.401404,1072.533697,-592.164754,7920.203579
164.401713,1149.143247,-888.247130,8364.327145
164.402021,1149.143247,-592.164754,9030.512492
164.402329,919.314598,-814.226536,8882.471304
164.402637,689.485948,-370.102971,9104.533087
164.402946,689.485948,-444.123565,9104.533087
164.403254,842.705048,148.041188,9104.533087
164.403562,612.876398,814.226536,9252.574275
164.403870,1149.143247,962.267725,9178.553681
164.404179,995.924147,1924.535449,9104.533087
164.404487,842.705048,2146.597232,9030.512492
164.404795,842.705048,2146.597232,9252.574275
164.405103,842.705048,1998.556043,9474.636058
164.405412,536.266849,1554.432478,9696.697840
164.405720,0.000000,814.226536,10066.800811
164.406028,76.609550,-0.000000,10214.842000
164.406337,-612.876398,-962.267725,11103.089130
164.406645,-1455.581446,-1332.370696,11621.233289
164.406953,-1149.143247,-1776.494261,11251.130318
164.407261,-1455.581446,-1702.473667,11843.295072
164.407570,-842.705048,-1702.473667,11769.274478
164.407878,-306.438199,-1406.391290,11251.130318
164.408186,612.876398,-888.247130,10214.842000
164.408494,1302.362347,-814.226536,10288.862594
164.408803,1225.752797,-0.000000,9844.739029
164.409111,1685.410096,518.144159,9326.594869
164.409419,2604.724693,740.205942,9474.636058
164.409728,2834.553343,1184.329507,8290.306550
164.410036,2834.553343,1406.391290,7846.182985
164.410344,3217.601092,1406.391290,7772.162391
164.410652,3064.381992,1258.350101,7179.997637
164.410961,3370.820191,888.247130,7550.100608
164.411269,2987.772442,814.226536,7105.977043
164.411577,3294.210641,222.061783,8438.347739
164.411885,2451.505594,222.061783,8290.306550
164.412194,1838.629195,148.041188,8956.491898
164.412502,1532.190996,222.061783,9474.636058
164.412810,919.314598,222.061783,9770.718434
164.413119,1072.533697,592.164754,10436.903782
164.413427,1378.971896,962.267725,10214.842000
164.413735,1072.533697,1110.308913,10066.800811
164.414043,383.047749,1554.432478,10214.842000
164.414352,383.047749,1702.473667,10362.883188
164.414660,229.828649,1184.329507,10510.924376
164.414968,0.000000,888.247130,10362.883188
164.415276,-383.047749,592.164754,10510.924376
164.415585,0.000000,-222.061783,10732.986159
164.415893,-842.705048,-370.102971,11103.089130
164.416201,-1225.752797,-1332.370696,11103.089130
164.416509,-1608.800546,-1184.329507,11473.192101
164.416818,-1302.362347,-962.267725,11251.130318
164.417126,-995.924147,-740.205942,10732.986159
164.417434,-459.657299,-444.123565,10807.006753
164.417743,0.000000,-148.041188,10214.842000
164.418051,153.219100,-0.000000,10214.842000
164.418359,1302.362347,222.061783,9252.574275
164.418667,1685.410096,592.164754,9474.636058
164.418976,1762.019645,666.185348,8808.450710
164.419284,1915.238745,444.123565,8660.409521
164.419592,1838.629195,-0.000000,8290.306550
164.419900,1455.581446,-74.020594,8290.306550
164.420209,1455.581446,-296.082377,8068.244768
164.420517,1608.800546,-444.123565,8290.306550
164.420825,1072.533697,-518.144159,8438.347739
164.421134,1608.800546,-592.164754,9178.553681
164.421442,689.485948,-444.123565,9030.512492
164.421750,612.876398,-296.082377,9178.553681
164.422058,459.657299,-0.000000,9178.553681
164.422367,383.047749,222.061783,9252.574275
164.422675,306.438199,888.247130,9474.636058
164.422983,459.657299,1258.350101,9548.656652
164.423291,842.705048,1554.432478,9474.636058
164.423600,689.485948,2072.576638,9326.594869
164.423908,536.266849,1850.514855,9252.574275
164.424216,536.266849,1924.535449,9400.615463
164.424524,229.828649,1332.370696,9622.677246
164.424833,0.000000,666.185348,9992.780217
164.425141,-459.657299,-74.020594,10214.842000
164.425449,-995.924147,-518.144159,10881.027347
164.425758,-1532.190996,-1332.370696,11177.109724
164.426066,-1378.971896,-1628.453072,11325.150913
164.426374,-1685.410096,-1924.535449,11399.171507
164.426682,-1378.971896,-1628.453072,11399.171507
164.426991,-612.876398,-1184.329507,11103.089130
164.427299,0.000000,-962.267725,10807.006753
164.427607,766.095498,-444.123565,10214.842000
164.427915,1532.190996,444.123565,9770.718434
164.428224,2374.896044,814.226536,8882.471304
164.428532,2374.896044,1110.308913,8364.327145
164.428840,2451.505594,1110.308913,7994.224174
164.429149,2911.162892,1332.370696,7772.162391
164.429457,2681.334243,962.267725,7254.018232
164.429765,2911.162892,888.247130,7476.080014
164.430073,2528.115143,444.123565,7698.141797
164.430382,2298.286494,-518.144159,8142.265362
164.430690,1838.629195,-296.082377,8882.471304
164.430998,1608.800546,-0.000000,9474.636058
164.431306,1378.971896,-666.185348,9474.636058
164.431615,689.485948,-74.020594,9696.697840
164.431923,842.705048,222.061783,10140.821405
164.432231,612.876398,888.247130,10288.862594
164.432540,1072.533697,1258.350101,10140.821405
164.432848,842.705048,1628.453072,9844.739029
164.433156,995.924147,1998.556043,9622.677246
164.433464,919.314598,1776.494261,9252.574275
164.433773,689.485948,2368.659014,9474.636058
164.434081,383.047749,1850.514855,9992.780217
164.434389,0.000000,814.226536,9918.759623
164.434697,-536.266849,222.061783,10658.965565
164.435006,-995.924147,-370.102971,11251.130318
164.435314,-1072.533697,-1110.308913,11621.233289
164.435622,-1455.581446,-1554.432478,11547.212695
164.435930,-1532.190996,-1258.350101,11769.274478
164.436239,-1685.410096,-1258.350101,11325.150913
164.436547,-766.095498,-740.205942,10881.027347
164.436855,-153.219100,-222.061783,10732.986159
164.437164,459.657299,-74.020594,9918.759623
164.437472,1149.143247,148.041188,9696.697840
164.437780,1378.971896,518.144159,9178.553681
164.438088,1608.800546,-0.000000,8660.409521
164.438397,2298.286494,666.185348,8068.244768
164.438705,2374.896044,666.185348,8068.244768
164.439013,2068.457845,518.144159,7994.224174
164.439321,2145.067394,-0.000000,7994.224174
164.439630,1991.848295,-74.020594,7994.224174
164.439938,1762.019645,-518.144159,7994.224174
164.440246,1532.190996,-1110.308913,8586.388927
164.440555,1455.581446,-592.164754,8586.388927
164.440863,919.314598,-370.102971,9178.553681
164.441171,383.047749,-148.041188,9400.615463
164.441479,1072.533697,296.082377,9474.636058
164.441788,919.314598,888.247130,9178.553681
164.442096,995.924147,1554.432478,9400.615463
164.442404,1685.410096,1554.432478,9252.574275
164.442712,1149.143247,1776.494261,9326.594869
164.443021,1149.143247,1184.329507,9252.574275
164.443329,919.314598,1036.288319,9474.636058
164.443637,383.047749,962.267725,10066.800811
164.443945,-383.047749,148.041188,10362.883188
164.444254,-612.876398,-370.102971,10955.047942
164.444562,-1455.581446,-1258.350101,11251.130318
164.444870,-1915.238745,-1850.514855,11251.130318
164.445179,-1608.800546,-2146.597232,11695.253884
164.445487,-1532.190996,-2220.617826,11843.295072
164.445795,-1838.629195,-1332.370696,11991.336260
164.446103,-1072.533697,-1110.308913,11103.089130
164.446412,0.000000,-222.061783,10658.965565
164.446720,689.485948,222.061783,9770.718434
164.447028,1302.362347,740.205942,9104.533087
164.447336,2374.896044,1184.329507,8660.409521
164.447645,2528.115143,1406.391290,7846.182985
164.447953,2681.334243,1406.391290,7550.100608
164.448261,3064.381992,1480.411884,7476.080014
164.448570,2911.162892,962.267725,7328.038826
164.448878,2451.505594,666.185348,7328.038826
164.449186,2374.896044,296.082377,7846.182985
164.449494,2221.676944,-148.041188,8586.388927
164.449803,1838.629195,-740.205942,8882.471304
164.450111,1991.848295,-592.164754,9326.594869
164.450419,1685.410096,-296.082377,9400.615463
164.450727,1225.752797,-148.041188,9474.636058
164.451036,919.314598,296.082377,9844.739029
164.451344,842.705048,814.226536,9992.780217
164.451652,766.095498,1110.308913,9918.759623
164.451961,306.438199,1628.453072,10214.842000
164.452269,0.000000,1258.350101,10214.842000
164.452577,229.828649,1554.432478,10140.821405
164.452885,76.609550,1184.329507,10140.821405
164.453194,-306.438199,592.164754,10658.965565
164.453502,-842.705048,-0.000000,10732.986159
164.453810,-1072.533697,-370.102971,10955.047942
164.454118,-1762.019645,-740.205942,11547.212695
164.454427,-1608.800546,-1258.350101,11251.130318
164.454735,-1378.971896,-1258.350101,11399.171507
164.455043,-1302.362347,-1110.308913,11177.109724
164.455351,-229.828649,-666.185348,10658.965565
164.455660,-459.657299,-518.144159,10140.821405
164.455968,383.047749,296.082377,9844.739029
164.456276,766.095498,444.123565,9696.697840
164.456585,1149.143247,592.164754,9178.553681
164.456893,1762.019645,962.267725,8808.450710
164.457201,1991.848295,666.185348,8290.306550
164.457509,1915.238745,962.267725,8142.265362
164.457818,2145.067394,962.267725,8364.327145
164.458126,1838.629195,592.164754,8290.306550
164.458434,1762.019645,296.082377,7846.182985
164.458742,1915.238745,-0.000000,7772.162391
164.459051,1532.190996,-518.144159,8290.306550
164.459359,1149.143247,-888.247130,8882.471304
164.459667,153.219100,-1184.329507,9474.636058
164.459976,536.266849,-1036.288319,9622.677246
164.460284,689.485948,-740.205942,10066.800811
164.460592,383.047749,-296.082377,10066.800811
164.460900,766.095498,444.123565,9696.697840
164.461209,1225.752797,1406.391290,9474.636058
164.461517,1685.410096,1850.514855,9104.533087
164.461825,1685.410096,1850.514855,8882.471304
164.462133,1685.410096,2072.576638,9030.512492
164.462442,1149.143247,1776.494261,9178.553681
164.462750,689.485948,1258.350101,9622.677246
164.463058,-459.657299,296.082377,9844.739029
164.463366,-919.314598,-296.082377,10362.883188
164.463675,-1149.143247,-888.247130,11325.150913
164.463983,-2068.457845,-1628.453072,11547.212695
164.464291,-2298.286494,-1850.514855,11769.274478
164.464600,-2374.896044,-1850.514855,12361.439231
164.464908,-1532.190996,-1850.514855,11843.295072
164.465216,-1455.581446,-1702.473667,10955.047942
164.465524,306.438199,-962.267725,10362.883188
164.465833,612.876398,-0.000000,9696.697840
164.466141,1455.581446,962.267725,9326.594869
164.466449,2145.067394,1554.432478,8512.368333
164.466757,2834.553343,1628.453072,7920.203579
164.467066,2987.772442,1776.494261,7550.100608
164.467374,2604.724693,962.267725,7402.059420
164.467682,2528.115143,1110.308913,7846.182985
164.467991,1991.848295,-0.000000,7698.141797
164.468299,1991.848295,-0.000000,8142.265362
164.468607,1991.848295,-296.082377,8808.450710
164.468915,1608.800546,-666.185348,9104.533087
164.469224,1302.362347,-518.144159,9252.574275
164.469532,1378.971896,-74.020594,9844.739029
164.469840,1072.533697,-296.082377,9622.677246
164.470148,1072.533697,222.061783,9844.739029
164.470457,842.705048,1036.288319,9622.677246
164.470765,919.314598,1406.391290,9696.697840
164.471073,536.266849,1776.494261,9844.739029
164.471382,536.266849,2072.576638,10066.800811
164.471690,536.266849,1554.432478,9918.759623
164.471998,0.000000,1258.350101,10140.821405
164.472306,0.000000,592.164754,10732.986159
164.472615,-306.438199,-74.020594,11177.109724
164.472923,-1072.533697,-740.205942,11103.089130
164.473231,-1762.019645,-1258.350101,11325.150913
164.473539,-1608.800546,-1258.350101,11473.192101
164.473847,-1455.581446,-1110.308913,11399.171507
164.474155,-153.219100,-740.205942,11103.089130
164.474463,-459.657299,-370.102971,10658.965565
164.474771,0.000000,-74.020594,10584.944971
164.475079,306.438199,1036.288319,10510.924376
164.475388,1072.533697,1110.308913,9622.677246
164.475696,1378.971896,962.267725,9104.533087
164.476004,1838.629195,1036.288319,8882.471304
164.476312,1915.238745,1036.288319,8660.409521
164.476620,1838.629195,592.164754,8290.306550
164.476928,1762.019645,592.164754,8068.244768
164.477236,1762.019645,222.061783,8364.327145
164.477544,1608.800546,148.041188,8364.327145
164.477852,1838.629195,-444.123565,7550.100608
164.478160,1685.410096,-666.185348,8438.347739
164.478468,1302.362347,-1036.288319,8808.450710
164.478776,1149.143247,-740.205942,9030.512492
164.479084,995.924147,-592.164754,9474.636058
164.479392,766.095498,-148.041188,9474.636058
164.479700,1072.533697,-0.000000,9178.553681
164.480008,1455.581446,888.247130,9178.553681
164.480316,1532.190996,1628.453072,9178.553681
164.480624,1608.800546,1702.473667,9030.512492
164.480932,1455.581446,1924.535449,9104.533087
164.481240,1072.533697,1554.432478,9252.574275
164.481548,536.266849,1036.288319,9252.574275
164.481856,229.828649,518.144159,10214.842000
164.482164,-612.876398,-222.061783,10510.924376
164.482472,-612.876398,-1036.288319,10584.944971
164.482780,-1608.800546,-1628.453072,10955.047942
164.483088,-2298.286494,-1998.556043,11399.171507
164.483396,-2374.896044,-2220.617826,11621.233289
164.483704,-1991.848295,-1998.556043,12139.377449
164.484012,-1072.533697,-1702.473667,11621.233289
164.484320,-689.485948,-740.205942,10807.006753
164.484628,306.438199,-666.185348,10362.883188
164.484936,1072.533697,296.082377,9918.759623
164.485244,1838.629195,1036.288319,8882.471304
164.485552,2451.505594,1702.473667,8290.306550
164.485860,2528.115143,1702.473667,7698.141797
164.486168,2604.724693,1924.535449,7402.059420
164.486476,2298.286494,1184.329507,7179.997637
164.486784,2681.334243,888.247130,7698.141797
164.487092,2145.067394,444.123565,7698.141797
164.487400,2298.286494,-74.020594,7846.182985
164.487708,1838.629195,-296.082377,8808.450710
164.488016,1302.362347,-518.144159,9104.533087
164.488324,919.314598,-222.061783,9474.636058
164.488632,995.924147,-296.082377,9548.656652
164.488940,842.705048,-0.000000,9844.739029
164.489248,766.095498,444.123565,9992.780217
164.489556,689.485948,814.226536,10140.821405
164.489864,612.876398,1184.329507,10288.862594
164.490172,536.266849,1480.411884,10066.800811
164.490480,383.047749,1776.494261,10362.883188
164.490788,76.609550,1480.411884,10214.842000
164.491096,-153.219100,888.247130,10510.924376
164.491404,-536.266849,222.061783,10881.027347
164.491712,-1149.143247,-370.102971,11177.109724
164.492020,-1532.190996,-962.267725,11103.089130
164.492329,-995.924147,-1332.370696,11029.068536
164.492637,-1455.581446,-1036.288319,11029.068536
164.492945,-995.924147,-962.267725,10584.944971
164.493253,-612.876398,-444.123565,10436.903782
164.493561,0.000000,-74.020594,10362.883188
164.493869,536.266849,-0.000000,9992.780217
164.494177,536.266849,962.267725,9696.697840
164.494485,306.438199,592.164754,9770.718434
164.494793,1072.533697,1110.308913,9474.636058
164.495101,1302.362347,592.164754,8956.491898
164.495409,1455.581446,666.185348,8808.450710
164.495717,1762.019645,444.123565,8586.388927
164.496025,1762.019645,518.144159,8438.347739
164.496333,1915.238745,-222.061783,8438.347739
164.496641,1685.410096,-74.020594,8068.244768
164.496949,1915.238745,-296.082377,8290.306550
164.497257,1532.190996,-740.205942,8290.306550
164.497565,1455.581446,-518.144159,8290.306550
164.497873,1532.190996,-518.144159,8734.430116
164.498181,1225.752797,-148.041188,8956.491898
164.498489,1225.752797,222.061783,9252.574275
164.498797,1072.533697,444.123565,9400.615463
164.499105,229.828649,814.226536,9474.636058
164.499413,1455.581446,1332.370696,9548.656652
164.499721,1532.190996,1332.370696,9474.636058
164.500029,1225.752797,1628.453072,9474.636058
164.500337,1072.533697,1258.350101,9400.615463
164.500645,766.095498,962.267725,9622.677246
164.500953,229.828649,592.164754,9770.718434
164.501261,0.000000,-296.082377,9844.739029
164.501569,-536.266849,-518.144159,10436.903782
164.501877,-1225.752797,-1110.308913,11251.130318
164.502185,-1455.581446,-1480.411884,11695.253884
164.502493,-1838.629195,-1850.514855,11325.150913
164.502801,-1838.629195,-1776.494261,11621.233289
164.503109,-1302.362347,-1406.391290,11251.130318
164.503417,-995.924147,-888.247130,10955.047942
164.503725,153.219100,-74.020594,10658.965565
164.504033,1225.752797,296.082377,9548.656652
164.504341,1685.410096,740.205942,8882.471304
164.504649,1991.848295,1258.350101,8364.327145
164.504957,2374.896044,1776.494261,7846.182985
164.505265,2528.115143,1776.494261,7550.100608
164.505573,2757.943793,1480.411884,7402.059420
164.505881,2681.334243,1258.350101,7476.080014
164.506189,2604.724693,444.123565,7476.080014
164.506497,1685.410096,-0.000000,7846.182985
164.506805,1302.362347,-0.000000,8364.327145
164.507113,1455.581446,-518.144159,9030.512492
164.507421,919.314598,-518.144159,9474.636058
164.507729,689.485948,-296.082377,9622.677246
164.508037,306.438199,-0.000000,10288.862594
164.508345,-383.047749,-0.000000,10362.883188
164.508653,459.657299,222.061783,10658.965565
164.508962,76.609550,1110.308913,10436.903782
164.509270,383.047749,1332.370696,10140.821405
164.509578,536.266849,1258.350101,10140.821405
164.509886,153.219100,1258.350101,10214.842000
164.510194,0.000000,1036.288319,10288.862594
164.510502,-383.047749,740.205942,10362.883188
164.510810,-612.876398,-0.000000,10362.883188
164.511118,-1378.971896,-296.082377,10881.027347
164.511426,-995.924147,-592.164754,10807.006753
164.511734,-1149.143247,-814.226536,11029.068536
164.512042,-842.705048,-666.185348,10881.027347
164.512350,-1072.533697,-370.102971,11177.109724
164.512658,-612.876398,-222.061783,10436.903782
164.512966,0.000000,-148.041188,10510.924376
164.513274,306.438199,-74.020594,10288.862594
164.513582,1225.752797,-0.000000,9918.759623
164.513890,1149.143247,148.041188,9326.594869
164.514198,1532.190996,518.144159,9252.574275
164.514506,1378.971896,518.144159,8660.409521
164.514814,1532.190996,518.144159,8364.327145
164.515122,1915.238745,444.123565,8142.265362
164.515430,2145.067394,-0.000000,7994.224174
164.515738,2145.067394,518.144159,8142.265362
164.516046,2451.505594,-0.000000,7994.224174
164.516354,2068.457845,-888.247130,8438.347739
164.516662,1532.190996,-1036.288319,9030.512492
164.516970,1225.752797,-518.144159,9104.533087
164.517278,842.705048,-0.000000,8956.491898
164.517586,919.314598,296.082377,9326.594869
164.517894,1072.533697,666.185348,9400.615463
164.518202,1608.800546,518.144159,9474.636058
164.518510,1532.190996,962.267725,9178.553681
164.518818,1608.800546,1258.350101,9474.636058
164.519126,1072.533697,1332.370696,9474.636058
164.519434,919.314598,1406.391290,9622.677246
164.519742,536.266849,740.205942,9770.718434
164.520050,306.438199,-0.000000,9992.780217
164.520358,0.000000,-296.082377,10362.883188
164.520666,-766.095498,-1036.288319,10955.047942
164.520974,-1378.971896,-1702.473667,11547.212695
164.521282,-1915.238745,-2072.576638,11769.274478
164.521590,-1149.143247,-1776.494261,11621.233289
164.521898,-1302.362347,-1480.411884,11547.212695
164.522206,-1149.143247,-814.226536,11029.068536
164.522514,-229.828649,-222.061783,10436.903782
164.522822,383.047749,370.102971,10066.800811
164.523130,995.924147,740.205942,9548.656652
164.523438,919.314598,592.164754,8956.491898
164.523746,2145.067394,1258.350101,8290.306550
164.524054,2604.724693,1406.391290,8068.244768
164.524362,2451.505594,1480.411884,7402.059420
164.524670,2681.334243,962.267725,7772.162391
164.524978,2604.724693,1110.308913,7698.141797
164.525286,2298.286494,592.164754,7772.162391
164.525594,2145.067394,-148.041188,8364.327145
164.525903,2145.067394,-740.205942,8882.471304
164.526211,919.314598,-740.205942,9178.553681
164.526519,919.314598,-296.082377,9844.739029
164.526827,689.485948,-222.061783,9918.759623
164.527135,689.485948,-0.000000,10214.842000
164.527443,842.705048,518.144159,10140.821405
164.527751,842.705048,1110.308913,9918.759623
164.528059,842.705048,888.247130,9992.780217
164.528367,919.314598,1776.494261,10288.862594
164.528675,229.828649,1776.494261,10140.821405
164.528983,306.438199,1554.432478,9844.739029
164.529291,153.219100,1258.350101,9992.780217
164.529599,-306.438199,444.123565,10510.924376
164.529907,-995.924147,-0.000000,10881.027347
164.530215,-1378.971896,-666.185348,11029.068536
164.530523,-1608.800546,-1258.350101,11177.109724
164.530831,-2221.676944,-1702.473667,11473.192101
164.531139,-1762.019645,-1480.411884,11621.233289
164.531447,-1762.019645,-1110.308913,11769.274478
164.531755,-1072.533697,-592.164754,11177.109724
164.532063,-459.657299,-296.082377,10436.903782
164.532371,0.000000,-0.000000,10214.842000
164.532679,459.657299,370.102971,9992.780217
164.532987,766.095498,370.102971,9474.636058
164.533295,1685.410096,1258.350101,9104.533087
164.533603,1532.190996,666.185348,8438.347739
164.533911,1455.581446,518.144159,7772.162391
164.534219,2221.676944,666.185348,7920.203579
164.534527,2298.286494,148.041188,7994.224174
164.534835,1991.848295,296.082377,7698.141797
164.535143,1915.238745,-0.000000,7994.224174
164.535451,1685.410096,-444.123565,8142.265362
164.535759,1532.190996,-148.041188,8660.409521
164.536067,919.314598,222.061783,9030.512492
164.536375,1455.581446,-0.000000,8808.450710
164.536683,1149.143247,444.123565,9252.574275
164.536991,1149.143247,740.205942,9400.615463
164.537299,1149.143247,1184.329507,9622.677246
164.537607,1149.143247,1480.411884,9474.636058
164.537915,919.314598,1184.329507,9474.636058
164.538223,1378.971896,1036.288319,9918.759623
164.538531,1072.533697,592.164754,9918.759623
164.538839,229.828649,-0.000000,10362.883188
164.539147,0.000000,-0.000000,10362.883188
164.539455,-306.438199,-666.185348,10510.924376
164.539763,-1072.533697,-740.205942,10807.006753
164.540071,-1532.190996,-1184.329507,11029.068536
164.540379,-1532.190996,-1776.494261,11399.171507
164.540687,-306.438199,-1332.370696,11103.089130
164.540995,-612.876398,-1184.329507,10881.027347
164.541303,-306.438199,-666.185348,11029.068536
164.541611,153.219100,-74.020594,10066.800811
164.541919,842.705048,444.123565,9696.697840
164.542227,1455.581446,740.205942,9474.636058
164.542535,1838.629195,888.247130,9030.512492
164.542844,2374.896044,1184.329507,8660.409521
164.543152,1762.019645,1332.370696,8290.306550
164.543460,2987.772442,740.205942,7846.182985
164.543768,2145.067394,592.164754,7920.203579
164.544076,2374.896044,222.061783,7772.162391
164.544384,1915.238745,222.061783,8142.265362
164.544692,1532.190996,-0.000000,8512.368333
164.545000,1608.800546,-0.000000,8734.430116
164.545308,995.924147,-0.000000,9252.574275
164.545616,1455.581446,-0.000000,9326.594869
164.545924,1378.971896,-148.041188,9918.759623
164.546232,76.609550,740.205942,9474.636058
164.546540,766.095498,592.164754,10288.862594
164.546848,612.876398,1184.329507,10066.800811
164.547156,689.485948,1628.453072,9918.759623
164.547464,842.705048,1554.432478,10362.883188
164.547772,689.485948,1406.391290,9770.718434
164.548080,0.000000,1406.391290,10140.821405
164.548388,-229.828649,666.185348,9992.780217
164.548696,0.000000,518.144159,10584.944971
164.549004,-919.314598,-148.041188,10362.883188
164.549312,-1302.362347,-518.144159,10732.986159
164.549620,-1532.190996,-1110.308913,11399.171507
164.549928,-1915.238745,-1332.370696,11399.171507
164.550236,-1455.581446,-1258.350101,11547.212695
164.550544,-1072.533697,-740.205942,11251.130318
164.550852,-459.657299,-740.205942,11547.212695
164.551160,-459.657299,-740.205942,10881.027347
164.551468,0.000000,-296.082377,10584.944971
164.551776,153.219100,-74.020594,10288.862594
164.552084,612.876398,370.102971,9474.636058
164.552392,1378.971896,222.061783,8882.471304
164.552700,1685.410096,740.205942,8290.306550
164.553008,2374.896044,814.226536,7550.100608
164.553316,2604.724693,1110.308913,7846.182985
164.553624,2451.505594,814.226536,7624.121203
164.553932,2374.896044,444.123565,7179.997637
164.554240,2145.067394,-0.000000,7550.100608
164.554548,1838.629195,-74.020594,8290.306550
164.554856,1225.752797,-296.082377,8660.409521
164.555164,1302.362347,-0.000000,8808.450710
164.555472,1378.971896,-370.102971,9400.615463
164.555780,459.657299,74.020594,10066.800811
164.556088,1072.533697,518.144159,9696.697840
164.556396,919.314598,962.267725,9844.739029
164.556704,919.314598,1258.350101,9474.636058
164.557012,919.314598,1480.411884,9474.636058
164.557320,1455.581446,1554.432478,9696.697840
164.557628,766.095498,1258.350101,9992.780217
164.557936,229.828649,666.185348,9844.739029
164.558244,0.000000,-0.000000,9770.718434
164.558552,-612.876398,-74.020594,10584.944971
164.558860,-995.924147,-888.247130,10955.047942
164.559168,-1455.581446,-1332.370696,11325.150913
164.559476,-1608.800546,-1702.473667,11547.212695
164.559785,-1225.752797,-1776.494261,11473.192101
164.560093,-1762.019645,-1480.411884,11029.068536
164.560401,-459.657299,-1480.411884,11029.068536
164.560709,-306.438199,-296.082377,10436.903782
164.561017,766.095498,-74.020594,9474.636058
164.561325,1455.581446,814.226536,9104.533087
164.561633,2145.067394,1480.411884,8438.347739
164.561941,2757.943793,1480.411884,7846.182985
164.562249,3064.381992,1776.494261,7402.059420
164.562557,3064.381992,1184.329507,7476.080014
164.562865,3140.991542,814.226536,7550.100608
164.563173,2604.724693,-0.000000,8068.244768
164.563481,1838.629195,-222.061783,7846.182985
164.563789,1225.752797,-740.205942,8734.430116
164.564097,612.876398,-962.267725,9104.533087
164.564405,459.657299,-1036.288319,9696.697840
164.564713,766.095498,-888.247130,9696.697840
164.565021,383.047749,-0.000000,10436.903782
164.565329,689.485948,444.123565,10066.800811
164.565637,1149.143247,1110.308913,9548.656652
164.565945,1149.143247,1480.411884,9770.718434
164.566253,1225.752797,2146.597232,9474.636058
164.566561,995.924147,2368.659014,9326.594869
164.566869,995.924147,2368.659014,9326.594869
164.567177,612.876398,1554.432478,9844.739029
164.567485,229.828649,1036.288319,10288.862594
164.567793,-383.047749,296.082377,11029.068536
164.568101,-1302.362347,-518.144159,11251.130318
164.568409,-2145.067394,-888.247130,11103.089130
164.568717,-2221.676944,-1258.350101,11769.274478
164.569025,-1991.848295,-1406.391290,11547.212695
164.569333,-1685.410096,-1110.308913,11473.192101
164.569641,-1225.752797,-962.267725,11177.109724
164.569949,-689.485948,-592.164754,11103.089130
164.570257,0.000000,-148.041188,10436.903782
164.570565,536.266849,296.082377,10510.924376
164.570873,689.485948,370.102971,9548.656652
164.571181,1149.143247,370.102971,8956.491898
164.571489,1532.190996,740.205942,8808.450710
164.571797,1762.019645,814.226536,8438.347739
164.572105,2451.505594,666.185348,7994.224174
164.572413,2068.457845,222.061783,7994.224174
164.572721,2451.505594,-74.020594,7476.080014
164.573029,2298.286494,-444.123565,7698.141797
164.573337,1915.238745,-444.123565,7994.224174
164.573645,1838.629195,-148.041188,8364.327145
164.573953,1455.581446,-222.061783,8586.388927
164.574262,1149.143247,-222.061783,8956.491898
164.574570,1149.143247,-0.000000,9474.636058
164.574878,689.485948,370.102971,9548.656652
164.575186,1302.362347,518.144159,9622.677246
164.575494,1149.143247,814.226536,9474.636058
164.575802,1378.971896,1406.391290,9400.615463
164.576110,1608.800546,1628.453072,9474.636058
164.576418,1455.581446,1924.535449,9474.636058
164.576726,1149.143247,1258.350101,9474.636058
164.577034,612.876398,1184.329507,10140.821405
164.577342,76.609550,-148.041188,9992.780217
164.577650,-153.219100,-592.164754,10436.903782
164.577958,-1149.143247,-1036.288319,10955.047942
164.578266,-1608.800546,-1480.411884,11621.233289
164.578574,-1608.800546,-1628.453072,11547.212695
164.578882,-1608.800546,-1332.370696,11695.253884
164.579190,-1225.752797,-1110.308913,11251.130318
164.579498,-766.095498,-666.185348,10955.047942
164.579806,-229.828649,-444.123565,10288.862594
164.580114,995.924147,518.144159,9770.718434
164.580422,995.924147,740.205942,9326.594869
164.580730,1991.848295,1332.370696,8734.430116
164.581038,2451.505594,1332.370696,8438.347739
164.581346,2604.724693,1480.411884,7846.182985
164.581655,2451.505594,1258.350101,7698.141797
164.581963,2298.286494,740.205942,8142.265362
164.582271,2068.457845,814.226536,7772.162391
164.582579,1915.238745,-0.000000,7550.100608
164.582887,1915.238745,-444.123565,8068.244768
164.583195,1302.362347,-444.123565,8438.347739
164.583503,919.314598,-592.164754,8956.491898
164.583811,919.314598,-296.082377,9252.574275
164.584119,689.485948,-0.000000,9400.615463
164.584427,536.266849,-0.000000,9548.656652
164.584735,1302.362347,740.205942,9918.759623
164.585043,842.705048,1258.350101,9770.718434
164.585351,1149.143247,1776.494261,9918.759623
164.585659,995.924147,1924.535449,9770.718434
164.585967,766.095498,1702.473667,9770.718434
164.586275,459.657299,1332.370696,10214.842000
164.586583,0.000000,592.164754,10288.862594
164.586891,-306.438199,-0.000000,11103.089130
164.587199,-919.314598,-962.267725,11029.068536
164.587507,-1225.752797,-1628.453072,11473.192101
164.587815,-1915.238745,-1406.391290,11547.212695
164.588123,-2068.457845,-1406.391290,11473.192101
164.588431,-1991.848295,-1184.329507,11547.212695
164.588740,-1378.971896,-962.267725,11325.150913
164.589048,-689.485948,-444.123565,11103.089130
164.589356,-766.095498,222.061783,10881.027347
164.589664,383.047749,-74.020594,10288.862594
164.589972,766.095498,518.144159,9844.739029
164.590280,1302.362347,814.226536,8956.491898
164.590588,1991.848295,1036.288319,8364.327145
164.590896,2145.067394,1036.288319,8216.285956
164.591204,2451.505594,1110.308913,7846.182985
164.591512,2451.505594,962.267725,7772.162391
164.591820,2298.286494,296.082377,7624.121203
164.592128,2451.505594,222.061783,7624.121203
164.592436,2068.457845,-444.123565,8142.265362
164.592744,1762.019645,-592.164754,8512.368333
164.593052,1302.362347,-518.144159,8586.388927
164.593360,1072.533697,-444.123565,9252.574275
164.593668,919.314598,-0.000000,9474.636058
164.593976,995.924147,-0.000000,9474.636058
164.594284,1225.752797,740.205942,9622.677246
164.594592,1455.581446,1036.288319,9696.697840
164.594900,919.314598,1406.391290,9326.594869
164.595208,536.266849,1628.453072,9548.656652
164.595516,919.314598,1776.494261,9474.636058
164.595824,766.095498,888.247130,9474.636058
164.596133,229.828649,518.144159,9844.739029
164.596441,-536.266849,-0.000000,10584.944971
164.596749,-842.705048,-962.267725,10658.965565
164.597057,-1532.190996,-1702.473667,11103.089130
164.597365,-1762.019645,-1924.535449,11917.315666
164.597673,-1915.238745,-1850.514855,11695.253884
164.597981,-1532.190996,-1258.350101,11547.212695
164.598289,-612.876398,-962.267725,10881.027347
164.598597,0.000000,-444.123565,10436.903782
164.598905,383.047749,148.041188,9622.677246
164.599213,1532.190996,296.082377,9548.656652
164.599521,1838.629195,1184.329507,9696.697840
164.599829,2145.067394,1036.288319,7920.203579
164.600137,2374.896044,1702.473667,8068.244768
164.600445,2681.334243,1480.411884,8142.265362
164.600753,2145.067394,1480.411884,7476.080014
164.601061,2145.067394,518.144159,7846.182985
164.601369,2145.067394,-74.020594,7550.100608
164.601677,2374.896044,-296.082377,7698.141797
164.601985,995.924147,-222.061783,8808.450710
164.602293,1532.190996,-740.205942,9474.636058
164.602601,842.705048,-444.123565,9400.615463
164.602909,919.314598,-222.061783,9474.636058
164.603217,919.314598,-0.000000,9696.697840
164.603526,1149.143247,888.247130,9548.656652
164.603834,689.485948,1332.370696,10140.821405
164.604142,1149.143247,1628.453072,9622.677246
164.604450,1072.533697,1702.473667,9696.697840
164.604758,689.485948,1776.494261,9844.739029
164.605066,459.657299,1702.473667,9918.759623
164.605374,76.609550,1184.329507,10362.883188
164.605682,-842.705048,296.082377,10584.944971
164.605990,-1225.752797,-222.061783,11103.089130
164.606298,-2145.067394,-1110.308913,11177.109724
164.606606,-2068.457845,-1554.432478,11991.336260
164.606914,-2757.943793,-1702.473667,11769.274478
164.607222,-2528.115143,-1036.288319,11621.233289
164.607530,-1685.410096,-1184.329507,11325.150913
164.607838,-995.924147,-740.205942,11029.068536
164.608146,-612.876398,-148.041188,10584.944971
164.608454,229.828649,296.082377,10362.883188
164.608762,1225.752797,-0.000000,9770.718434
164.609070,1072.533697,666.185348,9326.594869
164.609378,1455.581446,888.247130,8956.491898
164.609686,2068.457845,518.144159,8512.368333
164.609994,1915.238745,666.185348,7994.224174
164.610302,2145.067394,740.205942,8068.244768
164.610610,2374.896044,296.082377,7920.203579
164.610919,2451.505594,-0.000000,7624.121203
164.611227,2681.334243,-74.020594,7772.162391
164.611535,2298.286494,-0.000000,7920.203579
164.611843,1915.238745,-0.000000,7920.203579
164.612151,1072.533697,74.020594,8882.471304
164.612459,1302.362347,222.061783,9400.615463
164.612767,842.705048,592.164754,9474.636058
164.613075,1149.143247,888.247130,9622.677246
164.613383,995.924147,1036.288319,9548.656652
164.613691,1225.752797,1110.308913,9770.718434
164.613999,995.924147,1184.329507,10362.883188
164.614307,612.876398,814.226536,9474.636058
164.614615,229.828649,1110.308913,10066.800811
164.614923,383.047749,370.102971,10214.842000
164.615231,0.000000,222.061783,10288.862594
164.615539,-306.438199,-370.102971,10140.821405
164.615847,-689.485948,-666.185348,10510.924376
164.616155,-919.314598,-1332.370696,11177.109724
164.616463,-766.095498,-1332.370696,10955.047942
164.616771,-1532.190996,-1258.350101,11103.089130
164.617079,-536.266849,-1110.308913,11029.068536
164.617387,-536.266849,-740.205942,10807.006753
164.617695,76.609550,-296.082377,9918.759623
164.618003,842.705048,-0.000000,9844.739029
164.618312,1225.752797,666.185348,9326.594869
164.618620,1608.800546,1184.329507,8882.471304
164.618928,1991.848295,1406.391290,8734.430116
164.619236,2451.505594,1110.308913,8512.368333
164.619544,2528.115143,1184.329507,8068.244768
164.619852,2298.286494,740.205942,7624.121203
164.620160,2298.286494,592.164754,7846.182985
164.620468,2068.457845,-148.041188,8216.285956
164.620776,1762.019645,-148.041188,8438.347739
164.621084,1532.190996,-666.185348,9104.533087
164.621392,1072.533697,-444.123565,8882.471304
164.621700,1225.752797,-148.041188,9548.656652
164.622008,995.924147,-0.000000,9474.636058
164.622316,1225.752797,370.102971,9548.656652
164.622624,1072.533697,1036.288319,9770.718434
164.622932,995.924147,1258.350101,9548.656652
164.623240,1378.971896,1628.453072,9770.718434
164.623548,766.095498,1776.494261,9770.718434
164.623856,1378.971896,1924.535449,9918.759623
164.624164,0.000000,1480.411884,10140.821405
164.624472,-383.047749,1110.308913,10436.903782
164.624780,-995.924147,444.123565,10807.006753
164.625088,-1378.971896,-74.020594,11473.192101
164.625396,-2145.067394,-740.205942,11547.212695
164.625705,-2374.896044,-1406.391290,11547.212695
164.626013,-2298.286494,-1480.411884,11473.192101
164.626321,-2298.286494,-1184.329507,11621.233289
164.626629,-1072.533697,-814.226536,11177.109724
164.626937,-766.095498,-296.082377,11029.068536
164.627245,-229.828649,-222.061783,10066.800811
164.627553,536.266849,296.082377,9622.677246
164.627861,995.924147,370.102971,9474.636058
164.628169,1378.971896,444.123565,9030.512492
164.628477,1378.971896,666.185348,8438.347739
164.628785,2374.896044,518.144159,7772.162391
164.629093,2145.067394,814.226536,8068.244768
164.629401,2145.067394,296.082377,7476.080014
164.629709,2298.286494,444.123565,7994.224174
164.630017,2451.505594,-0.000000,7550.100608
164.630325,2068.457845,-74.020594,7698.141797
164.630633,2451.505594,-444.123565,7994.224174
164.630941,1149.143247,-370.102971,8586.388927
164.631249,1225.752797,-592.164754,8808.450710
164.631557,1685.410096,-370.102971,9178.553681
164.631865,919.314598,-0.000000,9548.656652
164.632173,842.705048,370.102971,9918.759623
164.632481,689.485948,888.247130,9918.759623
164.632789,919.314598,1036.288319,9770.718434
164.633098,995.924147,1110.308913,10140.821405
164.633406,766.095498,814.226536,10066.800811
164.633714,229.828649,1036.288319,10214.842000
164.634022,459.657299,444.123565,10140.821405
164.634330,76.609550,222.061783,9770.718434
164.634638,-153.219100,-0.000000,9992.780217
164.634946,-459.657299,-296.082377,10214.842000
164.635254,-459.657299,-740.205942,10362.883188
164.635562,-919.314598,-888.247130,10658.965565
164.635870,-612.876398,-1110.308913,10732.986159
164.636178,-1455.581446,-740.205942,10510.924376
164.636486,-459.657299,-740.205942,10807.006753
164.636794,76.609550,-0.000000,10066.800811
164.637102,919.314598,-0.000000,9918.759623
164.637410,1072.533697,370.102971,9548.656652
164.637718,1455.581446,592.164754,9326.594869
164.638026,1991.848295,518.144159,8956.491898
164.638334,2068.457845,518.144159,8808.450710
164.638642,2221.676944,444.123565,8290.306550
164.638950,2145.067394,222.061783,8290.306550
164.639258,2374.896044,-0.000000,8142.265362
164.639566,2145.067394,-74.020594,8216.285956
164.639874,1838.629195,-370.102971,8438.347739
164.640182,1455.581446,-518.144159,8882.471304
164.640491,1532.190996,-666.185348,9104.533087
164.640799,1072.533697,-296.082377,9474.636058
164.641107,1378.971896,-0.000000,9474.636058
164.641415,1302.362347,518.144159,9770.718434
164.641723,1149.143247,1184.329507,9622.677246
164.642031,1302.362347,1924.535449,9474.636058
164.642339,995.924147,2220.617826,9844.739029
164.642647,919.314598,2220.617826,9770.718434
164.642955,0.000000,2146.597232,10362.883188
164.643263,-229.828649,1554.432478,10214.842000
164.643571,-766.095498,814.226536,10510.924376
164.643879,-842.705048,518.144159,10881.027347
164.644187,-1685.410096,-0.000000,11103.089130
164.644495,-2068.457845,-592.164754,11621.233289
164.644803,-2068.457845,-962.267725,11621.233289
164.645111,-2298.286494,-1406.391290,11843.295072
164.645419,-1915.238745,-1406.391290,11473.192101
164.645727,-1455.581446,-888.247130,11177.109724
164.646035,-919.314598,-444.123565,11029.068536
164.646343,0.000000,-370.102971,10658.965565
164.646651,536.266849,-0.000000,9992.780217
164.646959,919.314598,370.102971,9844.739029
164.647267,1608.800546,518.144159,9474.636058
164.647576,1762.019645,962.267725,8660.409521
164.647884,2221.676944,444.123565,7994.224174
164.648192,1991.848295,444.123565,8142.265362
164.648500,2374.896044,592.164754,7179.997637
164.648808,2681.334243,444.123565,7624.121203
164.649116,2528.115143,444.123565,7476.080014
164.649424,2374.896044,-0.000000,7476.080014
164.649732,1915.238745,-148.041188,8216.285956
164.650040,1991.848295,-296.082377,8586.388927
164.650348,1915.238745,-370.102971,8734.430116
164.650656,1072.533697,-370.102971,8956.491898
164.650964,919.314598,-0.000000,9696.697840
164.651272,306.438199,-0.000000,10214.842000
164.651580,536.266849,518.144159,9992.780217
164.651888,612.876398,814.226536,9992.780217
164.652196,612.876398,1036.288319,9844.739029
164.652504,76.609550,1406.391290,9918.759623
164.652812,1072.533697,814.226536,9918.759623
164.653120,1378.971896,1258.350101,9844.739029
164.653428,306.438199,1110.308913,9696.697840
164.653736,459.657299,296.082377,9770.718434
164.654044,-229.828649,-0.000000,9844.739029
164.654352,-766.095498,-148.041188,10584.944971
164.654660,-1149.143247,-592.164754,10881.027347
164.654969,-995.924147,-518.144159,11251.130318
164.655277,-1225.752797,-1036.288319,10881.027347
164.655585,-536.266849,-962.267725,10881.027347
164.655893,0.000000,-592.164754,10436.903782
164.656201,153.219100,-296.082377,10214.842000
164.656509,919.314598,-0.000000,10288.862594
164.656817,1302.362347,222.061783,9548.656652
164.657125,1915.238745,592.164754,8734.430116
164.657433,2451.505594,888.247130,8290.306550
164.657741,2604.724693,592.164754,8068.244768
164.658049,2451.505594,518.144159,7994.224174
164.658357,2145.067394,148.041188,7920.203579
164.658665,2221.676944,-0.000000,8068.244768
164.658973,1838.629195,-296.082377,8438.347739
164.659281,1378.971896,-592.164754,8734.430116
164.659589,1149.143247,-518.144159,8882.471304
164.659897,766.095498,-222.061783,9400.615463
164.660205,1302.362347,222.061783,9474.636058
164.660513,1072.533697,592.164754,9622.677246
164.660821,995.924147,1258.350101,10140.821405
164.661129,842.705048,1702.473667,9548.656652
164.661437,536.266849,2220.617826,9474.636058
164.661745,536.266849,2146.597232,9696.697840
164.662053,383.047749,2146.597232,9992.780217
164.662362,229.828649,1628.453072,9918.759623
164.662670,-766.095498,1110.308913,10807.006753
164.662978,-1378.971896,-74.020594,11399.171507
164.663286,-1532.190996,-444.123565,11177.109724
164.663594,-2451.505594,-1110.308913,11621.233289
164.663902,-2681.334243,-1480.411884,11769.274478
164.664210,-2681.334243,-1406.391290,11991.336260
164.664518,-1915.238745,-1332.370696,11621.233289
164.664826,-995.924147,-962.267725,11399.171507
164.665134,76.609550,-666.185348,10955.047942
164.665442,-153.219100,-148.041188,10732.986159
164.665750,612.876398,370.102971,10140.821405
164.666058,1378.971896,518.144159,9696.697840
164.666366,1762.019645,740.205942,9030.512492
164.666674,2145.067394,1184.329507,8290.306550
164.666982,2451.505594,1110.308913,7698.141797
164.667290,2987.772442,592.164754,7772.162391
164.667598,2145.067394,888.247130,7698.141797
164.667906,2374.896044,370.102971,7179.997637
164.668214,2451.505594,74.020594,7624.121203
164.668522,2451.505594,-222.061783,7698.141797
164.668830,2068.457845,-296.082377,8290.306550
164.669138,1685.410096,-666.185348,8586.388927
164.669446,919.314598,-814.226536,9252.574275
164.669755,459.657299,-962.267725,10214.842000
164.670063,229.828649,-592.164754,10362.883188
164.670371,76.609550,-148.041188,10510.924376
164.670679,76.609550,888.247130,10658.965565
164.670987,536.266849,962.267725,10214.842000
164.671295,1072.533697,1258.350101,9696.697840
164.671603,995.924147,1480.411884,9400.615463
164.671911,1149.143247,1480.411884,9178.553681
164.672219,842.705048,1850.514855,9474.636058
164.672527,689.485948,666.185348,9104.533087
164.672835,383.047749,592.164754,9252.574275
164.673143,0.000000,-0.000000,9770.718434
164.673451,-459.657299,-444.123565,10436.903782
164.673759,-1072.533697,-814.226536,10881.027347
164.674067,-1225.752797,-1184.329507,10881.027347
164.674375,-1302.362347,-1332.370696,11325.150913
164.674683,-689.485948,-1332.370696,11251.130318
164.674991,0.000000,-1110.308913,10807.006753
164.675299,-536.266849,-370.102971,10881.027347
164.675607,1532.190996,-0.000000,10140.821405
164.675915,1608.800546,444.123565,9474.636058
164.676223,2145.067394,814.226536,8586.388927
164.676531,2451.505594,1184.329507,8068.244768
164.676839,2681.334243,1110.308913,7772.162391
164.677147,2604.724693,592.164754,7402.059420
164.677455,2298.286494,222.061783,7698.141797
164.677763,2681.334243,-0.000000,7994.224174
164.678071,2068.457845,-370.102971,8586.388927
164.678379,1225.752797,-518.144159,9030.512492
164.678687,995.924147,-666.185348,9400.615463
164.678995,612.876398,-222.061783,9622.677246
164.679303,536.266849,-74.020594,9844.739029
164.679611,995.924147,370.102971,10140.821405
164.679919,612.876398,962.267725,10214.842000
164.680227,919.314598,1480.411884,9844.739029
164.680535,1072.533697,2220.617826,9918.759623
164.680843,766.095498,2516.700203,9622.677246
164.681151,612.876398,2368.659014,9696.697840
164.681459,229.828649,1924.535449,9992.780217
164.681767,-612.876398,1258.350101,10288.862594
164.682075,-1532.190996,-0.000000,11029.068536
164.682383,-2451.505594,-814.226536,11325.150913
164.682691,-2604.724693,-1184.329507,11695.253884
164.682999,-2451.505594,-1702.473667,11695.253884
164.683307,-2451.505594,-1406.391290,11399.171507
164.683615,-1915.238745,-1480.411884,11399.171507
164.683923,-1149.143247,-1184.329507,11177.109724
164.684231,-383.047749,-592.164754,10658.965565
164.684539,-383.047749,-666.185348,10362.883188
164.684847,842.705048,-0.000000,9844.739029
164.685155,1225.752797,444.123565,9622.677246
164.685463,1915.238745,1184.329507,9104.533087
164.685771,2451.505594,1258.350101,8290.306550
164.686079,2451.505594,1332.370696,7624.121203
164.686387,2681.334243,814.226536,7772.162391
164.686695,2604.724693,444.123565,7550.100608
164.687003,2145.067394,-296.082377,7920.203579
164.687311,2145.067394,-444.123565,7994.224174
164.687619,2374.896044,-962.267725,8290.306550
164.687927,1225.752797,-814.226536,9104.533087
164.688235,1072.533697,-1184.329507,9104.533087
164.688543,612.876398,-592.164754,9474.636058
164.688851,229.828649,-222.061783,9918.759623
164.689159,612.876398,-0.000000,10214.842000
164.689467,76.609550,-0.000000,10510.924376
164.689775,919.314598,1036.288319,9992.780217
164.690083,1149.143247,1332.370696,9474.636058
164.690391,995.924147,1628.453072,9326.594869
164.690699,1225.752797,2368.659014,9326.594869
164.691007,1302.362347,2220.617826,9104.533087
164.691315,1149.143247,1702.473667,9104.533087
164.691623,689.485948,1036.288319,9400.615463
164.691931,-153.219100,592.164754,9622.677246
164.692240,-306.438199,-0.000000,10288.862594
164.692548,-766.095498,-1036.288319,10658.965565
164.692856,-1532.190996,-1110.308913,11251.130318
164.693164,-1225.752797,-1480.411884,11473.192101
164.693472,-1225.752797,-1480.411884,11325.150913
164.693780,-612.876398,-1258.350101,11399.171507
164.694088,76.609550,-666.185348,10807.006753
164.694396,459.657299,-370.102971,10732.986159
164.694704,1455.581446,-296.082377,9622.677246
164.695012,1838.629195,444.123565,9030.512492
164.695320,2451.505594,592.164754,8586.388927
164.695628,2834.553343,1110.308913,7550.100608
164.695936,2834.553343,1036.288319,7698.141797
164.696244,2451.505594,814.226536,7772.162391
164.696552,2068.457845,222.061783,7920.203579
164.696860,1762.019645,-148.041188,7624.121203
164.697168,1532.190996,-592.164754,8734.430116
164.697476,1302.362347,-888.247130,8808.450710
164.697784,995.924147,-1036.288319,9178.553681
164.698092,689.485948,-0.000000,9622.677246
164.698400,612.876398,296.082377,9696.697840
164.698708,766.095498,962.267725,9622.677246
164.699016,919.314598,1702.473667,9252.574275
164.699324,1072.533697,2072.576638,9622.677246
164.699632,995.924147,2368.659014,9844.739029
164.699940,459.657299,2664.741391,10288.862594
164.700248,76.609550,1702.473667,10140.821405
164.700556,-383.047749,1480.411884,10140.821405
164.700864,-1072.533697,592.164754,10584.944971
164.701172,-1762.019645,-222.061783,11251.130318
164.701480,-1608.800546,-888.247130,11399.171507
164.701788,-2757.943793,-1850.514855,11843.295072
164.702096,-2987.772442,-1998.556043,11843.295072
164.702404,-1915.238745,-1628.453072,11695.253884
164.702712,-2221.676944,-1332.370696,11177.109724
164.703020,-1149.143247,-1036.288319,10732.986159
164.703328,0.000000,-148.041188,10214.842000
164.703636,612.876398,370.102971,9696.697840
164.703944,1532.190996,592.164754,9474.636058
164.704252,2145.067394,1036.288319,8956.491898
164.704560,1915.238745,888.247130,8956.491898
164.704868,2528.115143,1406.391290,8216.285956
164.705176,2681.334243,888.247130,7920.203579
164.705484,2221.676944,518.144159,7772.162391
164.705792,2145.067394,222.061783,7994.224174
164.706100,1991.848295,-444.123565,8142.265362
164.706408,2221.676944,-1110.308913,8216.285956
164.706716,1532.190996,-962.267725,8660.409521
164.707024,995.924147,-1184.329507,9030.512492
164.707332,459.657299,-814.226536,9622.677246
164.707640,383.047749,-1036.288319,9622.677246
164.707948,1072.533697,-518.144159,10140.821405
164.708256,459.657299,222.061783,9770.718434
164.708564,459.657299,740.205942,10140.821405
164.708872,919.314598,1258.350101,10066.800811
164.709180,612.876398,1776.494261,9548.656652
164.709488,1225.752797,1480.411884,9400.615463
164.709796,1302.362347,1850.514855,9104.533087
164.710104,919.314598,1924.535449,9400.615463
164.710412,995.924147,1480.411884,9178.553681
164.710720,689.485948,666.185348,9400.615463
164.711028,0.000000,222.061783,9770.718434
164.711336,-766.095498,-370.102971,10362.883188
164.711644,-306.438199,-962.267725,10881.027347
164.711952,-536.266849,-1184.329507,11399.171507
164.712260,-1149.143247,-1110.308913,11621.233289
164.712568,-1149.143247,-1036.288319,10955.047942
164.712876,-383.047749,-666.185348,11103.089130
164.713184,383.047749,-222.061783,10807.006753
164.713492,766.095498,222.061783,9992.780217
164.713800,1608.800546,962.267725,10288.862594
164.714108,1225.752797,740.205942,9474.636058
164.714416,2451.505594,592.164754,8734.430116
164.714724,2604.724693,666.185348,8438.347739
164.715032,2221.676944,444.123565,7994.224174
164.715340,2221.676944,-0.000000,7994.224174
164.715648,2145.067394,-74.020594,8290.306550
164.715956,1915.238745,-296.082377,8586.388927
164.716264,1762.019645,-518.144159,8586.388927
164.716572,1608.800546,-740.205942,8808.450710
164.716880,1532.190996,-148.041188,9030.512492
164.717188,995.924147,-0.000000,9400.615463
164.717496,1302.362347,666.185348,9400.615463
164.717804,1302.362347,1258.350101,9252.574275
164.718112,919.314598,1850.514855,9326.594869
164.718420,1072.533697,2146.597232,9326.594869
164.718728,306.438199,2368.659014,9548.656652
164.719036,383.047749,2368.659014,9696.697840
164.719344,383.047749,1850.514855,10140.821405
164.719652,-842.705048,1110.308913,10510.924376
164.719960,-1149.143247,-0.000000,10881.027347
164.720268,-1991.848295,-666.185348,11325.150913
164.720576,-2451.505594,-1332.370696,11251.130318
164.720884,-2757.943793,-1850.514855,11547.212695
164.721192,-2528.115143,-1924.535449,11843.295072
164.721500,-2221.676944,-1850.514855,11843.295072
164.721808,-1991.848295,-1332.370696,11177.109724
164.722116,-1608.800546,-888.247130,10732.986159
164.722424,0.000000,-148.041188,10362.883188
164.722732,459.657299,592.164754,9400.615463
164.723040,1608.800546,888.247130,9474.636058
164.723348,1915.238745,1110.308913,8808.450710
164.723656,1685.410096,1332.370696,8734.430116
164.723964,2604.724693,1480.411884,8438.347739
164.724272,2145.067394,740.205942,8364.327145
164.724580,1838.629195,518.144159,8068.244768
164.724888,1838.629195,370.102971,8068.244768
164.725196,1762.019645,-148.041188,8142.265362
164.725504,1378.971896,-666.185348,8142.265362
164.725812,1225.752797,-666.185348,8808.450710
164.726120,1302.362347,-814.226536,9030.512492
164.726428,766.095498,-814.226536,9252.574275
164.726736,536.266849,-0.000000,9844.739029
164.727044,536.266849,-148.041188,9770.718434
164.727352,459.657299,370.102971,9696.697840
164.727660,689.485948,1036.288319,10066.800811
164.727968,1225.752797,1258.350101,9696.697840
164.728276,1149.143247,1406.391290,9474.636058
164.728584,1608.800546,1628.453072,9474.636058
164.728892,1225.752797,1554.432478,9474.636058
164.729200,1072.533697,1406.391290,9104.533087
164.729508,612.876398,1036.288319,9622.677246
164.729816,459.657299,518.144159,9548.656652
164.730124,0.000000,-0.000000,9844.739029
164.730432,-766.095498,-518.144159,10510.924376
164.730740,-842.705048,-740.205942,10881.027347
164.731048,-459.657299,-962.267725,11251.130318
164.731356,-689.485948,-1110.308913,11103.089130
164.731664,-229.828649,-888.247130,10881.027347
164.731972,-229.828649,-370.102971,10881.027347
164.732280,153.219100,-0.000000,10362.883188
164.732588,919.314598,148.041188,9918.759623
164.732896,1378.971896,296.082377,9770.718434
164.733204,1532.190996,444.123565,9178.553681
164.733512,2451.505594,592.164754,8956.491898
164.733820,2221.676944,740.205942,8438.347739
164.734128,2528.115143,148.041188,7994.224174
164.734437,2528.115143,-0.000000,7846.182985
164.734745,2145.067394,-148.041188,7994.224174
164.735053,2068.457845,-370.102971,8142.265362
164.735361,1991.848295,-222.061783,8512.368333
164.735669,1685.410096,-148.041188,8512.368333
164.735977,1685.410096,-0.000000,8660.409521
164.736285,1838.629195,814.226536,8660.409521
164.736593,1532.190996,1036.288319,8956.491898
164.736901,1455.581446,1554.432478,9104.533087
164.737209,1072.533697,1998.556043,9400.615463
164.737517,766.095498,2146.597232,9622.677246
164.737825,459.657299,1924.535449,9918.759623
164.738133,0.000000,1924.535449,10214.842000
164.738441,-689.485948,666.185348,10658.965565
164.738749,-612.876398,518.144159,11177.109724
164.739057,-1608.800546,-148.041188,11695.253884
164.739365,-2298.286494,-814.226536,11473.192101
164.739673,-2451.505594,-1110.308913,11547.212695
164.739981,-2298.286494,-1406.391290,11843.295072
164.740289,-1915.238745,-1480.411884,11251.130318
164.740597,-1378.971896,-1776.494261,11029.068536
164.740905,-689.485948,-666.185348,10955.047942
164.741213,0.000000,-666.185348,10436.903782
164.741521,612.876398,222.061783,9992.780217
164.741829,919.314598,592.164754,9326.594869
164.742137,1915.238745,814.226536,8808.450710
164.742445,1915.238745,962.267725,8364.327145
164.742753,2374.896044,1110.308913,8290.306550
164.743061,2681.334243,1036.288319,8216.285956
164.743369,2374.896044,370.102971,8142.265362
164.743677,2681.334243,-0.000000,7994.224174
164.743985,2068.457845,-74.020594,8216.285956
164.744293,1915.238745,-148.041188,8290.306550
164.744601,1532.190996,-592.164754,8290.306550
164.744909,1149.143247,-740.205942,8734.430116
164.745217,689.485948,-962.267725,9326.594869
164.745525,536.266849,-814.226536,9622.677246
164.745833,76.609550,-518.144159,9992.780217
164.746141,919.314598,-444.123565,10288.862594
164.746449,766.095498,-148.041188,10436.903782
164.746757,536.266849,666.185348,10066.800811
164.747065,766.095498,1184.329507,9918.759623
164.747373,1072.533697,1554.432478,9770.718434
164.747681,1302.362347,1628.453072,9400.615463
164.747989,1072.533697,1702.473667,9030.512492
164.748297,1608.800546,1998.556043,9178.553681
164.748605,1225.752797,1406.391290,8882.471304
164.748913,1072.533697,666.185348,9104.533087
164.749221,459.657299,740.205942,9178.553681
164.749529,0.000000,592.164754,9696.697840
164.749837,-383.047749,-444.123565,10510.924376
164.750145,-766.095498,-814.226536,10807.006753
164.750453,-766.095498,-888.247130,10807.006753
164.750761,-383.047749,-1110.308913,11103.089130
164.751069,-153.219100,-1258.350101,11177.109724
164.751377,0.000000,-1110.308913,11177.109724
164.751685,306.438199,-444.123565,10881.027347
164.751993,536.266849,-592.164754,10140.821405
164.752301,1302.362347,-74.020594,9622.677246
164.752609,1608.800546,148.041188,8956.491898
164.752917,2221.676944,-74.020594,8586.388927
164.753225,2451.505594,-0.000000,8364.327145
164.753533,2451.505594,222.061783,8364.327145
164.753841,2451.505594,-0.000000,7994.224174
164.754149,2221.676944,148.041188,7994.224174
164.754457,2068.457845,-0.000000,8216.285956
164.754765,1991.848295,296.082377,8142.265362
164.755073,1838.629195,666.185348,8512.368333
164.755381,1608.800546,666.185348,8956.491898
164.755689,1915.238745,1480.411884,9030.512492
164.755997,1302.362347,1406.391290,9252.574275
164.756305,1149.143247,2220.617826,9474.636058
164.756613,612.876398,1924.535449,9474.636058
164.756921,383.047749,1998.556043,9918.759623
164.757229,-229.828649,1776.494261,10214.842000
164.757537,-919.314598,1110.308913,10510.924376
164.757845,-1302.362347,518.144159,11325.150913
164.758153,-1608.800546,-296.082377,11547.212695
164.758461,-2374.896044,-888.247130,11621.233289
164.758769,-2681.334243,-1850.514855,11399.171507
164.759077,-2757.943793,-1776.494261,11843.295072
164.759385,-2298.286494,-1702.473667,11769.274478
164.759693,-1838.629195,-1406.391290,11251.130318
164.760001,-919.314598,-962.267725,10955.047942
164.760309,0.000000,-592.164754,10288.862594
164.760617,76.609550,296.082377,9992.780217
164.760925,1378.971896,518.144159,9326.594869
164.761233,1608.800546,888.247130,8808.450710
164.761541,2068.457845,1184.329507,8290.306550
164.761849,2221.676944,1184.329507,7994.224174
164.762157,2298.286494,962.267725,7920.203579
164.762465,2298.286494,518.144159,7846.182985
164.762773,1762.019645,222.061783,8290.306550
164.763081,1762.019645,148.041188,8364.327145
164.763389,842.705048,-592.164754,8290.306550
164.763697,995.924147,-814.226536,8808.450710
164.764005,842.705048,-888.247130,8882.471304
164.764313,536.266849,-1110.308913,9400.615463
164.764621,306.438199,-888.247130,9992.780217
164.764929,459.657299,-888.247130,9696.697840
164.765237,689.485948,-148.041188,10066.800811
164.765545,459.657299,370.102971,10140.821405
164.765853,612.876398,962.267725,9918.759623
164.766161,536.266849,1554.432478,9696.697840
164.766469,1302.362347,1998.556043,9400.615463
164.766777,1608.800546,2220.617826,9178.553681
164.767085,1838.629195,2146.597232,9178.553681
164.767393,1378.971896,1480.411884,8956.491898
164.767701,1149.143247,1406.391290,9178.553681
164.768009,1072.533697,814.226536,9104.533087
164.768317,229.828649,-0.000000,9474.636058
164.768625,-153.219100,-0.000000,9844.739029
164.768933,-306.438199,-444.123565,10584.944971
164.769241,-995.924147,-888.247130,11251.130318
164.769549,-919.314598,-1184.329507,11399.171507
164.769857,-919.314598,-1184.329507,11473.192101
164.770165,-383.047749,-1480.411884,11399.171507
164.770473,-306.438199,-1184.329507,11251.130318
164.770781,153.219100,-592.164754,10881.027347
164.771089,1072.533697,-518.144159,10214.842000
164.771397,1225.752797,-148.041188,9622.677246
164.771705,1762.019645,148.041188,9030.512492
164.772013,2298.286494,370.102971,8512.368333
164.772321,2451.505594,222.061783,8142.265362
164.772629,2757.943793,370.102971,7550.100608
164.772937,2451.505594,444.123565,7772.162391
164.773245,2451.505594,592.164754,7698.141797
164.773553,2451.505594,148.041188,7846.182985
164.773861,2068.457845,666.185348,7994.224174
164.774169,1915.238745,888.247130,8068.244768
164.774477,1838.629195,1184.329507,8438.347739
164.774785,1991.848295,1480.411884,8882.471304
164.775093,1225.752797,1628.453072,9474.636058
164.775401,919.314598,1406.391290,9696.697840
164.775710,459.657299,1258.350101,9770.718434
164.776018,-306.438199,1258.350101,10214.842000
164.776326,-459.657299,1110.308913,10732.986159
164.776634,-1072.533697,666.185348,11177.109724
164.776942,-1302.362347,222.061783,11251.130318
164.777250,-1532.190996,-296.082377,11621.233289
164.777558,-2757.943793,-1258.350101,11473.192101
164.777866,-2757.943793,-1036.288319,11695.253884
164.778174,-2068.457845,-1110.308913,12065.356855
164.778482,-1991.848295,-1332.370696,11325.150913
164.778791,-1608.800546,-740.205942,10881.027347
164.779099,-766.095498,-888.247130,10658.965565
164.779407,-459.657299,-222.061783,10140.821405
164.779715,612.876398,222.061783,9770.718434
164.780023,1149.143247,592.164754,9696.697840
164.780331,1608.800546,666.185348,9326.594869
164.780639,2451.505594,666.185348,8734.430116
164.780947,2451.505594,1110.308913,8142.265362
164.781255,2528.115143,888.247130,7698.141797
164.781564,2221.676944,518.144159,7920.203579
164.781872,2145.067394,370.102971,7698.141797
164.782180,1991.848295,-222.061783,8068.244768
164.782488,2068.457845,-296.082377,7994.224174
164.782796,1302.362347,-666.185348,8512.368333
164.783104,1762.019645,-1110.308913,9326.594869
164.783412,229.828649,-1480.411884,9474.636058
164.783720,0.000000,-1110.308913,9770.718434
164.784028,-383.047749,-814.226536,10288.862594
164.784336,-383.047749,-444.123565,10436.903782
164.784645,229.828649,222.061783,10214.842000
164.784953,536.266849,962.267725,10510.924376
164.785261,1378.971896,1110.308913,9548.656652
164.785569,1378.971896,1850.514855,9252.574275
164.785877,1608.800546,2664.741391,8586.388927
164.786185,1685.410096,2590.720797,8586.388927
164.786493,1685.410096,2294.638420,8438.347739
164.786801,1608.800546,1702.473667,8734.430116
164.787109,842.705048,1184.329507,8956.491898
164.787417,0.000000,74.020594,9400.615463
164.787726,-383.047749,-740.205942,10881.027347
164.788034,-1608.800546,-1480.411884,11177.109724
164.788342,-1532.190996,-1998.556043,11769.274478
164.788650,-1532.190996,-1998.556043,11843.295072
164.788958,-1149.143247,-1998.556043,11695.253884
164.789266,-612.876398,-1628.453072,11547.212695
164.789574,-229.828649,-1406.391290,11399.171507
164.789882,1072.533697,-888.247130,10955.047942
164.790190,995.924147,-148.041188,9696.697840
164.790498,1838.629195,592.164754,9030.512492
164.790807,2451.505594,740.205942,8364.327145
164.791115,2757.943793,962.267725,7994.224174
164.791423,2757.943793,888.247130,7772.162391
164.791731,2681.334243,814.226536,7624.121203
164.792039,2604.724693,370.102971,7550.100608
164.792347,2298.286494,148.041188,7624.121203
164.792655,2451.505594,-0.000000,8216.285956
164.792963,1991.848295,74.020594,8068.244768
164.793271,1838.629195,666.185348,8512.368333
164.793579,1838.629195,888.247130,8660.409521
164.793888,1685.410096,1554.432478,8808.450710
164.794196,1532.190996,1998.556043,9252.574275
164.794504,1225.752797,1850.514855,9474.636058
164.794812,995.924147,2220.617826,9696.697840
164.795120,612.876398,1924.535449,9992.780217
164.795428,0.000000,2146.597232,10584.944971
164.795736,-1072.533697,1184.329507,11103.089130
164.796044,-1225.752797,444.123565,11325.150913
164.796352,-2145.067394,-518.144159,11991.336260
164.796660,-2604.724693,-1332.370696,11917.315666
164.796969,-3370.820191,-1258.350101,11991.336260
164.797277,-2987.772442,-1998.556043,11843.295072
164.797585,-2451.505594,-2146.597232,12213.398043
164.797893,-2451.505594,-1258.350101,11547.212695
164.798201,-919.314598,-962.267725,10658.965565
164.798509,-153.219100,-222.061783,10436.903782
164.798817,229.828649,592.164754,9918.759623
164.799125,1378.971896,888.247130,9548.656652
164.799433,2298.286494,1036.288319,8808.450710
164.799742,1838.629195,1184.329507,8290.306550
164.800050,2298.286494,1406.391290,8290.306550
164.800358,2374.896044,1184.329507,7772.162391
164.800666,2374.896044,888.247130,7920.203579
164.800974,2068.457845,296.082377,7772.162391
164.801282,1915.238745,-222.061783,8364.327145
164.801590,1532.190996,-666.185348,7994.224174
164.801898,1072.533697,-1184.329507,8364.327145
164.802206,995.924147,-1036.288319,9104.533087
164.802514,-229.828649,-1184.329507,9622.677246
164.802823,0.000000,-740.205942,10140.821405
164.803131,229.828649,-592.164754,9696.697840
164.803439,459.657299,-0.000000,10066.800811
164.803747,459.657299,1036.288319,9992.780217
164.804055,766.095498,1480.411884,9770.718434
164.804363,1149.143247,1702.473667,9474.636058
164.804671,1532.190996,2220.617826,9400.615463
164.804979,1532.190996,1850.514855,8956.491898
164.805287,1302.362347,1628.453072,8734.430116
164.805595,1302.362347,1480.411884,9400.615463
164.805904,1072.533697,1036.288319,9474.636058
164.806212,76.609550,222.061783,9770.718434
164.806520,-306.438199,-666.185348,10214.842000
164.806828,-919.314598,-1036.288319,10732.986159
164.807136,-995.924147,-1480.411884,11473.192101
164.807444,-1149.143247,-1554.432478,11251.130318
164.807752,-919.314598,-1258.350101,11473.192101
164.808060,-919.314598,-1258.350101,11325.150913
164.808368,0.000000,-740.205942,11103.089130
164.808676,459.657299,-296.082377,10658.965565
164.808985,995.924147,-0.000000,9992.780217
164.809293,1991.848295,518.144159,9400.615463
164.809601,2451.505594,592.164754,8660.409521
164.809909,2068.457845,740.205942,8142.265362
164.810217,2451.505594,888.247130,7772.162391
164.810525,2221.676944,518.144159,7698.141797
164.810833,2451.505594,444.123565,7698.141797
164.811141,2298.286494,296.082377,7550.100608
164.811449,2298.286494,-0.000000,8216.285956
164.811757,2145.067394,148.041188,8364.327145
164.812066,1915.238745,-0.000000,8438.347739
164.812374,2221.676944,370.102971,9326.594869
164.812682,2068.457845,740.205942,9104.533087
164.812990,1532.190996,1332.370696,9252.574275
164.813298,1532.190996,1406.391290,9400.615463
164.813606,1378.971896,1776.494261,9400.615463
164.813914,995.924147,2294.638420,9622.677246
164.814222,612.876398,1998.556043,9844.739029
164.814530,153.219100,2072.576638,10066.800811
164.814838,0.000000,888.247130,10362.883188
164.815147,-1455.581446,740.205942,11029.068536
164.815455,-1838.629195,-222.061783,11399.171507
164.815763,-2298.286494,-962.267725,11769.274478
164.816071,-2451.505594,-1406.391290,11991.336260
164.816379,-2528.115143,-1776.494261,11843.295072
164.816687,-2145.067394,-1998.556043,11843.295072
164.816995,-1378.971896,-1554.432478,11547.212695
164.817303,-1072.533697,-1258.350101,10881.027347
164.817611,-229.828649,-814.226536,10955.047942
164.817920,229.828649,-0.000000,9844.739029
164.818228,995.924147,518.144159,9474.636058
164.818536,1762.019645,666.185348,8882.471304
164.818844,1915.238745,1184.329507,8512.368333
164.819152,2221.676944,1258.350101,8142.265362
164.819460,2451.505594,1110.308913,7772.162391
164.819768,2604.724693,888.247130,7994.224174
164.820076,1838.629195,148.041188,7179.997637
164.820384,1378.971896,222.061783,7994.224174
164.820692,1685.410096,-592.164754,8290.306550
164.821001,919.314598,-666.185348,8438.347739
164.821309,689.485948,-1184.329507,9104.533087
164.821617,306.438199,-1110.308913,9474.636058
164.821925,153.219100,-1036.288319,10140.821405
164.822233,0.000000,-962.267725,10066.800811
164.822541,0.000000,-0.000000,10362.883188
164.822849,383.047749,592.164754,10140.821405
164.823157,842.705048,1480.411884,9696.697840
164.823465,1225.752797,1850.514855,9474.636058
164.823773,1378.971896,2368.659014,9104.533087
164.824082,1991.848295,2590.720797,8956.491898
164.824390,1685.410096,2442.679609,9252.574275
164.824698,1378.971896,1406.391290,9326.594869
164.825006,383.047749,444.123565,9474.636058
164.825314,0.000000,-74.020594,10066.800811
164.825622,-919.314598,-888.247130,11029.068536
164.825930,-1532.190996,-1554.432478,11177.109724
164.826238,-1608.800546,-1628.453072,11695.253884
164.826546,-1532.190996,-2072.576638,11843.295072
164.826854,-995.924147,-1406.391290,11621.233289
164.827163,-842.705048,-1554.432478,11103.089130
164.827471,383.047749,-814.226536,10955.047942
164.827779,766.095498,-0.000000,10288.862594
164.828087,1532.190996,444.123565,9696.697840
164.828395,1991.848295,962.267725,9104.533087
164.828703,2298.286494,1184.329507,8512.368333
164.829011,2681.334243,1258.350101,8142.265362
164.829319,2911.162892,1110.308913,7920.203579
164.829627,2911.162892,370.102971,7624.121203
164.829935,1991.848295,-74.020594,7624.121203
164.830244,2221.676944,-0.000000,7772.162391
164.830552,2221.676944,-148.041188,8660.409521
164.830860,1838.629195,-222.061783,8364.327145
164.831168,1838.629195,-0.000000,8216.285956
164.831476,1455.581446,370.102971,8956.491898
164.831784,1991.848295,666.185348,9252.574275
164.832092,1838.629195,1110.308913,8956.491898
164.832400,1225.752797,1184.329507,9770.718434
164.832708,1225.752797,1628.453072,9622.677246
164.833016,842.705048,1850.514855,9918.759623
164.833325,842.705048,1924.535449,9992.780217
164.833633,689.485948,1406.391290,10140.821405
164.833941,0.000000,666.185348,10288.862594
164.834249,-919.314598,444.123565,10881.027347
164.834557,-2221.676944,-518.144159,11473.192101
164.834865,-2374.896044,-1258.350101,11399.171507
164.835173,-2298.286494,-1332.370696,11917.315666
164.835481,-2221.676944,-1554.432478,11769.274478
164.835789,-2221.676944,-1406.391290,11547.212695
164.836098,-1532.190996,-888.247130,11325.150913
164.836406,-766.095498,-370.102971,10881.027347
164.836714,-306.438199,370.102971,10140.821405
164.837022,383.047749,518.144159,10140.821405
164.837330,1072.533697,1036.288319,9622.677246
164.837638,1149.143247,1332.370696,9252.574275
164.837946,1455.581446,1406.391290,8512.368333
164.838254,1608.800546,1184.329507,8290.306550
164.838562,1685.410096,740.205942,8142.265362
164.838870,1991.848295,592.164754,8216.285956
164.839179,1532.190996,-0.000000,8216.285956
164.839487,1302.362347,-74.020594,8216.285956
164.839795,1149.143247,-296.082377,8142.265362
164.840103,842.705048,-666.185348,8438.347739
164.840411,842.705048,-814.226536,8808.450710
164.840719,536.266849,-592.164754,9104.533087
164.841027,842.705048,-296.082377,9474.636058
164.841335,766.095498,-222.061783,9548.656652
164.841643,919.314598,222.061783,9548.656652
164.841951,612.876398,962.267725,9548.656652
164.842260,1225.752797,1184.329507,9770.718434
164.842568,1302.362347,1554.432478,9400.615463
164.842876,1302.362347,1850.514855,9252.574275
164.843184,1149.143247,1406.391290,9548.656652
164.843492,536.266849,740.205942,9474.636058
164.843800,459.657299,370.102971,9992.780217
164.844108,-229.828649,-74.020594,10140.821405
164.844416,-689.485948,-1110.308913,10584.944971
164.844724,-1302.362347,-1406.391290,11399.171507
164.845032,-2068.457845,-1480.411884,11473.192101
164.845341,-2221.676944,-1628.453072,11843.295072
164.845649,-1762.019645,-1628.453072,11621.233289
164.845957,-1455.581446,-888.247130,11325.150913
164.846265,-689.485948,-444.123565,10584.944971
164.846573,76.609550,-0.000000,10362.883188
164.846881,766.095498,296.082377,9992.780217
164.847189,1685.410096,814.226536,9030.512492
164.847497,2068.457845,1184.329507,8512.368333
164.847805,2451.505594,1258.350101,8216.285956
164.848113,2528.115143,1332.370696,7624.121203
164.848422,3140.991542,1110.308913,7402.059420
164.848730,3140.991542,888.247130,7179.997637
164.849038,3217.601092,666.185348,7328.038826
164.849346,3294.210641,222.061783,7772.162391
164.849654,2834.553343,-0.000000,7994.224174
164.849962,2451.505594,-0.000000,8364.327145
164.850270,1838.629195,-0.000000,8438.347739
164.850578,1608.800546,-0.000000,9104.533087
164.850886,1302.362347,296.082377,9622.677246
164.851195,1455.581446,962.267725,9770.718434
164.851503,919.314598,1184.329507,9696.697840
164.851811,229.828649,1332.370696,10140.821405
164.852119,536.266849,1184.329507,10436.903782
164.852427,153.219100,1258.350101,10955.047942
164.852735,-229.828649,592.164754,10881.027347
164.853043,-766.095498,-0.000000,11251.130318
164.853351,-689.485948,-592.164754,11769.274478
164.853659,-1608.800546,-888.247130,11473.192101
164.853967,-1608.800546,-1480.411884,11695.253884
164.854276,-919.314598,-1406.391290,11473.192101
164.854584,-1455.581446,-1036.288319,11473.192101
164.854892,-842.705048,-666.185348,10732.986159
164.855200,-459.657299,-0.000000,10362.883188
164.855508,459.657299,444.123565,9770.718434
164.855816,1225.752797,740.205942,9474.636058
164.856124,1685.410096,1258.350101,9696.697840
164.856432,1685.410096,1480.411884,9252.574275
164.856740,1302.362347,2072.576638,8734.430116
164.857048,1838.629195,1332.370696,8586.388927
164.857357,1608.800546,1036.288319,8364.327145
164.857665,1685.410096,370.102971,8438.347739
164.857973,1378.971896,-0.000000,8512.368333
164.858281,1915.238745,-518.144159,8586.388927
164.858589,1378.971896,-518.144159,8734.430116
164.858897,1225.752797,-888.247130,9030.512492
164.859205,536.266849,-1554.432478,9104.533087
164.859513,383.047749,-1184.329507,9178.553681
164.859821,536.266849,-1110.308913,9474.636058
164.860129,229.828649,-666.185348,9918.759623
164.860438,612.876398,-74.020594,9844.739029
164.860746,1149.143247,-0.000000,9918.759623
164.861054,1378.971896,962.267725,9844.739029
164.861362,612.876398,1406.391290,9474.636058
164.861670,1608.800546,1776.494261,9252.574275
164.861978,1685.410096,2294.638420,9104.533087
164.862286,1532.190996,1998.556043,8882.471304
164.862594,1225.752797,1628.453072,9030.512492
164.862902,842.705048,1184.329507,9474.636058
164.863210,76.609550,296.082377,9770.718434
164.863519,-766.095498,-148.041188,10362.883188
164.863827,-689.485948,-1110.308913,11177.109724
164.864135,-2298.286494,-1406.391290,11399.171507
164.864443,-2451.505594,-1258.350101,11547.212695
164.864751,-1685.410096,-1480.411884,11547.212695
164.865059,-1532.190996,-1184.329507,11325.150913
164.865367,-766.095498,-740.205942,11103.089130
164.865675,-229.828649,-592.164754,10881.027347
164.865983,229.828649,-0.000000,10214.842000
164.866291,1608.800546,-0.000000,9474.636058
164.866600,2221.676944,370.102971,8882.471304
164.866908,2298.286494,1036.288319,8290.306550
164.867216,2451.505594,1110.308913,7994.224174
164.867524,2911.162892,888.247130,7772.162391
164.867832,2834.553343,518.144159,7476.080014
164.868140,2911.162892,222.061783,7698.141797
164.868448,2145.067394,-0.000000,7698.141797
164.868756,2451.505594,-148.041188,7846.182985
164.869064,2145.067394,370.102971,8142.265362
164.869373,1915.238745,444.123565,8364.327145
164.869681,1685.410096,962.267725,8808.450710
164.869989,1608.800546,1184.329507,9104.533087
164.870297,1225.752797,1110.308913,9548.656652
164.870605,536.266849,1036.288319,10140.821405
164.870913,919.314598,1036.288319,10436.903782
164.871221,76.609550,740.205942,10584.944971
164.871529,-383.047749,962.267725,11547.212695
164.871837,-842.705048,740.205942,11325.150913
164.872145,-1225.752797,148.041188,11325.150913
164.872454,-1532.190996,-148.041188,11547.212695
164.872762,-1378.971896,-518.144159,11547.212695
164.873070,-1991.848295,-888.247130,11399.171507
164.873378,-1455.581446,-888.247130,11621.233289
164.873686,-1149.143247,-1406.391290,10807.006753
164.873994,-1225.752797,-296.082377,10732.986159
164.874294,-612.876398,-0.000000,10214.842000
164.874602,0.000000,-0.000000,9992.780217
164.874910,383.047749,814.226536,9474.636058
164.875218,766.095498,962.267725,9400.615463
164.875526,1455.581446,592.164754,9178.553681
164.875834,1378.971896,444.123565,8882.471304
164.876142,1302.362347,888.247130,8586.388927
164.876450,2145.067394,148.041188,8068.244768
164.876758,1762.019645,296.082377,8290.306550
164.877066,1915.238745,-0.000000,8068.244768
164.877374,1838.629195,-296.082377,8068.244768
164.877682,1915.238745,-148.041188,8364.327145
164.877990,1302.362347,-444.123565,8734.430116
164.878298,383.047749,-1258.350101,8882.471304
164.878606,689.485948,-888.247130,9326.594869
164.878914,0.000000,-814.226536,9474.636058
164.879222,306.438199,-148.041188,9844.739029
164.879530,306.438199,370.102971,9844.739029
164.879838,459.657299,370.102971,10362.883188
164.880146,919.314598,962.267725,10362.883188
164.880454,1302.362347,1184.329507,9844.739029
164.880762,919.314598,1110.308913,9992.780217
164.881070,612.876398,1480.411884,9918.759623
164.881378,1149.143247,1258.350101,9918.759623
164.881686,689.485948,1554.432478,9770.718434
164.881994,689.485948,1110.308913,9770.718434
164.882302,153.219100,814.226536,9992.780217
164.882610,-383.047749,-0.000000,10066.800811
164.882918,-612.876398,-74.020594,10807.006753
164.883226,-1378.971896,-592.164754,11103.089130
164.883534,-1762.019645,-1110.308913,11103.089130
164.883842,-919.314598,-888.247130,11325.150913
164.884150,-1072.533697,-962.267725,10955.047942
164.884458,0.000000,-740.205942,10584.944971
164.884766,229.828649,-296.082377,10510.924376
164.885074,1072.533697,-444.123565,9696.697840
164.885382,1762.019645,-74.020594,9548.656652
164.885690,2451.505594,222.061783,9104.533087
164.885998,2987.772442,814.226536,8216.285956
164.886306,2604.724693,518.144159,7698.141797
164.886614,3447.429741,518.144159,7254.018232
164.886922,3294.210641,444.123565,7105.977043
164.887230,3140.991542,370.102971,7105.977043
164.887538,2911.162892,-0.000000,7624.121203
164.887846,2145.067394,-222.061783,8512.368333
164.888154,2604.724693,-296.082377,8586.388927
164.888462,1608.800546,-148.041188,9252.574275
164.888770,1532.190996,-148.041188,9326.594869
164.889078,919.314598,148.041188,9622.677246
164.889386,459.657299,370.102971,10214.842000
164.889694,383.047749,592.164754,10362.883188
164.890002,229.828649,888.247130,10436.903782
164.890310,153.219100,814.226536,10658.965565
164.890618,153.219100,1110.308913,10140.821405
164.890926,-306.438199,518.144159,10584.944971
164.891234,0.000000,814.226536,10510.924376
164.891542,-766.095498,444.123565,10214.842000
164.891850,-1149.143247,-0.000000,10510.924376
164.892158,-1225.752797,-296.082377,10732.986159
164.892466,-1378.971896,-666.185348,10658.965565
164.892774,-1532.190996,-814.226536,10881.027347
164.893082,-1225.752797,-962.267725,10584.944971
164.893390,-1149.143247,-666.185348,10510.924376
164.893698,-306.438199,-0.000000,10362.883188
164.894006,0.000000,444.123565,10288.862594
164.894314,306.438199,444.123565,9770.718434
164.894622,766.095498,740.205942,9696.697840
164.894930,1072.533697,592.164754,9474.636058
164.895238,842.705048,444.123565,8956.491898
164.895546,1608.800546,740.205942,9030.512492
164.895854,1532.190996,444.123565,8438.347739
164.896162,1532.190996,-0.000000,8586.388927
164.896470,1455.581446,-74.020594,8216.285956
164.896778,1225.752797,-370.102971,8512.368333
164.897086,1378.971896,-666.185348,8660.409521
164.897394,1225.752797,-666.185348,8882.471304
164.897702,1225.752797,-1036.288319,8956.491898
164.898010,689.485948,-814.226536,9400.615463
164.898318,383.047749,-444.123565,9696.697840
164.898626,842.705048,444.123565,9844.739029
164.898934,919.314598,1036.288319,9918.759623
164.899242,995.924147,1480.411884,9548.656652
164.899550,995.924147,1776.494261,9252.574275
164.899858,1225.752797,1924.535449,9400.615463
164.900166,766.095498,1998.556043,9326.594869
164.900474,995.924147,1628.453072,9474.636058
164.900782,689.485948,1184.329507,9474.636058
164.901090,-229.828649,666.185348,9992.780217
164.901398,-612.876398,-74.020594,10584.944971
164.901706,-1072.533697,-666.185348,10881.027347
164.902014,-1762.019645,-1184.329507,11177.109724
164.902322,-1991.848295,-1480.411884,11769.274478
164.902630,-2221.676944,-1776.494261,11843.295072
164.902938,-1762.019645,-1554.432478,11473.192101
164.903246,-1149.143247,-1554.432478,11029.068536
164.903554,-919.314598,-592.164754,10658.965565
164.903862,766.095498,-222.061783,10140.821405
164.904170,1225.752797,222.061783,9326.594869
164.904478,2145.067394,518.144159,8808.450710
164.904786,2451.505594,1036.288319,8290.306550
164.905094,2987.772442,1332.370696,7920.203579
164.905402,3830.477490,888.247130,7550.100608
164.905710,3677.258390,1110.308913,7328.038826
164.906018,3064.381992,370.102971,7031.956449
164.906326,3064.381992,148.041188,7254.018232
164.906634,2374.896044,-74.020594,7846.182985
164.906942,1838.629195,-370.102971,8512.368333
164.907250,1991.848295,-444.123565,9030.512492
164.907558,1072.533697,-296.082377,9400.615463
164.907866,1149.143247,370.102971,9696.697840
164.908174,689.485948,-0.000000,9844.739029
164.908482,766.095498,666.185348,10288.862594
164.908790,842.705048,814.226536,10362.883188
164.909098,459.657299,1258.350101,10288.862594
164.909406,766.095498,1554.432478,10584.944971
164.909714,0.000000,1332.370696,10140.821405
164.910022,229.828649,1258.350101,10436.903782
164.910330,-153.219100,444.123565,10658.965565
164.910638,-229.828649,370.102971,10214.842000
164.910946,-995.924147,-0.000000,10732.986159
164.911255,-1302.362347,-444.123565,10881.027347
164.911563,-1455.581446,-444.123565,10881.027347
164.911871,-1378.971896,-518.144159,10510.924376
164.912179,-1072.533697,-592.164754,10807.006753
164.912487,-689.485948,-148.041188,10510.924376
164.912795,0.000000,-148.041188,10584.944971
164.913103,0.000000,296.082377,9696.697840
164.913411,536.266849,222.061783,9844.739029
164.913719,766.095498,148.041188,9548.656652
164.914027,1072.533697,296.082377,9178.553681
164.914335,1225.752797,222.061783,9104.533087
164.914643,1149.143247,-0.000000,8956.491898
164.914951,1378.971896,-74.020594,8438.347739
164.915259,1838.629195,-148.041188,8142.265362
164.915567,2145.067394,-370.102971,7920.203579
164.915875,1608.800546,-222.061783,7698.141797
164.916183,1608.800546,-296.082377,8364.327145
164.916491,1225.752797,-592.164754,8290.306550
164.916799,842.705048,-666.185348,8956.491898
164.917107,919.314598,-592.164754,9326.594869
164.917415,766.095498,-370.102971,9696.697840
164.917723,689.485948,-0.000000,9622.677246
164.918031,1072.533697,740.205942,9992.780217
164.918339,919.314598,1332.370696,9696.697840
164.918647,1378.971896,1480.411884,9474.636058
164.918955,1225.752797,1628.453072,9474.636058
164.919263,1149.143247,1776.494261,9400.615463
164.919571,842.705048,1258.350101,9474.636058
164.919879,766.095498,1036.288319,9548.656652
164.920187,229.828649,592.164754,10066.800811
164.920495,-306.438199,-0.000000,9844.739029
164.920803,-1072.533697,-592.164754,10436.903782
164.921111,-1685.410096,-888.247130,11103.089130
164.921419,-2145.067394,-1332.370696,11399.171507
164.921727,-1838.629195,-1480.411884,11547.212695
164.922035,-1685.410096,-1628.453072,11473.192101
164.922343,-842.705048,-1184.329507,11473.192101
164.922651,-689.485948,-1110.308913,10807.006753
164.922959,459.657299,-148.041188,10436.903782
164.923267,1149.143247,296.082377,9548.656652
164.923575,2068.457845,1184.329507,8808.450710
164.923883,2528.115143,1332.370696,8068.244768
164.924191,2987.772442,1480.411884,7772.162391
164.924499,3524.039291,1184.329507,7476.080014
164.924807,3294.210641,1110.308913,7476.080014
164.925115,2987.772442,666.185348,7402.059420
164.925423,2528.115143,296.082377,7920.203579
164.925731,2145.067394,-296.082377,8216.285956
164.926039,1608.800546,-592.164754,8882.471304
164.926347,1072.533697,-666.185348,9326.594869
164.926655,689.485948,-444.123565,9548.656652
164.926963,766.095498,-74.020594,9918.759623
164.927271,766.095498,-0.000000,10436.903782
164.927579,919.314598,740.205942,10362.883188
164.927887,229.828649,814.226536,10140.821405
164.928195,919.314598,1406.391290,9918.759623
164.928503,995.924147,1924.535449,10140.821405
164.928811,383.047749,1702.473667,9992.780217
164.929119,0.000000,1554.432478,10066.800811
164.929427,-689.485948,1332.370696,10214.842000
164.929735,-842.705048,-0.000000,10732.986159
164.930043,-1302.362347,-0.000000,10510.924376
164.930351,-1225.752797,-740.205942,11177.109724
164.930659,-1685.410096,-1258.350101,11399.171507
164.930967,-1608.800546,-1036.288319,10881.027347
164.931275,-1225.752797,-962.267725,11251.130318
164.931583,-612.876398,-444.123565,10658.965565
164.931891,0.000000,-296.082377,10066.800811
164.932199,459.657299,296.082377,10140.821405
164.932507,1072.533697,592.164754,9992.780217
164.932815,1072.533697,518.144159,9326.594869
164.933123,1455.581446,962.267725,8734.430116
164.933431,1838.629195,1036.288319,8512.368333
164.933739,1838.629195,592.164754,8068.244768
164.934047,2221.676944,888.247130,8216.285956
164.934355,1685.410096,-0.000000,8438.347739
164.934663,2145.067394,-518.144159,8438.347739
164.934971,1225.752797,-740.205942,7994.224174
164.935279,1225.752797,-1332.370696,8586.388927
164.935587,612.876398,-1110.308913,8956.491898
164.935895,459.657299,-1184.329507,9474.636058
164.936203,459.657299,-740.205942,9474.636058
164.936511,536.266849,-0.000000,10066.800811
164.936819,1302.362347,370.102971,9696.697840
164.937127,1072.533697,1110.308913,9030.512492
164.937435,2221.676944,1702.473667,9326.594869
164.937743,1455.581446,1998.556043,9252.574275
164.938051,1532.190996,2146.597232,9030.512492
164.938359,1302.362347,2072.576638,9104.533087
164.938667,1149.143247,1480.411884,9326.594869
164.938975,383.047749,962.267725,9548.656652
164.939283,0.000000,296.082377,10214.842000
164.939591,-459.657299,-444.123565,10658.965565
164.939899,-1302.362347,-962.267725,11177.109724
164.940207,-1915.238745,-1554.432478,11769.274478
164.940515,-2298.286494,-1776.494261,12065.356855
164.940823,-1838.629195,-1702.473667,11843.295072
164.941131,-1532.190996,-1258.350101,11251.130318
164.941439,-842.705048,-740.205942,11103.089130
164.941747,0.000000,-592.164754,10510.924376
164.942055,1149.143247,-296.082377,9622.677246
164.942363,2068.457845,740.205942,9030.512492
164.942671,2451.505594,1554.432478,8586.388927
164.942979,2987.772442,1628.453072,7920.203579
164.943287,3140.991542,1480.411884,7624.121203
164.943595,2987.772442,1110.308913,7328.038826
164.943903,3524.039291,1036.288319,7550.100608
164.944211,2911.162892,296.082377,7920.203579
164.944519,1915.238745,-518.144159,7920.203579
164.944827,1838.629195,-592.164754,8660.409521
164.945135,1302.362347,-518.144159,9178.553681
164.945443,1302.362347,-222.061783,9474.636058
164.945751,1149.143247,-0.000000,9548.656652
164.946059,1225.752797,444.123565,9770.718434
164.946367,1149.143247,518.144159,9770.718434
164.946675,1149.143247,962.267725,9844.739029
164.946983,842.705048,1332.370696,9918.759623
164.947291,1149.143247,1850.514855,9992.780217
164.947599,229.828649,1776.494261,10140.821405
164.947907,153.219100,1628.453072,10288.862594
164.948215,-153.219100,1110.308913,10658.965565
164.948524,-536.266849,518.144159,10510.924376
164.948832,0.000000,-0.000000,10807.006753
164.949140,-1072.533697,-370.102971,10881.027347
164.949448,-1302.362347,-740.205942,11621.233289
164.949756,-1072.533697,-740.205942,11399.171507
164.950064,-1149.143247,-666.185348,11029.068536
164.950372,-919.314598,-518.144159,10436.903782
164.950680,-536.266849,-0.000000,10584.944971
164.950988,0.000000,148.041188,10140.821405
164.951296,766.095498,518.144159,9770.718434
164.951604,1149.143247,222.061783,9548.656652
164.951912,842.705048,740.205942,9474.636058
164.952220,1149.143247,666.185348,9030.512492
164.952528,1378.971896,740.205942,8734.430116
164.952836,1838.629195,444.123565,8290.306550
164.953144,1762.019645,-0.000000,8364.327145
164.953452,1532.190996,-74.020594,8216.285956
164.953760,1532.190996,-814.226536,8438.347739
164.954068,842.705048,-888.247130,8512.368333
164.954376,842.705048,-740.205942,8808.450710
164.954684,919.314598,-1258.350101,9326.594869
164.954992,459.657299,-962.267725,9400.615463
164.955300,383.047749,-740.205942,9474.636058
164.955608,766.095498,-0.000000,9474.636058
164.955916,1149.143247,666.185348,9326.594869
164.956224,1762.019645,962.267725,9178.553681
164.956532,1762.019645,1480.411884,9178.553681
164.956840,1762.019645,2072.576638,9104.533087
164.957148,1149.143247,2220.617826,9104.533087
164.957456,995.924147,1702.473667,9030.512492
164.957764,612.876398,1332.370696,9400.615463
164.958072,153.219100,444.123565,9696.697840
164.958380,-689.485948,148.041188,9992.780217
164.958688,-1072.533697,-518.144159,10362.883188
164.958996,-1378.971896,-1702.473667,11103.089130
164.959304,-1991.848295,-1554.432478,11547.212695
164.959612,-2604.724693,-1776.494261,11843.295072
164.959920,-1762.019645,-1702.473667,11843.295072
164.960228,-1225.752797,-1036.288319,11325.150913
164.960536,-383.047749,-666.185348,10881.027347
164.960844,229.828649,-296.082377,10214.842000
164.961152,766.095498,444.123565,9770.718434
164.961460,1072.533697,666.185348,9400.615463
164.961768,2451.505594,740.205942,8216.285956
164.962076,2145.067394,1110.308913,8068.244768
164.962384,2757.943793,1258.350101,7624.121203
164.962692,2681.334243,1036.288319,7624.121203
164.963000,2604.724693,666.185348,7328.038826
164.963308,2298.286494,518.144159,7698.141797
164.963616,1991.848295,148.041188,7994.224174
164.963924,1685.410096,-296.082377,8512.368333
164.964232,842.705048,-0.000000,9252.574275
164.964540,766.095498,-148.041188,9474.636058
164.964848,689.485948,-0.000000,9770.718434
164.965156,612.876398,148.041188,9992.780217
164.965464,612.876398,444.123565,10066.800811
164.965772,612.876398,1184.329507,10436.903782
164.966080,306.438199,814.226536,10362.883188
164.966388,1455.581446,1406.391290,10362.883188
164.966696,383.047749,1480.411884,10288.862594
164.967004,459.657299,1406.391290,10658.965565
164.967312,0.000000,962.267725,10584.944971
164.967620,-383.047749,592.164754,10658.965565
164.967928,-766.095498,148.041188,10955.047942
164.968236,-1149.143247,-148.041188,10807.006753
164.968544,-1532.190996,-296.082377,10955.047942
164.968852,-766.095498,-1036.288319,11177.109724
164.969160,-766.095498,-0.000000,10881.027347
164.969468,-689.485948,-222.061783,10436.903782
164.969776,0.000000,-0.000000,10510.924376
164.970084,229.828649,444.123565,10066.800811
164.970392,459.657299,296.082377,10066.800811
164.970700,995.924147,296.082377,9400.615463
164.971008,1455.581446,296.082377,9326.594869
164.971316,1149.143247,-0.000000,8882.471304
164.971624,1838.629195,148.041188,9030.512492
164.971932,1455.581446,-0.000000,9030.512492
164.972240,1532.190996,-74.020594,8660.409521
164.972548,1838.629195,-370.102971,8290.306550
164.972856,1838.629195,-222.061783,8290.306550
164.973164,1838.629195,-592.164754,8216.285956
164.973472,1915.238745,-592.164754,8290.306550
164.973780,1685.410096,-666.185348,8438.347739
164.974088,1532.190996,-296.082377,8882.471304
164.974396,1225.752797,-74.020594,8586.388927
164.974704,995.924147,370.102971,9326.594869
164.975012,1072.533697,814.226536,9104.533087
164.975320,1302.362347,1110.308913,9400.615463
164.975628,1072.533697,1332.370696,9178.553681
164.975936,842.705048,1332.370696,9474.636058
164.976244,1072.533697,1110.308913,9104.533087
164.976552,459.657299,1258.350101,9474.636058
164.976860,306.438199,666.185348,9770.718434
164.977168,229.828649,444.123565,9548.656652
164.977476,-153.219100,-222.061783,9918.759623
164.977784,-612.876398,-370.102971,10510.924376
164.978092,-1302.362347,-1110.308913,10510.924376
164.978400,-919.314598,-1332.370696,10658.965565
164.978708,-1072.533697,-1332.370696,11547.212695
164.979016,-842.705048,-1332.370696,11547.212695
164.979324,-919.314598,-1110.308913,10881.027347
164.979632,-383.047749,-666.185348,10658.965565
164.979940,689.485948,-222.061783,10140.821405
164.980248,1149.143247,370.102971,9844.739029
164.980556,1685.410096,592.164754,9622.677246
164.980864,1915.238745,592.164754,9178.553681
164.981172,2528.115143,370.102971,7994.224174
164.981480,2068.457845,518.144159,7698.141797
164.981788,2604.724693,370.102971,7624.121203
164.982096,2451.505594,444.123565,7624.121203
164.982404,2298.286494,370.102971,7846.182985
164.982712,1991.848295,-0.000000,8216.285956
164.983020,1532.190996,-74.020594,8586.388927
164.983328,1685.410096,-74.020594,8882.471304
164.983636,1225.752797,-74.020594,9474.636058
164.983944,1072.533697,444.123565,9992.780217
164.984252,459.657299,518.144159,9992.780217
164.984560,612.876398,740.205942,9770.718434
164.984868,919.314598,1184.329507,10140.821405
164.985176,459.657299,1628.453072,10436.903782
164.985484,612.876398,1776.494261,10214.842000
164.985792,0.000000,1184.329507,10362.883188
164.986100,459.657299,1480.411884,10288.862594
164.986408,0.000000,1110.308913,10288.862594
164.986716,-536.266849,740.205942,10881.027347
164.987024,-766.095498,296.082377,10584.944971
164.987332,-689.485948,-0.000000,10658.965565
164.987640,-1225.752797,-296.082377,10881.027347
164.987948,-995.924147,-518.144159,10807.006753
164.988256,-1149.143247,-888.247130,11251.130318
164.988564,-1072.533697,-592.164754,10732.986159
164.988872,-689.485948,-592.164754,10732.986159
164.989180,-459.657299,-222.061783,10510.924376
164.989488,0.000000,-0.000000,10436.903782
164.989796,229.828649,-0.000000,10362.883188
164.990104,842.705048,148.041188,9992.780217
164.990412,995.924147,222.061783,9474.636058
164.990720,1302.362347,-0.000000,8734.430116
164.991028,1302.362347,-74.020594,8956.491898
164.991336,1762.019645,-0.000000,8290.306550
164.991644,1685.410096,-0.000000,8142.265362
164.991952,1915.238745,-222.061783,8142.265362
164.992260,1915.238745,-148.041188,8290.306550
164.992568,1762.019645,-222.061783,8290.306550
164.992876,1685.410096,-222.061783,8734.430116
164.993184,1225.752797,-296.082377,8586.388927
164.993492,1225.752797,-148.041188,9252.574275
164.993800,1302.362347,444.123565,9326.594869
164.994108,1072.533697,740.205942,9474.636058
164.994416,995.924147,1332.370696,9400.615463
164.994724,1149.143247,1406.391290,9178.553681
164.995032,995.924147,1554.432478,9400.615463
164.995340,766.095498,1258.350101,9474.636058
164.995648,766.095498,1036.288319,9548.656652
164.995956,0.000000,740.205942,9992.780217
164.996264,76.609550,-0.000000,10214.842000
164.996572,-612.876398,-370.102971,10362.883188
164.996880,-995.924147,-666.185348,10436.903782
164.997188,-1225.752797,-740.205942,10955.047942
164.997496,-1302.362347,-1554.432478,10881.027347
164.997804,-842.705048,-1554.432478,11251.130318
164.998112,-459.657299,-1406.391290,11177.109724
164.998420,-459.657299,-814.226536,10881.027347
164.998728,0.000000,-888.247130,10510.924376
164.999036,842.705048,-370.102971,9918.759623
164.999344,1532.190996,-0.000000,9400.615463
164.999652,1762.019645,518.144159,8808.450710
164.999960,2374.896044,814.226536,8586.388927
165.000268,2911.162892,814.226536,7846.182985
165.000576,2757.943793,666.185348,8216.285956
165.000884,2451.505594,666.185348,7772.162391
165.001192,2451.505594,148.041188,7550.100608
165.001500,2681.334243,444.123565,7772.162391
165.001808,1915.238745,-0.000000,8142.265362
165.002116,1532.190996,-0.000000,8734.430116
165.002424,1302.362347,-222.061783,9104.533087
165.002732,1072.533697,-222.061783,9696.697840
165.003040,842.705048,-0.000000,9992.780217
165.003348,995.924147,296.082377,9696.697840
165.003656,766.095498,148.041188,10140.821405
165.003964,536.266849,962.267725,9992.780217
165.004272,612.876398,1480.411884,10214.842000
165.004580,689.485948,1702.473667,10066.800811
165.004888,459.657299,1998.556043,9844.739029
165.005196,536.266849,1850.514855,10362.883188
165.005504,459.657299,1850.514855,10214.842000
165.005812,0.000000,962.267725,10140.821405
165.006120,-306.438199,666.185348,10288.862594
165.006428,-1149.143247,222.061783,10584.944971
165.006735,-1455.581446,-222.061783,10955.047942
165.007043,-1838.629195,-518.144159,11473.192101
165.007351,-1685.410096,-888.247130,11769.274478
165.007659,-1149.143247,-814.226536,11695.253884
165.007967,-1225.752797,-814.226536,11769.274478
165.008275,-995.924147,-370.102971,11325.150913
165.008583,383.047749,-814.226536,11029.068536
165.008891,229.828649,-222.061783,10510.924376
165.009199,842.705048,-0.000000,9992.780217
165.009507,1378.971896,-74.020594,9326.594869
165.009815,1915.238745,444.123565,8660.409521
165.010123,2145.067394,148.041188,8216.285956
165.010431,2145.067394,370.102971,7772.162391
165.010739,2834.553343,222.061783,7402.059420
165.011047,2757.943793,148.041188,7402.059420
165.011355,2298.286494,222.061783,7550.100608
165.011663,1915.238745,-0.000000,7846.182985
165.011971,1378.971896,-0.000000,8364.327145
165.012279,1072.533697,222.061783,8586.388927
165.012587,1225.752797,-0.000000,8882.471304
165.012895,536.266849,370.102971,9178.553681
165.013203,612.876398,518.144159,9622.677246
165.013511,995.924147,814.226536,9992.780217
165.013819,766.095498,962.267725,9770.718434
165.014127,459.657299,962.267725,9770.718434
165.014435,689.485948,1258.350101,9770.718434
165.014743,383.047749,888.247130,9918.759623
165.015051,229.828649,666.185348,10362.883188
165.015359,383.047749,148.041188,9770.718434
165.015667,-459.657299,-74.020594,9992.780217
165.015975,-383.047749,-740.205942,9992.780217
165.016283,-612.876398,-814.226536,10584.944971
165.016591,-1455.581446,-962.267725,10658.965565
165.016899,-842.705048,-1332.370696,10658.965565
165.017207,-995.924147,-1406.391290,10584.944971
165.017515,-459.657299,-1110.308913,10362.883188
165.017823,-306.438199,-962.267725,10140.821405
165.018131,1225.752797,-0.000000,10584.944971
165.018439,1838.629195,148.041188,9622.677246
165.018747,1762.019645,370.102971,9104.533087
165.019055,2298.286494,518.144159,8364.327145
165.019363,2528.115143,666.185348,7994.224174
165.019671,2757.943793,296.082377,7920.203579
165.019979,3064.381992,518.144159,7550.100608
165.020287,2528.115143,-0.000000,7698.141797
165.020595,2145.067394,-148.041188,7994.224174
165.020903,1685.410096,-74.020594,8660.409521
165.021211,1072.533697,-74.020594,9252.574275
165.021519,536.266849,-370.102971,9326.594869
165.021827,459.657299,-148.041188,9844.739029
165.022135,229.828649,-0.000000,9992.780217
165.022443,153.219100,518.144159,10436.903782
165.022751,0.000000,962.267725,9992.780217
165.023059,536.266849,1628.453072,10066.800811
165.023367,459.657299,1850.514855,10066.800811
165.023675,919.314598,2146.597232,9918.759623
165.023983,689.485948,2442.679609,9548.656652
165.024291,306.438199,2146.597232,9548.656652
165.024599,153.219100,1998.556043,9918.759623
165.024907,0.000000,888.247130,9992.780217
165.025215,-766.095498,296.082377,10288.862594
165.025523,-536.266849,-74.020594,10881.027347
165.025831,-1608.800546,-592.164754,11177.109724
165.026139,-2068.457845,-1184.329507,11547.212695
165.026447,-1762.019645,-1258.350101,11547.212695
165.026755,-1302.362347,-888.247130,11547.212695
165.027063,-995.924147,-888.247130,11029.068536
165.027371,-612.876398,-740.205942,11251.130318
165.027679,689.485948,-666.185348,10807.006753
165.027987,1149.143247,-444.123565,9844.739029
165.028295,1225.752797,-0.000000,9844.739029
165.028603,1685.410096,222.061783,9030.512492
165.028911,2068.457845,222.061783,8734.430116
165.029219,2221.676944,370.102971,8364.327145
165.029527,2604.724693,-0.000000,8142.265362
165.029835,2451.505594,-74.020594,7624.121203
165.030143,2374.896044,-74.020594,7846.182985
165.030451,2068.457845,-222.061783,7624.121203
165.030759,1838.629195,-0.000000,7994.224174
165.031067,1532.190996,-0.000000,8364.327145
165.031375,1302.362347,-0.000000,8808.450710
165.031683,1149.143247,370.102971,9252.574275
165.031991,995.924147,370.102971,9400.615463
165.032299,1302.362347,740.205942,9622.677246
165.032607,1685.410096,962.267725,9992.780217
165.032915,1225.752797,1184.329507,9770.718434
165.033223,995.924147,1628.453072,9770.718434
165.033531,919.314598,1702.473667,9474.636058
165.033839,689.485948,1628.453072,9474.636058
165.034147,459.657299,1110.308913,9548.656652
165.034455,76.609550,148.041188,9770.718434
165.034763,-229.828649,-222.061783,9918.759623
165.035071,-612.876398,-962.267725,10288.862594
165.035379,-766.095498,-1184.329507,11325.150913
165.035687,-1838.629195,-1554.432478,11473.192101
165.035995,-1608.800546,-1850.514855,11769.274478
165.036303,-1378.971896,-1628.453072,11399.171507
165.036611,-842.705048,-1332.370696,11029.068536
165.036919,76.609550,-1110.308913,10732.986159
165.037227,766.095498,-518.144159,10288.862594
165.037535,1532.190996,-370.102971,9474.636058
165.037843,2068.457845,444.123565,9030.512492
165.038151,2757.943793,1110.308913,8216.285956
165.038459,3217.601092,1110.308913,7624.121203
165.038767,3294.210641,1110.308913,7402.059420
165.039075,2911.162892,814.226536,7328.038826
165.039383,2911.162892,296.082377,7624.121203
165.039691,1838.629195,-0.000000,7772.162391
165.039999,1378.971896,-592.164754,8142.265362
165.040307,153.219100,-370.102971,9178.553681
165.040615,306.438199,-370.102971,9474.636058
165.040923,76.609550,-370.102971,9844.739029
165.041230,76.609550,-0.000000,10066.800811
165.041538,306.438199,444.123565,10066.800811
165.041846,459.657299,1110.308913,10066.800811
165.042154,995.924147,1258.350101,9696.697840
165.042462,842.705048,2294.638420,9844.739029
165.042770,1149.143247,2146.597232,9548.656652
165.043078,919.314598,2072.576638,9548.656652
165.043386,383.047749,1924.535449,9474.636058
165.043694,0.000000,1332.370696,9844.739029
165.044002,-383.047749,370.102971,10362.883188
165.044310,-1302.362347,-444.123565,10881.027347
165.044618,-1532.190996,-666.185348,11547.212695
165.044926,-1608.800546,-1110.308913,11695.253884
165.045234,-1302.362347,-1406.391290,11325.150913
165.045542,-1455.581446,-1184.329507,11769.274478
165.045850,-1302.362347,-962.267725,11029.068536
165.046158,-842.705048,-444.123565,11029.068536
165.046466,0.000000,-0.000000,10584.944971
165.046774,76.609550,518.144159,10510.924376
165.047082,1455.581446,518.144159,9918.759623
165.047390,2068.457845,148.041188,9326.594869
165.047698,1915.238745,444.123565,8956.491898
165.048006,1991.848295,222.061783,8512.368333
165.048314,2068.457845,-0.000000,8660.409521
165.048622,2145.067394,-0.000000,8068.244768
165.048930,2374.896044,-74.020594,8290.306550
165.049238,1762.019645,-296.082377,7920.203579
165.049546,2221.676944,-444.123565,8290.306550
165.049854,1838.629195,-296.082377,8734.430116
165.050162,1455.581446,-296.082377,8216.285956
165.050470,1225.752797,222.061783,9030.512492
165.050778,1302.362347,518.144159,9178.553681
165.051086,842.705048,962.267725,9326.594869
165.051394,1072.533697,1258.350101,9548.656652
165.051702,1149.143247,1332.370696,9474.636058
165.052010,1532.190996,1628.453072,9326.594869
165.052318,919.314598,1776.494261,9474.636058
165.052626,842.705048,1702.473667,9178.553681
165.052934,306.438199,1332.370696,9474.636058
165.053242,229.828649,814.226536,9992.780217
165.053550,-153.219100,444.123565,9918.759623
165.053858,-689.485948,-222.061783,10214.842000
165.054166,-766.095498,-1258.350101,11029.068536
165.054474,-1532.190996,-1036.288319,11621.233289
165.054782,-1302.362347,-1850.514855,11695.253884
165.055090,-1532.190996,-1258.350101,11769.274478
165.055398,-1072.533697,-1406.391290,11547.212695
165.055706,-612.876398,-1110.308913,10881.027347
165.056014,153.219100,-370.102971,10362.883188
165.056322,1149.143247,74.020594,9844.739029
165.056630,1991.848295,444.123565,9400.615463
165.056938,2681.334243,370.102971,8734.430116
165.057246,2604.724693,962.267725,8364.327145
165.057554,2681.334243,1184.329507,8216.285956
165.057862,2757.943793,888.247130,7550.100608
165.058170,2757.943793,666.185348,7550.100608
165.058478,2145.067394,296.082377,7994.224174
165.058786,2145.067394,-74.020594,8142.265362
165.059094,1915.238745,-222.061783,8882.471304
165.059402,689.485948,-962.267725,8586.388927
165.059710,536.266849,-740.205942,9548.656652
165.060018,153.219100,-370.102971,9622.677246
165.060326,306.438199,148.041188,9992.780217
165.060634,536.266849,962.267725,9770.718434
165.060942,689.485948,1406.391290,9622.677246
165.061250,1378.971896,2220.617826,9622.677246
165.061558,1072.533697,2146.597232,9252.574275
165.061866,612.876398,2072.576638,9770.718434
165.062174,76.609550,1924.535449,9844.739029
165.062482,0.000000,1332.370696,10140.821405
165.062790,-536.266849,962.267725,10214.842000
165.063098,-842.705048,-0.000000,10658.965565
165.063406,-1225.752797,-370.102971,10732.986159
165.063714,-1915.238745,-1036.288319,11251.130318
165.064022,-1608.800546,-962.267725,11695.253884
165.064330,-1838.629195,-1184.329507,11621.233289
165.064638,-1762.019645,-1184.329507,11547.212695
165.064946,-1072.533697,-962.267725,11103.089130
165.065254,-153.219100,-148.041188,10658.965565
165.065562,229.828649,-0.000000,10214.842000
165.065870,842.705048,-0.000000,9770.718434
165.066178,1378.971896,222.061783,9326.594869
165.066486,1762.019645,-74.020594,9178.553681
165.066794,1915.238745,-74.020594,8882.471304
165.067102,2298.286494,-148.041188,8512.368333
165.067410,2068.457845,-148.041188,8290.306550
165.067718,2374.896044,-148.041188,8142.265362
165.068026,2451.505594,-0.000000,7772.162391
165.068334,2374.896044,-222.061783,7920.203579
165.068642,2221.676944,-0.000000,7920.203579
165.068950,2068.457845,-518.144159,8216.285956
165.069258,1532.190996,-222.061783,8216.285956
165.069566,1378.971896,-0.000000,8808.450710
165.069874,1225.752797,370.102971,9400.615463
165.070182,612.876398,814.226536,9474.636058
165.070490,919.314598,1480.411884,9548.656652
165.070798,842.705048,1776.494261,9474.636058
165.071106,1455.581446,1776.494261,9622.677246
165.071414,766.095498,1554.432478,9474.636058
165.071722,689.485948,1406.391290,9844.739029
165.072030,459.657299,1184.329507,9474.636058
165.072338,0.000000,814.226536,9696.697840
165.072646,0.000000,222.061783,10140.821405
165.072954,-229.828649,-296.082377,10214.842000
165.073262,-995.924147,-740.205942,10807.006753
165.073570,-1149.143247,-1406.391290,11177.109724
165.073878,-1302.362347,-1628.453072,11029.068536
165.074186,-1149.143247,-1554.432478,11695.253884
165.074494,-842.705048,-1406.391290,10955.047942
165.074802,0.000000,-518.144159,10584.944971
165.075110,383.047749,-148.041188,10214.842000
165.075417,1225.752797,-0.000000,9844.739029
165.075725,1608.800546,370.102971,9474.636058
165.076033,2068.457845,666.185348,9178.553681
165.076341,2374.896044,740.205942,8586.388927
165.076649,2068.457845,592.164754,8068.244768
165.076957,2374.896044,444.123565,8142.265362
165.077265,2221.676944,370.102971,7994.224174
165.077574,1838.629195,222.061783,7994.224174
165.077882,1225.752797,-222.061783,8512.368333
165.078190,995.924147,-518.144159,9104.533087
165.078498,766.095498,-740.205942,9474.636058
165.078806,612.876398,-592.164754,9474.636058
165.079114,459.657299,-0.000000,9770.718434
165.079422,995.924147,962.267725,9770.718434
165.079730,842.705048,1184.329507,9548.656652
165.080038,1149.143247,1776.494261,9696.697840
165.080346,1149.143247,2146.597232,9252.574275
165.080654,995.924147,2368.659014,9622.677246
165.080962,919.314598,2294.638420,9770.718434
165.081271,306.438199,2146.597232,10214.842000
165.081579,306.438199,1702.473667,10214.842000
165.081887,-612.876398,962.267725,10214.842000
165.082195,-1072.533697,518.144159,10584.944971
165.082503,-1685.410096,-296.082377,10807.006753
165.082811,-1991.848295,-814.226536,11325.150913
165.083119,-1991.848295,-1184.329507,11473.192101
165.083427,-1608.800546,-1184.329507,11621.233289
165.083735,-1685.410096,-962.267725,11473.192101
165.084043,-229.828649,-740.205942,11177.109724
165.084351,-383.047749,-814.226536,10955.047942
165.084659,306.438199,-518.144159,10362.883188
165.084968,612.876398,-444.123565,10066.800811
165.085276,995.924147,-296.082377,9918.759623
165.085584,1225.752797,-74.020594,9178.553681
165.085892,2145.067394,-444.123565,8290.306550
165.086200,1991.848295,-296.082377,7994.224174
165.086508,2374.896044,370.102971,8142.265362
165.086816,2834.553343,296.082377,7402.059420
165.087124,2451.505594,-0.000000,7550.100608
165.087432,2681.334243,222.061783,7179.997637
165.087740,2298.286494,222.061783,7624.121203
165.088048,2221.676944,-74.020594,7772.162391
165.088356,1762.019645,-0.000000,8438.347739
165.088665,1072.533697,148.041188,9030.512492
165.088973,1149.143247,370.102971,9474.636058
165.089281,536.266849,222.061783,9770.718434
165.089589,536.266849,740.205942,10066.800811
165.089897,612.876398,962.267725,10066.800811
165.090205,536.266849,1480.411884,9918.759623
165.090513,383.047749,1184.329507,10140.821405
165.090821,229.828649,962.267725,9918.759623
165.091129,229.828649,888.247130,9992.780217
165.091437,76.609550,888.247130,10362.883188
165.091745,-766.095498,888.247130,10658.965565
165.092053,-306.438199,-0.000000,10362.883188
165.092362,-459.657299,-222.061783,10510.924376
165.092670,-1072.533697,-518.144159,10584.944971
165.092978,-995.924147,-888.247130,10807.006753
165.093286,-536.266849,-666.185348,10510.924376
165.093594,-153.219100,-518.144159,10362.883188
165.093902,-229.828649,-74.020594,10658.965565
165.094210,689.485948,-592.164754,9992.780217
165.094518,1149.143247,-0.000000,9844.739029
165.094826,1608.800546,222.061783,9474.636058
165.095134,1838.629195,518.144159,9030.512492
165.095442,2145.067394,444.123565,8882.471304
165.095750,2451.505594,296.082377,8512.368333
165.096059,2604.724693,-0.000000,8142.265362
165.096367,2068.457845,148.041188,8290.306550
165.096675,1838.629195,-74.020594,8586.388927
165.096983,1455.581446,-444.123565,8586.388927
165.097291,1072.533697,-444.123565,9030.512492
165.097599,766.095498,-370.102971,8956.491898
165.097907,536.266849,-370.102971,9474.636058
165.098215,919.314598,148.041188,9696.697840
165.098523,842.705048,666.185348,9548.656652
165.098831,1302.362347,1258.350101,9622.677246
165.099139,842.705048,1776.494261,9696.697840
165.099447,919.314598,2146.597232,9400.615463
165.099756,842.705048,2146.597232,9474.636058
165.100064,689.485948,2146.597232,9474.636058
165.100372,306.438199,1480.411884,9696.697840
165.100680,153.219100,1554.432478,10066.800811
165.100988,-689.485948,740.205942,10436.903782
165.101296,-766.095498,-74.020594,10362.883188
165.101604,-1378.971896,-74.020594,10881.027347
165.101912,-2068.457845,-888.247130,11325.150913
165.102220,-2145.067394,-1110.308913,11399.171507
165.102528,-1915.238745,-1036.288319,11547.212695
165.102836,-1608.800546,-1332.370696,11399.171507
165.103144,-689.485948,-1332.370696,11103.089130
165.103453,153.219100,-592.164754,10881.027347
165.103761,-306.438199,-444.123565,10510.924376
165.104069,383.047749,-148.041188,10510.924376
165.104377,1378.971896,-74.020594,9770.718434
165.104685,1608.800546,-0.000000,9178.553681
165.104993,2145.067394,-0.000000,8364.327145
165.105301,2374.896044,-0.000000,8068.244768
165.105609,2528.115143,-74.020594,7550.100608
165.105917,2451.505594,-0.000000,7328.038826
165.106225,3140.991542,-148.041188,7031.956449
165.106533,2374.896044,370.102971,7254.018232
165.106841,2451.505594,148.041188,7550.100608
165.107150,1991.848295,296.082377,7846.182985
165.107458,1455.581446,148.041188,8660.409521
165.107766,842.705048,370.102971,9104.533087
165.108074,766.095498,222.061783,9400.615463
165.108382,459.657299,296.082377,9474.636058
165.108690,536.266849,814.226536,10362.883188
165.108998,459.657299,814.226536,10066.800811
165.109306,459.657299,1184.329507,10288.862594
165.109614,383.047749,1258.350101,10066.800811
165.109922,229.828649,814.226536,10140.821405
165.110230,0.000000,740.205942,10288.862594
165.110538,306.438199,296.082377,10066.800811
165.110847,153.219100,-0.000000,10140.821405
165.111155,229.828649,-0.000000,10066.800811
165.111463,-383.047749,-222.061783,10436.903782
165.111771,-459.657299,-296.082377,10362.883188
165.112079,-766.095498,-370.102971,10658.965565
165.112387,-459.657299,-518.144159,10510.924376
165.112695,-612.876398,-888.247130,10362.883188
165.113003,0.000000,-518.144159,10214.842000
165.113311,1072.533697,-0.000000,10362.883188
165.113619,842.705048,-0.000000,9548.656652
165.113927,1608.800546,-0.000000,9696.697840
165.114235,1915.238745,296.082377,9104.533087
165.114544,2298.286494,444.123565,8586.388927
165.114852,2374.896044,148.041188,8290.306550
165.115160,2298.286494,-0.000000,8216.285956
165.115468,2145.067394,-296.082377,8216.285956
165.115776,1991.848295,-222.061783,8512.368333
165.116084,1762.019645,-444.123565,8734.430116
165.116392,919.314598,-296.082377,8586.388927
165.116700,536.266849,-148.041188,9252.574275
165.117008,536.266849,-0.000000,9474.636058
165.117316,459.657299,518.144159,9622.677246
165.117624,536.266849,740.205942,9474.636058
165.117932,1149.143247,1480.411884,9992.780217
165.118241,229.828649,1554.432478,9844.739029
165.118549,459.657299,2220.617826,9918.759623
165.118857,689.485948,2072.576638,9622.677246
165.119165,229.828649,2072.576638,9696.697840
165.119473,76.609550,2072.576638,9918.759623
165.119781,-536.266849,1406.391290,10066.800811
165.120089,-842.705048,592.164754,10362.883188
165.120397,-1302.362347,222.061783,10732.986159
165.120705,-2374.896044,-296.082377,11473.192101
165.121013,-1608.800546,-740.205942,11769.274478
165.121321,-1915.238745,-1258.350101,11325.150913
165.121629,-1685.410096,-1184.329507,11473.192101
165.121938,-1072.533697,-1036.288319,11177.109724
165.122246,-919.314598,-888.247130,10732.986159
165.122554,-229.828649,-740.205942,10510.924376
165.122862,459.657299,-592.164754,10362.883188
165.123170,919.314598,-444.123565,10066.800811
165.123478,766.095498,296.082377,9548.656652
165.123786,1838.629195,148.041188,8808.450710
165.124094,2221.676944,148.041188,8364.327145
165.124402,2528.115143,-0.000000,7846.182985
165.124710,2834.553343,296.082377,7550.100608
165.125018,2528.115143,-0.000000,7624.121203
165.125326,2451.505594,-74.020594,7476.080014
165.125635,2451.505594,-74.020594,7402.059420
165.125943,2145.067394,-0.000000,8068.244768
165.126251,1838.629195,-222.061783,8512.368333
165.126559,1455.581446,-148.041188,8808.450710
165.126867,919.314598,-148.041188,9326.594869
165.127175,766.095498,-0.000000,9770.718434
165.127483,153.219100,370.102971,10732.986159
165.127791,689.485948,740.205942,10066.800811
165.128099,842.705048,962.267725,10066.800811
165.128407,0.000000,1258.350101,9770.718434
165.128715,1072.533697,1406.391290,9474.636058
165.129023,995.924147,1406.391290,9844.739029
165.129332,919.314598,1406.391290,9474.636058
165.129640,689.485948,1406.391290,9400.615463
165.129948,0.000000,814.226536,9622.677246
165.130256,0.000000,592.164754,10066.800811
165.130564,-536.266849,-370.102971,10436.903782
165.130872,-842.705048,-444.123565,10955.047942
