#time,accel_x,accel_y,accel_z
616.995509,267.996131,-3426.521963,-8901.300072
616.997656,-689.132909,-6623.332957,-10049.854920
616.999803,153.140646,-10030.712339,-10509.276859
617.001949,-497.707101,-9762.716208,-8078.169098
617.004096,689.132909,-995.414202,-11351.550414
617.006243,-153.140646,248.853550,-7752.745224
617.008390,114.855485,-957.129040,-11045.269122
617.010537,-114.855485,-976.271621,-8882.157491
617.012683,497.707101,-2488.535504,-8499.305875
617.014830,-363.709035,-2737.389054,-10853.843314
617.017244,-478.564520,-3483.949706,-8767.302006
617.019658,-38.285162,-4613.361973,-9839.286531
617.022071,-344.566454,-4383.651003,-9954.142016
617.024485,-172.283227,-2794.816797,-9533.005238
617.026899,172.283227,650.847747,-10394.421374
617.029313,248.853550,3790.230998,-9169.296203
617.031726,-497.707101,4249.652938,-9437.292334
617.034140,191.425808,1301.695494,-9494.720077
617.036554,-95.712904,-1703.689691,-9839.286531
617.038968,-76.570323,-4977.071008,-8690.731683
617.041381,-172.283227,-5800.201982,-11045.269122
617.043795,-191.425808,-3847.658741,-9647.860723
617.046209,-114.855485,-1167.697429,-8786.444587
617.048623,-38.285162,1454.836141,-11294.122672
617.051036,-57.427742,3311.666478,-8480.163294
617.053450,-0.000000,2622.533570,-8863.014910
617.055864,-95.712904,-918.843878,-11083.554283
617.058278,-114.855485,-2584.248408,-8365.307810
617.060691,-114.855485,-3751.945837,-9820.143950
617.063105,-210.568389,-3828.516160,-10604.989763
617.065519,-229.710970,-1856.830338,-8767.302006
617.067933,57.427742,-114.855485,-10011.569758
617.070346,-153.140646,344.566454,-9992.427178
617.072760,-57.427742,1071.984525,-9341.579430
617.075174,-95.712904,918.843878,-9590.432981
617.077588,-38.285162,-306.281293,-9533.005238
617.080002,-172.283227,-1493.121302,-9647.860723
617.082415,-153.140646,-2182.254211,-9456.434915
617.084829,-57.427742,-2488.535504,-9801.001370
617.087243,-38.285162,-2928.814862,-9533.005238
617.089657,-210.568389,-1531.406464,-10451.849117
617.092070,-19.142581,267.996131,-8939.585234
617.094329,-153.140646,899.701298,-9801.001370
617.096587,-0.000000,1110.269686,-9820.143950
617.098846,-57.427742,555.134843,-8575.876198
617.101104,-19.142581,-1646.261949,-9801.001370
617.103363,-172.283227,-3081.955509,-10183.852986
617.105621,-153.140646,-3005.385186,-9169.296203
617.107879,133.998066,-2756.531635,-9781.858789
617.110138,-421.136778,-1148.554848,-10451.849117
617.112396,306.281293,133.998066,-8901.300072
617.114655,57.427742,1263.410333,-9743.573627
617.116913,-555.134843,1282.552914,-9839.286531
617.119172,114.855485,-153.140646,-9399.007173
617.121430,-0.000000,-823.130974,-9322.436850
617.123689,-133.998066,-1971.685822,-10068.997501
617.125947,-363.709035,-2009.970984,-9762.716208
617.128205,38.285162,-1914.258080,-9494.720077
617.130464,-153.140646,-1665.404530,-9705.288466
617.132722,-114.855485,-1225.125171,-9973.284597
617.134981,-95.712904,-95.712904,-9667.003304
617.137239,-114.855485,746.560651,-9169.296203
617.139498,-57.427742,401.994197,-9954.142016
617.141756,-38.285162,0.000000,-9360.722011
617.144014,-133.998066,-899.701298,-9360.722011
617.146273,-19.142581,-3158.525832,-9801.001370
617.148531,-153.140646,-3177.668413,-10126.425243
617.150790,-114.855485,-1971.685822,-9379.864592
617.153048,-210.568389,-880.558717,-9628.718142
617.155307,-76.570323,593.420005,-10183.852986
617.157565,-133.998066,1454.836141,-9245.866526
617.159824,-153.140646,401.994197,-9590.432981
617.162082,-0.000000,-1301.695494,-10011.569758
617.164340,-172.283227,-1818.545176,-9379.864592
617.166599,-57.427742,-2373.680019,-9494.720077
617.168857,-172.283227,-2392.822600,-9954.142016
617.171116,-38.285162,-918.843878,-9628.718142
617.173374,-114.855485,-191.425808,-9207.581365
617.175633,-57.427742,-784.845813,-9437.292334
617.177891,-287.138712,-574.277424,-10222.138147
617.180150,76.570323,-95.712904,-9341.579430
617.182408,-114.855485,-114.855485,-9494.720077
617.184839,-133.998066,-306.281293,-10490.134278
617.187270,-76.570323,-650.847747,-8843.872330
617.189700,-153.140646,-1148.554848,-9418.149754
617.192131,-153.140646,-2833.101958,-10241.280728
617.194562,-287.138712,-1741.974853,-9686.145885
617.196993,210.568389,-1033.699363,-8997.012976
617.199423,-153.140646,-689.132909,-9801.001370
617.201854,-38.285162,248.853550,-9973.284597
617.204285,76.570323,631.705166,-9150.153622
617.206716,-267.996131,-535.992262,-9399.007173
617.209146,-76.570323,-1607.976787,-10394.421374
617.211577,-172.283227,-1550.549045,-9360.722011
617.214008,-95.712904,-1933.400661,-9418.149754
617.216439,-0.000000,-1818.545176,-10470.991698
617.218869,-172.283227,-497.707101,-8767.302006
617.221300,229.710970,0.000000,-9571.290400
617.223731,-95.712904,-516.849682,-10088.140082
617.226162,-248.853550,-114.855485,-9628.718142
617.228592,-38.285162,-401.994197,-9303.294269
617.231023,-114.855485,-1359.123237,-9801.001370
617.233454,-76.570323,-1225.125171,-9781.858789
617.235885,-153.140646,-995.414202,-9360.722011
617.238315,-19.142581,-1837.687757,-9379.864592
617.240746,-38.285162,-1933.400661,-10336.993632
617.243177,-210.568389,-937.986459,-9360.722011
617.245608,-19.142581,-440.279358,-9322.436850
617.248038,-153.140646,248.853550,-10413.563955
617.250469,-19.142581,267.996131,-8882.157491
617.252900,-133.998066,-76.570323,-9494.720077
617.255331,-38.285162,-1856.830338,-9762.716208
617.257761,-153.140646,-2124.826469,-9992.427178
617.260192,-172.283227,-1703.689691,-9341.579430
617.262623,-95.712904,-1454.836141,-9360.722011
617.265054,-0.000000,-382.851616,-10030.712339
617.267485,-172.283227,708.275490,-9341.579430
617.269915,-19.142581,-210.568389,-9265.009107
617.272346,-153.140646,-1359.123237,-10336.993632
617.274777,-133.998066,-1531.406464,-9322.436850
617.277208,-76.570323,-1627.119368,-9322.436850
617.279638,-172.283227,-1684.547110,-10183.852986
617.282160,-19.142581,-918.843878,-9303.294269
617.284682,-76.570323,-19.142581,-9169.296203
617.287204,-19.142581,-803.988394,-10011.569758
617.289726,-133.998066,-1091.127106,-9801.001370
617.292248,-95.712904,-995.414202,-9226.723946
617.294770,57.427742,-899.701298,-9858.429112
617.297292,-191.425808,-363.709035,-10107.282662
617.299814,-267.996131,248.853550,-9207.581365
617.302336,210.568389,-1148.554848,-9590.432981
617.304858,-229.710970,-1646.261949,-10279.565890
617.307380,-344.566454,-1167.697429,-9513.862658
617.309902,-38.285162,-1378.265818,-9284.151688
617.312424,-76.570323,-1416.550979,-9992.427178
617.314945,-153.140646,-689.132909,-9781.858789
617.317467,-19.142581,19.142581,-9169.296203
617.319989,-76.570323,-708.275490,-9743.573627
617.322511,-133.998066,-1167.697429,-10183.852986
617.325033,19.142581,-1091.127106,-9245.866526
617.327555,-172.283227,-1052.841944,-9475.577496
617.330077,-133.998066,-1071.984525,-10490.134278
617.332599,-114.855485,-516.849682,-8748.159426
617.335121,-19.142581,-516.849682,-9571.290400
617.337643,-95.712904,-1569.691626,-10356.136213
617.340165,-191.425808,-1148.554848,-9341.579430
617.342687,-19.142581,-1014.556782,-9207.581365
617.345209,-172.283227,-957.129040,-10030.712339
617.347731,-133.998066,-401.994197,-9647.860723
617.350253,-114.855485,-133.998066,-9226.723946
617.352775,-0.000000,-1091.127106,-9686.145885
617.355297,-191.425808,-1378.265818,-9896.714274
617.357818,-76.570323,-1014.556782,-9762.716208
617.360340,-95.712904,-746.560651,-9399.007173
617.362862,-363.709035,-650.847747,-10145.567824
617.365384,-38.285162,-421.136778,-9379.864592
617.367906,-114.855485,-133.998066,-9092.725880
617.370428,-133.998066,-1378.265818,-10011.569758
617.372950,-95.712904,-1550.549045,-10145.567824
617.375472,-19.142581,-995.414202,-8614.161360
617.377994,-114.855485,-1167.697429,-10336.993632
617.380516,-57.427742,-574.277424,-10107.282662
617.383091,-95.712904,19.142581,-8480.163294
617.385665,19.142581,-1014.556782,-10088.140082
617.388240,-267.996131,-1741.974853,-10260.423309
617.390815,-38.285162,-1339.980656,-8939.585234
617.393389,-76.570323,-1071.984525,-9705.288466
617.395964,-478.564520,-861.416136,-10298.708470
617.398539,210.568389,-459.421939,-9054.440718
617.401113,172.283227,57.427742,-9667.003304
617.403688,-421.136778,-746.560651,-9571.290400
617.406263,19.142581,-1914.258080,-10030.712339
617.408837,-172.283227,-1493.121302,-9265.009107
617.411412,-114.855485,-1416.550979,-9781.858789
617.413987,-172.283227,-459.421939,-10088.140082
617.416562,-114.855485,-57.427742,-8863.014910
617.419136,38.285162,-535.992262,-9571.290400
617.421711,-363.709035,-995.414202,-10413.563955
617.424286,-57.427742,-1225.125171,-9322.436850
617.426860,-95.712904,-1225.125171,-9245.866526
617.429435,-172.283227,-1129.412267,-10298.708470
617.432010,-57.427742,-287.138712,-9494.720077
617.434584,-19.142581,-210.568389,-9092.725880
617.437159,-153.140646,-1416.550979,-9762.716208
617.439734,-57.427742,-1856.830338,-10298.708470
617.442308,-210.568389,-1339.980656,-9054.440718
617.444883,38.285162,-1148.554848,-9647.860723
617.447458,-248.853550,-57.427742,-10643.274925
617.450032,-19.142581,612.562586,-8863.014910
617.452607,-114.855485,-133.998066,-9571.290400
617.455182,-133.998066,-1837.687757,-10049.854920
617.457756,-114.855485,-2201.396792,-9647.860723
617.460331,-172.283227,-1780.260014,-9552.147819
617.462906,-57.427742,-1780.260014,-9647.860723
617.465481,-114.855485,-344.566454,-9992.427178
617.468055,-95.712904,382.851616,-9341.579430
617.470630,-133.998066,-153.140646,-9284.151688
617.473205,19.142581,-1205.982590,-10145.567824
617.475779,-325.423874,-976.271621,-9494.720077
617.478354,-57.427742,-1359.123237,-9245.866526
617.480929,-210.568389,-1244.267752,-10394.421374
617.483503,172.283227,-899.701298,-9322.436850
617.486104,-153.140646,-57.427742,-9226.723946
617.488706,-0.000000,-1665.404530,-10279.565890
617.491307,-114.855485,-1282.552914,-9762.716208
617.493908,-0.000000,-995.414202,-8863.014910
617.496509,-0.000000,-1263.410333,-10088.140082
617.499110,-95.712904,-114.855485,-9954.142016
617.501711,-133.998066,401.994197,-8767.302006
617.504312,-210.568389,-325.423874,-9762.716208
617.506913,57.427742,-1684.547110,-10375.278794
617.509514,-478.564520,-1263.410333,-9150.153622
617.512115,-95.712904,-1607.976787,-9494.720077
617.514717,38.285162,-1493.121302,-10394.421374
617.517318,-363.709035,-478.564520,-9207.581365
617.519919,153.140646,-210.568389,-9609.575562
617.522520,-95.712904,-976.271621,-9399.007173
617.525121,-382.851616,-823.130974,-10241.280728
617.527722,-19.142581,-957.129040,-9092.725880
617.530323,-401.994197,-1014.556782,-9399.007173
617.532924,-38.285162,-995.414202,-10432.706536
617.535525,-133.998066,-421.136778,-9150.153622
617.538127,-114.855485,-957.129040,-9035.298138
617.540728,-95.712904,-1646.261949,-10566.704602
617.543329,-114.855485,-957.129040,-9724.431046
617.545930,133.998066,-823.130974,-9552.147819
617.548531,-574.277424,-401.994197,-10030.712339
617.551132,38.285162,-823.130974,-9781.858789
617.553733,-95.712904,-306.281293,-9552.147819
617.556334,-153.140646,-631.705166,-9513.862658
617.558935,-57.427742,-1033.699363,-10413.563955
617.561536,-38.285162,-344.566454,-9418.149754
617.564138,421.136778,-459.421939,-8384.450390
617.566739,-172.283227,-899.701298,-10547.562021
617.569340,-689.132909,-727.418070,-10796.415571
617.571941,325.423874,-1933.400661,-7771.887805
617.574542,19.142581,-2660.818731,-10011.569758
617.577143,-669.990328,-1588.834206,-11332.407834
617.579744,76.570323,-842.273555,-8461.020714
617.582345,229.710970,-57.427742,-8556.733618
617.584946,-421.136778,784.845813,-11562.118803
617.587548,-0.000000,631.705166,-9245.866526
617.590158,172.283227,-899.701298,-7312.465866
617.592768,-325.423874,-2316.252277,-11753.544611
617.595378,-382.851616,-2182.254211,-10738.987829
617.597988,38.285162,-1971.685822,-6987.041992
617.600598,-210.568389,-1263.410333,-11140.982026
617.603208,-114.855485,363.709035,-10413.563955
617.605818,669.990328,229.710970,-6029.912952
617.608428,-248.853550,-574.277424,-10758.130410
617.611039,-574.277424,-995.414202,-12557.533005
617.613649,382.851616,-1531.406464,-6661.618118
617.616259,114.855485,-2086.541307,-8403.592971
617.618869,-689.132909,-1301.695494,-13533.804626
617.621479,-95.712904,-497.707101,-8384.450390
617.624089,459.421939,-899.701298,-6604.190376
617.626699,-478.564520,-823.130974,-12940.384621
617.629309,-478.564520,-153.140646,-10604.989763
617.631919,516.849682,-612.562586,-5704.489078
617.634530,-57.427742,-918.843878,-11179.267187
617.637140,-803.988394,-172.283227,-12136.396227
617.639750,497.707101,-842.273555,-6431.907149
617.642360,57.427742,-2584.248408,-10681.560086
617.644970,-1014.556782,-1875.972918,-13093.525267
617.647580,-38.285162,-1052.841944,-6967.899411
617.650190,631.705166,-1033.699363,-7944.171032
617.652800,-823.130974,287.138712,-13342.378818
617.655410,-440.279358,689.132909,-8633.303941
617.658021,1129.412267,-861.416136,-6585.047795
617.660631,-555.134843,-1320.838075,-12212.966550
617.663241,-880.558717,-1129.412267,-11160.124606
617.665851,784.845813,-1971.685822,-6546.762634
617.668461,-95.712904,-1435.693560,-10260.423309
617.671071,-880.558717,-306.281293,-12346.964616
617.673681,459.421939,-191.425808,-7235.895542
617.676291,382.851616,-1186.840010,-7848.458128
617.678901,-708.275490,-1186.840010,-13457.234302
617.681512,-95.712904,-574.277424,-7714.460062
617.684122,708.275490,-1225.125171,-7369.893608
617.686732,-612.562586,-555.134843,-13150.953010
617.689342,-631.705166,-133.998066,-9513.862658
617.691952,842.273555,-1301.695494,-6221.338760
617.694567,38.285162,-2048.256146,-11830.114934
617.697182,-1052.841944,-957.129040,-11657.831707
617.699797,516.849682,-746.560651,-6872.186507
617.702412,153.140646,-727.418070,-9590.432981
617.705027,-957.129040,382.851616,-12346.964616
617.707642,114.855485,325.423874,-8250.452325
617.710257,516.849682,-1339.980656,-6795.616184
617.712872,-574.277424,-2067.398726,-13016.954944
617.715487,-765.703232,-1627.119368,-10528.419440
617.718102,440.279358,-1722.832272,-6872.186507
617.720717,-287.138712,-95.712904,-13227.523333
617.723332,-708.275490,765.703232,-9628.718142
617.725947,593.420005,-248.853550,-5972.485210
617.728562,191.425808,-1741.974853,-11045.269122
617.731177,-976.271621,-1378.265818,-12710.673651
617.733792,325.423874,-1550.549045,-6412.764568
617.736407,478.564520,-2067.398726,-8843.872330
617.739022,-976.271621,-401.994197,-13591.232368
617.741637,-57.427742,133.998066,-7618.747158
617.744252,650.847747,-784.845813,-6680.760699
617.746867,-593.420005,-1244.267752,-13361.521398
617.749482,-669.990328,-555.134843,-10451.849117
617.752097,746.560651,-1071.984525,-5551.348432
617.754712,-153.140646,-1110.269686,-11944.970419
617.757327,-497.707101,-153.140646,-9667.003304
617.759942,746.560651,-842.273555,-5666.203917
617.762557,19.142581,-1607.976787,-11696.116869
617.765172,-976.271621,-1052.841944,-12595.818166
617.767787,401.994197,-1186.840010,-6068.198114
617.770402,325.423874,-1244.267752,-9322.436850
617.773017,-861.416136,-95.712904,-13380.663979
617.775631,95.712904,-38.285162,-7503.891674
617.778246,631.705166,-1244.267752,-6948.756830
617.780861,-765.703232,-1646.261949,-13629.517530
617.783476,-516.849682,-1263.410333,-9915.856854
617.786091,842.273555,-1301.695494,-6068.198114
617.788706,-287.138712,-669.990328,-11523.833642
617.791321,-937.986459,382.851616,-11849.257515
617.793936,842.273555,0.000000,-6297.909083
617.796551,-287.138712,-1339.980656,-11045.269122
617.799165,-995.414202,-1588.834206,-12576.675586
617.801778,650.847747,-1895.115499,-6661.618118
617.804391,-76.570323,-1378.265818,-8403.592971
617.807005,-899.701298,-229.710970,-13801.800757
617.809618,-38.285162,535.992262,-8212.167163
617.812231,612.562586,114.855485,-6451.049730
617.814845,76.570323,-1263.410333,-12385.249778
617.817458,-689.132909,-1339.980656,-11102.696864
617.820071,248.853550,-1703.689691,-6527.620053
617.822685,248.853550,-2105.683888,-10030.712339
617.825298,-823.130974,-803.988394,-12768.101394
617.827911,-95.712904,172.283227,-7159.325219
617.830525,574.277424,-784.845813,-7752.745224
617.833138,-612.562586,-976.271621,-13170.095590
617.835751,-95.712904,-612.562586,-8135.596840
617.838365,669.990328,-1378.265818,-6929.614250
617.840978,-478.564520,-746.560651,-12902.099459
617.843591,-574.277424,-133.998066,-9992.427178
617.846205,689.132909,-899.701298,-5895.914886
617.848818,114.855485,-2086.541307,-10930.413637
617.851431,-899.701298,-1263.410333,-12844.671717
617.854045,133.998066,-1091.127106,-6795.616184
617.856658,535.992262,-1263.410333,-8346.165229
617.859271,-918.843878,-38.285162,-13189.238171
617.861884,-229.710970,478.564520,-8499.305875
617.864498,976.271621,-957.129040,-6412.764568
617.867111,-612.562586,-1320.838075,-12327.822035
617.869724,-784.845813,-861.416136,-11523.833642
617.872338,689.132909,-1435.693560,-5972.485210
617.874951,-306.281293,-803.988394,-11906.685258
617.877564,-842.273555,0.000000,-11734.402030
617.880178,823.130974,-669.990328,-5838.487144
617.882791,248.853550,-1856.830338,-9092.725880
617.885404,-1071.984525,-1052.841944,-14165.509792
617.888018,-95.712904,-899.701298,-7580.461997
617.890631,1071.984525,-1895.115499,-6527.620053
617.893244,-650.847747,-344.566454,-13591.232368
617.895858,-918.843878,535.992262,-9992.427178
617.898471,1301.695494,-1148.554848,-5436.492947
617.901084,19.142581,-1665.404530,-11313.265253
617.903695,-1282.552914,-650.847747,-12940.384621
617.906306,248.853550,-861.416136,-6259.623922
617.908916,650.847747,-1531.406464,-9245.866526
617.911527,-727.418070,-76.570323,-12098.111066
617.914137,-133.998066,114.855485,-7025.327154
617.916748,842.273555,-2316.252277,-8001.598774
617.919359,-823.130974,-1875.972918,-13782.658176
617.921969,-995.414202,-459.421939,-9379.864592
617.924580,1186.840010,-1665.404530,-5895.914886
617.927190,-95.712904,-114.855485,-12366.107197
617.929801,-1320.838075,918.843878,-10853.843314
617.932412,803.988394,-1148.554848,-6297.909083
617.935022,593.420005,-2469.392923,-9992.427178
617.937633,-1397.408398,-1014.556782,-13055.240106
617.940244,229.710970,-1378.265818,-7484.749093
617.942854,1205.982590,-1741.974853,-7427.321350
617.945465,-1263.410333,535.992262,-13189.238171
617.948075,-516.849682,1033.699363,-9131.011042
617.950686,976.271621,-1914.258080,-7561.319416
617.953297,-1205.982590,-1473.978722,-13284.951075
617.955907,-287.138712,-1397.408398,-9475.577496
617.958518,784.845813,-2067.398726,-6508.477472
617.961129,-535.992262,-612.562586,-12289.536874
617.963739,-669.990328,38.285162,-11045.269122
617.966350,746.560651,-19.142581,-5666.203917
617.968960,133.998066,-880.558717,-10834.700733
617.971571,-1129.412267,-382.851616,-12863.814298
617.974182,401.994197,-1148.554848,-6221.338760
617.976792,478.564520,-2009.970984,-8939.585234
617.979403,-1091.127106,-612.562586,-13476.376883
617.982013,-95.712904,-574.277424,-7752.745224
617.984624,842.273555,-1761.117434,-6738.188442
617.987235,-803.988394,-1167.697429,-13514.662045
617.989845,-95.712904,-191.425808,-8154.739421
617.992456,976.271621,-1014.556782,-6699.903280
617.995067,-689.132909,-153.140646,-13418.949141
617.997677,-574.277424,-95.712904,-9513.862658
618.000288,842.273555,-957.129040,-6029.912952
618.002898,-248.853550,-1703.689691,-11638.689126
618.005509,-880.558717,-1263.410333,-12193.823970
618.008114,612.562586,-1761.117434,-6240.481341
618.010719,114.855485,-1703.689691,-9590.432981
618.013325,-1014.556782,133.998066,-13457.234302
618.015930,363.709035,210.568389,-6987.041992
618.018535,555.134843,-689.132909,-7503.891674
618.021140,-727.418070,-1071.984525,-13476.376883
618.023746,-344.566454,-1052.841944,-9226.723946
618.026351,631.705166,-1588.834206,-6393.621987
618.028956,-574.277424,-976.271621,-13418.949141
618.031561,-421.136778,-76.570323,-9073.583299
618.034167,708.275490,-478.564520,-6412.764568
618.036772,-229.710970,-1359.123237,-11753.544611
618.039377,-689.132909,-1225.125171,-11562.118803
618.041982,478.564520,-1225.125171,-6451.049730
618.044588,38.285162,-1263.410333,-9915.856854
618.047193,-650.847747,-287.138712,-12729.816232
618.049798,114.855485,133.998066,-6910.471669
618.052403,382.851616,-689.132909,-8212.167163
618.055008,-440.279358,-1722.832272,-12902.099459
618.057614,-459.421939,-1473.978722,-9035.298138
618.060219,459.421939,-1512.263883,-7121.040058
618.062824,-191.425808,-1167.697429,-11772.687192
618.065429,-612.562586,19.142581,-10490.134278
618.068035,631.705166,-133.998066,-7331.608446
618.070640,-248.853550,-899.701298,-11140.982026
618.073245,-593.420005,-1320.838075,-11064.411702
618.075850,382.851616,-1493.121302,-7484.749093
618.078456,-57.427742,-1244.267752,-9590.432981
618.081061,-650.847747,-421.136778,-12021.540742
618.083666,248.853550,-229.710970,-7867.600709
618.086271,1071.984525,-899.701298,-8652.446522
618.088877,-535.992262,-421.136778,-11887.542677
618.091482,-746.560651,191.425808,-9073.583299
618.094087,861.416136,-1014.556782,-8480.163294
618.096692,-535.992262,-1665.404530,-10317.851051
618.099297,-478.564520,-1722.832272,-10394.421374
618.101903,344.566454,-1627.119368,-8480.163294
618.104508,-363.709035,-2220.539373,-9992.427178
618.107113,-229.710970,-2756.531635,-10930.413637
618.109718,401.994197,-937.986459,-7714.460062
618.112317,-382.851616,1512.263883,-8403.592971
618.114916,-497.707101,1741.974853,-13246.665914
618.117515,57.427742,957.129040,-7867.600709
618.120113,19.142581,-229.710970,-7618.747158
618.122712,-133.998066,-2890.529701,-12691.531070
618.125311,-344.566454,-2737.389054,-8805.587168
618.127910,76.570323,-2584.248408,-8059.026517
618.130508,-229.710970,-2335.394858,-11810.972354
618.133107,-401.994197,-382.851616,-9705.288466
618.135706,191.425808,727.418070,-8250.452325
618.138305,-210.568389,555.134843,-10834.700733
618.140904,-19.142581,-76.570323,-9590.432981
618.143502,-133.998066,-210.568389,-9016.155557
618.146101,-172.283227,-1301.695494,-10604.989763
618.148700,-95.712904,-2354.537438,-9341.579430
618.151299,-57.427742,-1818.545176,-9360.722011
618.153897,-114.855485,-1014.556782,-9934.999435
618.156496,-133.998066,-1665.404530,-9188.438784
618.159095,-114.855485,-1110.269686,-10241.280728
618.161694,-153.140646,-38.285162,-9609.575562
618.164292,-133.998066,76.570323,-8843.872330
618.166891,-114.855485,287.138712,-10719.845248
618.169490,19.142581,57.427742,-9054.440718
618.172089,-38.285162,-1110.269686,-8614.161360
618.174687,-210.568389,-3062.812928,-11121.839445
618.177286,-172.283227,-2622.533570,-9571.290400
618.179885,210.568389,-1914.258080,-8595.018779
618.182484,-344.566454,-765.703232,-11160.124606
618.185083,19.142581,516.849682,-8767.302006
618.187681,19.142581,957.129040,-9016.155557
618.190280,-57.427742,-650.847747,-10356.136213
618.192879,-76.570323,-1033.699363,-9724.431046
618.195478,-76.570323,-976.271621,-8901.300072
618.198076,-76.570323,-1933.400661,-10202.995566
618.200675,-306.281293,-1607.976787,-9934.999435
618.203274,76.570323,-842.273555,-8977.870395
618.205873,-229.710970,-555.134843,-9781.858789
618.208471,-19.142581,-1512.263883,-9801.001370
618.211070,-57.427742,-937.986459,-9590.432981
618.213669,-76.570323,-497.707101,-9513.862658
618.216261,-19.142581,-631.705166,-9552.147819
618.218852,-172.283227,19.142581,-9628.718142
618.221444,-133.998066,-76.570323,-9743.573627
618.224036,210.568389,-2009.970984,-9092.725880
618.226628,-363.709035,-1780.260014,-10566.704602
618.229219,-325.423874,-957.129040,-9226.723946
618.231811,38.285162,-1244.267752,-9169.296203
618.234403,-153.140646,-421.136778,-10815.558152
618.236995,-76.570323,248.853550,-9131.011042
618.239586,76.570323,-229.710970,-8786.444587
618.242178,-153.140646,-1607.976787,-10451.849117
618.244770,-153.140646,-1473.978722,-10030.712339
618.247362,19.142581,-1512.263883,-8652.446522
618.249953,-153.140646,-1320.838075,-10011.569758
618.252545,-172.283227,-133.998066,-10164.710405
618.255137,-0.000000,76.570323,-8709.874264
618.257729,-0.000000,-746.560651,-9705.288466
618.260320,-191.425808,-1512.263883,-10241.280728
618.262912,-19.142581,-1339.980656,-9016.155557
618.265504,-172.283227,-1244.267752,-9724.431046
618.268096,-133.998066,-669.990328,-10585.847182
618.270688,-57.427742,-229.710970,-8805.587168
618.273279,133.998066,-191.425808,-9801.001370
618.275871,-210.568389,-1071.984525,-9896.714274
618.278463,-95.712904,-1244.267752,-9686.145885
618.281055,-0.000000,-1110.269686,-9494.720077
618.283646,-248.853550,-1110.269686,-9418.149754
618.286238,-57.427742,-784.845813,-10375.278794
618.288830,-153.140646,-153.140646,-8977.870395
618.291422,-57.427742,-918.843878,-9188.438784
618.294013,-153.140646,-1761.117434,-10853.843314
618.296605,-76.570323,-1148.554848,-9073.583299
618.299197,459.421939,-1263.410333,-9360.722011
618.301789,-459.421939,0.000000,-10738.987829
618.304380,-95.712904,382.851616,-8958.727814
618.306972,306.281293,-172.283227,-9207.581365
618.309564,-344.566454,-1512.263883,-9915.856854
618.312156,-95.712904,-2067.398726,-10030.712339
618.314747,-19.142581,-1435.693560,-9418.149754
618.317339,-38.285162,-1684.547110,-9399.007173
618.319926,-95.712904,-842.273555,-10298.708470
618.322513,-76.570323,440.279358,-9054.440718
618.325100,-19.142581,344.566454,-8805.587168
618.327687,-191.425808,-1110.269686,-10719.845248
618.330273,-153.140646,-1569.691626,-9475.577496
618.332860,38.285162,-1780.260014,-8786.444587
618.335447,-153.140646,-1914.258080,-10968.698798
618.338034,-95.712904,-631.705166,-9169.296203
618.340621,-133.998066,248.853550,-9016.155557
618.343208,19.142581,-689.132909,-10164.710405
618.345795,-325.423874,-497.707101,-10049.854920
618.348381,-57.427742,-631.705166,-8958.727814
618.350968,-57.427742,-1167.697429,-9839.286531
618.353555,-191.425808,-1129.412267,-10241.280728
618.356142,19.142581,-1071.984525,-8958.727814
618.358729,-172.283227,-861.416136,-9494.720077
618.361316,-133.998066,-1186.840010,-10451.849117
618.363903,-114.855485,-708.275490,-9762.716208
618.366490,-95.712904,-172.283227,-9054.440718
618.369076,-95.712904,-918.843878,-9858.429112
618.371663,-191.425808,-727.418070,-10011.569758
618.374250,-76.570323,-880.558717,-9169.296203
618.376837,38.285162,-2354.537438,-9609.575562
618.379424,-210.568389,-2411.965181,-10241.280728
618.382011,57.427742,-1282.552914,-9399.007173
618.384598,-133.998066,-38.285162,-9226.723946
618.387185,-153.140646,765.703232,-10528.419440
618.389771,76.570323,937.986459,-9035.298138
618.392358,-38.285162,325.423874,-8997.012976
618.394945,-95.712904,-1856.830338,-10470.991698
618.397532,-287.138712,-2373.680019,-9494.720077
618.400119,-38.285162,-2124.826469,-8882.157491
618.402706,-114.855485,-2258.824534,-9934.999435
618.405293,-401.994197,-899.701298,-10336.993632
618.407879,76.570323,-76.570323,-8786.444587
618.410466,-76.570323,172.283227,-9705.288466
618.413053,-38.285162,-555.134843,-10107.282662
618.415640,-0.000000,-516.849682,-9054.440718
618.418227,-0.000000,-1071.984525,-9628.718142
618.420814,-191.425808,-1167.697429,-10241.280728
618.423395,-19.142581,-497.707101,-9073.583299
618.425975,-76.570323,-382.851616,-9667.003304
618.428556,-57.427742,-1550.549045,-9456.434915
618.431137,-229.710970,-1378.265818,-10279.565890
618.433718,-306.281293,-823.130974,-9245.866526
618.436298,95.712904,-1550.549045,-9513.862658
618.438879,-497.707101,-440.279358,-10336.993632
618.441460,-0.000000,-95.712904,-9245.866526
618.444041,38.285162,-459.421939,-9207.581365
618.446622,-210.568389,-1493.121302,-10260.423309
618.449202,38.285162,-1665.404530,-9533.005238
618.451783,-153.140646,-995.414202,-9284.151688
618.454364,-133.998066,-1148.554848,-10432.706536
618.456945,-57.427742,-133.998066,-9303.294269
618.459526,-57.427742,57.427742,-8939.585234
618.462106,-19.142581,-1244.267752,-10107.282662
618.464687,-440.279358,-1148.554848,-9839.286531
618.467268,267.996131,-1110.269686,-9054.440718
618.469849,-210.568389,-995.414202,-9954.142016
618.472429,-172.283227,-459.421939,-10241.280728
618.475010,38.285162,-401.994197,-8997.012976
618.477591,-267.996131,-210.568389,-9628.718142
618.480172,76.570323,-1818.545176,-9973.284597
618.482753,-287.138712,-1339.980656,-9686.145885
618.485333,-19.142581,-1091.127106,-9437.292334
618.487914,-114.855485,-1301.695494,-9724.431046
618.490495,-38.285162,-421.136778,-9877.571693
618.493076,-114.855485,153.140646,-9054.440718
618.495657,38.285162,-1320.838075,-9513.862658
618.498237,-153.140646,-1761.117434,-10604.989763
618.500818,-76.570323,-1473.978722,-8958.727814
618.503399,229.710970,-1569.691626,-9533.005238
618.505980,-114.855485,-325.423874,-10815.558152
618.508561,-287.138712,899.701298,-8365.307810
618.511141,229.710970,306.281293,-9533.005238
618.513722,-210.568389,-1301.695494,-10126.425243
618.516303,-133.998066,-2086.541307,-9437.292334
618.518884,-229.710970,-1971.685822,-9360.722011
618.521464,114.855485,-2201.396792,-9628.718142
618.524045,-229.710970,-918.843878,-10126.425243
618.526620,114.855485,689.132909,-8882.157491
618.529194,-153.140646,-114.855485,-9590.432981
618.531769,-76.570323,-842.273555,-10624.132344
618.534344,-153.140646,-918.843878,-8824.729749
618.536918,-114.855485,-1244.267752,-9762.716208
618.539493,-153.140646,-1378.265818,-10394.421374
618.542067,-19.142581,-440.279358,-8671.589102
618.544642,-38.285162,-38.285162,-9820.143950
618.547217,-38.285162,-1339.980656,-9762.716208
618.549791,-76.570323,-1320.838075,-9724.431046
618.552366,-133.998066,-842.273555,-9571.290400
618.554940,-19.142581,-1205.982590,-9399.007173
618.557515,-133.998066,-593.420005,-10356.136213
618.560089,-267.996131,306.281293,-9111.868461
618.562664,267.996131,-669.990328,-9188.438784
618.565239,-363.709035,-1856.830338,-10815.558152
618.567813,-19.142581,-1550.549045,-9322.436850
618.570388,-153.140646,-1378.265818,-9054.440718
618.572962,-57.427742,-1722.832272,-10700.702667
618.575537,-76.570323,-861.416136,-9265.009107
618.578112,-76.570323,38.285162,-9131.011042
618.580686,191.425808,-1014.556782,-9839.286531
618.583261,-440.279358,-631.705166,-9954.142016
618.585835,95.712904,-478.564520,-9150.153622
618.588410,-133.998066,-535.992262,-9724.431046
618.590984,-172.283227,-803.988394,-10260.423309
618.593559,57.427742,-765.703232,-9150.153622
618.596134,-95.712904,-861.416136,-9111.868461
618.598708,-19.142581,-2143.969050,-10183.852986
618.601283,-172.283227,-1416.550979,-9379.864592
618.603857,-95.712904,-957.129040,-9054.440718
618.606432,-210.568389,-727.418070,-10317.851051
618.609007,-0.000000,-153.140646,-9533.005238
618.611581,-0.000000,440.279358,-8863.014910
618.614156,-38.285162,-880.558717,-10088.140082
618.616730,-153.140646,-1359.123237,-9934.999435
618.619305,172.283227,-1416.550979,-8901.300072
618.621880,-95.712904,-995.414202,-10088.140082
618.624454,-172.283227,-708.275490,-10030.712339
618.627029,-114.855485,-382.851616,-9150.153622
618.629599,229.710970,-401.994197,-9360.722011
618.632169,-382.851616,-1129.412267,-10088.140082
618.634739,-344.566454,-1416.550979,-9705.288466
618.637310,210.568389,-1684.547110,-9322.436850
618.639880,-401.994197,-1416.550979,-9992.427178
618.642450,133.998066,-478.564520,-10202.995566
618.645020,-95.712904,516.849682,-8805.587168
618.647591,-95.712904,210.568389,-9934.999435
618.650161,-325.423874,880.558717,-10413.563955
618.652731,-0.000000,2067.398726,-9073.583299
618.655301,-153.140646,2392.822600,-9839.286531
618.657872,593.420005,-1186.840010,-9992.427178
618.660442,-574.277424,-57.427742,-9992.427178
618.663012,-153.140646,-516.849682,-9207.581365
618.665582,267.996131,-899.701298,-9839.286531
618.668153,-210.568389,689.132909,-10260.423309
618.670723,191.425808,2258.824534,-9150.153622
618.673293,57.427742,2775.674216,-9322.436850
618.675863,-114.855485,2335.394858,-10088.140082
618.678434,-19.142581,976.271621,-9341.579430
618.681004,-38.285162,-1512.263883,-9073.583299
618.683574,-421.136778,-4613.361973,-9973.284597
618.686144,325.423874,-5647.061336,-10566.704602
618.688715,-401.994197,-3388.236802,-8078.169098
618.691285,133.998066,-1684.547110,-11045.269122
618.693855,-440.279358,1186.840010,-9724.431046
618.696425,-19.142581,3196.810994,-8729.016845
618.698996,38.285162,2660.818731,-9858.429112
618.701566,-114.855485,1205.982590,-10030.712339
618.704136,95.712904,-918.843878,-8901.300072
618.706706,-57.427742,-3732.803256,-9303.294269
618.709277,-133.998066,-4670.789715,-10604.989763
618.711847,-191.425808,-3120.240670,-9418.149754
618.714417,-19.142581,-957.129040,-9915.856854
618.716987,-153.140646,421.136778,-9686.145885
618.719557,-95.712904,1225.125171,-9609.575562
618.722128,153.140646,746.560651,-9418.149754
618.724698,-344.566454,-612.562586,-9647.860723
618.727268,76.570323,-1990.828403,-9839.286531
618.729838,-133.998066,-1627.119368,-9552.147819
618.732404,-153.140646,-1875.972918,-9226.723946
618.734969,-133.998066,-2163.111630,-10202.995566
618.737535,-76.570323,-1110.269686,-9915.856854
618.740100,-57.427742,-459.421939,-8748.159426
618.742665,-0.000000,-344.566454,-10145.567824
618.745230,-153.140646,631.705166,-9667.003304
618.747796,153.140646,1052.841944,-8748.159426
618.750361,-57.427742,-57.427742,-9762.716208
618.752926,-210.568389,-1703.689691,-9992.427178
618.755491,-38.285162,-2794.816797,-9628.718142
618.758057,-229.710970,-3388.236802,-10011.569758
618.760622,-363.709035,-2392.822600,-9992.427178
618.763187,19.142581,-440.279358,-9647.860723
618.765753,-133.998066,727.418070,-9131.011042
618.768318,-57.427742,937.986459,-10049.854920
618.770883,-0.000000,1378.265818,-9590.432981
618.773448,-0.000000,-229.710970,-8518.448456
618.776014,-153.140646,-2048.256146,-10872.985894
618.778579,-153.140646,-2526.820666,-9513.862658
618.781144,38.285162,-1990.828403,-8939.585234
618.783709,-153.140646,-1569.691626,-10509.276859
618.786275,-172.283227,-1263.410333,-9839.286531
618.788840,-38.285162,-95.712904,-9131.011042
618.791405,-172.283227,-191.425808,-9896.714274
618.793971,-57.427742,-325.423874,-10088.140082
618.796536,-57.427742,-57.427742,-9475.577496
618.799101,-19.142581,-746.560651,-8729.016845
618.801666,-172.283227,-1741.974853,-10145.567824
618.804232,-172.283227,-1550.549045,-9877.571693
618.806797,-38.285162,-1588.834206,-8920.442653
618.809362,-133.998066,-1301.695494,-10356.136213
618.811927,-210.568389,-459.421939,-9858.429112
618.814493,-133.998066,708.275490,-8997.012976
618.817058,95.712904,-401.994197,-9494.720077
618.819623,-95.712904,-1339.980656,-10260.423309
618.822189,-76.570323,-1282.552914,-9437.292334
618.824754,-0.000000,-1952.543242,-9131.011042
618.827319,-153.140646,-2067.398726,-10566.704602
618.829884,-38.285162,-612.562586,-9207.581365
618.832450,57.427742,-19.142581,-8767.302006
618.835012,-306.281293,57.427742,-10509.276859
618.837573,-38.285162,-153.140646,-9552.147819
618.840135,19.142581,-1033.699363,-8499.305875
618.842697,-172.283227,-1588.834206,-10700.702667
618.845259,-172.283227,-1914.258080,-9724.431046
618.847821,-133.998066,-612.562586,-8920.442653
618.850383,-0.000000,-382.851616,-10068.997501
618.852945,-248.853550,-612.562586,-9686.145885
618.855506,-19.142581,-823.130974,-9533.005238
618.858068,-76.570323,-1320.838075,-9437.292334
618.860630,-172.283227,-1512.263883,-9915.856854
618.863192,19.142581,-861.416136,-9724.431046
618.865754,-114.855485,0.000000,-9054.440718
618.868316,-19.142581,-746.560651,-9762.716208
618.870878,-191.425808,-593.420005,-10183.852986
618.873439,19.142581,-1320.838075,-8843.872330
618.876001,-172.283227,-1722.832272,-9934.999435
618.878563,-210.568389,-1550.549045,-10183.852986
618.881125,-153.140646,-248.853550,-9054.440718
618.883687,-57.427742,-191.425808,-9341.579430
618.886249,-57.427742,-995.414202,-10049.854920
618.888811,-325.423874,-708.275490,-9513.862658
618.891372,172.283227,-1397.408398,-9590.432981
618.893934,-76.570323,-1684.547110,-9839.286531
618.896496,-76.570323,-727.418070,-9839.286531
618.899058,-19.142581,344.566454,-9341.579430
618.901620,-38.285162,-153.140646,-9418.149754
618.904182,-133.998066,-689.132909,-10279.565890
618.906743,-76.570323,-995.414202,-8824.729749
618.909305,-57.427742,-1971.685822,-9762.716208
618.911867,-306.281293,-2048.256146,-10490.134278
618.914429,-0.000000,-746.560651,-9245.866526
618.916991,-95.712904,-38.285162,-9188.438784
618.919553,-0.000000,-497.707101,-10317.851051
618.922115,-76.570323,-172.283227,-9513.862658
618.924676,38.285162,-937.986459,-9035.298138
618.927238,-191.425808,-1665.404530,-10413.563955
618.929800,-133.998066,-1665.404530,-9590.432981
618.932362,-38.285162,-918.843878,-9131.011042
618.934924,-19.142581,-1033.699363,-10011.569758
618.937482,-210.568389,-555.134843,-9686.145885
618.940039,133.998066,-172.283227,-9379.864592
618.942597,-229.710970,-708.275490,-9858.429112
618.945155,-19.142581,-1033.699363,-9877.571693
618.947713,-114.855485,-114.855485,-9533.005238
618.950270,-0.000000,-306.281293,-9284.151688
618.952828,-95.712904,-1378.265818,-9609.575562
618.955386,-172.283227,-1799.402595,-9896.714274
618.957944,-133.998066,-2201.396792,-9131.011042
618.960502,-0.000000,-2641.676150,-10260.423309
618.963059,-172.283227,-1301.695494,-10030.712339
618.965617,-38.285162,880.558717,-9054.440718
618.968175,19.142581,1148.554848,-9552.147819
618.970733,-114.855485,325.423874,-9973.284597
618.973290,-76.570323,-210.568389,-9418.149754
618.975848,19.142581,-1952.543242,-9245.866526
618.978406,-114.855485,-2699.103893,-10432.706536
618.980964,-172.283227,-1416.550979,-9399.007173
618.983521,38.285162,-401.994197,-9322.436850
618.986079,-0.000000,-401.994197,-9801.001370
618.988637,-172.283227,-76.570323,-9992.427178
618.991195,-133.998066,-114.855485,-9111.868461
618.993752,-19.142581,-1091.127106,-9724.431046
618.996310,-401.994197,-1244.267752,-10451.849117
618.998868,210.568389,-1186.840010,-8863.014910
619.001426,-172.283227,-1397.408398,-9150.153622
619.003983,-57.427742,-2009.970984,-10566.704602
619.006541,-153.140646,-880.558717,-9092.725880
619.009099,-76.570323,-631.705166,-8863.014910
619.011657,-95.712904,-689.132909,-11217.552349
619.014214,-210.568389,-76.570323,-9131.011042
619.016772,-57.427742,325.423874,-9016.155557
619.019330,-76.570323,-1014.556782,-9724.431046
619.021888,287.138712,-2297.109696,-10030.712339
619.024445,-401.994197,-1914.258080,-9341.579430
619.027003,-0.000000,-2373.680019,-9590.432981
619.029561,-172.283227,-1435.693560,-10279.565890
619.032119,-133.998066,708.275490,-9667.003304
619.034677,57.427742,1033.699363,-8748.159426
619.037234,-153.140646,38.285162,-10222.138147
619.039789,-19.142581,-727.418070,-9839.286531
619.042345,-172.283227,-1646.261949,-8614.161360
619.044900,-38.285162,-2679.961312,-10509.276859
619.047455,-344.566454,-2086.541307,-10068.997501
619.050010,-0.000000,-516.849682,-8709.874264
619.052565,-114.855485,38.285162,-9973.284597
619.055120,-76.570323,-76.570323,-10068.997501
619.057676,-191.425808,57.427742,-8882.157491
619.060231,38.285162,-1531.406464,-9705.288466
619.062786,-76.570323,-2029.113565,-10279.565890
619.065341,-229.710970,-995.414202,-9265.009107
619.067896,172.283227,-1110.269686,-9341.579430
619.070451,-344.566454,-1014.556782,-10011.569758
619.073007,-57.427742,-937.986459,-9992.427178
619.075562,-38.285162,-918.843878,-8882.157491
619.078117,-133.998066,-746.560651,-10356.136213
619.080672,-325.423874,-287.138712,-9915.856854
619.083227,76.570323,191.425808,-8977.870395
619.085782,-0.000000,-459.421939,-9456.434915
619.088338,-172.283227,-1301.695494,-9877.571693
619.090893,-153.140646,-1818.545176,-9724.431046
619.093448,-57.427742,-2354.537438,-9667.003304
619.096003,-248.853550,-1952.543242,-10241.280728
619.098558,-95.712904,-229.710970,-9590.432981
619.101113,-19.142581,842.273555,-8882.157491
619.103669,-172.283227,401.994197,-9839.286531
619.106224,-114.855485,-133.998066,-10145.567824
619.108779,-38.285162,-1205.982590,-8575.876198
619.111334,-153.140646,-2201.396792,-10241.280728
619.113889,-38.285162,-2411.965181,-10413.563955
619.116445,-133.998066,-727.418070,-8671.589102
619.119000,-0.000000,-612.562586,-9743.573627
619.121552,-172.283227,-421.136778,-10317.851051
619.124104,19.142581,-133.998066,-9226.723946
619.126656,-38.285162,-727.418070,-9207.581365
619.129208,-76.570323,-1531.406464,-10394.421374
619.131760,-172.283227,-957.129040,-9399.007173
619.134312,114.855485,-459.421939,-9016.155557
619.136865,-172.283227,-669.990328,-10107.282662
619.139417,-76.570323,-612.562586,-9762.716208
619.141969,38.285162,-669.990328,-9226.723946
619.144521,-133.998066,-1225.125171,-10011.569758
619.147073,-0.000000,-1569.691626,-9896.714274
619.149625,-210.568389,-535.992262,-9245.866526
619.152177,57.427742,-880.558717,-9494.720077
619.154730,-248.853550,-1512.263883,-9686.145885
619.157282,-306.281293,-1569.691626,-9858.429112
619.159834,172.283227,-1512.263883,-9513.862658
619.162386,-363.709035,-918.843878,-9743.573627
619.164938,-0.000000,-382.851616,-10049.854920
619.167490,-38.285162,823.130974,-9016.155557
619.170042,-76.570323,-38.285162,-9724.431046
619.172595,-172.283227,-937.986459,-10241.280728
619.175147,-38.285162,-1971.685822,-8863.014910
619.177699,19.142581,-2603.390989,-9647.860723
619.180251,-325.423874,-2009.970984,-10662.417506
619.182803,-57.427742,-306.281293,-9379.864592
619.185355,-0.000000,689.132909,-9073.583299
619.187907,-267.996131,516.849682,-10260.423309
619.190459,-133.998066,38.285162,-9934.999435
619.193012,-38.285162,-593.420005,-8977.870395
619.195564,-210.568389,-2297.109696,-10145.567824
619.198116,-38.285162,-2737.389054,-10011.569758
619.200668,-401.994197,-1205.982590,-8748.159426
619.203220,19.142581,-1129.412267,-10317.851051
619.205772,-325.423874,-823.130974,-10011.569758
619.208324,-57.427742,-95.712904,-8824.729749
619.210877,-133.998066,-555.134843,-9896.714274
619.213429,133.998066,-708.275490,-9494.720077
619.215981,-555.134843,650.847747,-9303.294269
619.218533,172.283227,-76.570323,-8997.012976
619.221085,-0.000000,-1914.258080,-8997.012976
619.223635,-133.998066,-3139.383251,-10317.851051
619.226186,114.855485,-3771.088418,-10413.563955
619.228736,421.136778,-3043.670347,-9839.286531
619.231286,-267.996131,-133.998066,-9743.573627
619.233836,-172.283227,2392.822600,-9686.145885
619.236386,459.421939,2009.970984,-8709.874264
619.238937,-478.564520,1014.556782,-9609.575562
619.241487,-57.427742,-516.849682,-10566.704602
619.244037,38.285162,-2794.816797,-8135.596840
619.246587,-516.849682,-3962.514226,-10796.415571
619.249138,-57.427742,-2967.100024,-11083.554283
619.251688,-95.712904,-746.560651,-7791.030386
619.254238,38.285162,0.000000,-9360.722011
619.256788,-191.425808,957.129040,-11485.548480
619.259339,-95.712904,1454.836141,-8173.882002
619.261889,210.568389,-325.423874,-8461.020714
619.264439,-459.421939,-1225.125171,-12021.540742
619.266989,-153.140646,-1225.125171,-9437.292334
619.269539,401.994197,-2335.394858,-7063.612315
619.272090,-363.709035,-2718.246474,-11925.827838
619.274640,-478.564520,-1550.549045,-10719.845248
619.277190,344.566454,-918.843878,-7025.327154
619.279740,-248.853550,-57.427742,-10719.845248
619.282291,-229.710970,497.707101,-10490.134278
619.284841,133.998066,1091.127106,-6470.192310
619.287391,-19.142581,-631.705166,-10260.423309
619.289941,-459.421939,-1837.687757,-11983.255581
619.292492,-95.712904,-2660.818731,-7369.893608
619.295042,267.996131,-3388.236802,-9494.720077
619.297592,-478.564520,-1952.543242,-12557.533005
619.300142,-38.285162,95.712904,-8288.737486
619.302692,267.996131,1091.127106,-7523.034254
619.305243,-344.566454,746.560651,-11887.542677
619.307793,-38.285162,248.853550,-9820.143950
619.310343,229.710970,-1263.410333,-6699.903280
619.312893,-382.851616,-2431.107762,-11676.974288
619.315444,-172.283227,-2545.963246,-11428.120738
619.317994,172.283227,-1359.123237,-6987.041992
619.320544,-114.855485,-823.130974,-10643.274925
619.323094,-306.281293,-267.996131,-11485.548480
619.325645,-0.000000,38.285162,-7331.608446
619.328195,133.998066,-957.129040,-9284.151688
619.330745,-459.421939,-1071.984525,-12040.683323
619.333295,-57.427742,-478.564520,-8556.733618
619.335845,191.425808,-803.988394,-7925.028451
619.338396,-497.707101,-1301.695494,-11600.403965
619.340946,-95.712904,-1339.980656,-10202.995566
619.343496,19.142581,-1397.408398,-7618.747158
619.346045,-229.710970,-1493.121302,-11121.839445
619.348593,-57.427742,-1148.554848,-10987.841379
619.351142,-0.000000,344.566454,-7561.319416
619.353690,-133.998066,459.421939,-9284.151688
619.356239,-133.998066,-535.992262,-11389.835576
619.358787,-95.712904,-937.986459,-7886.743290
619.361336,-95.712904,-1933.400661,-9322.436850
619.363884,-210.568389,-2182.254211,-11925.827838
619.366433,-287.138712,-1033.699363,-8997.012976
619.368981,172.283227,-440.279358,-7925.028451
619.371530,-133.998066,-440.279358,-10796.415571
619.374079,-267.996131,-363.709035,-10394.421374
619.376627,421.136778,-823.130974,-8154.739421
619.379176,-38.285162,-1186.840010,-9609.575562
619.381724,-191.425808,-1339.980656,-11006.983960
619.384273,-114.855485,-363.709035,-9552.147819
619.386821,267.996131,-459.421939,-7676.174901
619.389370,-306.281293,-1454.836141,-10509.276859
619.391918,-478.564520,-1397.408398,-11504.691061
619.394467,133.998066,-1416.550979,-7982.456194
619.397015,-0.000000,-1320.838075,-10164.710405
619.399564,-803.988394,-76.570323,-11523.833642
619.402112,210.568389,76.570323,-7982.456194
619.404661,267.996131,-478.564520,-8039.883936
619.407209,-516.849682,-593.420005,-12346.964616
619.409758,-344.566454,-918.843878,-9762.716208
619.412306,650.847747,-2124.826469,-6948.756830
619.414855,-344.566454,-1875.972918,-11696.116869
619.417403,-535.992262,-95.712904,-11351.550414
619.419952,440.279358,229.710970,-6470.192310
619.422501,57.427742,-287.138712,-9226.723946
619.425049,-574.277424,-593.420005,-12863.814298
619.427595,-95.712904,-1282.552914,-7408.178770
619.430141,382.851616,-2411.965181,-8173.882002
619.432688,-574.277424,-1933.400661,-13189.238171
619.435234,-76.570323,-401.994197,-7312.465866
619.437780,689.132909,-823.130974,-7408.178770
619.440326,-574.277424,-76.570323,-13265.808494
619.442873,-325.423874,0.000000,-9418.149754
619.445419,555.134843,-1110.269686,-6125.625856
619.447965,-401.994197,-1588.834206,-12136.396227
619.450511,-516.849682,-612.562586,-11964.113000
619.453057,440.279358,-727.418070,-5647.061336
619.455604,57.427742,-1282.552914,-9571.290400
619.458150,-669.990328,-976.271621,-13572.089787
619.460696,-95.712904,-957.129040,-7044.469734
619.463242,555.134843,-1722.832272,-7810.172966
619.465788,-669.990328,-957.129040,-13667.802691
619.468335,-382.851616,57.427742,-9111.868461
619.470881,708.275490,-631.705166,-6967.899411
619.473427,-727.418070,-784.845813,-13533.804626
619.475973,-344.566454,-555.134843,-9915.856854
619.478519,803.988394,-1799.402595,-5245.067139
619.481066,-497.707101,-1454.836141,-12270.394293
619.483612,-727.418070,-344.566454,-12461.820101
619.486158,708.275490,-306.281293,-5455.635528
619.488704,95.712904,-650.847747,-8882.157491
619.491250,-995.414202,-727.418070,-14031.511726
619.493797,344.566454,-1473.978722,-7446.463931
619.496343,478.564520,-1856.830338,-6757.331022
619.498889,-899.701298,-1186.840010,-13916.656242
619.501435,401.994197,-784.845813,-9839.286531
619.503981,95.712904,-363.709035,-4804.787781
619.506528,-612.562586,-631.705166,-12614.960747
619.509074,-76.570323,-516.849682,-10317.851051
619.511620,248.853550,-1205.982590,-4632.504554
619.514166,-306.281293,-1339.980656,-12863.814298
619.516712,-459.421939,-440.279358,-12366.107197
619.519259,382.851616,172.283227,-4575.076811
619.521805,114.855485,-880.558717,-10068.997501
619.524351,-842.273555,-1167.697429,-14031.511726
619.526897,153.140646,-1512.263883,-6393.621987
619.529442,382.851616,-2335.394858,-7829.315547
619.531986,-746.560651,-1531.406464,-14490.933666
619.534530,-95.712904,-19.142581,-8595.018779
619.537074,555.134843,382.851616,-5493.920690
619.539619,-287.138712,-229.710970,-13016.954944
619.542163,-497.707101,-421.136778,-11179.267187
619.544707,631.705166,-1703.689691,-5168.496816
619.547252,-631.705166,-2124.826469,-13304.093656
619.549796,-555.134843,-1110.269686,-11198.409768
619.552340,612.562586,-325.423874,-5340.780043
619.554885,-57.427742,-229.710970,-10585.847182
619.557429,-689.132909,-153.140646,-13036.097525
619.559973,248.853550,-421.136778,-6431.907149
619.562518,76.570323,-1569.691626,-8384.450390
619.565062,-535.992262,-1990.828403,-13725.230434
619.567606,-114.855485,-1110.269686,-8575.876198
619.570151,363.709035,-708.275490,-6374.479406
619.572695,-153.140646,-803.988394,-12768.101394
619.575239,-440.279358,-95.712904,-10777.272990
619.577784,535.992262,-555.134843,-5723.631659
619.580328,-57.427742,-1110.269686,-11121.839445
619.582872,-823.130974,-1014.556782,-12461.820101
619.585417,421.136778,-746.560651,-5647.061336
619.587961,172.283227,-1569.691626,-10011.569758
619.590505,-1033.699363,-1186.840010,-13304.093656
619.593050,-210.568389,-976.271621,-7733.602643
619.595594,612.562586,-1684.547110,-7293.323285
619.598138,-555.134843,-1301.695494,-12978.669782
619.600682,-363.709035,-76.570323,-10202.995566
619.603227,459.421939,38.285162,-6049.055533
619.605771,-172.283227,-421.136778,-11332.407834
619.608315,-325.423874,-593.420005,-11868.400096
619.610860,-38.285162,-689.132909,-6527.620053
619.613404,363.709035,-1856.830338,-9533.005238
619.615948,-574.277424,-1627.119368,-12882.956878
619.618493,-344.566454,-133.998066,-8116.454259
619.621037,765.703232,-459.421939,-7255.038123
619.623581,-727.418070,-535.992262,-12882.956878
619.626126,-267.996131,-669.990328,-8767.302006
619.628670,765.703232,-1856.830338,-6853.043926
619.631165,-612.562586,-1627.119368,-12251.251712
619.633659,-631.705166,-765.703232,-11006.983960
619.636154,842.273555,-631.705166,-6221.338760
619.638649,-210.568389,-440.279358,-10068.997501
619.641144,-727.418070,-325.423874,-12844.671717
619.643638,306.281293,-842.273555,-7082.754896
619.646133,459.421939,-1550.549045,-8307.880067
619.648628,-937.986459,-1244.267752,-13016.954944
619.651123,-95.712904,-440.279358,-9379.864592
619.653617,669.990328,-114.855485,-6240.481341
619.656112,-650.847747,-497.707101,-11638.689126
619.658607,-76.570323,-918.843878,-10068.997501
619.661102,440.279358,-1971.685822,-5915.057467
619.663596,-421.136778,-1971.685822,-11830.114934
619.666091,-574.277424,-1148.554848,-12232.109131
619.668586,306.281293,-114.855485,-5800.201982
619.671081,210.568389,-191.425808,-9418.149754
619.673575,-669.990328,-153.140646,-13189.238171
619.676070,-57.427742,-497.707101,-7427.321350
619.678565,478.564520,-1703.689691,-7446.463931
619.681060,-650.847747,-1684.547110,-13418.949141
619.683554,-401.994197,-574.277424,-9992.427178
619.686049,689.132909,-516.849682,-5570.491013
619.688544,-440.279358,-784.845813,-11408.978157
619.691039,-516.849682,-823.130974,-12500.105262
619.693533,344.566454,-1339.980656,-5857.629725
619.696028,-95.712904,-1684.547110,-11619.546546
619.698523,-421.136778,-1110.269686,-12346.964616
619.701018,19.142581,-191.425808,-6010.770371
619.703512,19.142581,-689.132909,-9150.153622
619.706007,-689.132909,-440.279358,-13533.804626
619.708502,-229.710970,153.140646,-7465.606512
619.710997,555.134843,-1416.550979,-7140.182638
619.713491,-574.277424,-1665.404530,-13457.234302
619.715986,-478.564520,-555.134843,-10049.854920
619.718481,669.990328,-899.701298,-5666.203917
619.720976,-421.136778,-1148.554848,-11581.261384
619.723470,-555.134843,-937.986459,-12193.823970
619.725965,401.994197,-995.414202,-6010.770371
619.728460,-19.142581,-1550.549045,-9954.142016
619.730965,-689.132909,-976.271621,-13150.953010
619.733470,191.425808,38.285162,-6163.911018
619.735975,325.423874,-478.564520,-9475.577496
619.738480,-535.992262,-976.271621,-12691.531070
619.740984,-114.855485,-708.275490,-7886.743290
619.743489,497.707101,-1837.687757,-7618.747158
619.745994,-593.420005,-1837.687757,-12978.669782
619.748499,-363.709035,-574.277424,-9667.003304
619.751004,497.707101,-76.570323,-6604.190376
619.753509,-248.853550,-478.564520,-11140.982026
619.756014,-555.134843,-727.418070,-11466.405899
619.758518,306.281293,-1225.125171,-6891.329088
619.761023,38.285162,-2067.398726,-9667.003304
619.763528,-574.277424,-1741.974853,-12500.105262
619.766033,-19.142581,-248.853550,-8250.452325
619.768538,287.138712,19.142581,-7580.461997
619.771043,-459.421939,-344.566454,-12251.251712
619.773547,-57.427742,-344.566454,-8709.874264
619.776052,325.423874,-1761.117434,-7389.036189
619.778557,-535.992262,-2009.970984,-12289.536874
619.781062,-76.570323,-1454.836141,-10470.991698
619.783567,1071.984525,-1416.550979,-5302.494882
619.786072,-1110.269686,-478.564520,-11600.403965
619.788577,229.710970,-1493.121302,-11887.542677
619.791081,-76.570323,-727.418070,-6144.768437
619.793586,-344.566454,-1071.984525,-10892.128475
619.796091,-114.855485,-1167.697429,-11983.255581
619.798596,-38.285162,440.279358,-7159.325219
619.801101,-57.427742,631.705166,-9628.718142
619.803606,-172.283227,57.427742,-11523.833642
619.806110,440.279358,-784.845813,-8518.448456
619.808615,-267.996131,-2239.681954,-10490.134278
619.811120,-497.707101,-2737.389054,-9781.858789
619.813625,57.427742,-1971.685822,-8882.157491
619.816130,-363.709035,114.855485,-10317.851051
619.818635,-19.142581,440.279358,-9111.868461
619.821140,-38.285162,229.710970,-9379.864592
619.823644,-555.134843,631.705166,-10336.993632
619.826149,229.710970,-1531.406464,-8422.735552
619.828654,-229.710970,-2297.109696,-10107.282662
619.831168,-325.423874,-2105.683888,-10604.989763
619.833682,76.570323,-1818.545176,-8212.167163
619.836196,-114.855485,-1684.547110,-10068.997501
619.838709,-114.855485,-593.420005,-10872.985894
619.841223,-76.570323,401.994197,-7982.456194
619.843737,-0.000000,-306.281293,-11083.554283
619.846251,-344.566454,-248.853550,-10126.425243
619.848765,267.996131,0.000000,-8039.883936
619.851278,-229.710970,-765.703232,-9992.427178
619.853792,-114.855485,-2086.541307,-10643.274925
619.856306,-0.000000,-2124.826469,-8537.591037
619.858820,-76.570323,-2086.541307,-9762.716208
619.861334,-172.283227,-1473.978722,-10777.272990
619.863847,-38.285162,-76.570323,-8729.016845
619.866361,-57.427742,937.986459,-9399.007173
619.868875,-191.425808,229.710970,-10164.710405
619.871389,19.142581,-593.420005,-9226.723946
619.873903,-114.855485,-1301.695494,-9303.294269
619.876416,-325.423874,-2411.965181,-10107.282662
619.878930,19.142581,-2813.959378,-9934.999435
619.881444,-172.283227,-382.851616,-9092.725880
619.883958,114.855485,95.712904,-9667.003304
619.886472,-248.853550,191.425808,-9915.856854
619.888985,-133.998066,-76.570323,-9820.143950
619.891499,19.142581,-1110.269686,-8652.446522
619.894013,-76.570323,-2143.969050,-10375.278794
619.896527,114.855485,-2009.970984,-10317.851051
619.899041,-172.283227,-784.845813,-8250.452325
619.901555,-95.712904,-861.416136,-10126.425243
619.904068,-191.425808,-421.136778,-10566.704602
619.906582,-38.285162,-38.285162,-8767.302006
619.909096,-133.998066,-727.418070,-9647.860723
619.911610,-172.283227,-1339.980656,-10490.134278
619.914124,-57.427742,-459.421939,-9073.583299
619.916637,-133.998066,-248.853550,-9245.866526
619.919151,-172.283227,-1454.836141,-10317.851051
619.921665,-19.142581,-1569.691626,-9073.583299
619.924179,-76.570323,-1627.119368,-9341.579430
619.926693,-76.570323,-1875.972918,-10490.134278
619.929206,-95.712904,-593.420005,-9494.720077
619.931727,-0.000000,459.421939,-8977.870395
619.934248,-0.000000,38.285162,-9877.571693
619.936769,-153.140646,-363.709035,-9992.427178
619.939289,-19.142581,-593.420005,-9418.149754
619.941810,-19.142581,-1971.685822,-9169.296203
619.944331,-210.568389,-2124.826469,-10394.421374
619.946851,-76.570323,-746.560651,-9954.142016
619.949372,-57.427742,-19.142581,-8767.302006
619.951893,-95.712904,-765.703232,-9896.714274
619.954414,-172.283227,-689.132909,-10164.710405
619.956934,-38.285162,-937.986459,-8824.729749
619.959455,-172.283227,-1856.830338,-10317.851051
619.961976,-153.140646,-1607.976787,-9839.286531
619.964496,-57.427742,-325.423874,-8958.727814
619.967017,-133.998066,-421.136778,-9667.003304
619.969538,-19.142581,-1033.699363,-10183.852986
619.972059,-114.855485,-937.986459,-8997.012976
619.974579,-76.570323,-1799.402595,-9456.434915
619.977100,-210.568389,-1493.121302,-10662.417506
619.979621,-172.283227,-57.427742,-9111.868461
619.982141,57.427742,593.420005,-9054.440718
619.984662,-191.425808,363.709035,-10145.567824
619.987183,-0.000000,-421.136778,-9628.718142
619.989704,-19.142581,-1359.123237,-9686.145885
619.992224,-478.564520,-2622.533570,-9647.860723
619.994745,306.281293,-3215.953574,-10145.567824
619.997266,-459.421939,-401.994197,-9379.864592
619.999786,-19.142581,-210.568389,-9322.436850
620.002307,-153.140646,76.570323,-10088.140082
620.004828,-19.142581,765.703232,-9533.005238
620.007349,-57.427742,-133.998066,-8939.585234
620.009869,-38.285162,-1665.404530,-10145.567824
620.012390,-0.000000,-1818.545176,-9781.858789
620.014911,-153.140646,-995.414202,-8939.585234
620.017431,-153.140646,-1416.550979,-9724.431046
620.019952,-0.000000,-1416.550979,-10126.425243
620.022473,-172.283227,-401.994197,-8920.442653
620.024994,-114.855485,-1129.412267,-9801.001370
620.027514,-153.140646,-1186.840010,-10432.706536
620.030035,-0.000000,-382.851616,-8843.872330
620.032561,-172.283227,-38.285162,-9475.577496
620.035086,-19.142581,-1148.554848,-10222.138147
620.037612,-114.855485,-995.414202,-9303.294269
620.040138,-76.570323,-1512.263883,-9207.581365
620.042664,-76.570323,-1952.543242,-10375.278794
620.045190,-172.283227,-976.271621,-9686.145885
620.047715,-57.427742,153.140646,-9111.868461
620.050241,-19.142581,-459.421939,-9801.001370
620.052767,-76.570323,-937.986459,-9992.427178
620.055293,-114.855485,-880.558717,-9322.436850
620.057818,-19.142581,-1665.404530,-9399.007173
620.060344,-172.283227,-1741.974853,-10298.708470
620.062870,-57.427742,-689.132909,-9820.143950
620.065396,-76.570323,-19.142581,-8767.302006
620.067921,-133.998066,-669.990328,-10126.425243
620.070447,-76.570323,-631.705166,-9781.858789
620.072973,-57.427742,-1282.552914,-8575.876198
620.075499,-95.712904,-2239.681954,-10834.700733
620.078024,-191.425808,-1550.549045,-9762.716208
620.080550,-19.142581,-19.142581,-8614.161360
620.083076,-0.000000,38.285162,-10202.995566
620.085602,-133.998066,-746.560651,-10088.140082
620.088127,-76.570323,-459.421939,-8958.727814
620.090653,-133.998066,-1359.123237,-9628.718142
620.093179,-0.000000,-1933.400661,-10183.852986
620.095705,-172.283227,-1205.982590,-9494.720077
620.098230,-0.000000,-497.707101,-9131.011042
620.100756,-57.427742,-727.418070,-9839.286531
620.103282,-76.570323,-746.560651,-9973.284597
620.105808,-0.000000,-918.843878,-8595.018779
620.108333,-172.283227,-1550.549045,-10490.134278
620.110859,-153.140646,-1550.549045,-9858.429112
620.113385,-153.140646,-689.132909,-9169.296203
620.115911,19.142581,-708.275490,-9571.290400
620.118437,-172.283227,-689.132909,-10241.280728
620.120962,-19.142581,-248.853550,-9437.292334
620.123488,-153.140646,-669.990328,-8920.442653
620.126014,-57.427742,-1761.117434,-10413.563955
620.128540,-133.998066,-1225.125171,-9571.290400
620.131065,-76.570323,-401.994197,-8748.159426
620.133595,-114.855485,-1052.841944,-10107.282662
620.136124,-19.142581,-1014.556782,-10107.282662
620.138653,-153.140646,0.000000,-8882.157491
620.141183,114.855485,-1014.556782,-10011.569758
620.143712,-325.423874,-1244.267752,-9973.284597
620.146242,95.712904,-344.566454,-9188.438784
620.148771,-191.425808,-191.425808,-9265.009107
620.151300,229.710970,-1684.547110,-9667.003304
620.153830,-363.709035,-1435.693560,-9877.571693
620.156359,-57.427742,-1837.687757,-8977.870395
620.158889,-210.568389,-1799.402595,-10356.136213
620.161418,-114.855485,-593.420005,-9896.714274
620.163947,-57.427742,918.843878,-8939.585234
620.166477,-76.570323,325.423874,-9743.573627
620.169006,-0.000000,-1033.699363,-10279.565890
620.171535,-210.568389,-1110.269686,-9245.866526
620.174065,-57.427742,-2086.541307,-9035.298138
620.176594,-191.425808,-2392.822600,-10585.847182
620.179124,-172.283227,-401.994197,-9188.438784
620.181653,153.140646,344.566454,-8939.585234
620.184182,-593.420005,-133.998066,-10490.134278
620.186712,210.568389,-880.558717,-9571.290400
620.189241,-191.425808,-1454.836141,-8863.014910
620.191770,-38.285162,-2775.674216,-10738.987829
620.194300,76.570323,-2182.254211,-9475.577496
620.196829,-325.423874,267.996131,-8901.300072
620.199359,38.285162,114.855485,-10164.710405
620.201888,-38.285162,76.570323,-9647.860723
620.204417,-114.855485,459.421939,-9475.577496
620.206947,-0.000000,-1186.840010,-9437.292334
620.209476,-76.570323,-2277.967115,-10030.712339
620.212006,-76.570323,-1359.123237,-9801.001370
620.214535,-57.427742,-937.986459,-9092.725880
620.217064,-133.998066,-1282.552914,-9647.860723
620.219594,-95.712904,-803.988394,-10107.282662
620.222123,-114.855485,-382.851616,-8882.157491
620.224652,-19.142581,-1512.263883,-9973.284597
620.227182,-153.140646,-1454.836141,-10088.140082
620.229711,-133.998066,-153.140646,-9150.153622
620.232241,-133.998066,-689.132909,-9705.288466
620.234774,-153.140646,-1205.982590,-10049.854920
620.237307,-57.427742,-631.705166,-9571.290400
620.239840,-153.140646,-1071.984525,-9322.436850
620.242373,-57.427742,-1435.693560,-10394.421374
620.244906,-382.851616,19.142581,-9456.434915
620.247439,38.285162,459.421939,-9207.581365
620.249972,-191.425808,-631.705166,-9839.286531
620.252505,-95.712904,-1703.689691,-9954.142016
620.255038,-95.712904,-2373.680019,-8652.446522
620.257572,-95.712904,-2660.818731,-10317.851051
620.260105,-133.998066,-1282.552914,-10088.140082
620.262638,-210.568389,957.129040,-8939.585234
620.265171,-57.427742,937.986459,-9724.431046
620.267704,-172.283227,210.568389,-9858.429112
620.270237,-95.712904,-382.851616,-9379.864592
620.272770,-0.000000,-2373.680019,-9092.725880
620.275303,-38.285162,-3120.240670,-10585.847182
