#time,accel_x,accel_y,accel_z
878.637640,-38.285162,-899.701298,-9743.573627
878.640295,-172.283227,-823.130974,-9609.575562
878.642949,-114.855485,-937.986459,-9571.290400
878.645603,-114.855485,-880.558717,-9628.718142
878.648257,-76.570323,-880.558717,-9628.718142
878.650911,-76.570323,-880.558717,-9686.145885
878.653565,-153.140646,-823.130974,-9705.288466
878.656220,-0.000000,-880.558717,-9609.575562
878.658874,-38.285162,-861.416136,-9571.290400
878.661528,-0.000000,-899.701298,-9647.860723
878.664182,-95.712904,-937.986459,-9571.290400
878.666836,-172.283227,-880.558717,-9571.290400
878.669491,-114.855485,-899.701298,-9628.718142
878.672145,-114.855485,-823.130974,-9686.145885
878.674799,-57.427742,-918.843878,-9647.860723
878.677453,38.285162,-1301.695494,-9188.438784
878.680107,57.427742,-1378.265818,-9513.862658
878.682762,153.140646,-1837.687757,-9513.862658
878.685416,-401.994197,-3962.514226,-9437.292334
878.688070,-57.427742,-6891.329088,-9552.147819
878.690724,19.142581,-11064.411702,-8939.585234
878.693378,-459.421939,-9513.862658,-10949.556218
878.696033,95.712904,-5264.209720,-9724.431046
878.698687,-344.566454,-4728.217458,-8001.598774
878.701341,248.853550,765.703232,-11772.687192
878.703995,-76.570323,2201.396792,-7523.034254
878.706601,-153.140646,325.423874,-9667.003304
878.709207,-267.996131,-4632.504554,-10585.847182
878.711812,-114.855485,-4804.787781,-7599.604578
878.714418,650.847747,-9590.432981,-10547.562021
878.717024,-497.707101,-11657.831707,-10681.560086
878.719629,287.138712,-6585.047795,-5761.916821
878.722235,-976.271621,-842.273555,-15467.205286
878.724841,-861.416136,4019.941968,-11791.829773
878.727446,1301.695494,957.129040,-937.986459
878.730052,-1435.693560,-650.847747,-15620.345933
878.732658,267.996131,-3962.514226,-11045.269122
878.735263,-1225.125171,-6183.053598,-2813.959378
878.737869,76.570323,-11715.259450,-16634.902715
878.740475,861.416136,-7867.600709,-8154.739421
878.743080,-3885.943902,2354.537438,-8250.452325
878.745686,4747.360038,-2718.246474,-12366.107197
878.748292,-765.703232,4421.936165,-9954.142016
878.750898,-765.703232,8365.307810,-5800.201982
878.753503,1052.841944,2105.683888,-12653.245909
878.756109,-1531.406464,-976.271621,-10566.704602
878.758715,1205.982590,-6029.912952,-2986.242605
878.761320,-1320.838075,-6183.053598,-17649.459498
878.763926,57.427742,-4249.652938,-6144.768437
878.766532,325.423874,-3369.094221,-8307.880067
878.769137,-1359.123237,2450.250342,-14069.796888
878.771743,1359.123237,3713.660675,-5627.918755
878.774349,-937.986459,4747.360038,-11083.554283
878.776954,1052.841944,-172.283227,-8997.012976
878.779560,1627.119368,-3943.371645,-4843.072942
878.782166,-5685.346498,-114.855485,-16003.197549
878.784771,4785.645200,-7867.600709,-7944.171032
878.787377,-1684.547110,-1741.974853,-9303.294269
878.789983,-2163.111630,1033.699363,-10356.136213
878.792588,2469.392923,-1244.267752,-9399.007173
878.795194,-1493.121302,2986.242605,-7159.325219
878.797800,-2067.398726,1990.828403,-15103.496251
878.800405,2794.816797,-2603.390989,-5359.922624
878.803011,-5359.922624,937.986459,-10317.851051
878.805617,3024.527766,-6451.049730,-11294.122672
878.808222,-2009.970984,-3139.383251,-8135.596840
878.810807,5532.205851,-5781.059402,-10987.841379
878.813392,-6948.756830,6489.334891,-10930.413637
878.815976,2450.250342,2086.541307,-5379.065205
878.818561,4173.082614,-1531.406464,-12461.820101
878.821145,-6451.049730,4019.941968,-8422.735552
878.823730,2794.816797,-4594.219392,-11140.982026
878.826314,1895.115499,-4268.795518,-9513.862658
878.828899,-6891.329088,2297.109696,-10126.425243
878.831483,5666.203917,-6431.907149,-9896.714274
878.834068,937.986459,-2086.541307,-5570.491013
878.836652,-2507.678085,2641.676150,-13265.808494
878.839237,4460.221326,-1512.263883,-9992.427178
878.841821,-3522.234867,3847.658741,-4555.934230
878.844406,5991.627790,-3617.947771,-18606.588538
878.846990,-7523.034254,5398.207786,2143.969050
878.849575,3981.656806,-7025.327154,-17860.027886
878.852159,-976.271621,-4307.080680,-16500.904650
878.854744,-5991.627790,1359.123237,6872.186507
878.857328,9207.581365,-9399.007173,-23392.233738
878.859913,-6355.336826,4345.365842,-10317.851051
878.862497,612.562586,880.558717,4134.797453
878.865082,2239.681954,-899.701298,-24081.366646
878.867667,-2258.824534,4479.363907,-5283.352301
878.870251,2852.244539,-861.416136,-3196.810994
878.872836,-3005.385186,-1339.980656,-14950.355605
878.875420,-957.129040,-4249.652938,-5608.776174
878.878005,-535.992262,-842.273555,-7637.889739
878.880589,689.132909,-2316.252277,-15428.920125
878.883174,1320.838075,-1148.554848,-1971.685822
878.885758,-2565.105827,1512.263883,-13686.945272
878.888343,1473.978722,-593.420005,-11294.122672
878.890927,1301.695494,574.277424,-6489.334891
878.893492,-1550.549045,1339.980656,-10624.132344
878.896056,1722.832272,-1933.400661,-13399.806560
878.898620,-229.710970,-1473.978722,-5666.203917
878.901185,114.855485,-3292.523898,-5953.342629
878.903749,-2431.107762,382.851616,-22856.241475
878.906314,1550.549045,-1837.687757,2220.539373
878.908878,1435.693560,-3349.951640,-12902.099459
878.911442,-2986.242605,650.847747,-16711.473038
878.914007,2335.394858,-2009.970984,287.138712
878.916571,-2507.678085,765.703232,-19066.010477
878.919136,2316.252277,-1722.832272,-10719.845248
878.921700,-38.285162,861.416136,-765.703232
878.924264,-2871.387120,1684.547110,-14452.648504
878.926829,4096.512291,-5015.356170,-10987.841379
878.929393,-5149.354235,2545.963246,-4211.367776
878.931958,3579.662610,-4670.789715,-14127.224630
878.934522,-4421.936165,2143.969050,-13265.808494
878.937086,3828.516160,-3024.527766,459.421939
878.939651,-1761.117434,-1550.549045,-19372.291770
878.942215,803.988394,-957.129040,-7905.885870
878.944780,535.992262,-1052.841944,-3579.662610
878.947344,344.566454,574.277424,-18300.307245
878.949908,-1722.832272,593.420005,-8767.302006
878.952473,1990.828403,-2967.100024,-7140.182638
878.955037,-4709.074877,1722.832272,-20559.131779
878.957601,4039.084549,-3196.810994,-440.279358
878.960166,-3483.949706,957.129040,-11332.407834
878.962730,2086.541307,-3924.229064,-14663.216893
878.965295,229.710970,-1416.550979,-3483.949706
878.967859,-535.992262,-133.998066,-8269.594906
878.970423,-689.132909,-1282.552914,-16673.187877
878.972988,153.140646,1052.841944,-4651.647134
878.975552,669.990328,-574.277424,-7484.749093
878.978117,1110.269686,-2737.389054,-13897.513661
878.980681,-3713.660675,1416.550979,-8403.592971
878.983245,2105.683888,-3311.666478,-4555.934230
878.985810,-2775.674216,-421.136778,-18510.875634
878.988374,2105.683888,-2545.963246,-1167.697429
878.990939,-1397.408398,-57.427742,-6144.768437
878.993503,-2239.681954,937.986459,-19046.867896
878.995862,2641.676150,-2163.111630,-5072.783912
878.998222,-1454.836141,1282.552914,-5761.916821
879.000581,-133.998066,-1646.261949,-17496.318851
879.002941,5359.922624,-3598.805190,-2143.969050
879.005300,-7867.600709,3675.375514,-6374.479406
879.007660,3369.094221,-5149.354235,-18070.596275
879.010019,325.423874,-1588.834206,-9379.864592
879.012379,-1703.689691,1799.402595,708.275490
879.014738,1799.402595,-2967.100024,-24234.507293
879.017098,-3273.381317,3177.668413,-3388.236802
879.019457,2450.250342,-2392.822600,-2794.816797
879.021817,1225.125171,-3579.662610,-17764.314982
879.024176,-2143.969050,1454.836141,-1646.261949
879.026536,4173.082614,-4977.071008,-5838.487144
879.028895,-6910.471669,3062.812928,-23200.807930
879.031255,7752.745224,-5340.780043,-4613.361973
879.033614,-2756.531635,1990.828403,-995.414202
879.035974,-2411.965181,1512.263883,-22492.532440
879.038333,3637.090352,-2660.818731,-5742.774240
879.040693,-2105.683888,1435.693560,1952.543242
879.043052,880.558717,-3981.656806,-22358.534374
879.045412,-3158.525832,631.705166,-9762.716208
879.047771,3732.803256,-3005.385186,784.845813
879.050131,1799.402595,-3541.377448,-21133.409203
879.052490,-6546.762634,4632.504554,-12059.825904
879.054850,6585.047795,-3024.527766,4230.510357
879.057209,-1799.402595,248.853550,-20999.411138
879.059569,-421.136778,-172.283227,-10643.274925
879.061928,5321.637462,-4268.795518,210.568389
879.064288,-4077.369710,957.129040,-16386.049165
879.066647,-746.560651,-2852.244539,-11753.544611
879.069007,3369.094221,-3464.807125,-2565.105827
879.071366,-5972.485210,1282.552914,-10068.997501
879.073726,2182.254211,-2316.252277,-19831.713709
879.076085,2469.392923,382.851616,-1933.400661
879.078445,-2067.398726,3081.955509,-2277.967115
879.080804,-478.564520,-918.843878,-24540.788586
879.083164,-1875.972918,172.283227,-6508.477472
879.085523,5991.627790,-5034.498750,-1167.697429
879.087883,-2373.680019,-2316.252277,-21382.262754
879.090315,-3675.375514,-267.996131,-6987.041992
879.092747,4728.217458,-4441.078746,-1837.687757
879.095179,-3828.516160,765.703232,-17477.176270
879.097611,4689.932296,-689.132909,-10030.712339
879.100043,-8901.300072,8518.448456,6412.764568
879.102475,5034.498750,-5264.209720,-30551.558957
879.104907,-1818.545176,-401.994197,-4670.789715
879.107339,-2258.824534,-784.845813,2354.537438
879.109771,2316.252277,-6144.768437,-29958.138952
879.112203,-3311.666478,248.853550,-7867.600709
879.114636,1741.974853,-1952.543242,3943.371645
879.117068,-1205.982590,-382.851616,-27412.175706
879.119500,-1531.406464,1627.119368,-3981.656806
879.121932,10413.563955,-5340.780043,631.705166
879.124364,-14912.070443,9169.296203,-21229.122107
879.126796,7886.743290,-4747.360038,-3637.090352
879.129228,-5493.920690,-1493.121302,-11619.546546
879.131660,1531.406464,-3637.090352,-16998.611750
879.134092,-19.142581,-1990.828403,-2526.820666
879.136524,-1454.836141,172.283227,-12634.103328
879.138957,1167.697429,-2048.256146,-12366.107197
879.141389,-1282.552914,1263.410333,-2297.109696
879.143821,823.130974,-1033.699363,-13974.083984
879.146253,-3809.373579,3062.812928,-13916.656242
879.148685,6431.907149,-3388.236802,-1205.982590
879.151117,-2277.967115,-1263.410333,-10298.708470
879.153549,-2909.672282,-650.847747,-12385.249778
879.155981,440.279358,-1971.685822,-11734.402030
879.158413,3349.951640,-2373.680019,-3771.088418
879.160845,-5934.200048,3196.810994,-15314.064640
879.163277,5302.494882,-2833.101958,-8977.870395
879.165710,-3790.230998,1244.267752,-8135.596840
879.168142,2143.969050,-3905.086483,-16328.621422
879.170574,-1263.410333,957.129040,-4421.936165
879.173006,1722.832272,-2029.113565,-8212.167163
879.175438,-382.851616,-2909.672282,-13476.376883
879.177870,-382.851616,-440.279358,-5934.200048
879.180302,-3273.381317,1550.549045,-12825.529136
879.182734,3771.088418,-2756.531635,-7810.172966
879.185166,-4919.643266,1665.404530,-11485.548480
879.187636,5589.633594,-2890.529701,-10604.989763
879.190111,-3445.664544,1493.121302,-6738.188442
879.192587,1282.552914,-1282.552914,-10356.136213
879.195063,-76.570323,-2239.681954,-12251.251712
879.197539,-1703.689691,-497.707101,-5015.356170
879.200014,1435.693560,-1493.121302,-14165.509792
879.202490,-1741.974853,1014.556782,-6833.901346
879.204966,-1359.123237,1588.834206,-9647.860723
879.207441,1550.549045,1110.269686,-14663.216893
879.209917,-593.420005,4058.227130,-7293.323285
879.212393,689.132909,4153.940034,-8173.882002
879.214868,-440.279358,4096.512291,-12844.671717
879.217344,133.998066,2660.818731,-6967.899411
879.219820,325.423874,1837.687757,-9437.292334
879.222296,-1167.697429,1550.549045,-14108.082050
879.224771,382.851616,-631.705166,-7178.467800
879.227247,459.421939,-191.425808,-7695.317482
879.229723,-1378.265818,4689.932296,-15409.777544
879.232198,1320.838075,2813.959378,-6661.618118
879.234674,-631.705166,669.990328,-7542.176835
879.237150,-133.998066,3139.383251,-13055.240106
879.239626,-497.707101,3426.521963,-7829.315547
879.242101,57.427742,2641.676150,-12174.681389
879.244577,440.279358,516.849682,-10336.993632
879.247053,-1301.695494,2411.965181,-7274.180704
879.249528,1627.119368,1110.269686,-11830.114934
879.252004,-1435.693560,3962.514226,-10222.138147
879.254480,497.707101,2890.529701,-7637.889739
879.256956,344.566454,1339.980656,-11198.409768
879.259431,-1071.984525,2124.826469,-10183.852986
879.261907,765.703232,133.998066,-8001.598774
879.264383,172.283227,-1052.841944,-10738.987829
879.266858,-459.421939,-937.986459,-10758.130410
879.269334,-535.992262,19.142581,-8097.311678
879.271810,114.855485,-191.425808,-10681.560086
879.274286,-38.285162,1741.974853,-10432.706536
879.276761,191.425808,6278.766502,-7542.176835
879.279237,-19.142581,9877.571693,-11198.409768
879.281713,1186.840010,7369.893608,-7944.171032
879.284188,-1129.412267,6757.331022,-8173.882002
879.286695,574.277424,1301.695494,-15696.916256
879.289201,-1378.265818,-3713.660675,-5187.639397
879.291708,976.271621,-4613.361973,-8767.302006
879.294214,-880.558717,-2086.541307,-14318.650438
879.296721,-38.285162,1110.269686,-7599.604578
879.299227,-248.853550,5302.494882,-7599.604578
879.301733,-574.277424,5876.772306,-13380.663979
879.304240,1071.984525,5972.485210,-7063.612315
879.306746,-1110.269686,7695.317482,-9111.868461
879.309253,76.570323,1014.556782,-12174.681389
879.311759,-401.994197,-2009.970984,-5283.352301
879.314266,2067.398726,-4249.652938,-9360.722011
879.316772,-3483.949706,2584.248408,-11964.113000
879.319278,2163.111630,516.849682,-12595.818166
879.321785,-1665.404530,4747.360038,-5283.352301
879.324291,516.849682,5072.783912,-11562.118803
879.326798,1493.121302,3828.516160,-10643.274925
879.329304,-3024.527766,2947.957443,-5627.918755
879.331811,2105.683888,-5225.924558,-15180.066574
879.334317,-861.416136,-5034.498750,-6431.907149
879.336823,-861.416136,-5493.920690,-8173.882002
879.339330,593.420005,-6278.766502,-12366.107197
879.341836,-1435.693560,708.275490,-10164.710405
879.344343,2354.537438,689.132909,-6833.901346
879.346849,-1665.404530,5245.067139,-12404.392358
879.349356,1416.550979,1493.121302,-7810.172966
879.351862,-612.562586,497.707101,-6431.907149
879.354368,-1263.410333,-325.423874,-16481.762069
879.356875,2526.820666,-6336.194245,-2220.539373
879.359381,-2488.535504,-3445.664544,-10317.851051
879.361888,880.558717,-5321.637462,-16041.482710
879.364394,-593.420005,-1397.408398,-1761.117434
879.366901,-229.710970,918.843878,-13648.660110
879.369407,421.136778,1282.552914,-13112.667848
879.371914,-497.707101,4766.502619,-4115.654872
879.374420,1416.550979,325.423874,-10222.138147
879.376926,-7599.604578,2852.244539,-15830.914322
879.379433,8575.876198,-6451.049730,-4192.225195
879.381939,-2813.959378,-2699.103893,-2833.101958
879.384446,-5091.926493,-842.273555,-27125.036994
879.386970,4517.649069,-5895.914886,382.851616
879.389495,-5283.352301,3732.803256,-4804.787781
879.392019,2182.254211,-1052.841944,-26244.478277
879.394544,401.994197,2622.533570,784.845813
879.397068,-325.423874,3464.807125,-3330.809059
879.399593,899.701298,-2201.396792,-20444.276294
879.402117,-1646.261949,-593.420005,-4383.651003
879.404642,-210.568389,-1761.117434,-8116.454259
879.407166,-3962.514226,-2909.672282,-15141.781413
879.409691,15850.056902,-13457.234302,-2660.818731
879.412215,-10834.700733,4000.799387,-12346.964616
879.414740,-3962.514226,3713.660675,-19027.725315
879.417264,9169.296203,-2679.961312,3024.527766
879.419789,-7848.458128,7886.743290,-10432.706536
879.422313,4326.223261,-1761.117434,-14356.935600
879.424838,-1282.552914,-995.414202,3254.238736
879.427362,-1186.840010,-3311.666478,-15658.631094
879.429887,-1722.832272,-3215.953574,-20463.418875
879.432412,-19.142581,-4115.654872,12959.527202
879.434936,5704.489078,-5991.627790,-21822.542112
879.437461,-8346.165229,5666.203917,-14969.498186
879.439985,6317.051664,-1091.127106,2469.392923
879.442510,-2354.537438,3598.805190,-9647.860723
879.445034,-842.273555,478.564520,-20750.557587
879.447559,4498.506488,-2258.824534,-1454.836141
879.450083,-3081.955509,-1627.119368,-1110.269686
879.452608,-3732.803256,-3388.236802,-31164.121542
879.455132,1416.550979,-3694.518094,2890.529701
879.457657,1569.691626,-3369.094221,-3924.229064
879.460181,-3292.523898,2737.389054,-17094.324654
879.462706,555.134843,3158.525832,6470.192310
879.465230,3139.383251,708.275490,-13878.371080
879.467755,-4307.080680,3177.668413,-18912.869830
879.470279,4632.504554,-4594.219392,1378.265818
879.472804,287.138712,-3349.951640,-11160.124606
879.475328,-4651.647134,-1684.547110,-20118.852421
879.477853,4096.512291,-5091.926493,133.998066
879.480377,-3790.230998,-631.705166,-10279.565890
879.482902,2641.676150,-2411.965181,-21363.120173
879.485426,-95.712904,3330.809059,4498.506488
879.487962,1282.552914,1895.115499,-15371.492382
879.490498,-2947.957443,2737.389054,-15696.916256
879.493034,2086.541307,-2048.256146,-1627.119368
879.495570,1493.121302,-3330.809059,-7255.038123
879.498106,-2029.113565,-2947.957443,-17228.322720
879.500642,95.712904,-2086.541307,1320.838075
879.503178,2718.246474,-3139.383251,-12710.673651
879.505714,-6604.190376,2239.681954,-16960.326589
879.508250,6642.475538,-2679.961312,-229.710970
879.510786,-4000.799387,5034.498750,-10241.280728
879.513322,287.138712,76.570323,-19525.432416
879.515858,2124.826469,-57.427742,3081.955509
879.518394,-2105.683888,-1225.125171,-10088.140082
879.520930,229.710970,-5838.487144,-19889.141451
879.523466,-1493.121302,-2239.681954,172.283227
879.526002,-861.416136,-1531.406464,-8078.169098
879.528538,2258.824534,-2545.963246,-20386.848552
879.531074,-4843.072942,4000.799387,-3330.809059
879.533609,6240.481341,-1646.261949,-6738.188442
879.536145,-4977.071008,4287.938099,-16826.328523
879.538681,3503.092286,-1837.687757,-1320.838075
879.541217,-1722.832272,-459.421939,-9801.001370
879.543753,-421.136778,-3081.955509,-14356.935600
879.546289,842.273555,-5072.783912,-3503.092286
879.548825,-765.703232,-1148.554848,-13763.515595
879.551361,-191.425808,-2124.826469,-9475.577496
879.553897,-267.996131,880.558717,-10202.995566
879.556433,-1148.554848,880.558717,-9456.434915
879.558969,4326.223261,-1971.685822,-8652.446522
879.561505,-4919.643266,3694.518094,-8001.598774
879.564041,3637.090352,-3885.943902,-13993.226565
879.566577,-1703.689691,497.707101,-8154.739421
879.569113,-153.140646,-2277.967115,-7963.313613
879.571649,1244.267752,-2737.389054,-11944.970419
879.574185,-1263.410333,957.129040,-7867.600709
879.576721,4134.797453,-3617.947771,-8231.309744
879.579257,-4957.928427,3637.090352,-10241.280728
879.581793,1588.834206,-2660.818731,-12155.538808
879.584328,3732.803256,-3426.521963,-2526.820666
879.586864,-5551.348432,2603.390989,-13725.230434
879.589406,4383.651003,-4287.938099,-13342.378818
879.591948,-2354.537438,2316.252277,-4881.358104
879.594490,210.568389,-1684.547110,-10126.425243
879.597032,708.275490,-1454.836141,-14490.933666
879.599573,-2603.390989,1473.978722,-5187.639397
879.602115,2507.678085,-2277.967115,-5206.781978
879.604657,-2947.957443,-191.425808,-16864.613685
879.607199,-229.710970,-1741.974853,-10317.851051
879.609741,9781.858789,-9245.866526,2660.818731
879.612283,-8078.169098,3196.810994,-31144.978962
879.614824,631.705166,-38.285162,-2105.683888
879.617366,2124.826469,1263.410333,765.703232
879.619908,-3330.809059,2335.394858,-21248.264688
879.622450,2679.961312,-1761.117434,-6872.186507
879.624992,-2354.537438,133.998066,-3292.523898
879.627533,1473.978722,-5225.924558,-18530.018214
879.630075,-2124.826469,-1914.258080,-11102.696864
879.632617,-2335.394858,-1875.972918,-4498.506488
879.635159,5245.067139,-4441.078746,-13840.085918
879.637701,-4766.502619,3885.943902,-8958.727814
879.640242,3809.373579,-1378.265818,-5723.631659
879.642784,-1780.260014,1397.408398,-14720.644635
879.645326,-1244.267752,574.277424,-9111.868461
879.647868,2029.113565,-2450.250342,-8767.302006
879.650410,-1512.263883,-2775.674216,-11198.409768
879.652952,-401.994197,-2928.814862,-13438.091722
879.655493,-2871.387120,1818.545176,-5264.209720
879.658035,1244.267752,-2067.398726,-12921.242040
879.660577,957.129040,497.707101,-10222.138147
879.663119,-153.140646,1607.976787,-3445.664544
879.665661,-76.570323,-325.423874,-13648.660110
879.668202,-746.560651,-325.423874,-12098.111066
879.670744,363.709035,-2258.824534,-3426.521963
879.673286,2163.111630,-3828.516160,-14356.935600
879.675828,-1320.838075,-2431.107762,-11734.402030
879.678370,1110.269686,-1110.269686,-3369.094221
879.680911,-3905.086483,1454.836141,-15294.922059
879.683453,401.994197,248.853550,-9628.718142
879.685995,1301.695494,57.427742,-6451.049730
879.688537,-2431.107762,248.853550,-14758.929797
879.691084,2335.394858,-3522.234867,-4594.219392
879.693631,-2239.681954,57.427742,-11006.983960
879.696177,1205.982590,-3177.668413,-12710.673651
879.698724,421.136778,-1129.412267,-5608.776174
879.701271,-2182.254211,516.849682,-9207.581365
879.703818,4096.512291,-1837.687757,-11964.113000
879.706365,-6967.899411,4785.645200,-7389.036189
879.708912,3120.240670,-2699.103893,-10566.704602
879.711459,689.132909,-1875.972918,-10394.421374
879.714005,-3943.371645,-19.142581,-8575.876198
879.716552,5111.069074,-5857.629725,-9820.143950
879.719099,-3617.947771,421.136778,-9092.725880
879.721646,-1856.830338,-440.279358,-10030.712339
879.724193,5245.067139,-1952.543242,-13935.798822
879.726740,-2679.961312,4575.076811,1244.267752
879.729287,3962.514226,-1148.554848,-18223.736922
879.731834,-7274.180704,4058.227130,-4862.215523
879.734380,5436.492947,-6719.045861,-9494.720077
879.736927,-1052.841944,-4115.654872,-11830.114934
879.739474,-3426.521963,-880.558717,-9188.438784
879.742021,4594.219392,-4517.649069,-4594.219392
879.744568,-3713.660675,1990.828403,-13648.660110
879.747115,1301.695494,-1263.410333,-11676.974288
879.749662,-287.138712,2354.537438,-5168.496816
879.752208,-1282.552914,1205.982590,-11447.263318
879.754755,1378.265818,-899.701298,-11964.113000
879.757302,-2871.387120,172.283227,-4689.932296
879.759849,4536.791650,-6259.623922,-9954.142016
879.762396,-4804.787781,1914.258080,-10222.138147
879.764943,2775.674216,-2335.394858,-8518.448456
879.767490,-1052.841944,1416.550979,-10088.140082
879.770037,3809.373579,-2067.398726,-6029.912952
879.772583,-4230.510357,650.847747,-15333.207221
879.775130,1282.552914,-2143.969050,-10547.562021
879.777677,650.847747,-2354.537438,-2794.816797
879.780224,-3905.086483,382.851616,-14108.082050
879.782771,4709.074877,-4575.076811,-11255.837510
879.785318,3771.088418,-4096.512291,3235.096155
879.787865,-5091.926493,3101.098090,-28177.878938
879.790411,1933.400661,-497.707101,-4747.360038
879.792960,-1378.265818,3751.945837,2182.254211
879.795509,1033.699363,-3866.801322,-19180.865962
879.798058,210.568389,-6393.621987,-5551.348432
879.800607,19.142581,-8173.882002,-1741.974853
879.803156,95.712904,-9284.151688,-24349.362778
879.805705,-803.988394,-5091.926493,-3139.383251
879.808254,842.273555,-4383.651003,-6451.049730
879.810803,823.130974,-2871.387120,-23009.382122
879.813352,-2794.816797,4804.787781,708.275490
879.815901,2641.676150,-2890.529701,-10260.423309
879.818450,-2105.683888,-4919.643266,-15677.773675
879.820999,1856.830338,-4785.645200,-918.843878
879.823548,-2431.107762,-3215.953574,-13055.240106
879.826097,-382.851616,-9552.147819,-13916.656242
879.828646,861.416136,-7140.182638,-1416.550979
879.831195,76.570323,-4000.799387,-11102.696864
879.833744,-1071.984525,-727.418070,-17936.598210
879.836293,-210.568389,-1071.984525,-153.140646
879.838842,-76.570323,-3503.092286,-14701.502054
879.841391,784.845813,-3139.383251,-12136.396227
879.843940,-765.703232,-2756.531635,-2469.392923
879.846489,-38.285162,-7523.034254,-15352.349802
879.849038,-287.138712,-8422.735552,-9762.716208
879.851587,746.560651,-4249.652938,-3043.670347
879.854136,-1799.402595,784.845813,-16539.189811
879.856685,1148.554848,-1225.125171,-8039.883936
879.859234,-153.140646,344.566454,-4517.649069
879.861783,631.705166,-3139.383251,-15180.066574
879.864332,-57.427742,-2986.242605,-8403.592971
879.866881,-976.271621,-4000.799387,-5474.778109
879.869430,38.285162,-8729.016845,-14280.365277
879.871979,-421.136778,-10317.851051,-7389.036189
879.874528,746.560651,-9820.143950,-10700.702667
879.877077,861.416136,-4747.360038,-11925.827838
879.879626,-1837.687757,3215.953574,-7963.313613
879.882175,918.843878,1033.699363,-8250.452325
879.884724,-918.843878,191.425808,-11715.259450
879.887273,-689.132909,-1722.832272,-7542.176835
879.889822,535.992262,-5608.776174,-9016.155557
879.892371,-535.992262,-11121.839445,-11676.974288
879.894922,-57.427742,-9533.005238,-7006.184573
879.897474,153.140646,-4536.791650,-12308.679454
879.900025,-784.845813,-3713.660675,-9169.296203
879.902576,2545.963246,-3943.371645,-6661.618118
879.905127,-1952.543242,3407.379382,-12921.242040
879.907678,344.566454,1493.121302,-10451.849117
879.910229,1071.984525,-4287.938099,-5800.201982
879.912781,-1205.982590,-6451.049730,-10068.997501
879.915332,2143.969050,-10872.985894,-12423.534939
879.917883,-1014.556782,-5570.491013,-6948.756830
879.920434,-1837.687757,-3349.951640,-13323.236237
879.922985,-1244.267752,-1225.125171,-3043.670347
879.925537,937.986459,4766.502619,-23909.083419
879.928088,1339.980656,5895.914886,2048.256146
879.930639,-3005.385186,7140.182638,-5915.057467
879.933190,2182.254211,-1071.984525,-21899.112435
879.935741,535.992262,-3369.094221,-497.707101
879.938293,-1684.547110,-5187.639397,-8633.303941
879.940844,1129.412267,-9934.999435,-19276.578866
879.943395,-1646.261949,-2163.111630,-3158.525832
879.945946,1129.412267,-1071.984525,-10681.560086
879.948497,-344.566454,3751.945837,-14356.935600
879.951049,-306.281293,6068.198114,-2354.537438
879.953600,3790.230998,-1282.552914,-11944.970419
879.956151,-4862.215523,2584.248408,-13304.093656
879.958702,-478.564520,-2756.531635,-6719.045861
879.961253,4077.369710,-7216.752962,-7063.612315
879.963805,-4766.502619,-1569.691626,-14088.939469
879.966356,1799.402595,-4249.652938,-10566.704602
879.968907,1531.406464,172.283227,-5953.342629
879.971458,-2967.100024,3349.951640,-15505.490448
879.974009,2048.256146,976.271621,-6374.479406
879.976560,-325.423874,1473.978722,-6451.049730
879.979112,-746.560651,-899.701298,-12768.101394
879.981663,-899.701298,-1703.689691,-11581.261384
879.984214,-1550.549045,-2354.537438,-6412.764568
879.986765,6049.055533,-7695.317482,-8001.598774
879.989316,-1627.119368,-1473.978722,-10700.702667
879.991868,-3522.234867,3196.810994,-12748.958813
879.994419,4153.940034,-114.855485,-6163.911018
879.996970,-1263.410333,2373.680019,-12978.669782
879.999521,-2048.256146,2488.535504,-5742.774240
880.002072,2373.680019,-3043.670347,-13572.089787
880.004623,-880.558717,-2794.816797,-4498.506488
880.007175,-3962.514226,-1014.556782,-17017.754331
880.009726,3349.951640,-5493.920690,-7810.172966
880.012277,574.277424,-3120.240670,-2488.535504
880.014828,-3388.236802,1531.406464,-19793.428547
880.017379,4632.504554,-1263.410333,-3732.803256
880.019930,-382.851616,2928.814862,-10681.560086
880.022481,-5359.922624,4938.785846,-3751.945837
880.025032,3694.518094,-3981.656806,-18089.738856
880.027584,-1416.550979,-2086.541307,-3656.232933
880.030135,478.564520,-6221.338760,-11351.550414
880.032686,-1416.550979,-2029.113565,-16309.478842
880.035237,-1856.830338,363.709035,478.564520
880.037788,5321.637462,-4077.369710,-15888.342064
880.040339,-4575.076811,4594.219392,-10317.851051
880.042890,2775.674216,-421.136778,-1148.554848
880.045442,-1052.841944,382.851616,-19659.430482
880.047993,-1607.976787,1052.841944,-5379.065205
880.050544,3158.525832,-4613.361973,-6776.473603
880.053095,-823.130974,-3732.803256,-13514.662045
880.055646,-1837.687757,-1244.267752,-8958.727814
880.058197,823.130974,-765.703232,-4938.785846
880.060748,-1818.545176,-459.421939,-15409.777544
880.063299,5072.783912,-2909.672282,-9054.440718
880.065851,-4364.508422,3943.371645,-7044.469734
880.068402,3981.656806,-3330.809059,-17017.754331
880.070953,-2373.680019,842.273555,-5245.067139
880.073504,-689.132909,-1129.412267,-7791.030386
880.076055,5895.914886,-4651.647134,-18013.168533
880.078606,-3866.801322,1761.117434,1512.263883
880.081157,-1339.980656,-1244.267752,-14682.359474
880.083709,1301.695494,-3349.951640,-16998.611750
880.086260,-2258.824534,478.564520,4383.651003
880.088811,-363.709035,267.996131,-17056.039493
880.091362,650.847747,-1129.412267,-17955.740790
880.093913,2871.387120,-2067.398726,7140.182638
880.096464,-4173.082614,1339.980656,-19276.578866
880.099014,2641.676150,-3081.955509,-12002.398162
880.101564,-382.851616,-95.712904,-325.423874
880.104114,3426.521963,-3043.670347,-19831.713709
880.106664,-4594.219392,2871.387120,-5283.352301
880.109214,2526.820666,-1244.267752,-3943.371645
880.111764,-2316.252277,-1799.402595,-20539.989198
880.114313,-1320.838075,516.849682,-5647.061336
880.116863,4536.791650,-4862.215523,-2660.818731
880.119413,-3847.658741,1052.841944,-19544.574997
880.121963,1665.404530,-1722.832272,-6546.762634
880.124513,401.994197,-1110.269686,-3675.375514
880.127063,-842.273555,229.710970,-20003.996936
880.129613,2009.970984,-1454.836141,-4709.074877
880.132163,-3541.377448,2833.101958,-5589.633594
880.134713,1071.984525,-2928.814862,-16577.474973
880.137262,-669.990328,-2316.252277,-5781.059402
880.139812,803.988394,-1110.269686,-11868.400096
880.142362,-1550.549045,478.564520,-15773.486579
880.144912,1263.410333,344.566454,-1703.689691
880.147462,19.142581,-401.994197,-12882.956878
880.150012,937.986459,-2603.390989,-10279.565890
880.152562,-2775.674216,421.136778,-7925.028451
880.155112,5264.209720,-5972.485210,-8729.016845
880.157662,-7063.612315,2699.103893,-11906.685258
880.160211,5417.350366,-3924.229064,-7006.184573
880.162761,-535.992262,-976.271621,-7159.325219
880.165311,-3158.525832,3024.527766,-15428.920125
880.167861,1301.695494,-861.416136,-7101.897477
880.170411,-1071.984525,2143.969050,-9054.440718
880.172961,401.994197,-1493.121302,-13399.806560
880.175511,823.130974,-3637.090352,-2660.818731
880.178061,-2871.387120,-1914.258080,-15084.353670
880.180611,3464.807125,-5417.350366,-6546.762634
880.183161,-2316.252277,1875.972918,-10566.704602
880.185710,3215.953574,-57.427742,-4957.928427
880.188260,-2220.539373,3235.096155,-11772.687192
880.190810,803.988394,306.281293,-14222.937534
880.193360,727.418070,-861.416136,-4766.502619
880.195910,-3158.525832,1435.693560,-11830.114934
880.198460,3943.371645,-6374.479406,-9915.856854
880.200940,-2086.541307,-3139.383251,-6240.481341
880.203421,-5436.492947,-784.845813,-8135.596840
880.205901,4785.645200,-4900.500685,-24655.644070
880.208381,784.845813,2622.533570,153.140646
880.210861,-2967.100024,6144.768437,-4287.938099
880.213341,2603.390989,-248.853550,-24464.218262
880.215821,-1665.404530,2105.683888,-4000.799387
880.218301,3349.951640,-4307.080680,-9131.011042
880.220782,-4785.645200,-1435.693560,-22205.393728
880.223262,3177.668413,-5398.207786,1799.402595
880.225742,516.849682,-4173.082614,-6642.475538
880.228222,-3751.945837,593.420005,-22913.669218
880.230702,3694.518094,-1129.412267,325.423874
880.233182,-2526.820666,4441.078746,-9954.142016
880.235662,459.421939,1837.687757,-17324.035624
880.238143,765.703232,210.568389,-3771.088418
880.240623,-1263.410333,-363.709035,-6125.625856
880.243103,2794.816797,-7255.038123,-18644.873699
880.245583,-3866.801322,-631.705166,-6546.762634
880.248063,459.421939,-2469.392923,-5474.778109
880.250543,3771.088418,-4249.652938,-16156.338195
880.253023,-4441.078746,3503.092286,-6144.768437
880.255504,4689.932296,-1110.269686,-5627.918755
880.257984,-3043.670347,4153.940034,-20827.127910
880.260464,-3235.096155,4575.076811,9399.007173
880.262944,4900.500685,-6853.043926,-20999.411138
880.265424,-4632.504554,-1473.978722,-11274.980091
880.267904,2813.959378,-6278.766502,2335.394858
880.270384,-842.273555,-2928.814862,-23487.946642
880.272865,-1493.121302,325.423874,-7982.456194
880.275345,2813.959378,-650.847747,-1588.834206
880.277825,-1952.543242,3407.379382,-15103.496251
880.280305,5857.629725,-2086.541307,-11523.833642
880.282785,-7255.038123,6642.475538,-1435.693560
880.285265,3560.520029,-2871.387120,-14261.222696
880.287745,-1339.980656,-2526.820666,-13552.947206
880.290226,1014.556782,-5111.069074,-5570.491013
880.292706,344.566454,-5742.774240,-20444.276294
880.295186,-2967.100024,1397.408398,-1301.695494
880.297666,3981.656806,-2775.674216,-10604.989763
880.300165,-1301.695494,2297.109696,-12212.966550
880.302664,727.418070,2182.254211,-7101.897477
880.305162,3809.373579,-1588.834206,-6623.332957
880.307661,-10815.558152,7063.612315,-19334.006608
880.310160,12902.099459,-10470.991698,1454.836141
880.312659,-8977.870395,1378.265818,-16347.764003
880.315157,2526.820666,-4421.936165,-8537.591037
880.317656,382.851616,-4173.082614,-4192.225195
880.320155,-2335.394858,1167.697429,-14299.507858
880.322654,2928.814862,-1454.836141,-10566.704602
880.325153,-2277.967115,4421.936165,-2411.965181
880.327651,1952.543242,-421.136778,-16194.623357
880.330150,-1780.260014,-153.140646,-6699.903280
880.332649,5436.492947,-4843.072942,-191.425808
880.335148,-7963.313613,-76.570323,-30723.842184
880.337646,803.988394,-918.843878,2297.109696
880.340145,4498.506488,-4766.502619,-2603.390989
880.342644,-4402.793584,1129.412267,-20827.127910
880.345143,1971.685822,-1244.267752,-5857.629725
880.347642,-306.281293,-38.285162,-3464.807125
880.350140,-1971.685822,1512.263883,-22607.387925
880.352639,-325.423874,555.134843,-4192.225195
880.355138,803.988394,-1971.685822,746.560651
880.357637,-2756.531635,-2354.537438,-26072.195050
880.360136,153.140646,-2737.389054,-2641.676150
880.362634,-765.703232,574.277424,-5015.356170
880.365133,191.425808,-1397.408398,-15218.351736
880.367632,-2182.254211,306.281293,-4536.791650
880.370131,2622.533570,-2316.252277,-8882.157491
880.372629,-3158.525832,-114.855485,-14931.213024
880.375128,4096.512291,-2143.969050,-8288.737486
880.377627,-1052.841944,-631.705166,-4096.512291
880.380126,-516.849682,-1033.699363,-17860.027886
880.382625,-114.855485,-918.843878,-6680.760699
880.385123,746.560651,-1282.552914,-6393.621987
880.387622,-2718.246474,2660.818731,-16902.898846
880.390121,2526.820666,880.558717,-5934.200048
880.392620,153.140646,3445.664544,-6814.758765
880.395118,-2373.680019,4766.502619,-14146.367211
880.397617,1703.689691,3120.240670,-13629.517530
880.400130,4594.219392,1052.841944,-593.420005
880.402642,-9590.432981,7963.313613,-18491.733053
880.405154,5589.633594,-1473.978722,-1684.547110
880.407667,-1684.547110,669.990328,-10624.132344
880.410179,-1454.836141,2239.681954,-17783.457563
880.412692,2029.113565,-306.281293,-3617.947771
880.415204,-2947.957443,612.562586,-7542.176835
880.417716,2775.674216,1435.693560,-18032.311114
880.420229,-899.701298,6642.475538,-3215.953574
880.422741,-669.990328,4766.502619,-10298.708470
880.425254,459.421939,1933.400661,-14452.648504
880.427766,-555.134843,4096.512291,-4211.367776
880.430278,708.275490,-803.988394,-11849.257515
880.432791,-1014.556782,-516.849682,-14682.359474
880.435303,287.138712,-363.709035,-2718.246474
880.437816,-267.996131,1646.261949,-12997.812363
880.440328,-555.134843,3790.230998,-7293.323285
880.442840,784.845813,3330.809059,-6967.899411
880.445353,-861.416136,3349.951640,-14261.222696
880.447865,918.843878,-1588.834206,-7484.749093
880.450378,-555.134843,-555.134843,-8116.454259
880.452890,-421.136778,-937.986459,-13629.517530
880.455402,57.427742,-114.855485,-7235.895542
880.457915,-57.427742,1301.695494,-8671.589102
880.460427,306.281293,5015.356170,-13552.947206
880.462940,-19.142581,8116.454259,-6010.770371
880.465452,229.710970,11198.409768,-10834.700733
880.467964,-325.423874,7255.038123,-11236.694930
880.470477,574.277424,1493.121302,-7657.032320
880.472989,38.285162,-1684.547110,-8805.587168
880.475502,-1186.840010,-4287.938099,-12595.818166
880.478014,650.847747,-6125.625856,-5589.633594
880.480527,-1301.695494,191.425808,-10222.138147
880.483039,229.710970,4460.221326,-13572.089787
880.485551,363.709035,9092.725880,-6125.625856
880.488064,-57.427742,10700.702667,-11198.409768
880.490576,-2143.969050,7676.174901,-15562.918190
880.493089,76.570323,1646.261949,-918.843878
880.495601,5608.776174,-6470.192310,-8709.874264
880.498113,-3675.375514,-2890.529701,-15180.066574
880.500636,-287.138712,-4689.932296,-11351.550414
880.503158,1875.972918,-1225.125171,-1033.699363
880.505680,-1531.406464,5532.205851,-18778.871765
880.508203,1359.123237,6183.053598,-9379.864592
880.510725,-823.130974,8250.452325,-3541.377448
880.513247,76.570323,3675.375514,-18357.734987
880.515770,-478.564520,-2603.390989,-6585.047795
880.518292,784.845813,-6738.188442,-7791.030386
880.520814,-861.416136,-8977.870395,-15103.496251
880.523337,19.142581,-5742.774240,-7580.461997
880.525859,210.568389,-2603.390989,-9284.151688
880.528381,-153.140646,1780.260014,-11600.403965
880.530904,-784.845813,5608.776174,-9915.856854
880.533426,3139.383251,3349.951640,-6604.190376
880.535948,-3215.953574,5398.207786,-13112.667848
880.538471,344.566454,-1454.836141,-10796.415571
880.540993,1933.400661,-6163.911018,-5704.489078
880.543515,-3943.371645,-4249.652938,-11408.978157
880.546038,2431.107762,-8288.737486,-11868.400096
880.548560,-516.849682,-2488.535504,-9284.151688
880.551082,-95.712904,937.986459,-11428.120738
880.553604,727.418070,2986.242605,-10815.558152
880.556127,-516.849682,4651.647134,-6451.049730
880.558649,1110.269686,497.707101,-10375.278794
880.561171,-2488.535504,1263.410333,-13610.374949
880.563694,5264.209720,-6604.190376,-6604.190376
880.566216,-6489.334891,-478.564520,-4230.510357
880.568738,6623.332957,-9705.288466,-18338.592406
880.571261,-3637.090352,-1148.554848,-6680.760699
880.573783,555.134843,631.705166,-6010.770371
880.576305,1914.258080,-325.423874,-18338.592406
880.578828,-3101.098090,6719.045861,-6776.473603
880.581350,3694.518094,153.140646,-5532.205851
880.583872,-1684.547110,76.570323,-13227.523333
880.586395,-95.712904,-1646.261949,-12653.245909
880.588917,3024.527766,-4919.643266,-8518.448456
880.591439,-13706.087853,3215.953574,-10164.710405
880.593962,14433.505923,-12480.962682,-17898.313048
880.596484,-4019.941968,1186.840010,2928.814862
880.599006,-5474.778109,5627.918755,-16558.332392
880.601538,8786.444587,-4058.227130,-11562.118803
880.604069,-7025.327154,7676.174901,-918.843878
880.606600,3694.518094,-1512.263883,-13189.238171
880.609132,1014.556782,-4364.508422,-15735.201418
880.611663,-4843.072942,1186.840010,-1263.410333
880.614194,3732.803256,-5532.205851,-14471.791085
880.616726,-4211.367776,-937.986459,-11696.116869
880.619257,5398.207786,-5398.207786,-6929.614250
880.621789,-1550.549045,440.279358,-7178.467800
880.624320,-2584.248408,3273.381317,-14605.789150
880.626851,2565.105827,191.425808,-3943.371645
880.629383,650.847747,-1320.838075,-2392.822600
880.631914,-5570.491013,669.990328,-35069.208026
880.634445,1014.556782,-516.849682,6527.620053
880.636977,918.843878,-1933.400661,-9437.292334
880.639508,-4307.080680,1895.115499,-21305.692430
880.642039,5895.914886,-4268.795518,2852.244539
880.644571,631.705166,-3617.947771,-9418.149754
880.647102,-4862.215523,2105.683888,-15792.629160
880.649633,6317.051664,-2852.244539,-5283.352301
880.652165,-2526.820666,555.134843,-4555.934230
880.654696,-746.560651,229.710970,-25995.624726
880.657227,1627.119368,-1378.265818,-2526.820666
880.659759,-593.420005,516.849682,-1167.697429
880.662290,-1244.267752,-1971.685822,-23239.093091
880.664821,-995.414202,-899.701298,4000.799387
880.667353,3369.094221,-3349.951640,-11964.113000
880.669884,-2297.109696,-57.427742,-15639.488514
880.672416,-95.712904,937.986459,2067.398726
880.674947,3522.234867,-1761.117434,-16577.474973
880.677478,-3943.371645,1435.693560,-11830.114934
880.680010,76.570323,861.416136,-3962.514226
880.682541,2737.389054,-3847.658741,-9437.292334
880.685072,-3139.383251,76.570323,-14222.937534
880.687604,2526.820666,-3292.523898,-5761.916821
880.690135,-3617.947771,-1244.267752,-9762.716208
880.692666,3675.375514,-3483.949706,-17764.314982
880.695198,-937.986459,1244.267752,-478.564520
880.697729,-516.849682,1933.400661,-11925.827838
880.700260,4326.223261,-2718.246474,-11734.402030
880.702797,-6795.616184,3885.943902,-5551.348432
880.705334,3656.232933,-3905.086483,-15180.066574
880.707870,306.281293,-3369.094221,-5800.201982
880.710407,-1990.828403,-1263.410333,-10777.272990
880.712944,2048.256146,-3043.670347,-10758.130410
880.715480,-4670.789715,1110.269686,-8939.585234
880.718017,5551.348432,-2794.816797,-12997.812363
880.720554,-3866.801322,3560.520029,-5647.061336
880.723090,2373.680019,421.136778,-8920.442653
880.725627,325.423874,172.283227,-11504.691061
880.728164,-4115.654872,1091.127106,-9686.145885
880.730701,2163.111630,-3522.234867,-9284.151688
880.733237,689.132909,-4307.080680,-9399.007173
880.735774,-2469.392923,-957.129040,-11466.405899
880.738311,2833.101958,-3235.096155,-6642.475538
880.740847,-3656.232933,861.416136,-13304.093656
880.743384,5436.492947,-1665.404530,-8652.446522
880.745921,-5111.069074,5111.069074,-4192.225195
880.748457,3522.234867,-1914.258080,-15390.634963
880.750994,-516.849682,38.285162,-8461.020714
880.753531,-4039.084549,1167.697429,-4785.645200
880.756067,5321.637462,-6068.198114,-16615.760134
880.758604,-3445.664544,-1646.261949,-9131.011042
880.761141,1033.699363,-1665.404530,-4938.785846
880.763677,1167.697429,-2048.256146,-12844.671717
880.766214,-6585.047795,3369.094221,-10796.415571
880.768751,8288.737486,-4173.082614,-7829.315547
880.771287,-5800.201982,3771.088418,-8307.880067
880.773824,2488.535504,-593.420005,-14356.935600
880.776361,-535.992262,172.283227,-5647.061336
880.778897,2029.113565,-3120.240670,-7982.456194
880.781434,-287.138712,-3254.238736,-14414.363342
880.783971,-2201.396792,-1378.265818,-8882.157491
880.786507,2622.533570,-3120.240670,-7101.897477
880.789044,-2182.254211,-76.570323,-12040.683323
880.791581,-2699.103893,401.994197,-9628.718142
880.794118,5436.492947,-2641.676150,-9418.149754
880.796654,-4919.643266,3981.656806,-7312.465866
880.799191,1818.545176,459.421939,-14031.511726
880.801728,-1818.545176,1627.119368,-8843.872330
880.804214,-803.988394,-516.849682,248.853550
880.806701,6623.332957,-7867.600709,-18376.877568
880.809187,-9896.714274,1454.836141,-9475.577496
880.811673,4019.941968,-5072.783912,-5915.057467
880.814160,1914.258080,-2986.242605,-13552.947206
880.816646,-4230.510357,2239.681954,-7925.028451
880.819133,7427.321350,-3043.670347,-10241.280728
880.821619,-6699.903280,5915.057467,-6833.901346
880.824106,3158.525832,114.855485,-15333.207221
880.826592,9073.583299,-8039.883936,6278.766502
880.829079,-6833.901346,-1186.840010,-23200.807930
880.831565,-1052.841944,-3732.803256,-15620.345933
880.834052,-1416.550979,-363.709035,13227.523333
880.836538,-842.273555,1588.834206,-28445.875069
880.839025,1186.840010,-1186.840010,-14222.937534
880.841511,-2258.824534,3464.807125,7791.030386
880.843998,4058.227130,-2852.244539,-18204.594341
880.846484,-2813.959378,-344.566454,-16405.191746
880.848971,2488.535504,-823.130974,2641.676150
880.851457,-2871.387120,1033.699363,-21209.979526
880.853944,-1473.978722,-1378.265818,-8327.022648
880.856430,4192.225195,-2220.539373,210.568389
880.858917,-6604.190376,2813.959378,-20922.840814
880.861403,3637.090352,-708.275490,-9437.292334
880.863890,-153.140646,325.423874,2182.254211
880.866376,-1397.408398,38.285162,-20386.848552
880.868863,2182.254211,-3617.947771,-8786.444587
880.871349,-3809.373579,1359.123237,-3292.523898
880.873835,1684.547110,-1339.980656,-18721.444022
880.876322,3292.523898,-4804.787781,-3235.096155
880.878808,-5053.641331,2316.252277,-12212.966550
880.881295,3885.943902,-3617.947771,-9686.145885
880.883781,-2316.252277,1052.841944,-6967.899411
880.886268,803.988394,248.853550,-12902.099459
880.888754,-1320.838075,976.271621,-6987.041992
880.891241,-2373.680019,1186.840010,-9284.151688
880.893727,3503.092286,-5513.063270,-10892.128475
880.896214,-4153.940034,-497.707101,-7714.460062
880.898700,2852.244539,-3522.234867,-12423.534939
880.901187,-2813.959378,-497.707101,-9743.573627
880.903691,2469.392923,76.570323,-7829.315547
880.906194,1282.552914,803.988394,-8116.454259
880.908698,-3541.377448,3407.379382,-11466.405899
880.911202,4345.365842,-2258.824534,-12882.956878
880.913706,-4000.799387,1244.267752,-4479.363907
880.916210,172.283227,-3905.086483,-11140.982026
880.918714,2431.107762,-6470.192310,-12346.964616
880.921218,-3656.232933,38.285162,-3771.088418
880.923721,3196.810994,-3943.371645,-14892.927862
880.926225,-2411.965181,2718.246474,-7140.182638
880.928729,1722.832272,1320.838075,-6029.912952
880.931233,-5053.641331,2603.390989,-17056.039493
880.933737,6642.475538,-6029.912952,-4823.930362
880.936241,-1244.267752,784.845813,-12155.538808
880.938744,-7255.038123,2928.814862,-13954.941403
880.941248,6565.905214,-6029.912952,-2143.969050
880.943752,-3407.379382,-363.709035,-12902.099459
880.946256,-1225.125171,-1244.267752,-10949.556218
880.948760,3196.810994,-3215.953574,-7982.456194
880.951264,-3503.092286,1990.828403,-10183.852986
880.953767,1665.404530,440.279358,-12997.812363
880.956271,-880.558717,1301.695494,-5532.205851
880.958775,1033.699363,-976.271621,-6144.768437
880.961279,-95.712904,-3426.521963,-18836.299507
880.963783,38.285162,-1741.974853,689.132909
880.966287,3675.375514,-4307.080680,-14739.787216
880.968791,-5187.639397,2009.970984,-11523.833642
880.971294,3445.664544,-1875.972918,-3751.945837
880.973798,-1339.980656,861.416136,-14490.933666
880.976302,-1033.699363,-267.996131,-10394.421374
880.978806,727.418070,-3005.385186,-8116.454259
880.981310,344.566454,-6068.198114,-4287.938099
880.983814,612.562586,-8097.311678,-16347.764003
880.986317,-1167.697429,-6451.049730,-6393.621987
880.988821,-1014.556782,-5570.491013,-7312.465866
880.991325,1990.828403,-5895.914886,-17247.465301
880.993829,-2450.250342,153.140646,-842.273555
880.996333,1837.687757,-899.701298,-11198.409768
880.998837,-421.136778,0.000000,-12212.966550
881.001341,-440.279358,-459.421939,-6527.620053
