#time,accel_x,accel_y,accel_z
171.531420,2757.943793,-592.164754,9548.656652
171.531728,2451.505594,-518.144159,9844.739029
171.532036,2757.943793,-1110.308913,9770.718434
171.532344,2451.505594,-518.144159,9548.656652
171.532652,2757.943793,-444.123565,9400.615463
171.532960,3064.381992,-0.000000,9252.574275
171.533268,3217.601092,592.164754,9326.594869
171.533576,4443.353888,222.061783,10214.842000
171.533884,3524.039291,814.226536,8512.368333
171.534192,3677.258390,888.247130,8438.347739
171.534500,3524.039291,592.164754,8586.388927
171.534808,3217.601092,1184.329507,9252.574275
171.535116,2911.162892,962.267725,9696.697840
171.535424,2451.505594,740.205942,9622.677246
171.535732,2221.676944,148.041188,10140.821405
171.536039,2145.067394,-444.123565,10140.821405
171.536347,2221.676944,-444.123565,11251.130318
171.536655,2298.286494,-1406.391290,11547.212695
171.536963,2145.067394,-1406.391290,11769.274478
171.537271,1762.019645,-1184.329507,11547.212695
171.537579,2451.505594,-1258.350101,11251.130318
171.537887,2911.162892,-592.164754,10214.842000
171.538195,3217.601092,-0.000000,9770.718434
171.538503,4519.963438,-0.000000,9548.656652
171.538811,4443.353888,-0.000000,9104.533087
171.539119,4826.401637,222.061783,9252.574275
171.539427,4903.011187,444.123565,8882.471304
171.539735,4903.011187,888.247130,8364.327145
171.540043,5362.668486,962.267725,8068.244768
171.540351,5286.058936,1110.308913,8068.244768
171.540659,5362.668486,1258.350101,8216.285956
171.540967,5209.449386,888.247130,7698.141797
171.541275,4826.401637,888.247130,8364.327145
171.541583,4979.620737,1036.288319,8660.409521
171.541891,4903.011187,740.205942,8290.306550
171.542199,4979.620737,1258.350101,8660.409521
171.542507,4826.401637,1110.308913,9030.512492
171.542815,4519.963438,962.267725,9400.615463
171.543122,3983.696590,740.205942,9474.636058
171.543430,4060.306139,592.164754,10140.821405
171.543738,3524.039291,444.123565,10140.821405
171.544046,2681.334243,444.123565,10362.883188
171.544354,2911.162892,222.061783,11029.068536
171.544662,2604.724693,370.102971,10584.944971
171.544970,2451.505594,444.123565,10362.883188
171.545278,2451.505594,666.185348,10288.862594
171.545586,2528.115143,962.267725,10288.862594
171.545894,2528.115143,962.267725,9696.697840
171.546202,2757.943793,814.226536,9770.718434
171.546510,2298.286494,814.226536,9696.697840
171.546818,1915.238745,444.123565,9918.759623
171.547126,1762.019645,296.082377,9770.718434
171.547434,1532.190996,-0.000000,9696.697840
171.547742,1302.362347,-0.000000,10066.800811
171.548050,1149.143247,-222.061783,9918.759623
171.548358,1302.362347,-518.144159,10140.821405
171.548666,1378.971896,-666.185348,9622.677246
171.548974,1149.143247,-592.164754,9918.759623
171.549282,842.705048,-666.185348,9696.697840
171.549590,1608.800546,-1036.288319,9474.636058
171.549898,1838.629195,-814.226536,9030.512492
171.550205,1915.238745,-814.226536,9104.533087
171.550513,1762.019645,-592.164754,9178.553681
171.550821,2298.286494,-888.247130,8956.491898
171.551129,1915.238745,-740.205942,9178.553681
171.551437,1532.190996,-888.247130,9178.553681
171.551745,1455.581446,-666.185348,9474.636058
171.552053,1838.629195,-666.185348,9400.615463
171.552361,1915.238745,-444.123565,9474.636058
171.552669,1838.629195,-148.041188,9474.636058
171.552977,1685.410096,296.082377,9326.594869
171.553285,1608.800546,-0.000000,9474.636058
171.553593,1991.848295,296.082377,9326.594869
171.553901,1532.190996,222.061783,9178.553681
171.554209,1072.533697,814.226536,9474.636058
171.554517,995.924147,888.247130,9548.656652
171.554825,766.095498,1110.308913,9474.636058
171.555133,842.705048,1554.432478,9400.615463
171.555441,1149.143247,1924.535449,9030.512492
171.555749,1532.190996,2146.597232,9104.533087
171.556057,1149.143247,2368.659014,9252.574275
171.556365,1149.143247,2664.741391,9178.553681
171.556673,1225.752797,2664.741391,9400.615463
171.556981,919.314598,2368.659014,9548.656652
171.557288,383.047749,1480.411884,9696.697840
171.557596,-229.828649,962.267725,9918.759623
171.557904,-383.047749,-296.082377,10732.986159
171.558212,-1685.410096,-1554.432478,11621.233289
171.558520,-1838.629195,-2146.597232,12657.521608
171.558828,-2681.334243,-2442.679609,12361.439231
171.559136,-2987.772442,-3256.906145,12731.542202
171.559444,-2374.896044,-2812.782580,12139.377449
171.559752,-1608.800546,-2516.700203,11399.171507
171.560060,-229.828649,-1850.514855,10510.924376
171.560368,995.924147,-1332.370696,9104.533087
171.560676,1685.410096,-370.102971,8808.450710
171.560984,2221.676944,518.144159,7846.182985
171.561292,3140.991542,1110.308913,7920.203579
171.561600,3140.991542,740.205942,7254.018232
171.561908,3217.601092,740.205942,7179.997637
171.562216,2987.772442,666.185348,7179.997637
171.562524,2528.115143,222.061783,7476.080014
171.562832,2911.162892,592.164754,7698.141797
171.563140,2528.115143,518.144159,7476.080014
171.563447,1991.848295,592.164754,8290.306550
171.563755,2528.115143,962.267725,8586.388927
171.564063,1991.848295,2146.597232,8142.265362
171.564371,1838.629195,1924.535449,8808.450710
171.564679,995.924147,2146.597232,8882.471304
171.564987,766.095498,2516.700203,9918.759623
171.565295,229.828649,1998.556043,9622.677246
171.565603,-536.266849,1998.556043,9622.677246
171.565910,-459.657299,962.267725,11251.130318
171.566218,-1991.848295,296.082377,12361.439231
171.566526,-3217.601092,-962.267725,12287.418637
171.566834,-3830.477490,-1998.556043,13175.665768
171.567142,-4443.353888,-2590.720797,13767.830521
171.567450,-4366.744339,-3404.947333,13693.809927
171.567758,-3447.429741,-3182.885551,12583.501014
171.568066,-2451.505594,-2442.679609,12435.459826
171.568374,-842.705048,-1480.411884,11325.150913
171.568681,612.876398,-444.123565,10140.821405
171.568989,1149.143247,1184.329507,8438.347739
171.569297,2528.115143,1554.432478,8438.347739
171.569605,2911.162892,1776.494261,7772.162391
171.569913,2681.334243,2072.576638,6957.935855
171.570221,2911.162892,1184.329507,7254.018232
171.570529,2757.943793,740.205942,7254.018232
171.570837,2221.676944,370.102971,7920.203579
171.571144,1762.019645,-0.000000,7994.224174
171.571452,1608.800546,-666.185348,8216.285956
171.571760,1149.143247,-1184.329507,8956.491898
171.572068,612.876398,-888.247130,8956.491898
171.572376,842.705048,-1036.288319,8808.450710
171.572684,995.924147,-740.205942,9104.533087
171.572992,842.705048,222.061783,9326.594869
171.573300,919.314598,1406.391290,8808.450710
171.573607,1991.848295,2294.638420,8290.306550
171.573915,1838.629195,2812.782580,8068.244768
171.574223,1762.019645,2886.803174,8808.450710
171.574531,1149.143247,2220.617826,9622.677246
171.574839,0.000000,1184.329507,10362.883188
171.575147,-689.485948,-0.000000,11325.150913
171.575455,-1532.190996,-1554.432478,12139.377449
171.575763,-2298.286494,-2442.679609,13249.686362
171.576071,-2221.676944,-3404.947333,13027.624579
171.576378,-2068.457845,-3108.864956,12657.521608
171.576686,-1608.800546,-2590.720797,12213.398043
171.576994,-383.047749,-2294.638420,11473.192101
171.577302,766.095498,-1258.350101,10807.006753
171.577610,2374.896044,-222.061783,9770.718434
171.577918,2451.505594,1406.391290,8290.306550
171.578226,3677.258390,1850.514855,7994.224174
171.578534,4979.620737,2738.761985,7920.203579
171.578841,4366.744339,3478.967927,6365.771101
171.579149,4443.353888,3182.885551,7105.977043
171.579457,3983.696590,2220.617826,7402.059420
171.579765,3064.381992,1332.370696,8142.265362
171.580073,2451.505594,148.041188,8438.347739
171.580381,2451.505594,-814.226536,8808.450710
171.580689,1608.800546,-814.226536,9400.615463
171.580997,1225.752797,-74.020594,9178.553681
171.581304,1685.410096,-0.000000,9252.574275
171.581612,1762.019645,1036.288319,8882.471304
171.581920,1838.629195,1554.432478,8882.471304
171.582228,1455.581446,2220.617826,8364.327145
171.582536,1455.581446,2146.597232,9178.553681
171.582844,766.095498,1924.535449,9770.718434
171.583152,459.657299,1332.370696,10140.821405
171.583460,0.000000,962.267725,10510.924376
171.583768,-1608.800546,-0.000000,10955.047942
171.584075,-2068.457845,-1184.329507,12361.439231
171.584383,-2757.943793,-1850.514855,12509.480420
171.584691,-3140.991542,-2664.741391,12361.439231
171.584999,-2757.943793,-2812.782580,12879.583391
171.585307,-1838.629195,-3182.885551,11991.336260
171.585615,-995.924147,-2294.638420,11325.150913
171.585923,0.000000,-1258.350101,10584.944971
171.586231,1302.362347,-0.000000,9770.718434
171.586538,2145.067394,1036.288319,8660.409521
171.586846,2528.115143,1628.453072,7920.203579
171.587154,2911.162892,2146.597232,7550.100608
171.587462,3217.601092,1924.535449,7550.100608
171.587770,3447.429741,1480.411884,7624.121203
171.588078,2068.457845,962.267725,7920.203579
171.588386,1225.752797,-0.000000,8364.327145
171.588694,459.657299,-444.123565,8734.430116
171.589002,153.219100,-888.247130,9178.553681
171.589309,0.000000,-1258.350101,9326.594869
171.589617,-536.266849,-1036.288319,9918.759623
171.589925,-995.924147,-666.185348,9474.636058
171.590233,-536.266849,296.082377,9548.656652
171.590541,306.438199,888.247130,9030.512492
171.590849,383.047749,1850.514855,8808.450710
171.591157,612.876398,2812.782580,8734.430116
171.591465,612.876398,3108.864956,8586.388927
171.591772,689.485948,2886.803174,8882.471304
171.592080,0.000000,2146.597232,9178.553681
171.592388,-689.485948,592.164754,10066.800811
171.592696,-1608.800546,-518.144159,10955.047942
171.593004,-2528.115143,-2368.659014,11695.253884
171.593312,-2987.772442,-2886.803174,12435.459826
171.593620,-3370.820191,-3404.947333,12139.377449
171.593928,-2757.943793,-3404.947333,11843.295072
171.594235,-1915.238745,-2812.782580,11695.253884
171.594543,-919.314598,-2294.638420,11029.068536
171.594851,153.219100,-1554.432478,10140.821405
171.595159,1302.362347,-296.082377,9252.574275
171.595467,1915.238745,666.185348,8586.388927
171.595775,3140.991542,1554.432478,9104.533087
171.596083,3600.648841,2146.597232,7994.224174
171.596391,3217.601092,2146.597232,7179.997637
171.596699,3370.820191,1628.453072,7402.059420
171.597006,2757.943793,1110.308913,7698.141797
171.597314,2298.286494,222.061783,8290.306550
171.597622,1915.238745,-444.123565,8734.430116
171.597930,1915.238745,-296.082377,8882.471304
171.598238,1455.581446,-666.185348,8808.450710
171.598546,1532.190996,370.102971,8512.368333
171.598854,2068.457845,814.226536,8956.491898
171.599162,1915.238745,1406.391290,9178.553681
171.599469,1455.581446,1998.556043,9252.574275
171.599777,1455.581446,2368.659014,9474.636058
171.600085,1149.143247,2516.700203,9992.780217
171.600393,153.219100,2442.679609,10288.862594
171.600701,383.047749,1776.494261,10732.986159
171.601009,-919.314598,666.185348,11251.130318
171.601317,-1608.800546,-0.000000,11399.171507
171.601625,-2221.676944,-962.267725,12287.418637
171.601933,-2068.457845,-1776.494261,12287.418637
171.602240,-2068.457845,-2072.576638,11991.336260
171.602548,-2145.067394,-2220.617826,11769.274478
171.602856,-1302.362347,-1702.473667,11843.295072
171.603164,76.609550,-1406.391290,10732.986159
171.603472,1149.143247,-222.061783,10066.800811
171.603780,2374.896044,592.164754,9400.615463
171.604088,2757.943793,1554.432478,8068.244768
171.604396,3830.477490,2220.617826,7920.203579
171.604703,4443.353888,1998.556043,7846.182985
171.605011,3370.820191,1850.514855,7476.080014
171.605319,3983.696590,666.185348,7920.203579
171.605627,2987.772442,444.123565,8068.244768
171.605935,1685.410096,-370.102971,8438.347739
171.606243,1225.752797,-888.247130,8734.430116
171.606551,1225.752797,-1332.370696,9474.636058
171.606859,1072.533697,-1480.411884,9252.574275
171.607166,1072.533697,-1258.350101,9252.574275
171.607474,1455.581446,-0.000000,9622.677246
171.607782,1608.800546,222.061783,9326.594869
171.608090,1455.581446,1628.453072,8438.347739
171.608398,1991.848295,2812.782580,8142.265362
171.608706,2221.676944,3034.844362,8068.244768
171.609014,1455.581446,3108.864956,8068.244768
171.609322,1378.971896,2516.700203,9030.512492
171.609630,229.828649,1332.370696,9770.718434
171.609937,-383.047749,-0.000000,10732.986159
171.610245,-1608.800546,-1184.329507,11399.171507
171.610553,-2681.334243,-2442.679609,12213.398043
171.610861,-3294.210641,-3182.885551,12435.459826
171.611169,-3524.039291,-3256.906145,12435.459826
171.611477,-2757.943793,-3256.906145,12657.521608
171.611785,-1762.019645,-3108.864956,12213.398043
171.612093,-842.705048,-1850.514855,11695.253884
171.612400,229.828649,-888.247130,10362.883188
171.612708,1378.971896,370.102971,9474.636058
171.613016,2528.115143,1628.453072,8068.244768
171.613324,3064.381992,2368.659014,7105.977043
171.613632,3907.087040,2738.761985,7402.059420
171.613940,3370.820191,2738.761985,6661.853478
171.614248,2987.772442,1776.494261,6735.874072
171.614556,2451.505594,1036.288319,7328.038826
171.614863,1532.190996,444.123565,7920.203579
171.615171,689.485948,-592.164754,8660.409521
171.615479,689.485948,-296.082377,8734.430116
171.615787,383.047749,-296.082377,9178.553681
171.616095,306.438199,-148.041188,9326.594869
171.616403,612.876398,222.061783,9622.677246
171.616711,0.000000,1184.329507,10066.800811
171.617019,306.438199,1110.308913,10288.862594
171.617327,76.609550,1406.391290,10214.842000
171.617634,0.000000,1628.453072,10732.986159
171.617942,-612.876398,1258.350101,10881.027347
171.618250,-1149.143247,1110.308913,10584.944971
171.618558,-1608.800546,-0.000000,11103.089130
171.618866,-2298.286494,-814.226536,11843.295072
171.619174,-2757.943793,-1776.494261,11695.253884
171.619482,-3064.381992,-2368.659014,12065.356855
171.619790,-3217.601092,-2886.803174,12287.418637
171.620097,-2374.896044,-2072.576638,11399.171507
171.620405,-1225.752797,-1406.391290,11103.089130
171.620713,229.828649,-666.185348,10214.842000
171.621021,1225.752797,148.041188,9252.574275
171.621329,2451.505594,1184.329507,8586.388927
171.621637,2757.943793,1702.473667,7920.203579
171.621945,2528.115143,2220.617826,8882.471304
171.622253,2834.553343,2220.617826,7994.224174
171.622561,2528.115143,1480.411884,8142.265362
171.622868,2451.505594,740.205942,8364.327145
171.623176,1762.019645,296.082377,8216.285956
171.623484,1302.362347,-370.102971,8956.491898
171.623792,1072.533697,-1036.288319,9104.533087
171.624100,1378.971896,-1480.411884,9474.636058
171.624408,459.657299,-1110.308913,9474.636058
171.624716,919.314598,-740.205942,9326.594869
171.625024,1225.752797,296.082377,9474.636058
171.625331,1302.362347,740.205942,8882.471304
171.625639,1685.410096,1998.556043,8734.430116
171.625947,2068.457845,3108.864956,8216.285956
171.626255,1991.848295,3330.926739,8364.327145
171.626563,1532.190996,2960.823768,8586.388927
171.626871,1685.410096,2368.659014,9474.636058
171.627179,-153.219100,962.267725,9844.739029
171.627487,-842.705048,-0.000000,10955.047942
171.627794,-1762.019645,-1776.494261,11843.295072
171.628102,-2604.724693,-2590.720797,11843.295072
171.628410,-2834.553343,-3256.906145,12065.356855
171.628718,-2068.457845,-3552.988522,12435.459826
171.629026,-1378.971896,-3108.864956,12361.439231
171.629334,-1149.143247,-2368.659014,11547.212695
171.629642,306.438199,-1924.535449,10066.800811
171.629950,1762.019645,-222.061783,9696.697840
171.630258,2451.505594,814.226536,8364.327145
171.630565,3217.601092,1850.514855,7772.162391
171.630873,4596.572988,2146.597232,7550.100608
171.631181,3983.696590,2664.741391,6439.791695
171.631489,4136.915689,2738.761985,6587.832884
171.631797,3677.258390,1776.494261,7105.977043
171.632105,2451.505594,1258.350101,6809.894666
171.632413,2298.286494,444.123565,7994.224174
171.632721,1838.629195,-0.000000,8512.368333
171.633028,995.924147,-592.164754,9252.574275
171.633336,459.657299,-370.102971,9474.636058
171.633644,689.485948,-296.082377,9918.759623
171.633952,383.047749,-0.000000,10066.800811
171.634260,229.828649,740.205942,10214.842000
171.634568,383.047749,1258.350101,10214.842000
171.634876,0.000000,1332.370696,10288.862594
171.635184,0.000000,1554.432478,10510.924376
171.635492,-459.657299,1998.556043,10214.842000
171.635799,-536.266849,1332.370696,10584.944971
171.636107,-842.705048,-0.000000,10955.047942
171.636415,-1685.410096,-444.123565,11695.253884
171.636723,-2451.505594,-1406.391290,11769.274478
171.637031,-2528.115143,-2220.617826,12139.377449
171.637339,-2757.943793,-1776.494261,11917.315666
171.637647,-2221.676944,-2072.576638,11621.233289
171.637955,-1302.362347,-1406.391290,11325.150913
171.638262,76.609550,-592.164754,10510.924376
171.638570,1149.143247,-0.000000,9104.533087
171.638878,1608.800546,1036.288319,9178.553681
171.639186,3524.039291,1554.432478,8586.388927
171.639494,3217.601092,1850.514855,8438.347739
171.639802,2834.553343,1776.494261,7994.224174
171.640110,2604.724693,1776.494261,7402.059420
171.640418,2374.896044,962.267725,7476.080014
171.640725,1762.019645,296.082377,8216.285956
171.641033,995.924147,-814.226536,8660.409521
171.641341,536.266849,-888.247130,8956.491898
171.641649,536.266849,-1184.329507,9622.677246
171.641957,383.047749,-1110.308913,9400.615463
171.642265,153.219100,-370.102971,9474.636058
171.642573,536.266849,296.082377,9548.656652
171.642881,842.705048,1036.288319,9178.553681
171.643189,1302.362347,1924.535449,8956.491898
171.643496,1302.362347,2220.617826,8512.368333
171.643804,1455.581446,2590.720797,8882.471304
171.644112,995.924147,2294.638420,9178.553681
171.644420,689.485948,1628.453072,9548.656652
171.644728,0.000000,518.144159,10436.903782
171.645036,-1072.533697,-1258.350101,11177.109724
171.645344,-2451.505594,-2368.659014,11769.274478
171.645652,-2834.553343,-2886.803174,11991.336260
171.645959,-2451.505594,-3923.091493,12435.459826
171.646267,-1762.019645,-3478.967927,12361.439231
171.646575,-1455.581446,-2960.823768,11843.295072
171.646883,76.609550,-2368.659014,10732.986159
171.647191,842.705048,-888.247130,9770.718434
171.647499,2145.067394,666.185348,8586.388927
171.647807,2911.162892,1850.514855,7624.121203
171.648115,3830.477490,2812.782580,7105.977043
171.648422,4443.353888,2960.823768,6661.853478
171.648730,3983.696590,3404.947333,6661.853478
171.649038,3370.820191,2590.720797,7402.059420
171.649346,2987.772442,888.247130,7402.059420
171.649654,1915.238745,296.082377,8290.306550
171.649962,1149.143247,-518.144159,8956.491898
171.650270,842.705048,-814.226536,9548.656652
171.650578,383.047749,-814.226536,9918.759623
171.650886,995.924147,-592.164754,10066.800811
171.651193,995.924147,-0.000000,9918.759623
171.651501,612.876398,444.123565,10214.842000
171.651809,383.047749,1480.411884,9770.718434
171.652117,612.876398,1998.556043,9548.656652
171.652425,689.485948,2294.638420,9844.739029
171.652733,306.438199,2294.638420,10066.800811
171.653041,0.000000,1850.514855,10214.842000
171.653349,-1225.752797,1258.350101,10658.965565
171.653656,-1532.190996,-370.102971,11177.109724
171.653964,-1991.848295,-1332.370696,11621.233289
171.654272,-2911.162892,-1850.514855,12287.418637
171.654580,-2757.943793,-2072.576638,12361.439231
171.654888,-2221.676944,-2220.617826,12139.377449
171.655196,-1532.190996,-1850.514855,11843.295072
171.655504,-459.657299,-1258.350101,11029.068536
171.655812,383.047749,-666.185348,9770.718434
171.656120,1838.629195,-0.000000,9400.615463
171.656427,2145.067394,1332.370696,8364.327145
171.656735,3140.991542,1776.494261,8216.285956
171.657043,3753.867940,2146.597232,7624.121203
171.657351,3370.820191,2146.597232,7105.977043
171.657659,2911.162892,1480.411884,7476.080014
171.657967,2451.505594,740.205942,7624.121203
171.658275,1838.629195,-0.000000,8734.430116
171.658583,459.657299,-518.144159,9548.656652
171.658890,995.924147,-1332.370696,9474.636058
171.659198,306.438199,-888.247130,9252.574275
171.659506,229.828649,-666.185348,9400.615463
171.659814,536.266849,-0.000000,9474.636058
171.660122,919.314598,814.226536,9030.512492
171.660430,1302.362347,1776.494261,9252.574275
171.660738,1455.581446,2368.659014,8956.491898
171.661046,1532.190996,2368.659014,8660.409521
171.661353,1302.362347,2368.659014,8808.450710
171.661661,919.314598,1924.535449,9548.656652
171.661969,0.000000,814.226536,10140.821405
171.662277,-995.924147,-592.164754,10881.027347
171.662585,-1991.848295,-1924.535449,11547.212695
171.662893,-2757.943793,-2738.761985,11991.336260
171.663201,-2451.505594,-3256.906145,12657.521608
171.663509,-2451.505594,-3478.967927,11769.274478
171.663817,-2221.676944,-3182.885551,11843.295072
171.664124,-536.266849,-2590.720797,11473.192101
171.664432,229.828649,-1258.350101,10066.800811
171.664740,1532.190996,-0.000000,9178.553681
171.665048,2834.553343,1406.391290,8068.244768
171.665356,3447.429741,2368.659014,7328.038826
171.665664,4749.792088,2886.803174,7476.080014
171.665972,4903.011187,2590.720797,6735.874072
171.666280,4136.915689,2664.741391,6365.771101
171.666588,3370.820191,1406.391290,7105.977043
171.666896,2604.724693,592.164754,7920.203579
171.667204,1608.800546,-148.041188,8586.388927
171.667512,1302.362347,-740.205942,9326.594869
171.667820,459.657299,-814.226536,9474.636058
171.668128,153.219100,-1036.288319,9474.636058
171.668436,689.485948,-444.123565,10140.821405
171.668744,689.485948,-74.020594,9992.780217
171.669052,536.266849,814.226536,10140.821405
171.669360,766.095498,1850.514855,9696.697840
171.669668,689.485948,2516.700203,9474.636058
171.669976,689.485948,2442.679609,9770.718434
171.670284,229.828649,2590.720797,10140.821405
171.670592,229.828649,1776.494261,10881.027347
171.670900,-1302.362347,518.144159,11177.109724
171.671208,-1915.238745,-592.164754,11917.315666
171.671516,-2451.505594,-1702.473667,11917.315666
171.671824,-2681.334243,-2368.659014,12065.356855
171.672132,-2374.896044,-2516.700203,12065.356855
171.672440,-2068.457845,-2072.576638,11991.336260
171.672748,-459.657299,-1924.535449,11473.192101
171.673056,229.828649,-962.267725,10881.027347
171.673364,612.876398,-0.000000,9474.636058
171.673672,2145.067394,1036.288319,8956.491898
171.673980,2911.162892,2146.597232,8290.306550
171.674288,3370.820191,2738.761985,7550.100608
171.674596,3600.648841,2590.720797,7476.080014
171.674904,3064.381992,2368.659014,6957.935855
171.675212,2451.505594,1110.308913,7476.080014
171.675520,1991.848295,370.102971,8142.265362
171.675828,766.095498,-592.164754,8956.491898
171.676136,536.266849,-1110.308913,9474.636058
171.676443,0.000000,-1110.308913,9400.615463
171.676751,76.609550,-1480.411884,9622.677246
171.677059,0.000000,-592.164754,9474.636058
171.677367,536.266849,-0.000000,9474.636058
171.677675,612.876398,962.267725,9622.677246
171.677983,1378.971896,1702.473667,8808.450710
171.678291,1455.581446,2442.679609,8956.491898
171.678599,1685.410096,2368.659014,8734.430116
171.678907,1149.143247,2294.638420,9104.533087
171.679215,383.047749,1406.391290,9696.697840
171.679523,-612.876398,222.061783,10436.903782
171.679831,-1455.581446,-1184.329507,11103.089130
171.680139,-2451.505594,-2294.638420,11917.315666
171.680447,-3140.991542,-3256.906145,12287.418637
171.680755,-3064.381992,-3849.070898,12657.521608
171.681063,-2987.772442,-3478.967927,12213.398043
171.681371,-2145.067394,-2738.761985,11843.295072
171.681679,-306.438199,-1776.494261,10584.944971
171.681987,1072.533697,-296.082377,9548.656652
171.682295,2374.896044,1258.350101,8290.306550
171.682603,3370.820191,2294.638420,7254.018232
171.682911,4290.134789,3404.947333,7031.956449
171.683219,4826.401637,3404.947333,7105.977043
171.683527,4519.963438,3034.844362,6587.832884
171.683835,3370.820191,1998.556043,6513.812290
171.684143,2451.505594,592.164754,7920.203579
171.684451,1608.800546,-518.144159,8808.450710
171.684759,689.485948,-962.267725,9474.636058
171.685067,459.657299,-1480.411884,9770.718434
171.685375,1072.533697,-1554.432478,9844.739029
171.685683,536.266849,-1110.308913,9770.718434
171.685991,842.705048,-518.144159,9770.718434
171.686299,1225.752797,740.205942,9622.677246
171.686607,1302.362347,1628.453072,9696.697840
171.686915,1455.581446,2516.700203,9400.615463
171.687223,1455.581446,2812.782580,9178.553681
171.687531,1149.143247,2368.659014,9548.656652
171.687839,536.266849,1850.514855,10288.862594
171.688147,-459.657299,592.164754,10436.903782
171.688455,-1991.848295,-592.164754,12139.377449
171.688763,-2604.724693,-1628.453072,12435.459826
171.689071,-3140.991542,-2442.679609,12657.521608
171.689379,-2987.772442,-2812.782580,12509.480420
171.689687,-2221.676944,-2664.741391,11991.336260
171.689994,-1915.238745,-2146.597232,11473.192101
171.690302,0.000000,-1332.370696,11177.109724
171.690610,612.876398,-0.000000,10214.842000
171.690918,1762.019645,1110.308913,9252.574275
171.691226,2834.553343,2072.576638,7994.224174
171.691534,3677.258390,2812.782580,7476.080014
171.691842,3753.867940,3330.926739,7402.059420
171.692150,3907.087040,2812.782580,7179.997637
171.692458,3294.210641,2146.597232,7179.997637
171.692766,2604.724693,1036.288319,7624.121203
171.693074,1532.190996,-0.000000,8364.327145
171.693382,459.657299,-888.247130,8882.471304
171.693690,153.219100,-962.267725,9770.718434
171.693998,0.000000,-1184.329507,9770.718434
171.694306,306.438199,-888.247130,9474.636058
171.694614,612.876398,-74.020594,9474.636058
171.694922,766.095498,666.185348,9326.594869
171.695230,1762.019645,1480.411884,9474.636058
171.695538,2374.896044,2072.576638,9178.553681
171.695846,1685.410096,2368.659014,8882.471304
171.696154,1608.800546,2368.659014,9104.533087
171.696462,842.705048,1406.391290,9696.697840
171.696770,-76.609550,296.082377,10436.903782
171.697078,-1378.971896,-814.226536,11177.109724
171.697386,-2298.286494,-2146.597232,12065.356855
171.697694,-3294.210641,-3034.844362,12213.398043
171.698002,-3217.601092,-3478.967927,12805.562797
171.698310,-2987.772442,-3701.029710,12435.459826
171.698618,-2451.505594,-3034.844362,11769.274478
171.698926,-1149.143247,-1850.514855,11103.089130
171.699234,383.047749,-962.267725,10140.821405
171.699542,1685.410096,518.144159,8734.430116
171.699850,2911.162892,2220.617826,7698.141797
171.700158,4213.525239,3034.844362,5995.668130
171.700466,4826.401637,3627.009116,5995.668130
171.700774,4826.401637,2812.782580,6513.812290
171.701082,3753.867940,2368.659014,6513.812290
171.701390,2681.334243,1554.432478,7179.997637
171.701698,1762.019645,-0.000000,8438.347739
171.702006,766.095498,-888.247130,8956.491898
171.702314,229.828649,-1184.329507,9844.739029
171.702622,0.000000,-1332.370696,9696.697840
171.702930,153.219100,-1258.350101,9918.759623
171.703237,-612.876398,-592.164754,10066.800811
171.703545,383.047749,370.102971,10140.821405
171.703853,919.314598,1110.308913,9622.677246
171.704161,1532.190996,1924.535449,9474.636058
171.704469,1378.971896,2294.638420,9400.615463
171.704777,995.924147,2442.679609,9918.759623
171.705085,383.047749,1628.453072,10362.883188
171.705393,-766.095498,814.226536,10584.944971
171.705701,-1685.410096,-740.205942,11251.130318
171.706009,-2604.724693,-1924.535449,11991.336260
171.706317,-3064.381992,-2738.761985,12139.377449
171.706625,-3064.381992,-2738.761985,12361.439231
171.706933,-2451.505594,-2368.659014,11917.315666
171.707241,-1685.410096,-2368.659014,11325.150913
171.707549,-766.095498,-888.247130,11325.150913
171.707857,459.657299,-0.000000,10362.883188
171.708165,1608.800546,1036.288319,9178.553681
171.708473,2451.505594,1850.514855,8438.347739
171.708781,3294.210641,2294.638420,7772.162391
171.709089,3524.039291,2590.720797,7698.141797
171.709397,3524.039291,2590.720797,7698.141797
171.709705,3140.991542,1776.494261,7624.121203
171.710013,2681.334243,1480.411884,8216.285956
171.710321,1455.581446,296.082377,8734.430116
171.710629,919.314598,-592.164754,8956.491898
171.710937,536.266849,-888.247130,9474.636058
171.711245,306.438199,-962.267725,9474.636058
171.711553,306.438199,-666.185348,9474.636058
171.711861,229.828649,-222.061783,9844.739029
171.712169,1378.971896,1036.288319,9104.533087
171.712477,1072.533697,1554.432478,8882.471304
171.712785,2221.676944,2368.659014,8734.430116
171.713093,1991.848295,2664.741391,8882.471304
171.713401,1455.581446,2590.720797,8956.491898
171.713709,842.705048,1924.535449,9844.739029
171.714017,-153.219100,518.144159,10732.986159
171.714325,-1378.971896,-592.164754,11399.171507
171.714633,-1685.410096,-1702.473667,12361.439231
171.714941,-2834.553343,-3034.844362,12435.459826
171.715249,-2911.162892,-3404.947333,12583.501014
171.715557,-2681.334243,-3108.864956,12435.459826
171.715865,-1991.848295,-2738.761985,11917.315666
171.716173,-995.924147,-1998.556043,10955.047942
171.716481,76.609550,-962.267725,10362.883188
171.716788,1302.362347,296.082377,9326.594869
171.717096,2681.334243,1480.411884,7994.224174
171.717404,3370.820191,2664.741391,7402.059420
171.717712,4060.306139,3034.844362,6883.915261
171.718020,4749.792088,3034.844362,6883.915261
171.718328,4213.525239,2442.679609,6587.832884
171.718636,3140.991542,1628.453072,7031.956449
171.718944,2374.896044,444.123565,7698.141797
171.719252,2068.457845,-666.185348,8734.430116
171.719560,612.876398,-1258.350101,9104.533087
171.719868,229.828649,-1110.308913,9548.656652
171.720176,153.219100,-888.247130,9548.656652
171.720484,536.266849,-740.205942,9770.718434
171.720792,536.266849,-0.000000,9770.718434
171.721100,919.314598,592.164754,9770.718434
171.721408,995.924147,1332.370696,9770.718434
171.721716,842.705048,1480.411884,9400.615463
171.722024,1455.581446,2072.576638,9474.636058
171.722332,689.485948,1480.411884,10436.903782
171.722640,-383.047749,962.267725,10362.883188
171.722948,-1072.533697,148.041188,10732.986159
171.723256,-1685.410096,-888.247130,11473.192101
171.723564,-2528.115143,-1628.453072,11695.253884
171.723872,-2604.724693,-2146.597232,11917.315666
171.724180,-2068.457845,-2072.576638,12065.356855
171.724488,-1608.800546,-2072.576638,11769.274478
171.724796,-1378.971896,-1258.350101,11251.130318
171.725104,0.000000,-666.185348,10881.027347
171.725412,459.657299,-0.000000,10214.842000
171.725720,1455.581446,888.247130,9474.636058
171.726028,2145.067394,1480.411884,9178.553681
171.726336,2374.896044,2146.597232,8512.368333
171.726644,3294.210641,2368.659014,8586.388927
171.726952,2451.505594,1850.514855,7772.162391
171.727260,2298.286494,1850.514855,7846.182985
171.727568,2145.067394,962.267725,7846.182985
171.727876,1685.410096,370.102971,8290.306550
171.728184,919.314598,-0.000000,8586.388927
171.728492,536.266849,-296.082377,8438.347739
171.728800,459.657299,-370.102971,9104.533087
171.729108,229.828649,-518.144159,9400.615463
171.729416,1072.533697,-0.000000,9326.594869
171.729724,1072.533697,1258.350101,9548.656652
171.730032,1455.581446,1554.432478,9178.553681
171.730339,1608.800546,2072.576638,9474.636058
171.730647,1378.971896,2220.617826,9326.594869
171.730955,1149.143247,1998.556043,9992.780217
171.731263,536.266849,740.205942,10214.842000
171.731571,-229.828649,-0.000000,10807.006753
171.731879,-1225.752797,-1628.453072,11547.212695
171.732187,-1991.848295,-2590.720797,11917.315666
171.732495,-2834.553343,-3108.864956,12583.501014
171.732803,-2834.553343,-3182.885551,12139.377449
171.733111,-2451.505594,-2886.803174,12139.377449
171.733419,-1915.238745,-2590.720797,11621.233289
171.733727,-689.485948,-1406.391290,10584.944971
171.734035,1072.533697,-444.123565,10288.862594
171.734343,1838.629195,444.123565,8512.368333
171.734651,3217.601092,1554.432478,8216.285956
171.734959,3447.429741,2516.700203,7105.977043
171.735267,4060.306139,3330.926739,6587.832884
171.735575,4213.525239,3256.906145,6809.894666
171.735883,4060.306139,2516.700203,6735.874072
171.736191,2757.943793,1554.432478,6735.874072
171.736499,2145.067394,518.144159,7920.203579
171.736807,1378.971896,-740.205942,9104.533087
171.737115,229.828649,-888.247130,9622.677246
171.737423,0.000000,-1554.432478,9770.718434
171.737731,153.219100,-962.267725,9844.739029
171.738039,383.047749,-296.082377,9844.739029
171.738347,766.095498,444.123565,9622.677246
171.738655,1685.410096,1036.288319,9696.697840
171.738963,1532.190996,1776.494261,9474.636058
171.739271,1762.019645,2220.617826,9474.636058
171.739579,1378.971896,2146.597232,9918.759623
171.739887,1072.533697,1406.391290,9622.677246
171.740195,-153.219100,1036.288319,10288.862594
171.740503,-1072.533697,-0.000000,10658.965565
171.740811,-2068.457845,-1110.308913,11769.274478
171.741119,-2604.724693,-2220.617826,11843.295072
171.741427,-3140.991542,-2738.761985,12583.501014
171.741735,-3140.991542,-2738.761985,12361.439231
171.742043,-1915.238745,-2590.720797,12065.356855
171.742351,-1378.971896,-1924.535449,11769.274478
171.742659,76.609550,-888.247130,10955.047942
171.742967,919.314598,-0.000000,10214.842000
171.743275,2221.676944,1036.288319,9326.594869
171.743582,2834.553343,1998.556043,8290.306550
171.743890,3677.258390,2664.741391,7624.121203
171.744198,3677.258390,2664.741391,6957.935855
171.744506,3294.210641,3034.844362,7179.997637
171.744814,2834.553343,1554.432478,7105.977043
171.745122,1915.238745,1184.329507,7402.059420
171.745430,1455.581446,222.061783,8290.306550
171.745738,766.095498,-148.041188,8660.409521
171.746046,229.828649,-148.041188,8808.450710
171.746354,153.219100,-222.061783,9252.574275
171.746662,536.266849,222.061783,9400.615463
171.746970,919.314598,666.185348,9548.656652
171.747278,1072.533697,1258.350101,9696.697840
171.747586,1302.362347,1702.473667,9474.636058
171.747894,1302.362347,1998.556043,9178.553681
171.748202,1302.362347,1850.514855,9696.697840
171.748510,689.485948,1184.329507,10066.800811
171.748818,0.000000,370.102971,10214.842000
171.749126,-919.314598,-592.164754,11177.109724
171.749434,-1302.362347,-2442.679609,11917.315666
171.749742,-3140.991542,-2886.803174,12361.439231
171.750050,-2987.772442,-3182.885551,12213.398043
171.750358,-2757.943793,-3182.885551,12435.459826
171.750666,-2145.067394,-2886.803174,11843.295072
171.750974,-1532.190996,-1924.535449,10955.047942
171.751282,-229.828649,-814.226536,10658.965565
171.751590,1225.752797,-0.000000,9696.697840
171.751898,2528.115143,1332.370696,9104.533087
171.752206,3370.820191,2368.659014,8290.306550
171.752514,3677.258390,2738.761985,7179.997637
171.752822,4213.525239,3108.864956,6587.832884
171.753130,3830.477490,2960.823768,6365.771101
171.753438,3370.820191,2220.617826,6735.874072
171.753746,2681.334243,1110.308913,7624.121203
171.754054,1838.629195,-0.000000,8364.327145
171.754362,766.095498,-740.205942,9104.533087
171.754670,0.000000,-1332.370696,9104.533087
171.754978,0.000000,-962.267725,9474.636058
171.755286,0.000000,-814.226536,9770.718434
171.755594,383.047749,-0.000000,9844.739029
171.755902,919.314598,666.185348,9548.656652
171.756210,1225.752797,1406.391290,10288.862594
171.756518,689.485948,2146.597232,9474.636058
171.756826,1149.143247,2294.638420,9474.636058
171.757133,842.705048,2220.617826,9844.739029
171.757441,76.609550,1628.453072,9918.759623
171.757749,-612.876398,814.226536,10436.903782
171.758057,-1838.629195,-740.205942,11621.233289
171.758365,-2757.943793,-1924.535449,11991.336260
171.758673,-3140.991542,-2960.823768,12287.418637
171.758981,-3064.381992,-2812.782580,12953.603985
171.759289,-2528.115143,-2960.823768,12805.562797
171.759597,-2145.067394,-2368.659014,11843.295072
171.759905,-842.705048,-1480.411884,11325.150913
171.760213,689.485948,-666.185348,10510.924376
171.760521,1838.629195,518.144159,9474.636058
171.760829,3447.429741,1702.473667,8586.388927
171.761137,3830.477490,2442.679609,7624.121203
171.761445,3983.696590,2368.659014,6883.915261
171.761753,4060.306139,2886.803174,7328.038826
171.762061,3370.820191,2146.597232,6587.832884
171.762369,2604.724693,1554.432478,7105.977043
171.762677,1915.238745,666.185348,7772.162391
171.762985,1149.143247,-0.000000,8290.306550
171.763293,689.485948,-518.144159,8660.409521
171.763601,612.876398,-666.185348,9474.636058
171.763909,0.000000,-518.144159,8882.471304
171.764217,919.314598,-222.061783,9622.677246
171.764525,383.047749,592.164754,9696.697840
171.764833,995.924147,1332.370696,9548.656652
171.765141,1149.143247,1776.494261,9474.636058
171.765449,1455.581446,2220.617826,9400.615463
171.765757,1302.362347,1924.535449,9474.636058
171.766065,995.924147,1406.391290,10140.821405
171.766373,306.438199,296.082377,10362.883188
171.766681,-919.314598,-518.144159,10955.047942
171.766989,-2068.457845,-2072.576638,11917.315666
171.767298,-2834.553343,-2812.782580,11917.315666
171.767606,-3064.381992,-3256.906145,12287.418637
171.767914,-3064.381992,-3256.906145,12287.418637
171.768222,-2145.067394,-2516.700203,11843.295072
171.768530,-995.924147,-1850.514855,11251.130318
171.768838,612.876398,-592.164754,10214.842000
171.769147,1072.533697,740.205942,9326.594869
171.769455,2911.162892,1998.556043,8068.244768
171.769763,3907.087040,2812.782580,7105.977043
171.770071,4213.525239,3108.864956,6957.935855
171.770379,4060.306139,2886.803174,6735.874072
171.770687,4519.963438,2590.720797,6809.894666
171.770996,3140.991542,1036.288319,7476.080014
171.771304,1991.848295,-296.082377,7994.224174
171.771612,689.485948,-888.247130,9326.594869
171.771920,-306.438199,-1554.432478,9770.718434
171.772228,-229.828649,-1332.370696,9622.677246
171.772536,76.609550,-1110.308913,9622.677246
171.772845,229.828649,-518.144159,9622.677246
171.773153,383.047749,370.102971,9474.636058
171.773461,1149.143247,1110.308913,9474.636058
171.773769,1608.800546,1924.535449,9622.677246
171.774077,1532.190996,2516.700203,9400.615463
171.774385,919.314598,2664.741391,9474.636058
171.774693,459.657299,2072.576638,10436.903782
171.775002,-459.657299,1036.288319,10436.903782
171.775310,-1532.190996,-0.000000,11251.130318
171.775618,-2451.505594,-1480.411884,11991.336260
171.775926,-3447.429741,-2664.741391,12139.377449
171.776234,-3140.991542,-2886.803174,12657.521608
171.776542,-3217.601092,-2738.761985,12213.398043
171.776851,-2145.067394,-2368.659014,11695.253884
171.777159,-995.924147,-1406.391290,10881.027347
171.777467,459.657299,-444.123565,10584.944971
171.777775,1455.581446,370.102971,9474.636058
171.778083,1838.629195,1702.473667,8734.430116
171.778391,3370.820191,2294.638420,7994.224174
171.778700,3753.867940,2516.700203,7328.038826
171.779008,3830.477490,3108.864956,7031.956449
171.779316,3753.867940,2220.617826,7179.997637
171.779624,2987.772442,1924.535449,6957.935855
171.779932,2145.067394,592.164754,7920.203579
171.780240,1532.190996,-370.102971,8660.409521
171.780549,689.485948,-814.226536,9104.533087
171.780857,0.000000,-1184.329507,9400.615463
171.781165,0.000000,-666.185348,9622.677246
171.781473,689.485948,-592.164754,9844.739029
171.781781,612.876398,148.041188,9548.656652
171.782089,1149.143247,962.267725,9400.615463
171.782397,1608.800546,1924.535449,9400.615463
171.782706,1838.629195,2368.659014,9104.533087
171.783014,1685.410096,2442.679609,9326.594869
171.783322,1072.533697,1702.473667,9548.656652
171.783630,383.047749,1110.308913,10288.862594
171.783938,-689.485948,-370.102971,10584.944971
171.784246,-1685.410096,-1628.453072,11547.212695
171.784555,-2528.115143,-2590.720797,11991.336260
171.784863,-2987.772442,-3256.906145,12287.418637
171.785171,-3064.381992,-3182.885551,12361.439231
171.785479,-2451.505594,-3256.906145,11695.253884
171.785787,-1225.752797,-2442.679609,11399.171507
171.786095,-229.828649,-1184.329507,10881.027347
171.786404,919.314598,-0.000000,9696.697840
171.786712,1991.848295,1332.370696,8512.368333
171.787020,3370.820191,2442.679609,7994.224174
171.787328,3907.087040,3330.926739,6735.874072
171.787636,4290.134789,3478.967927,6661.853478
171.787944,4136.915689,3108.864956,6439.791695
171.788253,3983.696590,1776.494261,6809.894666
171.788561,2068.457845,148.041188,7994.224174
171.788869,1072.533697,-888.247130,8068.244768
171.789177,306.438199,-1554.432478,9178.553681
171.789485,0.000000,-1702.473667,9474.636058
171.789793,-306.438199,-1480.411884,9548.656652
171.790101,0.000000,-962.267725,9770.718434
171.790410,612.876398,-0.000000,9918.759623
171.790718,1072.533697,1184.329507,9548.656652
171.791026,1608.800546,1850.514855,9178.553681
171.791334,1991.848295,2442.679609,9474.636058
171.791642,1685.410096,2442.679609,8734.430116
171.791950,842.705048,2072.576638,9696.697840
171.792259,0.000000,1184.329507,10436.903782
171.792567,-1302.362347,-148.041188,11103.089130
171.792875,-2068.457845,-1406.391290,11991.336260
171.793183,-3524.039291,-3108.864956,12361.439231
171.793491,-3447.429741,-3404.947333,12435.459826
171.793799,-3447.429741,-3478.967927,12657.521608
171.794108,-2757.943793,-2738.761985,12287.418637
171.794416,-1302.362347,-1998.556043,11473.192101
171.794724,-306.438199,-740.205942,10732.986159
171.795032,1225.752797,296.082377,9844.739029
171.795340,2145.067394,1628.453072,9178.553681
171.795648,3064.381992,2886.803174,8438.347739
171.795957,3370.820191,3256.906145,7328.038826
171.796265,4213.525239,3404.947333,7550.100608
171.796573,3907.087040,2886.803174,6809.894666
171.796881,3370.820191,2294.638420,7105.977043
171.797189,2451.505594,962.267725,7624.121203
171.797497,1532.190996,-0.000000,8364.327145
171.797805,1072.533697,-888.247130,9252.574275
171.798114,612.876398,-1184.329507,9474.636058
171.798422,536.266849,-1332.370696,9548.656652
171.798730,536.266849,-1110.308913,9326.594869
171.799038,612.876398,-0.000000,9252.574275
171.799346,1455.581446,962.267725,9400.615463
171.799654,1608.800546,1702.473667,9252.574275
171.799963,2068.457845,2294.638420,9326.594869
171.800271,1915.238745,2664.741391,9326.594869
171.800579,1302.362347,2442.679609,9474.636058
171.800887,612.876398,1110.308913,10288.862594
171.801195,0.000000,148.041188,10436.903782
171.801503,-1455.581446,-740.205942,11695.253884
171.801812,-2681.334243,-2368.659014,12065.356855
171.802120,-2987.772442,-2960.823768,12287.418637
171.802428,-3140.991542,-3552.988522,12287.418637
171.802736,-2374.896044,-3478.967927,11991.336260
171.803044,-1915.238745,-2146.597232,11547.212695
171.803352,-383.047749,-1628.453072,10881.027347
171.803661,1149.143247,-296.082377,9770.718434
171.803969,2145.067394,962.267725,8438.347739
171.804277,3447.429741,1998.556043,8142.265362
171.804585,4136.915689,2738.761985,7179.997637
171.804893,3983.696590,3256.906145,6365.771101
171.805201,4519.963438,2442.679609,7254.018232
171.805509,3370.820191,2072.576638,6957.935855
171.805818,2298.286494,814.226536,7550.100608
171.806126,995.924147,-222.061783,8660.409521
171.806434,306.438199,-1110.308913,9030.512492
171.806742,0.000000,-1480.411884,9548.656652
171.807050,-229.828649,-1110.308913,9474.636058
171.807358,229.828649,-1036.288319,9770.718434
171.807667,612.876398,370.102971,9326.594869
171.807975,1685.410096,1110.308913,9252.574275
171.808283,1532.190996,1924.535449,9178.553681
171.808591,2221.676944,2442.679609,9548.656652
171.808899,1608.800546,2590.720797,9104.533087
171.809207,995.924147,2516.700203,9474.636058
171.809516,306.438199,1332.370696,10362.883188
171.809824,-766.095498,518.144159,11029.068536
171.810132,-1915.238745,-1036.288319,11843.295072
171.810440,-3370.820191,-2294.638420,12731.542202
171.810748,-3600.648841,-2886.803174,12139.377449
171.811056,-3447.429741,-3478.967927,12583.501014
171.811365,-3370.820191,-2812.782580,12287.418637
171.811673,-1915.238745,-1924.535449,11473.192101
171.811981,-1225.752797,-1036.288319,10955.047942
171.812289,383.047749,-148.041188,10584.944971
171.812597,1455.581446,518.144159,9696.697840
171.812905,2221.676944,1850.514855,8586.388927
171.813213,3370.820191,1998.556043,8216.285956
171.813522,3677.258390,2664.741391,7624.121203
171.813830,3064.381992,2516.700203,7698.141797
171.814138,3217.601092,1924.535449,7402.059420
171.814446,2451.505594,1554.432478,7550.100608
171.814754,1762.019645,592.164754,7920.203579
171.815062,1685.410096,-296.082377,8660.409521
171.815371,1072.533697,-518.144159,8660.409521
171.815679,689.485948,-444.123565,8586.388927
171.815987,995.924147,-222.061783,9030.512492
171.816295,919.314598,222.061783,9104.533087
171.816603,919.314598,666.185348,9400.615463
171.816911,1302.362347,1480.411884,9548.656652
171.817220,1608.800546,1776.494261,9474.636058
171.817528,1072.533697,1850.514855,9622.677246
171.817836,689.485948,1628.453072,9770.718434
171.818144,459.657299,1036.288319,10288.862594
171.818452,-383.047749,370.102971,10658.965565
171.818760,-1225.752797,-518.144159,11251.130318
171.819069,-2068.457845,-1776.494261,11917.315666
171.819377,-2681.334243,-2590.720797,11843.295072
171.819685,-2911.162892,-2886.803174,12065.356855
171.819993,-2298.286494,-3108.864956,11843.295072
171.820301,-1762.019645,-2812.782580,11325.150913
171.820609,-689.485948,-1776.494261,11029.068536
171.820917,612.876398,-962.267725,10214.842000
171.821226,1532.190996,518.144159,9252.574275
171.821534,2681.334243,1554.432478,8512.368333
171.821842,3677.258390,2368.659014,7328.038826
171.822150,3753.867940,2664.741391,6957.935855
171.822458,4060.306139,2368.659014,7031.956449
171.822766,4366.744339,2220.617826,7031.956449
171.823075,2987.772442,1332.370696,7402.059420
171.823383,1685.410096,-0.000000,8068.244768
171.823691,1302.362347,-518.144159,8660.409521
171.823999,459.657299,-888.247130,9252.574275
171.824307,766.095498,-814.226536,9474.636058
171.824615,689.485948,-222.061783,9104.533087
171.824924,1838.629195,-296.082377,9104.533087
171.825232,1838.629195,296.082377,9252.574275
171.825540,1685.410096,814.226536,9326.594869
171.825848,1991.848295,1628.453072,9548.656652
171.826156,1455.581446,2146.597232,9474.636058
171.826464,1225.752797,2072.576638,9474.636058
171.826773,229.828649,1850.514855,10214.842000
171.827081,-459.657299,814.226536,10584.944971
171.827389,-2221.676944,-444.123565,11695.253884
171.827697,-2298.286494,-1480.411884,12435.459826
171.828005,-3677.258390,-2146.597232,12583.501014
171.828313,-3753.867940,-2516.700203,12509.480420
171.828621,-3294.210641,-2516.700203,12583.501014
171.828930,-2374.896044,-2220.617826,12213.398043
171.829238,-1455.581446,-1258.350101,11399.171507
171.829546,306.438199,-592.164754,11103.089130
171.829854,1608.800546,-0.000000,9992.780217
171.830162,2374.896044,1184.329507,9178.553681
171.830470,3217.601092,1850.514855,8512.368333
171.830779,3753.867940,2590.720797,7476.080014
171.831087,3830.477490,2368.659014,7550.100608
171.831395,3753.867940,2368.659014,7031.956449
171.831703,3217.601092,1924.535449,7254.018232
171.832011,2451.505594,888.247130,7698.141797
171.832319,2145.067394,-0.000000,8142.265362
171.832628,1455.581446,-370.102971,9178.553681
171.832936,689.485948,-296.082377,9400.615463
171.833244,76.609550,-666.185348,9622.677246
171.833552,229.828649,-74.020594,9622.677246
171.833860,459.657299,370.102971,9844.739029
171.834168,459.657299,740.205942,9548.656652
171.834477,1378.971896,1258.350101,10214.842000
171.834785,536.266849,1480.411884,9992.780217
171.835093,536.266849,1776.494261,10066.800811
171.835401,459.657299,1110.308913,10584.944971
171.835709,0.000000,814.226536,10362.883188
171.836017,-612.876398,-148.041188,10362.883188
171.836325,-1532.190996,-1258.350101,11029.068536
171.836634,-1838.629195,-1924.535449,11473.192101
171.836942,-2298.286494,-2368.659014,11325.150913
171.837250,-1608.800546,-2960.823768,11547.212695
171.837558,-1991.848295,-2516.700203,11621.233289
171.837866,-842.705048,-1702.473667,10955.047942
171.838174,153.219100,-1110.308913,9622.677246
171.838483,1455.581446,-0.000000,9104.533087
171.838791,2374.896044,1110.308913,8660.409521
171.839099,2834.553343,1480.411884,7994.224174
171.839407,3753.867940,1924.535449,7698.141797
171.839715,3677.258390,2146.597232,7476.080014
171.840023,3447.429741,1628.453072,7031.956449
171.840332,3064.381992,888.247130,7402.059420
171.840640,1991.848295,296.082377,7994.224174
171.840948,1378.971896,-518.144159,8808.450710
171.841256,919.314598,-1184.329507,8956.491898
171.841564,689.485948,-1406.391290,9326.594869
171.841872,306.438199,-1776.494261,8956.491898
171.842181,612.876398,-666.185348,9178.553681
171.842489,995.924147,-0.000000,9326.594869
171.842797,1532.190996,1036.288319,9474.636058
171.843105,1532.190996,1702.473667,9178.553681
171.843413,1225.752797,2220.617826,9474.636058
171.843721,995.924147,2368.659014,9770.718434
171.844029,842.705048,2220.617826,10288.862594
171.844338,153.219100,1332.370696,10881.027347
171.844646,-1225.752797,518.144159,11103.089130
171.844954,-2068.457845,-222.061783,11547.212695
171.845262,-2834.553343,-1184.329507,11843.295072
171.845570,-2834.553343,-1776.494261,11991.336260
171.845878,-2757.943793,-1998.556043,11991.336260
171.846187,-1991.848295,-1776.494261,11621.233289
171.846495,-1532.190996,-1258.350101,11325.150913
171.846803,-306.438199,-814.226536,10732.986159
171.847111,459.657299,-148.041188,10510.924376
171.847419,1685.410096,370.102971,9696.697840
171.847727,2068.457845,1110.308913,9474.636058
171.848036,2987.772442,1998.556043,8364.327145
171.848344,3753.867940,2368.659014,8068.244768
171.848652,3907.087040,2294.638420,7550.100608
171.848960,3600.648841,1850.514855,7402.059420
171.849268,3140.991542,1110.308913,7846.182985
171.849576,2374.896044,370.102971,7920.203579
171.849885,1685.410096,-370.102971,8956.491898
171.850193,766.095498,-592.164754,9400.615463
171.850501,76.609550,-740.205942,9474.636058
171.850809,229.828649,-740.205942,9622.677246
171.851117,0.000000,-296.082377,10066.800811
171.851425,383.047749,444.123565,9770.718434
171.851733,612.876398,666.185348,9992.780217
171.852042,1225.752797,1554.432478,9844.739029
171.852350,1072.533697,1776.494261,9770.718434
171.852658,1302.362347,1850.514855,9474.636058
171.852966,1072.533697,1702.473667,9918.759623
171.853274,153.219100,1184.329507,9548.656652
171.853582,-306.438199,444.123565,9992.780217
171.853891,-689.485948,-518.144159,10584.944971
171.854199,-1991.848295,-1110.308913,10807.006753
171.854507,-2451.505594,-2220.617826,11547.212695
171.854815,-1915.238745,-2368.659014,11547.212695
171.855123,-1685.410096,-1776.494261,11251.130318
171.855431,-995.924147,-1702.473667,10955.047942
171.855740,0.000000,-1110.308913,10436.903782
171.856048,919.314598,-370.102971,9622.677246
171.856356,2451.505594,-0.000000,9326.594869
171.856664,2681.334243,666.185348,8512.368333
171.856972,3217.601092,888.247130,7624.121203
171.857280,2987.772442,1628.453072,7550.100608
171.857589,3370.820191,1332.370696,6957.935855
171.857897,2987.772442,740.205942,7328.038826
171.858205,2145.067394,222.061783,7920.203579
171.858513,1455.581446,-518.144159,7994.224174
171.858821,1149.143247,-666.185348,8660.409521
171.859129,766.095498,-888.247130,8956.491898
171.859437,383.047749,-592.164754,8808.450710
171.859746,919.314598,-148.041188,9252.574275
171.860054,689.485948,370.102971,8956.491898
171.860362,842.705048,1184.329507,9326.594869
171.860670,689.485948,1628.453072,9770.718434
171.860978,919.314598,1998.556043,9992.780217
171.861286,0.000000,1850.514855,10140.821405
171.861595,229.828649,1406.391290,10584.944971
171.861903,-766.095498,1110.308913,10881.027347
171.862211,-1302.362347,-0.000000,10955.047942
171.862519,-2451.505594,-296.082377,11695.253884
171.862827,-2681.334243,-1406.391290,11769.274478
171.863135,-3217.601092,-1998.556043,11843.295072
171.863444,-2681.334243,-2146.597232,11843.295072
171.863752,-2221.676944,-2072.576638,11695.253884
171.864060,-1302.362347,-1850.514855,11399.171507
171.864368,0.000000,-518.144159,10955.047942
171.864663,1072.533697,-0.000000,9844.739029
171.864971,2451.505594,962.267725,9400.615463
171.865279,3217.601092,1924.535449,8438.347739
171.865587,3677.258390,2442.679609,7772.162391
171.865895,4213.525239,2738.761985,7179.997637
171.866203,3830.477490,2146.597232,6883.915261
171.866511,3677.258390,1924.535449,7254.018232
171.866819,2834.553343,962.267725,7698.141797
171.867127,1532.190996,-0.000000,8438.347739
171.867435,919.314598,-740.205942,8882.471304
171.867743,0.000000,-1036.288319,9918.759623
171.868051,-306.438199,-1184.329507,10288.862594
171.868359,-306.438199,-888.247130,10658.965565
171.868667,383.047749,-518.144159,10436.903782
171.868975,919.314598,-0.000000,10436.903782
171.869284,1072.533697,962.267725,10436.903782
171.869592,1149.143247,1998.556043,10066.800811
171.869900,1838.629195,2146.597232,9326.594869
171.870208,1455.581446,2442.679609,9474.636058
171.870516,995.924147,2368.659014,9400.615463
171.870824,459.657299,1776.494261,9474.636058
171.871132,0.000000,592.164754,10288.862594
171.871440,-1225.752797,-666.185348,10510.924376
171.871748,-1991.848295,-1850.514855,10955.047942
171.872056,-2221.676944,-2368.659014,11621.233289
171.872364,-2451.505594,-2442.679609,11843.295072
171.872672,-1838.629195,-2368.659014,11547.212695
171.872980,-612.876398,-1850.514855,11029.068536
171.873288,536.266849,-1036.288319,10436.903782
171.873596,2145.067394,-148.041188,9696.697840
171.873904,2451.505594,444.123565,8882.471304
171.874212,3370.820191,1406.391290,7698.141797
171.874520,3907.087040,2146.597232,7550.100608
171.874828,3830.477490,2220.617826,7031.956449
171.875136,3447.429741,1776.494261,6957.935855
171.875444,2987.772442,962.267725,7328.038826
171.875752,1762.019645,-0.000000,7994.224174
171.876060,842.705048,-740.205942,8438.347739
171.876368,536.266849,-1406.391290,9326.594869
171.876676,76.609550,-814.226536,9474.636058
171.876984,153.219100,-1184.329507,9400.615463
171.877292,306.438199,-148.041188,9474.636058
171.877600,612.876398,740.205942,9622.677246
171.877909,766.095498,1184.329507,9696.697840
171.878217,766.095498,1702.473667,9696.697840
171.878525,766.095498,1776.494261,9844.739029
171.878833,-383.047749,1702.473667,10140.821405
171.879141,-1072.533697,1258.350101,10436.903782
171.879449,-1225.752797,444.123565,11103.089130
171.879757,-2221.676944,-296.082377,11251.130318
171.880065,-2834.553343,-1184.329507,11621.233289
171.880373,-3217.601092,-1924.535449,11843.295072
171.880681,-2834.553343,-2368.659014,12213.398043
171.880989,-2604.724693,-2294.638420,11473.192101
171.881297,-1991.848295,-2072.576638,10807.006753
171.881605,-306.438199,-888.247130,11177.109724
171.881913,612.876398,-296.082377,9474.636058
171.882221,1991.848295,740.205942,9178.553681
171.882529,3140.991542,1702.473667,8512.368333
171.882837,3447.429741,2664.741391,7402.059420
171.883145,4213.525239,2738.761985,7846.182985
171.883453,4290.134789,2590.720797,7402.059420
171.883761,4136.915689,1850.514855,7550.100608
171.884069,2604.724693,814.226536,7550.100608
171.884377,1838.629195,296.082377,8660.409521
171.884685,919.314598,-1110.308913,9252.574275
171.884993,153.219100,-1554.432478,9696.697840
171.885301,-229.828649,-1258.350101,10066.800811
171.885609,-459.657299,-1554.432478,10362.883188
171.885917,0.000000,-740.205942,10362.883188
171.886225,459.657299,222.061783,10214.842000
171.886533,1378.971896,518.144159,9918.759623
171.886842,1302.362347,1628.453072,9548.656652
171.887150,1762.019645,2738.761985,8956.491898
171.887458,2221.676944,3034.844362,9178.553681
171.887766,1915.238745,3034.844362,9030.512492
171.888074,1072.533697,2294.638420,9474.636058
171.888382,459.657299,1258.350101,9918.759623
171.888690,-1072.533697,-518.144159,10732.986159
171.888998,-1455.581446,-1480.411884,11473.192101
171.889306,-2604.724693,-2220.617826,11917.315666
171.889614,-2451.505594,-2664.741391,11991.336260
171.889922,-2298.286494,-2960.823768,11917.315666
171.890230,-1225.752797,-2516.700203,11695.253884
171.890538,0.000000,-1480.411884,10955.047942
171.890846,1455.581446,-444.123565,10066.800811
171.891154,2451.505594,740.205942,8512.368333
171.891462,3983.696590,1924.535449,7920.203579
171.891770,4213.525239,2368.659014,7179.997637
171.892078,4290.134789,2738.761985,6735.874072
171.892386,4136.915689,2738.761985,6735.874072
171.892694,3217.601092,1554.432478,7105.977043
171.893002,1838.629195,444.123565,7920.203579
171.893310,919.314598,-592.164754,8734.430116
171.893618,76.609550,-814.226536,9178.553681
171.893926,536.266849,-1480.411884,9252.574275
171.894234,-306.438199,-1110.308913,9474.636058
171.894542,306.438199,-296.082377,9474.636058
171.894850,842.705048,444.123565,9252.574275
171.895158,1149.143247,1184.329507,9252.574275
171.895466,1532.190996,2146.597232,9770.718434
171.895775,1532.190996,2072.576638,9400.615463
171.896083,536.266849,2220.617826,9474.636058
171.896391,-383.047749,1702.473667,9770.718434
171.896699,-689.485948,1036.288319,10584.944971
171.897007,-1838.629195,-0.000000,11399.171507
171.897315,-2987.772442,-1554.432478,11843.295072
171.897623,-4136.915689,-2220.617826,12139.377449
171.897931,-3830.477490,-3034.844362,12509.480420
171.898239,-3447.429741,-2960.823768,12657.521608
171.898547,-2681.334243,-2516.700203,11843.295072
171.898855,-995.924147,-2220.617826,11177.109724
171.899163,76.609550,-962.267725,10510.924376
171.899471,1378.971896,296.082377,9400.615463
171.899779,2604.724693,1628.453072,8586.388927
171.900087,3753.867940,2442.679609,7772.162391
171.900395,4060.306139,2960.823768,7550.100608
171.900703,4596.572988,2960.823768,7105.977043
171.901011,4290.134789,2442.679609,6735.874072
171.901319,3064.381992,1850.514855,7328.038826
171.901627,2374.896044,370.102971,7772.162391
171.901935,1225.752797,-222.061783,8512.368333
171.902243,229.828649,-888.247130,9400.615463
171.902551,76.609550,-888.247130,9622.677246
171.902859,229.828649,-1406.391290,10140.821405
171.903167,459.657299,-1036.288319,9992.780217
171.903475,459.657299,-0.000000,10066.800811
171.903783,1149.143247,814.226536,9548.656652
171.904091,1378.971896,1924.535449,9770.718434
171.904399,1532.190996,2516.700203,9770.718434
171.904708,1608.800546,2960.823768,8956.491898
171.905016,1225.752797,3108.864956,9326.594869
171.905324,919.314598,1702.473667,9992.780217
171.905632,-459.657299,962.267725,9992.780217
171.905940,-1302.362347,-888.247130,11251.130318
171.906248,-2298.286494,-2220.617826,11695.253884
171.906556,-2757.943793,-2664.741391,12509.480420
171.906864,-2757.943793,-3404.947333,12287.418637
171.907172,-1991.848295,-3108.864956,11695.253884
171.907480,-842.705048,-2442.679609,11399.171507
171.907788,-229.828649,-1480.411884,10584.944971
171.908096,1608.800546,-518.144159,9622.677246
171.908404,2834.553343,814.226536,9104.533087
171.908712,3600.648841,1924.535449,7994.224174
171.909020,3983.696590,2960.823768,6883.915261
171.909328,4290.134789,3034.844362,6809.894666
171.909636,4290.134789,2516.700203,6957.935855
171.909944,3140.991542,1702.473667,7328.038826
171.910252,1838.629195,666.185348,8586.388927
171.910560,1072.533697,-814.226536,9252.574275
171.910868,0.000000,-1332.370696,8956.491898
171.911176,0.000000,-1184.329507,10140.821405
171.911484,76.609550,-962.267725,9474.636058
171.911792,689.485948,-370.102971,9326.594869
171.912100,1149.143247,370.102971,9252.574275
171.912408,1915.238745,1258.350101,8956.491898
171.912716,1915.238745,2072.576638,9474.636058
171.913024,1532.190996,2368.659014,9178.553681
171.913333,1225.752797,2368.659014,9474.636058
171.913641,536.266849,1628.453072,9918.759623
171.913949,-459.657299,1554.432478,10510.924376
171.914257,-1762.019645,222.061783,11251.130318
171.914565,-2604.724693,-888.247130,11917.315666
171.914873,-3677.258390,-2072.576638,12213.398043
171.915181,-4213.525239,-2812.782580,12731.542202
171.915489,-3447.429741,-2664.741391,12805.562797
171.915797,-2298.286494,-2516.700203,12287.418637
171.916105,-1455.581446,-2072.576638,11103.089130
171.916413,0.000000,-962.267725,10288.862594
171.916721,1072.533697,444.123565,9326.594869
171.917029,2528.115143,1628.453072,9030.512492
171.917337,3294.210641,2294.638420,7920.203579
171.917645,3830.477490,2590.720797,7254.018232
171.917953,3907.087040,2664.741391,7328.038826
171.918261,3677.258390,2294.638420,6957.935855
171.918569,2604.724693,1184.329507,7698.141797
171.918877,1915.238745,-0.000000,7994.224174
171.919185,612.876398,-888.247130,8956.491898
171.919493,0.000000,-1998.556043,9474.636058
171.919801,-536.266849,-1850.514855,9770.718434
171.920109,-536.266849,-1850.514855,10066.800811
171.920417,0.000000,-1184.329507,10066.800811
171.920725,306.438199,-0.000000,9992.780217
171.921033,1455.581446,1184.329507,9252.574275
171.921341,1455.581446,1924.535449,9400.615463
171.921649,1762.019645,2812.782580,9326.594869
171.921957,1838.629195,3330.926739,8660.409521
171.922266,1915.238745,2960.823768,8956.491898
171.922574,1225.752797,2664.741391,9474.636058
171.922882,383.047749,1702.473667,10140.821405
171.923190,-842.705048,-74.020594,10658.965565
171.923498,-1838.629195,-1554.432478,11695.253884
171.923806,-2681.334243,-2442.679609,11843.295072
171.924114,-2757.943793,-2960.823768,11917.315666
171.924422,-2451.505594,-2886.803174,11769.274478
171.924730,-1915.238745,-2294.638420,11473.192101
171.925038,-383.047749,-1628.453072,11621.233289
171.925346,689.485948,-814.226536,10140.821405
171.925654,2068.457845,518.144159,9474.636058
171.925962,2911.162892,1850.514855,8882.471304
171.926270,3217.601092,2442.679609,8290.306550
171.926578,3753.867940,2516.700203,7624.121203
171.926886,3907.087040,2368.659014,7328.038826
171.927194,3217.601092,1406.391290,7624.121203
171.927502,2451.505594,370.102971,8142.265362
171.927810,1838.629195,-296.082377,8882.471304
171.928118,1072.533697,-888.247130,9030.512492
171.928426,689.485948,-814.226536,9400.615463
171.928734,536.266849,-814.226536,9104.533087
171.929042,842.705048,-148.041188,8586.388927
171.929350,1608.800546,666.185348,8660.409521
171.929658,2681.334243,1702.473667,8438.347739
171.929966,1915.238745,1998.556043,8734.430116
171.930274,1532.190996,2072.576638,8808.450710
171.930582,1072.533697,2072.576638,9252.574275
171.930890,229.828649,1998.556043,9918.759623
171.931199,-766.095498,1406.391290,10658.965565
171.931507,-1762.019645,370.102971,11473.192101
171.931815,-2681.334243,-1036.288319,11843.295072
171.932123,-3600.648841,-2294.638420,12361.439231
171.932431,-3524.039291,-2442.679609,12361.439231
171.932739,-3370.820191,-2886.803174,12139.377449
171.933047,-2298.286494,-2516.700203,11547.212695
171.933355,-1455.581446,-1406.391290,11029.068536
171.933663,76.609550,-740.205942,9992.780217
171.933971,1532.190996,-0.000000,9474.636058
171.934279,2298.286494,888.247130,8882.471304
171.934587,3447.429741,1850.514855,8438.347739
171.934895,3217.601092,2072.576638,7772.162391
171.935203,3830.477490,2590.720797,8068.244768
171.935511,3983.696590,1924.535449,7772.162391
171.935819,2987.772442,1406.391290,7698.141797
171.936127,2528.115143,370.102971,8068.244768
171.936435,1838.629195,-296.082377,8512.368333
171.936743,1149.143247,-1036.288319,8882.471304
171.937051,919.314598,-1406.391290,9252.574275
171.937359,0.000000,-888.247130,9474.636058
171.937667,229.828649,-1036.288319,9622.677246
171.937975,919.314598,-296.082377,9770.718434
171.938283,842.705048,888.247130,9548.656652
171.938591,1149.143247,1480.411884,9326.594869
171.938899,1149.143247,1924.535449,9474.636058
171.939207,1532.190996,2368.659014,9474.636058
171.939515,1378.971896,2516.700203,9474.636058
171.939823,919.314598,1850.514855,9548.656652
171.940132,306.438199,1628.453072,10140.821405
171.940440,0.000000,296.082377,10510.924376
171.940748,-995.924147,-814.226536,11103.089130
171.941056,-1915.238745,-1406.391290,11251.130318
171.941364,-2145.067394,-2072.576638,11695.253884
171.941672,-2068.457845,-2516.700203,11251.130318
171.941980,-1762.019645,-2442.679609,11177.109724
171.942288,-689.485948,-1998.556043,11103.089130
171.942596,0.000000,-888.247130,10955.047942
171.942904,1149.143247,-222.061783,9548.656652
171.943212,1915.238745,444.123565,9326.594869
171.943520,2681.334243,1480.411884,8512.368333
171.943828,3140.991542,1702.473667,7994.224174
171.944136,3294.210641,1332.370696,7698.141797
171.944444,3600.648841,1258.350101,7328.038826
171.944752,3064.381992,518.144159,7772.162391
171.945060,1762.019645,222.061783,8216.285956
171.945368,1915.238745,-0.000000,8438.347739
171.945676,1149.143247,-370.102971,8660.409521
171.945984,1225.752797,-370.102971,8586.388927
171.946292,842.705048,-0.000000,8956.491898
171.946600,842.705048,444.123565,9104.533087
171.946908,842.705048,962.267725,9474.636058
171.947216,1149.143247,1332.370696,9548.656652
171.947524,689.485948,1628.453072,9474.636058
171.947832,842.705048,1332.370696,9918.759623
171.948140,229.828649,1554.432478,10362.883188
171.948448,-383.047749,1332.370696,10732.986159
171.948757,-1149.143247,740.205942,10955.047942
171.949065,-1762.019645,-74.020594,11399.171507
171.949373,-1915.238745,-1406.391290,11547.212695
171.949681,-2451.505594,-1406.391290,11843.295072
171.949989,-2451.505594,-1554.432478,12139.377449
171.950297,-2451.505594,-1998.556043,11473.192101
171.950605,-1838.629195,-1628.453072,10658.965565
171.950913,-536.266849,-888.247130,10658.965565
171.951221,383.047749,-148.041188,9770.718434
171.951529,1302.362347,666.185348,9252.574275
171.951837,2911.162892,888.247130,9104.533087
171.952145,2834.553343,1332.370696,8512.368333
171.952453,2987.772442,1406.391290,8586.388927
171.952761,3370.820191,1554.432478,8216.285956
171.953069,2987.772442,1480.411884,8142.265362
171.953377,2374.896044,370.102971,8142.265362
171.953685,1838.629195,148.041188,8290.306550
171.953993,1455.581446,-148.041188,8734.430116
171.954301,995.924147,-962.267725,9104.533087
171.954609,995.924147,-962.267725,9696.697840
171.954917,459.657299,-1110.308913,9326.594869
171.955225,842.705048,-962.267725,9770.718434
171.955533,612.876398,-0.000000,9696.697840
171.955841,689.485948,888.247130,9474.636058
171.956149,1302.362347,1406.391290,9474.636058
171.956457,1455.581446,2220.617826,9030.512492
171.956765,1532.190996,2368.659014,9400.615463
171.957073,1378.971896,2442.679609,9252.574275
171.957381,995.924147,2442.679609,9400.615463
171.957690,536.266849,1480.411884,9622.677246
171.957998,-153.219100,518.144159,9770.718434
171.958306,-1149.143247,-296.082377,10807.006753
171.958614,-1762.019645,-1332.370696,11547.212695
171.958922,-1915.238745,-2072.576638,11473.192101
171.959230,-2221.676944,-2590.720797,11621.233289
171.959538,-1378.971896,-2220.617826,11917.315666
171.959846,-995.924147,-2146.597232,11843.295072
171.960154,-383.047749,-1628.453072,10807.006753
171.960462,612.876398,-740.205942,10510.924376
171.960770,1532.190996,148.041188,9474.636058
171.961078,2528.115143,1184.329507,8734.430116
171.961386,3294.210641,1406.391290,7920.203579
171.961694,4290.134789,1850.514855,7105.977043
171.962002,3830.477490,1628.453072,7179.997637
171.962310,3524.039291,962.267725,7328.038826
171.962618,2604.724693,444.123565,7476.080014
171.962926,1762.019645,222.061783,8364.327145
171.963234,1378.971896,-370.102971,8216.285956
171.963542,995.924147,222.061783,8512.368333
171.963850,995.924147,-74.020594,8808.450710
171.964158,1302.362347,740.205942,9178.553681
171.964466,1149.143247,962.267725,9104.533087
171.964774,612.876398,1036.288319,9030.512492
171.965082,689.485948,1406.391290,9770.718434
171.965390,0.000000,1480.411884,10214.842000
171.965698,-383.047749,1332.370696,10732.986159
171.966006,-689.485948,1110.308913,10881.027347
171.966314,-1685.410096,148.041188,11177.109724
171.966623,-2068.457845,-888.247130,11621.233289
171.966931,-2528.115143,-962.267725,11769.274478
171.967239,-3064.381992,-2072.576638,11769.274478
171.967547,-3064.381992,-2368.659014,11843.295072
171.967855,-2604.724693,-2146.597232,11769.274478
171.968163,-1762.019645,-1924.535449,11103.089130
171.968471,-612.876398,-1036.288319,10436.903782
171.968779,536.266849,-74.020594,9474.636058
171.969087,2145.067394,222.061783,9030.512492
171.969395,2987.772442,1110.308913,8512.368333
171.969703,3524.039291,1702.473667,7920.203579
171.970011,3753.867940,2072.576638,7624.121203
171.970319,3524.039291,2146.597232,7476.080014
171.970627,3217.601092,1850.514855,7698.141797
171.970935,2681.334243,1036.288319,7920.203579
171.971243,2528.115143,148.041188,8290.306550
171.971551,1302.362347,-518.144159,9104.533087
171.971859,383.047749,-1184.329507,9252.574275
171.972167,-153.219100,-1184.329507,9770.718434
171.972475,-383.047749,-1184.329507,9992.780217
171.972783,0.000000,-592.164754,9844.739029
171.973091,383.047749,-0.000000,9696.697840
171.973399,919.314598,962.267725,9474.636058
171.973707,1455.581446,1554.432478,9622.677246
171.974015,1455.581446,2516.700203,9548.656652
171.974323,1762.019645,2442.679609,9178.553681
171.974631,1378.971896,2590.720797,9252.574275
171.974939,995.924147,1850.514855,9400.615463
171.975247,-153.219100,1480.411884,9770.718434
171.975555,-689.485948,-0.000000,11103.089130
171.975863,-1838.629195,-1184.329507,11325.150913
171.976171,-2681.334243,-2294.638420,11621.233289
171.976479,-2451.505594,-2738.761985,12065.356855
171.976787,-2145.067394,-2442.679609,11843.295072
171.977095,-1149.143247,-2442.679609,11769.274478
171.977403,-383.047749,-2072.576638,10732.986159
171.977711,612.876398,-1110.308913,10510.924376
171.978019,1838.629195,-148.041188,9548.656652
171.978327,2987.772442,888.247130,8808.450710
171.978635,3370.820191,1554.432478,8216.285956
171.978943,3907.087040,1850.514855,7402.059420
171.979251,4443.353888,2072.576638,7179.997637
171.979559,3830.477490,1850.514855,6809.894666
171.979867,3140.991542,1036.288319,7328.038826
171.980175,2298.286494,518.144159,7994.224174
171.980483,1302.362347,-0.000000,8364.327145
171.980791,1072.533697,-0.000000,8734.430116
171.981099,459.657299,-74.020594,8364.327145
171.981407,689.485948,296.082377,9104.533087
171.981715,1149.143247,296.082377,9104.533087
171.982023,1455.581446,962.267725,9474.636058
171.982331,1149.143247,1332.370696,9474.636058
171.982639,536.266849,1480.411884,9548.656652
171.982947,306.438199,1776.494261,9992.780217
171.983255,0.000000,1924.535449,10510.924376
171.983563,0.000000,592.164754,10732.986159
171.983871,-995.924147,370.102971,11177.109724
171.984179,-1685.410096,-888.247130,11695.253884
171.984487,-2757.943793,-1702.473667,11843.295072
171.984795,-3294.210641,-2220.617826,11917.315666
171.985102,-3370.820191,-2368.659014,12213.398043
171.985410,-2604.724693,-2368.659014,11843.295072
171.985718,-2145.067394,-1924.535449,11177.109724
171.986026,0.000000,-1480.411884,10510.924376
171.986334,689.485948,-296.082377,10140.821405
171.986642,2068.457845,592.164754,9400.615463
171.986950,3217.601092,1480.411884,8290.306550
171.987258,3830.477490,2368.659014,7994.224174
171.987566,3907.087040,2368.659014,7846.182985
171.987874,3907.087040,2220.617826,7105.977043
171.988182,3064.381992,1480.411884,7179.997637
171.988490,2298.286494,592.164754,8290.306550
171.988798,1685.410096,-444.123565,8882.471304
171.989106,612.876398,-1184.329507,9104.533087
171.989414,-689.485948,-1480.411884,9548.656652
171.989722,-306.438199,-1332.370696,9474.636058
171.990030,-306.438199,-740.205942,10066.800811
171.990338,0.000000,-0.000000,9696.697840
171.990646,689.485948,888.247130,9326.594869
171.990954,1302.362347,1776.494261,9326.594869
171.991262,2068.457845,2368.659014,8882.471304
171.991570,1915.238745,3108.864956,8882.471304
171.991878,1608.800546,3034.844362,9104.533087
171.992186,1225.752797,2664.741391,9474.636058
171.992494,153.219100,1480.411884,9918.759623
171.992802,-766.095498,518.144159,10881.027347
171.993110,-2068.457845,-1480.411884,11991.336260
171.993418,-2604.724693,-2368.659014,12361.439231
171.993726,-3447.429741,-3256.906145,12361.439231
171.994034,-2681.334243,-3256.906145,12657.521608
171.994342,-2145.067394,-3182.885551,11843.295072
171.994650,-995.924147,-2516.700203,11473.192101
171.994957,612.876398,-1110.308913,10658.965565
171.995265,1762.019645,-148.041188,9400.615463
171.995573,3064.381992,1036.288319,8808.450710
171.995881,3907.087040,1850.514855,7698.141797
171.996189,4136.915689,2516.700203,7031.956449
171.996497,4136.915689,2516.700203,7105.977043
171.996805,4366.744339,2220.617826,6957.935855
171.997113,3140.991542,1332.370696,7328.038826
171.997421,2221.676944,518.144159,7994.224174
171.997729,1302.362347,-222.061783,8438.347739
171.998037,842.705048,-592.164754,8882.471304
171.998345,919.314598,-518.144159,8882.471304
171.998653,1608.800546,-0.000000,8438.347739
171.998961,1378.971896,-0.000000,8882.471304
171.999269,1838.629195,888.247130,9030.512492
171.999577,1762.019645,1776.494261,9030.512492
171.999885,1455.581446,1924.535449,9474.636058
172.000193,1302.362347,2220.617826,9548.656652
172.000501,766.095498,2146.597232,9622.677246
172.000809,-229.828649,1258.350101,10362.883188
172.001117,-995.924147,296.082377,11103.089130
172.001425,-2604.724693,-1110.308913,11843.295072
172.001733,-3524.039291,-1998.556043,12805.562797
172.002041,-3983.696590,-2590.720797,12435.459826
172.002349,-4060.306139,-2812.782580,12805.562797
172.002657,-2757.943793,-2738.761985,12287.418637
172.002965,-1991.848295,-2146.597232,11325.150913
172.003273,-919.314598,-1184.329507,10658.965565
172.003581,1608.800546,-0.000000,10288.862594
172.003889,1455.581446,740.205942,9326.594869
172.004197,3064.381992,1258.350101,8512.368333
172.004505,3830.477490,2516.700203,7476.080014
172.004813,4060.306139,2664.741391,7402.059420
172.005120,4060.306139,2442.679609,7328.038826
172.005428,3600.648841,1776.494261,7179.997637
172.005736,2451.505594,888.247130,7550.100608
172.006044,1532.190996,-74.020594,8068.244768
172.006352,995.924147,-888.247130,9104.533087
172.006660,-383.047749,-1036.288319,9548.656652
172.006968,-153.219100,-1258.350101,9474.636058
172.007276,-383.047749,-518.144159,9030.512492
172.007584,0.000000,-222.061783,9696.697840
172.007892,229.828649,1036.288319,9400.615463
172.008200,919.314598,1480.411884,9622.677246
172.008508,1302.362347,2220.617826,9622.677246
172.008816,995.924147,2442.679609,9030.512492
172.009124,919.314598,2442.679609,9326.594869
172.009432,689.485948,2146.597232,9474.636058
172.009740,0.000000,1258.350101,9992.780217
172.010048,-1532.190996,-296.082377,10732.986159
172.010356,-2374.896044,-1850.514855,11843.295072
172.010664,-2911.162892,-2812.782580,12213.398043
172.010972,-3294.210641,-3330.926739,12731.542202
172.011280,-3064.381992,-3627.009116,11917.315666
172.011588,-2604.724693,-2812.782580,11843.295072
172.011896,-919.314598,-2368.659014,11177.109724
172.012204,0.000000,-1184.329507,10140.821405
172.012512,1608.800546,-0.000000,9474.636058
172.012820,3217.601092,1258.350101,8438.347739
172.013128,3524.039291,2368.659014,7698.141797
172.013436,4903.011187,2664.741391,7105.977043
172.013744,4596.572988,2812.782580,6809.894666
172.014052,4366.744339,2146.597232,7105.977043
172.014360,3370.820191,1332.370696,7254.018232
172.014668,2145.067394,592.164754,8142.265362
172.014975,1225.752797,-370.102971,8734.430116
172.015283,766.095498,-888.247130,9030.512492
172.015591,766.095498,-666.185348,9030.512492
172.015899,842.705048,-370.102971,9104.533087
172.016207,1072.533697,-0.000000,8734.430116
172.016515,1532.190996,814.226536,9030.512492
172.016823,1915.238745,1554.432478,9030.512492
172.017131,1532.190996,1776.494261,9104.533087
172.017439,1225.752797,2146.597232,9548.656652
172.017747,842.705048,1924.535449,9992.780217
172.018055,306.438199,1406.391290,10584.944971
172.018363,-536.266849,962.267725,11029.068536
172.018671,-1991.848295,-148.041188,11547.212695
172.018979,-2528.115143,-1184.329507,11917.315666
172.019287,-2834.553343,-1998.556043,12287.418637
172.019595,-3140.991542,-2368.659014,12287.418637
172.019903,-2451.505594,-2368.659014,11843.295072
172.020211,-1608.800546,-1850.514855,11325.150913
172.020519,229.828649,-1258.350101,10807.006753
172.020827,0.000000,-296.082377,9918.759623
172.021135,2068.457845,444.123565,9696.697840
172.021443,2757.943793,1258.350101,8512.368333
172.021751,3140.991542,2072.576638,7994.224174
172.022059,3753.867940,2294.638420,7698.141797
172.022367,3600.648841,1998.556043,7550.100608
172.022675,3370.820191,1554.432478,7846.182985
172.022983,2451.505594,888.247130,8142.265362
172.023291,1762.019645,-0.000000,8438.347739
172.023599,842.705048,-1184.329507,8660.409521
172.023907,306.438199,-1110.308913,9622.677246
172.024215,0.000000,-1406.391290,9622.677246
172.024523,-383.047749,-1036.288319,9326.594869
172.024830,76.609550,-444.123565,9548.656652
172.025138,919.314598,666.185348,9474.636058
172.025446,1532.190996,1850.514855,9400.615463
172.025754,2451.505594,2368.659014,8808.450710
172.026062,2145.067394,2960.823768,8956.491898
172.026370,2221.676944,3478.967927,8660.409521
172.026678,1532.190996,2738.761985,9030.512492
172.026986,766.095498,1924.535449,9622.677246
172.027294,-612.876398,666.185348,10436.903782
172.027602,-1685.410096,-1036.288319,11473.192101
172.027910,-3064.381992,-2368.659014,11917.315666
172.028218,-2987.772442,-2886.803174,12731.542202
172.028526,-3524.039291,-3182.885551,12583.501014
172.028834,-2834.553343,-3108.864956,12509.480420
172.029142,-2298.286494,-2590.720797,12065.356855
172.029450,-766.095498,-1702.473667,11177.109724
172.029758,766.095498,-296.082377,9992.780217
172.030066,2221.676944,444.123565,8882.471304
172.030374,3830.477490,1628.453072,8882.471304
172.030682,4136.915689,2368.659014,7328.038826
172.030990,3983.696590,2516.700203,7402.059420
172.031298,3983.696590,2368.659014,6957.935855
172.031606,3524.039291,1406.391290,7476.080014
172.031914,2298.286494,518.144159,7846.182985
172.032222,1455.581446,-370.102971,8290.306550
172.032530,1072.533697,-666.185348,8512.368333
172.032838,766.095498,-1184.329507,8808.450710
172.033146,1302.362347,-444.123565,9030.512492
172.033454,459.657299,-296.082377,8734.430116
172.033762,1225.752797,518.144159,9030.512492
172.034070,1225.752797,1184.329507,9030.512492
172.034378,1455.581446,1998.556043,9474.636058
172.034685,919.314598,2220.617826,9400.615463
172.034993,229.828649,1998.556043,9918.759623
172.035301,0.000000,1776.494261,10362.883188
172.035609,-1225.752797,740.205942,11251.130318
172.035917,-1608.800546,-148.041188,11547.212695
172.036225,-2681.334243,-1110.308913,11917.315666
172.036533,-3370.820191,-1998.556043,12139.377449
172.036841,-3600.648841,-2442.679609,12287.418637
172.037149,-2911.162892,-2368.659014,11991.336260
172.037457,-2145.067394,-2294.638420,11399.171507
172.037765,-842.705048,-1258.350101,10732.986159
172.038073,612.876398,-740.205942,9770.718434
172.038381,1685.410096,592.164754,9474.636058
172.038689,2681.334243,1480.411884,8512.368333
172.038997,3370.820191,1998.556043,7994.224174
172.039305,3830.477490,2220.617826,7550.100608
172.039613,4060.306139,2220.617826,7698.141797
172.039921,3753.867940,1776.494261,7476.080014
172.040229,2911.162892,814.226536,7550.100608
172.040537,1838.629195,-0.000000,8142.265362
172.040845,1378.971896,-296.082377,9474.636058
172.041153,689.485948,-666.185348,9400.615463
172.041461,229.828649,-1036.288319,9474.636058
172.041769,0.000000,-1036.288319,9474.636058
172.042077,383.047749,-740.205942,9844.739029
172.042385,153.219100,-74.020594,9844.739029
172.042693,766.095498,740.205942,9474.636058
172.043001,1915.238745,1406.391290,9252.574275
172.043309,1685.410096,2368.659014,9030.512492
172.043617,1915.238745,2664.741391,9104.533087
172.043925,1532.190996,2812.782580,9252.574275
172.044233,1072.533697,2294.638420,9400.615463
172.044540,536.266849,1110.308913,9992.780217
172.044848,-536.266849,-0.000000,10955.047942
172.045156,-1149.143247,-1036.288319,11473.192101
172.045464,-2145.067394,-2294.638420,11473.192101
172.045772,-2528.115143,-2664.741391,11917.315666
172.046080,-2374.896044,-2516.700203,11843.295072
172.046388,-1762.019645,-2368.659014,11547.212695
172.046696,-689.485948,-1850.514855,10955.047942
172.047004,-306.438199,-962.267725,10140.821405
172.047312,1608.800546,-296.082377,9770.718434
172.047620,1838.629195,1332.370696,9030.512492
172.047928,3294.210641,1776.494261,8216.285956
172.048236,3447.429741,2146.597232,7698.141797
172.048544,3677.258390,2294.638420,7105.977043
172.048852,3600.648841,1628.453072,7105.977043
172.049160,2987.772442,814.226536,7624.121203
172.049468,1762.019645,296.082377,8068.244768
172.049776,536.266849,-370.102971,8734.430116
172.050084,842.705048,-962.267725,9474.636058
172.050392,153.219100,-740.205942,8956.491898
172.050700,612.876398,-296.082377,9252.574275
172.051008,766.095498,444.123565,9178.553681
172.051316,842.705048,740.205942,9178.553681
172.051624,995.924147,1184.329507,9178.553681
172.051932,919.314598,1554.432478,9622.677246
172.052240,536.266849,1406.391290,10288.862594
172.052548,153.219100,1628.453072,10510.924376
172.052856,-229.828649,1258.350101,11103.089130
172.053164,-1608.800546,444.123565,10955.047942
172.053472,-1915.238745,-222.061783,11325.150913
172.053780,-2451.505594,-1110.308913,11917.315666
172.054088,-2681.334243,-1480.411884,11991.336260
172.054395,-2834.553343,-1924.535449,11843.295072
172.054703,-2681.334243,-1998.556043,11695.253884
172.055011,-1991.848295,-1332.370696,11621.233289
172.055319,-306.438199,-1036.288319,10288.862594
172.055627,306.438199,-0.000000,9770.718434
172.055935,1378.971896,962.267725,8956.491898
172.056243,1991.848295,1332.370696,8734.430116
172.056551,2681.334243,1480.411884,8290.306550
172.056859,3140.991542,1702.473667,8068.244768
172.057167,3217.601092,1184.329507,7624.121203
172.057475,2681.334243,962.267725,7624.121203
172.057783,2298.286494,-0.000000,7698.141797
172.058091,1915.238745,-74.020594,8068.244768
172.058399,1378.971896,-296.082377,8512.368333
172.058707,919.314598,-962.267725,8956.491898
172.059015,459.657299,-888.247130,9326.594869
172.059323,306.438199,-962.267725,9400.615463
172.059631,689.485948,-222.061783,9474.636058
172.059939,536.266849,-0.000000,9326.594869
172.060247,1225.752797,1110.308913,9030.512492
172.060555,1608.800546,2220.617826,9252.574275
172.060863,1608.800546,2664.741391,9252.574275
172.061171,1532.190996,2368.659014,9178.553681
172.061479,1225.752797,2146.597232,9992.780217
172.061787,689.485948,1184.329507,10140.821405
172.062095,-306.438199,296.082377,10881.027347
172.062403,-1072.533697,-1036.288319,11547.212695
172.062711,-2298.286494,-1702.473667,12287.418637
172.063019,-2757.943793,-2590.720797,12509.480420
172.063327,-2911.162892,-2664.741391,12361.439231
172.063635,-1991.848295,-2442.679609,12065.356855
172.063943,-1225.752797,-1998.556043,11325.150913
172.064250,536.266849,-1406.391290,10658.965565
172.064558,1302.362347,-74.020594,9918.759623
172.064866,2298.286494,296.082377,8956.491898
172.065174,3217.601092,1332.370696,7920.203579
172.065482,3907.087040,2146.597232,7476.080014
172.065790,4290.134789,2368.659014,7031.956449
172.066098,4290.134789,2368.659014,6957.935855
172.066406,3677.258390,2072.576638,6809.894666
172.066714,2987.772442,1406.391290,7328.038826
172.067022,2757.943793,592.164754,7476.080014
172.067330,2145.067394,-0.000000,7772.162391
172.067638,1225.752797,-0.000000,8438.347739
172.067946,919.314598,-148.041188,8660.409521
172.068254,536.266849,-222.061783,9400.615463
172.068562,612.876398,-0.000000,9548.656652
172.068870,689.485948,370.102971,9918.759623
172.069178,612.876398,222.061783,10362.883188
172.069486,306.438199,518.144159,10584.944971
172.069794,229.828649,518.144159,10584.944971
172.070102,-229.828649,444.123565,11103.089130
172.070410,-383.047749,370.102971,10955.047942
172.070718,-766.095498,-0.000000,10807.006753
172.071026,-1378.971896,-444.123565,11177.109724
172.071334,-1915.238745,-1110.308913,11473.192101
172.071642,-2528.115143,-1406.391290,11769.274478
172.071950,-2298.286494,-1332.370696,11621.233289
172.072258,-2374.896044,-1628.453072,11103.089130
172.072566,-1302.362347,-1258.350101,10732.986159
172.072875,-459.657299,-148.041188,10140.821405
172.073183,612.876398,222.061783,9770.718434
172.073491,1225.752797,740.205942,9178.553681
172.073799,2451.505594,1184.329507,8956.491898
172.074107,2834.553343,1258.350101,8216.285956
172.074415,2757.943793,1406.391290,7994.224174
172.074723,2987.772442,1258.350101,8216.285956
172.075031,2451.505594,1258.350101,7994.224174
172.075339,2145.067394,148.041188,8142.265362
172.075647,1378.971896,-0.000000,8142.265362
172.075956,919.314598,-444.123565,8586.388927
172.076264,306.438199,-518.144159,9104.533087
172.076572,459.657299,-370.102971,9474.636058
172.076880,306.438199,-148.041188,9696.697840
172.077188,842.705048,222.061783,9178.553681
172.077496,919.314598,1110.308913,9548.656652
172.077804,1302.362347,1924.535449,9400.615463
172.078112,1532.190996,2368.659014,9770.718434
172.078420,1532.190996,2368.659014,9474.636058
172.078728,1378.971896,1998.556043,9622.677246
172.079037,842.705048,1258.350101,10214.842000
172.079345,76.609550,296.082377,10732.986159
172.079653,-1149.143247,-888.247130,11251.130318
172.079961,-1991.848295,-1776.494261,11769.274478
172.080269,-2681.334243,-2294.638420,12139.377449
172.080577,-3217.601092,-2960.823768,12657.521608
172.080885,-3064.381992,-2960.823768,12361.439231
172.081193,-2298.286494,-2738.761985,12065.356855
172.081501,-1149.143247,-2072.576638,11399.171507
172.081810,0.000000,-1480.411884,10510.924376
172.082118,1608.800546,-0.000000,10066.800811
172.082426,2451.505594,888.247130,8660.409521
172.082734,3600.648841,2368.659014,7550.100608
172.083042,4596.572988,2812.782580,6809.894666
172.083350,4519.963438,2960.823768,6513.812290
172.083658,4290.134789,2516.700203,6587.832884
172.083966,3677.258390,1924.535449,7031.956449
172.084274,2451.505594,1184.329507,7476.080014
172.084582,1991.848295,148.041188,7624.121203
172.084891,1532.190996,-370.102971,8142.265362
172.085199,995.924147,-444.123565,8660.409521
172.085507,919.314598,-370.102971,9252.574275
172.085815,1072.533697,-74.020594,9104.533087
172.086123,995.924147,-0.000000,9474.636058
172.086431,919.314598,518.144159,9696.697840
172.086739,1532.190996,666.185348,10288.862594
172.087047,383.047749,1110.308913,10066.800811
172.087355,1225.752797,1258.350101,10362.883188
172.087663,229.828649,740.205942,11029.068536
172.087972,-536.266849,-0.000000,11103.089130
172.088280,-1455.581446,-222.061783,11103.089130
172.088588,-2145.067394,-1036.288319,11695.253884
172.088896,-2757.943793,-2220.617826,11843.295072
172.089204,-2911.162892,-1924.535449,12065.356855
172.089512,-2528.115143,-2294.638420,12139.377449
172.089820,-1915.238745,-1480.411884,11399.171507
172.090128,-1378.971896,-888.247130,10955.047942
172.090436,0.000000,-222.061783,10140.821405
172.090744,995.924147,296.082377,9770.718434
172.091053,2221.676944,1184.329507,8956.491898
172.091361,2604.724693,1776.494261,7846.182985
172.091669,4136.915689,2516.700203,7698.141797
172.091977,3983.696590,2146.597232,7105.977043
172.092285,3294.210641,2368.659014,7105.977043
172.092593,3064.381992,1702.473667,7402.059420
172.092901,2451.505594,814.226536,7624.121203
172.093209,1532.190996,222.061783,7772.162391
172.093517,995.924147,-296.082377,8586.388927
172.093826,842.705048,-666.185348,9178.553681
172.094134,0.000000,-740.205942,9474.636058
172.094442,0.000000,-370.102971,9622.677246
172.094750,-383.047749,814.226536,9844.739029
172.095058,383.047749,1258.350101,9548.656652
172.095366,919.314598,1850.514855,9770.718434
172.095674,1149.143247,2072.576638,9770.718434
172.095982,1149.143247,1998.556043,9770.718434
172.096290,842.705048,1406.391290,9992.780217
172.096598,229.828649,814.226536,10436.903782
172.096907,-306.438199,-74.020594,11177.109724
172.097215,-1685.410096,-1258.350101,11769.274478
172.097523,-2757.943793,-2368.659014,12065.356855
172.097831,-2987.772442,-2590.720797,12731.542202
172.098139,-3064.381992,-3108.864956,12435.459826
172.098447,-3064.381992,-2664.741391,12435.459826
172.098755,-2221.676944,-2368.659014,11991.336260
172.099063,-766.095498,-1406.391290,11103.089130
172.099371,689.485948,-740.205942,9918.759623
172.099679,1915.238745,888.247130,8734.430116
172.099988,3064.381992,2220.617826,8068.244768
172.100296,4060.306139,2886.803174,7031.956449
172.100604,4673.182538,3182.885551,6513.812290
172.100912,4673.182538,3256.906145,5995.668130
172.101220,4060.306139,2516.700203,6587.832884
172.101528,2987.772442,1406.391290,6957.935855
172.101836,2681.334243,666.185348,7698.141797
172.102144,1378.971896,-148.041188,7994.224174
172.102452,919.314598,-444.123565,8808.450710
172.102761,689.485948,-444.123565,9104.533087
172.103069,536.266849,-666.185348,9400.615463
172.103377,229.828649,-592.164754,9622.677246
172.103685,306.438199,148.041188,9548.656652
172.103993,1302.362347,666.185348,9844.739029
172.104301,1225.752797,1184.329507,10214.842000
172.104609,919.314598,1332.370696,10066.800811
172.104917,689.485948,1184.329507,10732.986159
172.105225,0.000000,814.226536,10807.006753
172.105533,-689.485948,-0.000000,10955.047942
172.105842,-1302.362347,-814.226536,11547.212695
172.106150,-2374.896044,-1406.391290,12435.459826
172.106458,-2681.334243,-2072.576638,12139.377449
172.106766,-2451.505594,-2294.638420,12361.439231
172.107074,-2604.724693,-2516.700203,11473.192101
172.107382,-1378.971896,-1480.411884,10955.047942
172.107690,153.219100,-740.205942,10214.842000
172.107998,1685.410096,-0.000000,9474.636058
172.108306,2604.724693,962.267725,8660.409521
172.108614,3524.039291,1924.535449,7994.224174
172.108923,4519.963438,2368.659014,7550.100608
172.109231,4596.572988,2442.679609,7105.977043
172.109539,4060.306139,2146.597232,6957.935855
172.109847,3294.210641,1998.556043,6809.894666
172.110155,2221.676944,1258.350101,7846.182985
172.110463,1608.800546,222.061783,8660.409521
172.110771,612.876398,-0.000000,8882.471304
172.111079,536.266849,-666.185348,9770.718434
172.111387,-383.047749,-592.164754,9474.636058
172.111695,-153.219100,-222.061783,10362.883188
172.112004,-612.876398,-74.020594,9844.739029
172.112312,229.828649,740.205942,9918.759623
172.112620,536.266849,1406.391290,10140.821405
172.112928,919.314598,1702.473667,9992.780217
172.113236,919.314598,2368.659014,10140.821405
172.113544,1149.143247,1480.411884,9918.759623
172.113852,766.095498,1480.411884,10732.986159
172.114160,-689.485948,518.144159,10584.944971
172.114468,-1225.752797,-444.123565,11473.192101
172.114777,-2374.896044,-1480.411884,11917.315666
172.115085,-2834.553343,-2146.597232,11769.274478
172.115393,-2604.724693,-2368.659014,11843.295072
172.115701,-2451.505594,-2442.679609,11251.130318
172.116009,-1455.581446,-2072.576638,11325.150913
172.116317,-536.266849,-1628.453072,10362.883188
172.116625,1149.143247,-222.061783,9622.677246
172.116933,2145.067394,222.061783,8882.471304
172.117241,2604.724693,1406.391290,7920.203579
172.117549,3677.258390,1998.556043,7179.997637
172.117858,4290.134789,2368.659014,6883.915261
172.118166,4366.744339,2220.617826,6365.771101
172.118474,4060.306139,1184.329507,7031.956449
172.118782,2911.162892,-0.000000,7698.141797
172.119090,2145.067394,-592.164754,8438.347739
172.119398,689.485948,-1258.350101,9030.512492
172.119706,229.828649,-1258.350101,9326.594869
172.120014,76.609550,-1480.411884,9548.656652
172.120322,0.000000,-1184.329507,9474.636058
172.120630,0.000000,-666.185348,9548.656652
172.120939,612.876398,-0.000000,9474.636058
172.121247,919.314598,814.226536,9326.594869
172.121555,1149.143247,1702.473667,9622.677246
172.121863,1072.533697,2220.617826,9252.574275
172.122171,1225.752797,2220.617826,9622.677246
172.122479,536.266849,1998.556043,9844.739029
172.122787,0.000000,1110.308913,10288.862594
172.123095,-919.314598,-0.000000,10732.986159
172.123403,-1685.410096,-962.267725,11695.253884
172.123711,-1838.629195,-1628.453072,11843.295072
172.124020,-2451.505594,-2294.638420,11991.336260
172.124328,-1991.848295,-1924.535449,11547.212695
172.124636,-1608.800546,-1702.473667,11103.089130
172.124944,-536.266849,-1184.329507,10510.924376
172.125252,612.876398,-222.061783,10140.821405
172.125560,1455.581446,370.102971,9918.759623
172.125868,2528.115143,1258.350101,9178.553681
172.126176,3217.601092,1258.350101,8364.327145
172.126484,2757.943793,1924.535449,8364.327145
172.126793,2757.943793,2146.597232,8142.265362
172.127101,3064.381992,1924.535449,7772.162391
172.127409,2528.115143,962.267725,7772.162391
172.127717,1991.848295,518.144159,8364.327145
172.128025,1072.533697,-74.020594,8882.471304
172.128333,995.924147,-740.205942,9474.636058
172.128641,536.266849,-666.185348,9400.615463
172.128949,919.314598,-370.102971,9474.636058
172.129257,689.485948,222.061783,9622.677246
172.129565,842.705048,962.267725,9400.615463
172.129874,1378.971896,1776.494261,9400.615463
172.130182,1608.800546,2294.638420,9326.594869
172.130490,1915.238745,2368.659014,9400.615463
172.130798,1762.019645,2516.700203,9252.574275
172.131106,919.314598,1480.411884,9770.718434
172.131414,0.000000,888.247130,10732.986159
172.131722,-1149.143247,-222.061783,11251.130318
172.132030,-1991.848295,-1258.350101,11843.295072
172.132338,-2911.162892,-2368.659014,12287.418637
172.132646,-2987.772442,-2516.700203,12287.418637
172.132955,-3217.601092,-2886.803174,12139.377449
172.133263,-2221.676944,-2368.659014,12065.356855
172.133571,-1455.581446,-1628.453072,11103.089130
172.133879,0.000000,-1110.308913,10658.965565
172.134187,995.924147,-0.000000,9622.677246
172.134495,2221.676944,1036.288319,8512.368333
172.134803,3140.991542,2072.576638,7624.121203
172.135111,3830.477490,2664.741391,6883.915261
172.135419,4596.572988,2590.720797,6587.832884
172.135727,4519.963438,1998.556043,6143.709319
172.136036,3907.087040,1184.329507,6957.935855
172.136344,2528.115143,444.123565,7846.182985
172.136652,1532.190996,-296.082377,8364.327145
172.136960,612.876398,-1036.288319,9252.574275
172.137268,229.828649,-1258.350101,9548.656652
172.137576,-229.828649,-740.205942,9844.739029
172.137884,-306.438199,-740.205942,9992.780217
172.138192,306.438199,-74.020594,9918.759623
172.138500,766.095498,444.123565,9844.739029
172.138809,229.828649,1554.432478,9770.718434
172.139117,536.266849,1628.453072,9696.697840
172.139425,766.095498,1850.514855,9844.739029
172.139733,459.657299,1406.391290,10066.800811
172.140041,153.219100,888.247130,10140.821405
172.140349,-229.828649,148.041188,10510.924376
172.140657,-1302.362347,-1184.329507,11547.212695
172.140965,-2374.896044,-1036.288319,11769.274478
172.141273,-2451.505594,-1998.556043,11917.315666
172.141581,-2451.505594,-2220.617826,11473.192101
172.141890,-2068.457845,-1702.473667,11177.109724
172.142198,-995.924147,-1258.350101,10510.924376
172.142506,76.609550,-518.144159,9992.780217
172.142814,1072.533697,-0.000000,9474.636058
172.143122,1762.019645,1332.370696,9104.533087
172.143430,2911.162892,1998.556043,8586.388927
172.143738,3140.991542,1924.535449,7772.162391
172.144046,3370.820191,2072.576638,7772.162391
172.144354,3140.991542,1628.453072,7920.203579
172.144662,2528.115143,1184.329507,8068.244768
172.144971,2221.676944,370.102971,8438.347739
172.145279,1302.362347,-148.041188,8882.471304
172.145587,919.314598,-740.205942,9326.594869
172.145895,766.095498,-962.267725,9918.759623
172.146203,0.000000,-962.267725,9548.656652
172.146511,306.438199,-444.123565,9400.615463
172.146819,919.314598,222.061783,9474.636058
172.147127,995.924147,1110.308913,9252.574275
172.147435,1378.971896,1850.514855,8956.491898
172.147743,1838.629195,2220.617826,9326.594869
172.148052,2068.457845,2368.659014,9178.553681
172.148360,995.924147,2146.597232,9622.677246
172.148668,536.266849,1554.432478,10288.862594
172.148976,0.000000,518.144159,10584.944971
172.149284,-1378.971896,-222.061783,11177.109724
172.149592,-1991.848295,-1480.411884,11917.315666
172.149900,-2374.896044,-2590.720797,11917.315666
172.150208,-2298.286494,-2368.659014,11843.295072
172.150516,-2221.676944,-2294.638420,11547.212695
172.150825,-1225.752797,-1998.556043,10955.047942
172.151133,-306.438199,-1184.329507,10436.903782
172.151441,1072.533697,-444.123565,9844.739029
172.151749,1991.848295,666.185348,8882.471304
172.152057,3140.991542,1184.329507,8290.306550
172.152365,3907.087040,1702.473667,7772.162391
172.152673,4213.525239,1628.453072,7476.080014
172.152981,4213.525239,1702.473667,7550.100608
172.153289,3294.210641,1184.329507,7624.121203
172.153597,2374.896044,666.185348,8216.285956
172.153906,1685.410096,-0.000000,8512.368333
172.154214,1149.143247,-444.123565,8734.430116
172.154522,842.705048,-518.144159,9252.574275
172.154830,612.876398,-592.164754,9252.574275
172.155138,1072.533697,-0.000000,9474.636058
172.155446,612.876398,-0.000000,9326.594869
172.155754,1149.143247,518.144159,9548.656652
172.156062,995.924147,1110.308913,9474.636058
172.156370,1072.533697,1332.370696,9770.718434
172.156678,842.705048,1480.411884,9844.739029
172.156987,383.047749,1480.411884,10140.821405
172.157295,306.438199,962.267725,10584.944971
172.157603,-842.705048,962.267725,10658.965565
172.157911,-1378.971896,-0.000000,10881.027347
172.158219,-1762.019645,-740.205942,11177.109724
172.158527,-2298.286494,-1036.288319,11695.253884
172.158835,-2834.553343,-1850.514855,11843.295072
172.159143,-2528.115143,-1480.411884,11473.192101
172.159451,-1762.019645,-1258.350101,11251.130318
172.159759,-1378.971896,-1332.370696,10436.903782
172.160068,76.609550,-222.061783,10510.924376
172.160376,842.705048,296.082377,9770.718434
172.160684,1762.019645,518.144159,9030.512492
172.160992,1991.848295,888.247130,8512.368333
172.161300,2451.505594,1184.329507,8438.347739
172.161608,2604.724693,1184.329507,8216.285956
172.161916,2298.286494,666.185348,7920.203579
172.162224,2451.505594,370.102971,7624.121203
172.162532,1532.190996,-0.000000,8290.306550
172.162841,1455.581446,-370.102971,7994.224174
172.163149,1532.190996,-0.000000,8734.430116
172.163457,1072.533697,-0.000000,8882.471304
172.163765,689.485948,222.061783,8734.430116
172.164073,995.924147,444.123565,8956.491898
172.164381,1072.533697,1184.329507,9252.574275
172.164689,1532.190996,1110.308913,9400.615463
172.164997,1149.143247,1924.535449,9548.656652
172.165305,459.657299,1776.494261,9918.759623
172.165613,919.314598,1850.514855,10288.862594
172.165922,76.609550,1258.350101,10140.821405
172.166230,-459.657299,666.185348,10732.986159
172.166538,-1302.362347,-222.061783,10807.006753
172.166846,-1378.971896,-888.247130,11251.130318
172.167154,-2068.457845,-1480.411884,12065.356855
172.167462,-2681.334243,-2294.638420,11547.212695
172.167770,-1991.848295,-2072.576638,12065.356855
172.168078,-2145.067394,-2072.576638,11177.109724
172.168386,-612.876398,-1480.411884,10881.027347
172.168694,0.000000,-518.144159,10288.862594
172.169003,1302.362347,-74.020594,9474.636058
172.169311,2298.286494,1110.308913,8660.409521
172.169619,2834.553343,1628.453072,8290.306550
172.169927,3677.258390,1776.494261,7698.141797
172.170235,3983.696590,1850.514855,7550.100608
172.170543,3677.258390,1258.350101,7476.080014
172.170851,2987.772442,962.267725,7328.038826
172.171159,2068.457845,148.041188,8142.265362
172.171467,1072.533697,-222.061783,8586.388927
172.171775,306.438199,-814.226536,9252.574275
172.172084,306.438199,-666.185348,9252.574275
172.172392,0.000000,-518.144159,9918.759623
172.172700,612.876398,-666.185348,9622.677246
172.173008,612.876398,-0.000000,9622.677246
172.173316,766.095498,814.226536,9622.677246
172.173624,919.314598,1258.350101,9548.656652
172.173932,1072.533697,1554.432478,9770.718434
172.174240,1072.533697,1554.432478,9548.656652
172.174548,536.266849,1702.473667,9992.780217
172.174857,153.219100,1776.494261,10362.883188
172.175165,-689.485948,666.185348,10140.821405
172.175473,-842.705048,-0.000000,10955.047942
172.175781,-1762.019645,-518.144159,11251.130318
172.176089,-2145.067394,-1406.391290,11695.253884
172.176397,-2298.286494,-1702.473667,11843.295072
172.176705,-1762.019645,-1776.494261,11695.253884
172.177013,-689.485948,-1258.350101,11177.109724
172.177321,0.000000,-296.082377,10584.944971
172.177629,1149.143247,-592.164754,10214.842000
172.177938,1378.971896,-74.020594,10288.862594
172.178246,1991.848295,444.123565,9474.636058
172.178554,2604.724693,740.205942,8882.471304
172.178862,2987.772442,1036.288319,8290.306550
172.179170,3140.991542,1184.329507,7846.182985
172.179478,3524.039291,666.185348,7920.203579
172.179786,2528.115143,740.205942,7476.080014
172.180094,2681.334243,-0.000000,7550.100608
172.180402,1991.848295,296.082377,7994.224174
172.180710,1455.581446,-0.000000,8808.450710
172.181018,1149.143247,222.061783,8808.450710
172.181326,1149.143247,370.102971,9104.533087
172.181634,1378.971896,962.267725,9474.636058
172.181942,1378.971896,1036.288319,9548.656652
172.182250,1608.800546,1406.391290,9992.780217
172.182558,1072.533697,1628.453072,9696.697840
172.182866,995.924147,1554.432478,9844.739029
172.183174,689.485948,1554.432478,9844.739029
172.183482,153.219100,740.205942,10140.821405
172.183790,-383.047749,296.082377,10362.883188
172.184098,-1072.533697,-74.020594,10510.924376
172.184406,-1455.581446,-1110.308913,10955.047942
172.184714,-2451.505594,-2072.576638,11399.171507
172.185022,-1378.971896,-2368.659014,11769.274478
172.185330,-2221.676944,-2220.617826,11473.192101
172.185638,-1532.190996,-1776.494261,11325.150913
172.185946,-536.266849,-1258.350101,10658.965565
172.186254,383.047749,-592.164754,10066.800811
172.186562,1608.800546,-370.102971,9400.615463
172.186870,2757.943793,962.267725,8956.491898
172.187178,2911.162892,1628.453072,7920.203579
172.187486,3524.039291,1776.494261,7624.121203
172.187794,3830.477490,1702.473667,7179.997637
172.188102,2987.772442,1332.370696,7328.038826
172.188410,2604.724693,740.205942,7328.038826
172.188718,1991.848295,296.082377,7920.203579
172.189026,1149.143247,-444.123565,8290.306550
172.189334,153.219100,-962.267725,9326.594869
172.189642,76.609550,-740.205942,9252.574275
172.189950,0.000000,-444.123565,9474.636058
172.190258,-229.828649,222.061783,9548.656652
172.190566,459.657299,444.123565,9770.718434
172.190874,459.657299,1184.329507,9548.656652
172.191182,459.657299,1554.432478,9844.739029
172.191490,612.876398,1924.535449,10066.800811
172.191798,153.219100,1702.473667,9770.718434
172.192106,-383.047749,1406.391290,10436.903782
172.192414,-383.047749,592.164754,10214.842000
172.192722,-1532.190996,222.061783,10510.924376
172.193030,-2528.115143,-666.185348,11177.109724
172.193338,-3064.381992,-1332.370696,11769.274478
172.193646,-3064.381992,-1998.556043,11843.295072
172.193954,-2757.943793,-2368.659014,11843.295072
172.194262,-2451.505594,-1998.556043,11621.233289
172.194570,-1838.629195,-1184.329507,11177.109724
172.194878,-229.828649,-1036.288319,10807.006753
172.195186,612.876398,-0.000000,9992.780217
172.195494,1455.581446,518.144159,9178.553681
172.195802,2298.286494,1480.411884,8438.347739
172.196111,3064.381992,1776.494261,7920.203579
172.196419,3524.039291,1850.514855,7846.182985
172.196727,3600.648841,1628.453072,7254.018232
172.197035,2987.772442,1702.473667,7254.018232
172.197343,2374.896044,666.185348,7402.059420
172.197651,2068.457845,444.123565,7772.162391
172.197959,1302.362347,-0.000000,8438.347739
172.198267,842.705048,-148.041188,8956.491898
172.198575,536.266849,-444.123565,9178.553681
172.198883,766.095498,-0.000000,9400.615463
172.199191,842.705048,444.123565,9474.636058
172.199499,1532.190996,888.247130,9696.697840
172.199807,1302.362347,1036.288319,9844.739029
172.200115,842.705048,1480.411884,9844.739029
172.200423,842.705048,1554.432478,10066.800811
172.200731,459.657299,1332.370696,10214.842000
172.201039,0.000000,888.247130,10658.965565
172.201347,-689.485948,-148.041188,11103.089130
172.201655,-1302.362347,-666.185348,11473.192101
172.201963,-2221.676944,-1332.370696,11917.315666
172.202271,-2604.724693,-2072.576638,11695.253884
172.202579,-2145.067394,-2220.617826,11769.274478
172.202887,-1532.190996,-1998.556043,11177.109724
172.203195,-536.266849,-1554.432478,10584.944971
172.203503,383.047749,-814.226536,9992.780217
172.203811,1608.800546,-0.000000,9696.697840
172.204119,2451.505594,666.185348,9030.512492
172.204427,3524.039291,1184.329507,7846.182985
172.204735,3830.477490,1480.411884,7402.059420
172.205043,4366.744339,2146.597232,7105.977043
172.205351,3983.696590,2294.638420,6809.894666
172.205659,3600.648841,1332.370696,6957.935855
172.205967,2834.553343,740.205942,7698.141797
172.206275,2145.067394,-370.102971,8364.327145
172.206583,612.876398,-1110.308913,8956.491898
172.206891,0.000000,-1184.329507,9474.636058
172.207199,229.828649,-888.247130,9918.759623
172.207507,0.000000,-740.205942,9918.759623
172.207815,306.438199,-74.020594,9844.739029
172.208123,459.657299,740.205942,9696.697840
172.208431,995.924147,1332.370696,9696.697840
172.208739,1149.143247,1628.453072,9844.739029
172.209047,919.314598,1998.556043,9696.697840
172.209355,1072.533697,1850.514855,9992.780217
172.209663,229.828649,1184.329507,9992.780217
172.209971,-459.657299,666.185348,10288.862594
172.210279,-1762.019645,-296.082377,11251.130318
172.210587,-2221.676944,-1036.288319,11547.212695
172.210895,-2681.334243,-1850.514855,11769.274478
172.211203,-2451.505594,-2368.659014,11917.315666
172.211511,-2298.286494,-2072.576638,11473.192101
172.211819,-1225.752797,-1850.514855,11177.109724
172.212127,-229.828649,-518.144159,10510.924376
172.212435,766.095498,-0.000000,9770.718434
172.212743,1838.629195,666.185348,9252.574275
172.213051,2221.676944,1480.411884,8586.388927
172.213359,3064.381992,1850.514855,9474.636058
172.213667,2911.162892,1702.473667,7920.203579
172.213975,2987.772442,1406.391290,7476.080014
172.214283,2604.724693,1110.308913,8216.285956
172.214591,2221.676944,1110.308913,7920.203579
172.214899,1608.800546,444.123565,8512.368333
172.215207,1072.533697,148.041188,8586.388927
172.215515,459.657299,-370.102971,9474.636058
172.215823,229.828649,-592.164754,9548.656652
172.216131,536.266849,-444.123565,9770.718434
172.216439,153.219100,-0.000000,9992.780217
172.216747,612.876398,444.123565,9622.677246
172.217055,995.924147,1628.453072,9992.780217
172.217363,1455.581446,1924.535449,9474.636058
172.217671,1685.410096,2294.638420,9326.594869
172.217979,1378.971896,2220.617826,9252.574275
172.218287,689.485948,1554.432478,9844.739029
172.218595,0.000000,444.123565,10288.862594
172.218904,-995.924147,-148.041188,10881.027347
172.219212,-1532.190996,-1258.350101,11325.150913
172.219520,-2374.896044,-1850.514855,11695.253884
172.219828,-2451.505594,-2146.597232,11769.274478
172.220136,-1915.238745,-2368.659014,11843.295072
172.220444,-1378.971896,-2072.576638,11103.089130
172.220752,-536.266849,-1480.411884,10584.944971
172.221060,1302.362347,-1110.308913,10066.800811
172.221368,2145.067394,-0.000000,9104.533087
172.221676,2987.772442,1036.288319,8512.368333
172.221984,3294.210641,1554.432478,7698.141797
172.222292,4290.134789,1776.494261,7105.977043
172.222600,3907.087040,1702.473667,6957.935855
172.222908,3447.429741,1110.308913,7105.977043
172.223216,2681.334243,-0.000000,7328.038826
172.223524,842.705048,-222.061783,8512.368333
172.223832,612.876398,-1258.350101,9104.533087
172.224140,459.657299,-1332.370696,9326.594869
172.224448,0.000000,-814.226536,9622.677246
172.224756,536.266849,-444.123565,9548.656652
172.225064,689.485948,148.041188,9474.636058
172.225372,1072.533697,1332.370696,9178.553681
172.225680,1838.629195,1702.473667,9104.533087
172.225988,1685.410096,2072.576638,8956.491898
172.226296,1149.143247,2368.659014,9252.574275
172.226604,1072.533697,1998.556043,9326.594869
172.226912,153.219100,1850.514855,9844.739029
172.227220,-842.705048,740.205942,10584.944971
172.227528,-1838.629195,-296.082377,11103.089130
172.227836,-2757.943793,-1332.370696,12065.356855
172.228144,-3370.820191,-2368.659014,12139.377449
172.228452,-3370.820191,-2664.741391,12731.542202
172.228760,-3217.601092,-2664.741391,11991.336260
172.229068,-2145.067394,-2442.679609,11399.171507
172.229376,-995.924147,-1406.391290,10807.006753
172.229684,153.219100,-370.102971,10362.883188
172.229992,1302.362347,444.123565,9696.697840
172.230300,2451.505594,1184.329507,8882.471304
172.230608,3294.210641,1702.473667,8364.327145
172.230916,3830.477490,1998.556043,8142.265362
172.231224,3677.258390,2220.617826,7402.059420
172.231532,3524.039291,1554.432478,7105.977043
172.231840,2987.772442,1258.350101,7402.059420
172.232148,2221.676944,370.102971,7550.100608
172.232456,1608.800546,-0.000000,8512.368333
172.232764,919.314598,-666.185348,9252.574275
172.233072,766.095498,-740.205942,9548.656652
172.233380,842.705048,-370.102971,9474.636058
172.233688,383.047749,-0.000000,9844.739029
172.233996,612.876398,740.205942,9696.697840
172.234304,919.314598,1406.391290,9622.677246
172.234612,842.705048,1850.514855,9622.677246
172.234920,919.314598,2146.597232,9474.636058
172.235228,1225.752797,2220.617826,9770.718434
172.235536,689.485948,1776.494261,10214.842000
172.235844,-229.828649,888.247130,10584.944971
172.236152,-1378.971896,-444.123565,10807.006753
172.236460,-2221.676944,-1406.391290,11695.253884
172.236768,-2451.505594,-2072.576638,11991.336260
172.237076,-2604.724693,-2294.638420,11917.315666
172.237384,-2221.676944,-2368.659014,11473.192101
172.237692,-1302.362347,-1998.556043,10955.047942
172.238000,-459.657299,-1406.391290,10214.842000
172.238308,1532.190996,-222.061783,9770.718434
172.238616,2221.676944,-74.020594,8956.491898
172.238924,3370.820191,1258.350101,8660.409521
172.239232,3830.477490,1850.514855,7550.100608
172.239540,4366.744339,1998.556043,7105.977043
172.239848,4213.525239,1776.494261,7105.977043
172.240156,3677.258390,1628.453072,7105.977043
172.240464,2757.943793,518.144159,7550.100608
172.240772,1838.629195,444.123565,8512.368333
172.241080,1072.533697,-740.205942,9104.533087
172.241388,306.438199,-962.267725,9696.697840
172.241696,0.000000,-1184.329507,9696.697840
172.242005,0.000000,-814.226536,9474.636058
172.242313,383.047749,-370.102971,9770.718434
172.242621,842.705048,592.164754,9548.656652
172.242929,1149.143247,1332.370696,9474.636058
172.243237,1225.752797,1850.514855,9178.553681
172.243545,919.314598,2220.617826,9400.615463
172.243853,919.314598,2146.597232,10140.821405
172.244161,383.047749,1702.473667,10140.821405
172.244469,-459.657299,962.267725,10510.924376
172.244777,-1608.800546,-0.000000,11029.068536
172.245085,-2221.676944,-1110.308913,11843.295072
172.245393,-3370.820191,-1332.370696,11991.336260
172.245701,-3140.991542,-1776.494261,12213.398043
172.246009,-2451.505594,-2146.597232,11177.109724
172.246317,-1991.848295,-1554.432478,10955.047942
172.246625,-766.095498,-518.144159,10658.965565
172.246933,229.828649,-74.020594,10214.842000
172.247241,919.314598,444.123565,9548.656652
172.247549,1991.848295,1110.308913,9178.553681
172.247857,2451.505594,1332.370696,8808.450710
172.248165,2834.553343,962.267725,8364.327145
172.248473,2757.943793,1406.391290,8290.306550
172.248781,3140.991542,1110.308913,7994.224174
172.249089,2451.505594,740.205942,8142.265362
172.249397,2221.676944,222.061783,8364.327145
172.249705,1455.581446,-148.041188,8660.409521
172.250013,1302.362347,-370.102971,9104.533087
172.250321,995.924147,-518.144159,8956.491898
172.250629,1072.533697,148.041188,9104.533087
172.250937,612.876398,-74.020594,9326.594869
172.251245,766.095498,370.102971,9474.636058
172.251553,612.876398,1110.308913,9622.677246
172.251861,689.485948,1628.453072,9770.718434
172.252169,689.485948,1776.494261,9770.718434
172.252477,459.657299,1998.556043,9622.677246
172.252785,459.657299,1702.473667,10362.883188
172.253093,76.609550,1036.288319,9918.759623
172.253401,-612.876398,-0.000000,10436.903782
172.253709,-1378.971896,-592.164754,11177.109724
172.254017,-2068.457845,-1184.329507,11103.089130
172.254325,-1685.410096,-1776.494261,11251.130318
172.254633,-1991.848295,-2072.576638,11029.068536
172.254941,-1302.362347,-1406.391290,10732.986159
172.255249,-536.266849,-1554.432478,10214.842000
172.255557,0.000000,-740.205942,10214.842000
172.255865,1072.533697,-444.123565,9548.656652
172.256173,1762.019645,296.082377,9104.533087
172.256481,2757.943793,814.226536,8438.347739
172.256789,2987.772442,1332.370696,7920.203579
172.257097,3677.258390,1184.329507,7476.080014
172.257405,3753.867940,1628.453072,7476.080014
172.257713,3294.210641,370.102971,7698.141797
172.258021,2374.896044,-0.000000,7772.162391
172.258329,1838.629195,-444.123565,8438.347739
172.258637,612.876398,-814.226536,9104.533087
172.258945,689.485948,-592.164754,9252.574275
172.259253,689.485948,-222.061783,9104.533087
172.259561,612.876398,-0.000000,9178.553681
172.259869,1225.752797,296.082377,9474.636058
172.260177,612.876398,1036.288319,9474.636058
172.260485,1149.143247,1110.308913,9548.656652
172.260793,1072.533697,1924.535449,9400.615463
172.261101,919.314598,1850.514855,9844.739029
172.261409,76.609550,1776.494261,10066.800811
172.261717,-153.219100,1332.370696,10584.944971
172.262025,-919.314598,740.205942,10732.986159
172.262333,-1915.238745,-148.041188,11251.130318
172.262641,-2145.067394,-888.247130,12065.356855
172.262949,-3064.381992,-1776.494261,11843.295072
172.263257,-2528.115143,-1406.391290,11917.315666
172.263565,-1915.238745,-1480.411884,11843.295072
172.263873,-1378.971896,-1480.411884,11325.150913
172.264181,-689.485948,-592.164754,10732.986159
172.264489,383.047749,-222.061783,10436.903782
172.264798,1532.190996,222.061783,9622.677246
172.265106,2528.115143,592.164754,9474.636058
172.265414,3064.381992,1184.329507,8956.491898
172.265722,3140.991542,1628.453072,8290.306550
172.266030,3677.258390,1628.453072,7772.162391
172.266338,3524.039291,1258.350101,7402.059420
172.266646,3064.381992,1258.350101,7328.038826
172.266954,2145.067394,666.185348,7476.080014
172.267262,2068.457845,-0.000000,8290.306550
172.267570,1532.190996,-0.000000,9400.615463
172.267878,766.095498,-74.020594,9104.533087
172.268186,153.219100,-370.102971,9548.656652
172.268494,76.609550,-0.000000,9622.677246
172.268802,383.047749,518.144159,10066.800811
172.269110,76.609550,962.267725,10140.821405
172.269418,689.485948,1332.370696,10288.862594
172.269726,459.657299,1258.350101,10288.862594
172.270034,459.657299,1258.350101,10140.821405
172.270342,76.609550,888.247130,10214.842000
172.270650,-1149.143247,518.144159,10436.903782
172.270958,-766.095498,222.061783,10436.903782
172.271266,-1378.971896,-740.205942,10732.986159
172.271574,-1762.019645,-1332.370696,10658.965565
172.271882,-1762.019645,-1628.453072,11251.130318
172.272190,-1762.019645,-1924.535449,10955.047942
172.272498,-1685.410096,-1998.556043,10510.924376
172.272806,-842.705048,-1110.308913,10362.883188
172.273114,459.657299,-888.247130,10288.862594
172.273422,1685.410096,-74.020594,9474.636058
172.273730,2374.896044,666.185348,8660.409521
172.274038,3217.601092,888.247130,8142.265362
172.274346,3447.429741,1110.308913,7550.100608
172.274654,3830.477490,1036.288319,7772.162391
172.274962,3524.039291,888.247130,7105.977043
172.275270,3064.381992,592.164754,7476.080014
172.275578,2068.457845,296.082377,7920.203579
172.275886,1455.581446,-370.102971,8290.306550
172.276194,1149.143247,-444.123565,8734.430116
172.276502,383.047749,-592.164754,8956.491898
172.276810,689.485948,-518.144159,9474.636058
172.277118,306.438199,-222.061783,9548.656652
172.277426,383.047749,-222.061783,9622.677246
172.277734,459.657299,444.123565,9918.759623
172.278042,306.438199,1332.370696,9770.718434
172.278350,383.047749,1628.453072,9918.759623
172.278658,383.047749,1850.514855,10140.821405
172.278966,0.000000,1850.514855,10140.821405
172.279274,-76.609550,1184.329507,10288.862594
172.279582,-689.485948,592.164754,10584.944971
172.279890,-1302.362347,-0.000000,11177.109724
172.280198,-2221.676944,-740.205942,11621.233289
172.280506,-2374.896044,-1184.329507,11251.130318
172.280814,-2221.676944,-1332.370696,11695.253884
172.281122,-1455.581446,-1406.391290,11251.130318
172.281430,-919.314598,-1184.329507,10807.006753
172.281738,0.000000,-1110.308913,10362.883188
172.282046,995.924147,-814.226536,10140.821405
172.282354,1302.362347,-148.041188,9770.718434
172.282662,2528.115143,592.164754,9400.615463
172.282970,3217.601092,1184.329507,8364.327145
172.283278,3524.039291,1776.494261,7402.059420
172.283586,3677.258390,1850.514855,7476.080014
172.283894,3983.696590,1776.494261,7179.997637
172.284202,3370.820191,1184.329507,7254.018232
172.284510,2451.505594,518.144159,8216.285956
172.284818,1838.629195,-0.000000,8808.450710
172.285126,1378.971896,-0.000000,9326.594869
172.285434,306.438199,-148.041188,9622.677246
172.285742,229.828649,-370.102971,10436.903782
172.286050,383.047749,-0.000000,10214.842000
172.286358,306.438199,592.164754,10140.821405
172.286666,1149.143247,1184.329507,10362.883188
172.286974,995.924147,1554.432478,9992.780217
172.287282,766.095498,1702.473667,9992.780217
172.287590,919.314598,1776.494261,9992.780217
172.287898,536.266849,1480.411884,9770.718434
172.288206,0.000000,1036.288319,9696.697840
172.288514,-536.266849,370.102971,10510.924376
172.288822,-1302.362347,-296.082377,10510.924376
172.289130,-1532.190996,-814.226536,11251.130318
172.289438,-1302.362347,-1554.432478,11177.109724
172.289746,-1838.629195,-2072.576638,11325.150913
172.290054,-1378.971896,-1998.556043,11251.130318
172.290362,-689.485948,-1258.350101,10658.965565
172.290670,383.047749,-740.205942,9992.780217
172.290978,1302.362347,-444.123565,9696.697840
172.291286,2221.676944,148.041188,8882.471304
172.291594,2757.943793,740.205942,7994.224174
172.291902,3064.381992,1184.329507,7920.203579
172.292210,3217.601092,1184.329507,7624.121203
172.292518,3217.601092,1036.288319,7179.997637
172.292826,2604.724693,740.205942,7402.059420
172.293134,1762.019645,222.061783,7698.141797
172.293442,919.314598,-222.061783,8290.306550
172.293750,766.095498,-518.144159,8808.450710
172.294058,0.000000,-1036.288319,9326.594869
172.294366,0.000000,-592.164754,9548.656652
172.294674,306.438199,-0.000000,9770.718434
172.294982,76.609550,370.102971,9696.697840
172.295290,459.657299,888.247130,9992.780217
172.295598,153.219100,1332.370696,9844.739029
172.295906,229.828649,1776.494261,9918.759623
172.296214,0.000000,1554.432478,10066.800811
172.296522,-229.828649,1258.350101,9992.780217
172.296830,-1915.238745,888.247130,10288.862594
172.297138,-1302.362347,-74.020594,10732.986159
172.297446,-2145.067394,-962.267725,11399.171507
172.297754,-3064.381992,-1554.432478,11843.295072
172.298062,-2911.162892,-1924.535449,11917.315666
172.298370,-2681.334243,-2146.597232,11843.295072
172.298678,-1915.238745,-1924.535449,11473.192101
172.298986,-1072.533697,-1184.329507,11177.109724
172.299294,306.438199,-814.226536,10955.047942
172.299601,1149.143247,74.020594,9992.780217
172.299909,2528.115143,666.185348,8956.491898
172.300217,3294.210641,1628.453072,8142.265362
172.300525,3600.648841,2294.638420,7179.997637
172.300833,4366.744339,2368.659014,6883.915261
172.301141,4443.353888,2368.659014,6587.832884
172.301449,3600.648841,1628.453072,6809.894666
172.301757,2757.943793,740.205942,7920.203579
172.302065,1838.629195,74.020594,8364.327145
172.302373,919.314598,-518.144159,9326.594869
172.302681,153.219100,-962.267725,9918.759623
172.302989,0.000000,-1036.288319,10436.903782
172.303297,-153.219100,-814.226536,10584.944971
172.303605,229.828649,-74.020594,10584.944971
172.303913,612.876398,148.041188,10807.006753
172.304221,612.876398,1702.473667,10584.944971
172.304529,1378.971896,1702.473667,9992.780217
172.304837,1455.581446,2220.617826,9770.718434
172.305145,1072.533697,1998.556043,9770.718434
172.305453,536.266849,1776.494261,9474.636058
172.305761,0.000000,1110.308913,9696.697840
172.306069,0.000000,222.061783,10436.903782
172.306377,-1455.581446,-1184.329507,10955.047942
172.306685,-1532.190996,-1702.473667,11547.212695
172.306993,-2451.505594,-1480.411884,11991.336260
172.307301,-1072.533697,-2516.700203,11399.171507
172.307609,-536.266849,-1702.473667,10881.027347
172.307917,306.438199,-1110.308913,10510.924376
172.308225,1378.971896,-444.123565,9622.677246
172.308533,2451.505594,444.123565,8956.491898
172.308841,2911.162892,962.267725,8142.265362
172.309149,4136.915689,1628.453072,7698.141797
172.309457,3753.867940,1850.514855,7105.977043
172.309765,3370.820191,1850.514855,6957.935855
172.310073,3294.210641,962.267725,7402.059420
172.310381,2298.286494,740.205942,7402.059420
172.310689,1149.143247,-296.082377,9030.512492
172.310997,459.657299,-518.144159,8660.409521
172.311305,0.000000,-814.226536,9770.718434
172.311613,-306.438199,-666.185348,10214.842000
172.311921,0.000000,-370.102971,9474.636058
172.312229,229.828649,-222.061783,9918.759623
172.312537,459.657299,444.123565,9474.636058
172.312845,689.485948,1776.494261,9474.636058
172.313153,689.485948,1776.494261,9548.656652
172.313461,383.047749,1628.453072,9918.759623
172.313769,0.000000,1554.432478,9548.656652
172.314077,-536.266849,740.205942,10066.800811
172.314385,-1149.143247,-74.020594,11103.089130
