#time,accel_x,accel_y,accel_z
665.583669,-133.998066,-95.712904,-10202.995566
665.586366,-0.000000,2067.398726,-9973.284597
665.589062,-76.570323,4881.358104,-9245.866526
665.591758,248.853550,5283.352301,-9513.862658
665.594455,267.996131,5915.057467,-10892.128475
665.597151,-267.996131,1569.691626,-6929.614250
665.599847,-497.707101,-535.992262,-11810.972354
665.602544,-76.570323,-7082.754896,-9073.583299
665.605240,-440.279358,-10183.852986,-8690.731683
665.607936,19.142581,-10298.708470,-10834.700733
665.610633,-153.140646,-765.703232,-9915.856854
665.613329,-459.421939,440.279358,-6833.901346
665.616026,440.279358,-1588.834206,-13150.953010
665.618722,-19.142581,-957.129040,-7963.313613
665.621418,363.709035,-2163.111630,-8097.311678
665.624115,-76.570323,-2813.959378,-12366.107197
665.626747,-823.130974,-3962.514226,-7503.891674
665.629380,-0.000000,-7982.456194,-8441.878133
665.632013,-133.998066,-11179.267187,-11408.978157
665.634645,-555.134843,-7197.610381,-9667.003304
665.637278,-612.562586,57.427742,-9934.999435
665.639911,612.562586,708.275490,-10375.278794
665.642543,172.283227,4977.071008,-8614.161360
665.645176,-497.707101,6278.766502,-8269.594906
665.647809,593.420005,287.138712,-11102.696864
665.650441,-842.273555,-3196.810994,-9552.147819
665.653074,133.998066,-5570.491013,-8575.876198
665.655707,57.427742,-7465.606512,-9188.438784
665.658339,-937.986459,-3407.379382,-12634.103328
665.660972,38.285162,-937.986459,-8422.735552
665.663605,210.568389,1014.556782,-7637.889739
665.666237,-210.568389,5130.211654,-13016.954944
665.668870,-0.000000,4383.651003,-8116.454259
665.671502,-229.710970,842.273555,-7867.600709
665.674135,248.853550,-3139.383251,-12136.396227
665.676768,-229.710970,-5034.498750,-8154.739421
665.679400,95.712904,-5091.926493,-9954.142016
665.682033,-669.990328,-3885.943902,-11619.546546
665.684666,842.273555,-3809.373579,-6853.043926
665.687298,765.703232,2565.105827,-10068.997501
665.689931,-1339.980656,6699.903280,-13495.519464
665.692564,210.568389,4689.932296,-5111.069074
665.695196,306.281293,1339.980656,-9915.856854
665.697829,-459.421939,-3637.090352,-10911.271056
665.700462,-38.285162,-6297.909083,-9131.011042
665.703094,-574.277424,-6125.625856,-9667.003304
665.705727,-95.712904,-6374.479406,-9934.999435
665.708360,38.285162,-76.570323,-10126.425243
665.710958,-478.564520,4173.082614,-10279.565890
665.713557,382.851616,3158.525832,-8327.022648
665.716156,-95.712904,4058.227130,-9839.286531
665.718754,172.283227,382.851616,-10604.989763
665.721353,-344.566454,-3541.377448,-8595.018779
665.723951,-172.283227,-5264.209720,-10470.991698
665.726550,-133.998066,-5934.200048,-9265.009107
665.729148,-76.570323,-2335.394858,-9322.436850
665.731747,-823.130974,1875.972918,-12289.536874
665.734346,535.992262,1550.549045,-6317.051664
665.736944,19.142581,2469.392923,-10470.991698
665.739543,-76.570323,976.271621,-10624.132344
665.742141,76.570323,-1933.400661,-8059.026517
665.744740,-363.709035,-2297.109696,-9973.284597
665.747339,210.568389,-5053.641331,-9226.723946
665.749937,-210.568389,-3120.240670,-10279.565890
665.752536,-497.707101,191.425808,-10738.987829
665.755134,114.855485,-995.414202,-7676.174901
665.757733,-191.425808,1186.840010,-9609.575562
665.760332,306.281293,2699.103893,-9552.147819
665.762930,-248.853550,-842.273555,-8729.016845
665.765529,-133.998066,-2526.820666,-10777.272990
665.768127,-153.140646,-2584.248408,-8767.302006
665.770726,57.427742,-3943.371645,-8690.731683
665.773325,-708.275490,-880.558717,-12634.103328
665.775923,-76.570323,153.140646,-8537.591037
665.778522,516.849682,-363.709035,-7350.751027
665.781120,-746.560651,823.130974,-12902.099459
665.783719,210.568389,-612.562586,-8269.594906
665.786318,-267.996131,-478.564520,-7408.178770
665.788916,-38.285162,-1761.117434,-12193.823970
665.791515,95.712904,-2182.254211,-8997.012976
665.794113,-153.140646,-516.849682,-8824.729749
665.796712,-191.425808,-727.418070,-12978.669782
665.799311,823.130974,-1186.840010,-6661.618118
665.801909,114.855485,650.847747,-8633.303941
665.804508,-765.703232,-612.562586,-12672.388490
665.807106,421.136778,-1512.263883,-7580.461997
665.809705,-153.140646,-153.140646,-8920.442653
665.812303,-401.994197,-2392.822600,-10815.558152
665.814878,210.568389,-2048.256146,-9571.290400
665.817452,-306.281293,-306.281293,-9245.866526
665.820026,-38.285162,-1722.832272,-9934.999435
665.822600,-57.427742,19.142581,-10604.989763
665.825175,-267.996131,899.701298,-8767.302006
665.827749,229.710970,-631.705166,-9265.009107
665.830323,-363.709035,-746.560651,-10930.413637
665.832897,248.853550,-2335.394858,-9150.153622
665.835472,-57.427742,-2373.680019,-8614.161360
665.838046,-114.855485,-1167.697429,-11830.114934
665.840620,-153.140646,-976.271621,-8709.874264
665.843194,-76.570323,-114.855485,-8614.161360
665.845769,191.425808,-191.425808,-11753.544611
665.848343,-363.709035,-535.992262,-8327.022648
665.850917,248.853550,-172.283227,-9073.583299
665.853491,-76.570323,-1512.263883,-10432.706536
665.856066,-421.136778,-1033.699363,-9360.722011
665.858640,229.710970,-172.283227,-9284.151688
665.861214,-306.281293,-2239.681954,-9590.432981
665.863788,-76.570323,-1741.974853,-10815.558152
665.866363,-38.285162,-287.138712,-9475.577496
665.868937,-19.142581,-1473.978722,-8001.598774
665.871511,-114.855485,-478.564520,-10222.138147
665.874085,-172.283227,1110.269686,-9399.007173
665.876660,574.277424,-1971.685822,-8078.169098
665.879234,-708.275490,-1205.982590,-12040.683323
665.881808,-76.570323,-1320.838075,-8977.870395
665.884382,306.281293,-2373.680019,-8307.880067
665.886957,-631.705166,-516.849682,-12155.538808
665.889531,38.285162,-459.421939,-8671.589102
665.892105,325.423874,-210.568389,-7829.315547
665.894679,-191.425808,-344.566454,-12480.962682
665.897254,19.142581,-1359.123237,-7867.600709
665.899828,765.703232,-1148.554848,-8652.446522
665.902402,-1033.699363,-880.558717,-11638.689126
665.904976,-76.570323,-689.132909,-8920.442653
665.907551,-133.998066,497.707101,-8384.450390
665.910125,-382.851616,-2009.970984,-12634.103328
665.912699,325.423874,-2603.390989,-7771.887805
665.915273,-401.994197,-76.570323,-9475.577496
665.917830,114.855485,-1856.830338,-10968.698798
665.920386,-363.709035,95.712904,-8729.016845
665.922943,-57.427742,1225.125171,-9188.438784
665.925499,-19.142581,-1397.408398,-9743.573627
665.928056,-421.136778,-784.845813,-10470.991698
665.930612,57.427742,-1416.550979,-9111.868461
665.933169,133.998066,-2411.965181,-8824.729749
665.935726,-440.279358,-1014.556782,-11600.403965
665.938282,38.285162,-1071.984525,-8690.731683
665.940839,-76.570323,-267.996131,-8633.303941
665.943395,-229.710970,95.712904,-11255.837510
665.945952,-57.427742,-1205.982590,-9111.868461
665.948508,210.568389,-1397.408398,-8135.596840
665.951065,-401.994197,-1110.269686,-11868.400096
665.953621,-363.709035,-1646.261949,-8767.302006
665.956178,421.136778,-593.420005,-8518.448456
665.958734,-440.279358,-861.416136,-11160.124606
665.961291,-38.285162,-1665.404530,-9245.866526
665.963847,-0.000000,57.427742,-8958.727814
665.966404,-287.138712,-1780.260014,-9705.288466
665.968960,-593.420005,-1129.412267,-10317.851051
665.971517,191.425808,459.421939,-9475.577496
665.974073,210.568389,-1588.834206,-8882.157491
665.976630,-899.701298,-325.423874,-12423.534939
665.979187,191.425808,114.855485,-8786.444587
665.981743,1225.125171,-1722.832272,-5704.489078
665.984300,-1588.834206,-172.283227,-13131.810429
665.986856,38.285162,-344.566454,-9552.147819
665.989413,1282.552914,-2967.100024,-5283.352301
665.991969,-765.703232,-1282.552914,-13514.662045
665.994526,210.568389,-1588.834206,-10356.136213
665.997082,-114.855485,-669.990328,-5761.916821
665.999639,-765.703232,746.560651,-12921.242040
666.002195,-689.132909,1110.269686,-10700.702667
666.004752,267.996131,937.986459,-7216.752962
666.007308,133.998066,-1569.691626,-9207.581365
666.009865,-363.709035,-3215.953574,-11791.829773
666.012421,248.853550,-2086.541307,-9092.725880
666.014978,95.712904,-3713.660675,-6929.614250
666.017534,-76.570323,-1875.972918,-13495.519464
666.019895,-401.994197,1473.978722,-9245.866526
666.022271,612.562586,325.423874,-8537.591037
666.024647,-516.849682,287.138712,-13112.667848
666.027023,-306.281293,842.273555,-7905.885870
666.029399,765.703232,-2718.246474,-6776.473603
666.031774,-593.420005,-1990.828403,-14873.785282
666.034150,-478.564520,-1148.554848,-8078.169098
666.036526,918.843878,-3503.092286,-5340.780043
666.038902,-1014.556782,-516.849682,-15314.064640
666.041278,-287.138712,191.425808,-9437.292334
666.043653,976.271621,-38.285162,-4211.367776
666.046029,-803.988394,899.701298,-14529.218827
666.048405,-421.136778,-76.570323,-10317.851051
666.050781,765.703232,-746.560651,-4402.793584
666.053157,-267.996131,-2469.392923,-12959.527202
666.055533,-516.849682,-3158.525832,-11638.689126
666.057908,593.420005,-1091.127106,-4383.651003
666.060284,-325.423874,-842.273555,-14165.509792
666.062660,-535.992262,-459.421939,-10375.278794
666.065036,287.138712,1397.408398,-4862.215523
666.067412,382.851616,-803.988394,-12098.111066
666.069787,-899.701298,-1052.841944,-11619.546546
666.072163,-76.570323,-153.140646,-6623.332957
666.074539,823.130974,-3847.658741,-8882.157491
666.076915,-1148.554848,-1454.836141,-14031.511726
666.079291,-267.996131,-191.425808,-7312.465866
666.081667,1225.125171,-3005.385186,-6795.616184
666.084042,-976.271621,0.000000,-14720.644635
666.086418,-76.570323,248.853550,-8269.594906
666.088794,-210.568389,306.281293,-6393.621987
666.091170,-516.849682,1071.984525,-13629.517530
666.093546,267.996131,421.136778,-8920.442653
666.095921,19.142581,-1416.550979,-5302.494882
666.098297,-210.568389,-3024.527766,-14797.214958
666.100673,-401.994197,-4536.791650,-9054.440718
666.103049,287.138712,-2660.818731,-6221.338760
666.105425,-19.142581,-1646.261949,-13859.228499
666.107801,-861.416136,421.136778,-8805.587168
666.110176,784.845813,2584.248408,-6431.907149
666.112552,114.855485,1454.836141,-11351.550414
666.114988,-1186.840010,191.425808,-11351.550414
666.117425,746.560651,-1339.980656,-6910.471669
666.119861,191.425808,-4000.799387,-9035.298138
666.122297,-1071.984525,-2507.678085,-14242.080115
666.124733,133.998066,-1435.693560,-7274.180704
666.127169,133.998066,-2431.107762,-8575.876198
666.129606,-1052.841944,248.853550,-13016.954944
666.132042,440.279358,1875.972918,-8403.592971
666.134478,267.996131,-114.855485,-6317.051664
666.136914,-784.845813,95.712904,-14701.502054
666.139350,172.283227,-631.705166,-8154.739421
666.141786,669.990328,-2584.248408,-5991.627790
666.144223,-842.273555,-2182.254211,-14797.214958
666.146659,-535.992262,-2871.387120,-8843.872330
666.149095,1148.554848,-1110.269686,-5723.631659
666.151531,-287.138712,76.570323,-13897.513661
666.153967,650.847747,669.990328,-10834.700733
666.156404,-1512.263883,3771.088418,-3962.514226
666.158840,1627.119368,-2450.250342,-12653.245909
666.161276,-1971.685822,-2986.242605,-10853.843314
666.163712,1818.545176,-4287.938099,-5781.059402
666.166148,-1378.265818,-3503.092286,-12710.673651
666.168585,-210.568389,-803.988394,-11753.544611
666.171021,-306.281293,2565.105827,-6814.758765
666.173457,612.562586,153.140646,-11121.839445
666.175893,114.855485,325.423874,-9839.286531
666.178329,-1110.269686,2507.678085,-7905.885870
666.180766,631.705166,-1167.697429,-11294.122672
666.183202,-861.416136,-401.994197,-9513.862658
666.185638,153.140646,-2143.969050,-7637.889739
666.188074,229.710970,-4134.797453,-10987.841379
666.190510,-976.271621,-2660.818731,-10700.702667
666.192947,746.560651,-4421.936165,-7963.313613
666.195383,-535.992262,57.427742,-10068.997501
666.197819,-421.136778,2105.683888,-11006.983960
666.200255,95.712904,2258.824534,-9552.147819
666.202691,-574.277424,1665.404530,-8173.882002
666.205127,459.421939,-842.273555,-10681.560086
666.207564,-19.142581,-3101.098090,-9456.434915
666.210000,-746.560651,-2048.256146,-9494.720077
666.212472,421.136778,-4709.074877,-9781.858789
666.214945,-325.423874,-2584.248408,-9513.862658
666.217417,-95.712904,1454.836141,-10413.563955
666.219889,95.712904,-287.138712,-8786.444587
666.222361,-421.136778,823.130974,-9934.999435
666.224834,248.853550,1741.974853,-9954.142016
666.227306,-153.140646,-1091.127106,-7982.456194
666.229778,-114.855485,-1761.117434,-11676.974288
666.232251,76.570323,-2067.398726,-8863.014910
666.234723,-153.140646,-2967.100024,-8709.874264
666.237195,-95.712904,-1722.832272,-12155.538808
666.239668,459.421939,114.855485,-9016.155557
666.242140,-516.849682,363.709035,-7121.040058
666.244612,-114.855485,1550.549045,-12634.103328
666.247085,38.285162,535.992262,-9131.011042
666.249557,-114.855485,-689.132909,-6661.618118
666.252029,-0.000000,-2048.256146,-13055.240106
666.254502,-248.853550,-3407.379382,-7810.172966
666.256974,-76.570323,-1225.125171,-9705.288466
666.259446,-267.996131,-2737.389054,-11064.411702
666.261919,229.710970,-2067.398726,-7982.456194
666.264391,-440.279358,1684.547110,-10470.991698
666.266863,344.566454,-1378.265818,-9686.145885
666.269336,-76.570323,-937.986459,-8671.589102
666.271808,-95.712904,1205.982590,-10126.425243
666.274280,-57.427742,-382.851616,-11160.124606
666.276753,-593.420005,-287.138712,-7886.743290
666.279225,210.568389,-229.710970,-10547.562021
666.281697,-191.425808,-2986.242605,-9533.005238
666.284170,-478.564520,-957.129040,-10336.993632
666.286642,-363.709035,-842.273555,-9820.143950
666.289114,401.994197,-2718.246474,-7695.317482
666.291587,-172.283227,-478.564520,-12136.396227
666.294059,-267.996131,-1148.554848,-8843.872330
666.296531,612.562586,-1301.695494,-7829.315547
666.299004,-612.562586,1071.984525,-12480.962682
666.301476,229.710970,-1416.550979,-8480.163294
666.303948,-172.283227,-57.427742,-9035.298138
666.306421,-38.285162,-1110.269686,-10892.128475
666.308893,76.570323,-2048.256146,-8748.159426
666.311392,-133.998066,-861.416136,-8097.311678
666.313890,-267.996131,-1550.549045,-11198.409768
666.316389,210.568389,-2431.107762,-9207.581365
666.318888,-133.998066,631.705166,-9705.288466
666.321387,-248.853550,-191.425808,-10509.276859
666.323885,746.560651,-823.130974,-8939.585234
666.326384,-976.271621,1895.115499,-9418.149754
666.328883,746.560651,-2316.252277,-9858.429112
666.331381,-937.986459,-1301.695494,-10260.423309
666.333880,-57.427742,-1646.261949,-8824.729749
666.336379,401.994197,-3273.381317,-9418.149754
666.338877,-248.853550,382.851616,-11332.407834
666.341376,-631.705166,957.129040,-8327.022648
666.343875,689.132909,-708.275490,-8863.014910
666.346374,-555.134843,-19.142581,-10432.706536
666.348872,287.138712,-1225.125171,-8882.157491
666.351371,-421.136778,-2143.969050,-9609.575562
666.353870,19.142581,-2029.113565,-11179.267187
666.356368,-555.134843,-1646.261949,-8307.880067
666.358867,612.562586,-669.990328,-9609.575562
666.361366,-287.138712,-421.136778,-10585.847182
666.363865,382.851616,-1416.550979,-8039.883936
666.366363,-516.849682,1512.263883,-10987.841379
666.368862,-191.425808,-267.996131,-9073.583299
666.371361,-95.712904,-1148.554848,-8824.729749
666.373859,-229.710970,95.712904,-11370.692995
666.376358,-133.998066,-2584.248408,-8020.741355
666.378857,-76.570323,-2105.683888,-10011.569758
666.381356,-76.570323,-1837.687757,-11236.694930
666.383854,153.140646,-2928.814862,-7293.323285
666.386353,95.712904,-669.990328,-11217.552349
666.388852,-516.849682,2488.535504,-10700.702667
666.391350,478.564520,-421.136778,-6183.053598
666.393849,-478.564520,229.710970,-12921.242040
666.396348,-114.855485,-746.560651,-8384.450390
666.398847,-95.712904,-2641.676150,-8212.167163
666.401345,-57.427742,-2009.970984,-13074.382686
666.403844,-153.140646,-2067.398726,-7791.030386
666.406343,229.710970,-229.710970,-8748.159426
666.408841,191.425808,287.138712,-12040.683323
666.411356,-823.130974,-267.996131,-7331.608446
666.413871,708.275490,-172.283227,-10126.425243
666.416386,-516.849682,-1091.127106,-10336.993632
666.418901,363.709035,-2048.256146,-8307.880067
666.421415,133.998066,-765.703232,-10126.425243
666.423930,-191.425808,-1359.123237,-10068.997501
666.426445,-153.140646,-1684.547110,-9073.583299
666.428960,38.285162,-76.570323,-9877.571693
666.431475,-210.568389,-2220.539373,-9437.292334
666.433989,-19.142581,-650.847747,-9303.294269
666.436504,-287.138712,1186.840010,-10719.845248
666.439019,95.712904,-1799.402595,-8135.596840
666.441534,-344.566454,-344.566454,-10911.271056
666.444049,38.285162,-612.562586,-9934.999435
666.446563,38.285162,-1895.115499,-7791.030386
666.449078,-650.847747,-803.988394,-12002.398162
666.451593,-19.142581,-2220.539373,-8633.303941
666.454108,497.707101,-1512.263883,-8097.311678
666.456623,57.427742,-440.279358,-12117.253646
666.459137,-631.705166,650.847747,-8882.157491
666.461652,-153.140646,1493.121302,-8958.727814
666.464167,-57.427742,899.701298,-10490.134278
666.466682,-153.140646,-1225.125171,-9628.718142
666.469197,-76.570323,-1186.840010,-9169.296203
666.471711,38.285162,-3828.516160,-9877.571693
666.474226,-555.134843,-3388.236802,-10394.421374
666.476741,-114.855485,-287.138712,-8939.585234
666.479256,382.851616,-2488.535504,-8901.300072
666.481771,-746.560651,-267.996131,-10624.132344
666.484285,191.425808,1493.121302,-9609.575562
666.486800,153.140646,-1033.699363,-8441.878133
666.489315,-746.560651,172.283227,-12557.533005
666.491830,382.851616,497.707101,-8729.016845
666.494345,516.849682,-1607.976787,-7714.460062
666.496859,-1110.269686,-784.845813,-12557.533005
666.499374,382.851616,-2067.398726,-8709.874264
666.501889,306.281293,-3254.238736,-7293.323285
666.504404,-861.416136,-976.271621,-13763.515595
666.506919,287.138712,-1646.261949,-8518.448456
666.509433,267.996131,-191.425808,-6642.475538
666.511958,-344.566454,1263.410333,-13686.945272
666.514483,-248.853550,344.566454,-8709.874264
666.517007,650.847747,-325.423874,-6623.332957
666.519532,-593.420005,-1550.549045,-13093.525267
666.522057,-248.853550,-2488.535504,-8843.872330
666.524581,765.703232,-1607.976787,-7963.313613
666.527106,-803.988394,-2699.103893,-10738.987829
666.529630,-95.712904,-1225.125171,-7829.315547
666.532155,-57.427742,1339.980656,-8231.309744
666.534680,-38.285162,-689.132909,-11906.685258
666.537204,-38.285162,-650.847747,-8958.727814
666.539729,-19.142581,937.986459,-8461.020714
666.542253,-19.142581,-1914.258080,-10547.562021
666.544778,-421.136778,-1435.693560,-10585.847182
666.547303,133.998066,-1493.121302,-7676.174901
666.549827,-133.998066,-2411.965181,-10164.710405
666.552352,-38.285162,-746.560651,-11523.833642
666.554877,-306.281293,-727.418070,-7580.461997
666.557401,248.853550,-708.275490,-9743.573627
666.559926,-555.134843,727.418070,-11523.833642
666.562450,172.283227,-861.416136,-7331.608446
666.564975,-344.566454,-76.570323,-10222.138147
666.567500,-880.558717,-1091.127106,-10260.423309
666.570024,669.990328,-3292.523898,-8997.012976
666.572549,-95.712904,-1397.408398,-10738.987829
666.575074,-210.568389,-918.843878,-10604.989763
666.577598,-57.427742,-114.855485,-8461.020714
666.580123,1282.552914,957.129040,-8346.165229
666.582647,-842.273555,-57.427742,-10126.425243
666.585172,114.855485,-1416.550979,-11045.269122
666.587697,76.570323,-593.420005,-8595.018779
666.590221,-172.283227,-2794.816797,-8499.305875
666.592746,-133.998066,-2029.113565,-13036.097525
666.595270,-248.853550,-382.851616,-7848.458128
666.597795,306.281293,-1933.400661,-7580.461997
666.600320,-497.707101,229.710970,-13993.226565
666.602844,-0.000000,325.423874,-7503.891674
666.605369,210.568389,-937.986459,-8901.300072
666.607894,-382.851616,-650.847747,-12193.823970
666.610418,306.281293,-1512.263883,-7599.604578
666.612951,382.851616,-2239.681954,-8920.442653
666.615485,-1071.984525,-1186.840010,-13323.236237
666.618018,133.998066,-2105.683888,-7101.897477
666.620551,-38.285162,0.000000,-9207.581365
666.623084,-440.279358,114.855485,-12500.105262
666.625617,267.996131,-727.418070,-7465.606512
666.628151,-0.000000,842.273555,-8671.589102
666.630684,-210.568389,-1378.265818,-11351.550414
666.633217,-57.427742,-2201.396792,-9245.866526
666.635750,-133.998066,-899.701298,-8767.302006
666.638283,-19.142581,-2947.957443,-10241.280728
666.640817,-478.564520,-708.275490,-8633.303941
666.643350,38.285162,1129.412267,-9494.720077
666.645883,-19.142581,-937.986459,-9628.718142
666.648416,-172.283227,-650.847747,-9915.856854
666.650950,-133.998066,574.277424,-9360.722011
666.653483,114.855485,-2565.105827,-8575.876198
666.656016,-918.843878,-689.132909,-12519.247843
666.658549,306.281293,-957.129040,-8480.163294
666.661082,325.423874,-1359.123237,-7063.612315
666.663616,-957.129040,-229.710970,-13074.382686
666.666149,861.416136,-3177.668413,-8786.444587
666.668682,-210.568389,-823.130974,-7599.604578
666.671215,-114.855485,-612.562586,-12327.822035
666.673748,172.283227,-880.558717,-9456.434915
666.676282,-191.425808,1359.123237,-7235.895542
666.678815,-0.000000,-650.847747,-12882.956878
666.681348,-191.425808,-1856.830338,-9647.860723
666.683881,-95.712904,-689.132909,-7159.325219
666.686414,95.712904,-2488.535504,-11255.837510
666.688948,-516.849682,-1627.119368,-10624.132344
666.691481,401.994197,497.707101,-7733.602643
666.694014,-459.421939,-1684.547110,-9494.720077
666.696547,76.570323,-1320.838075,-11676.974288
666.699081,-133.998066,842.273555,-8307.880067
666.701614,-19.142581,-1684.547110,-7905.885870
666.704147,-153.140646,-842.273555,-13284.951075
666.706680,-57.427742,-401.994197,-7733.602643
666.709213,287.138712,-1378.265818,-7925.028451
666.711747,-765.703232,-95.712904,-13859.228499
666.714284,-153.140646,-1301.695494,-7025.327154
666.716822,612.562586,-2124.826469,-8422.735552
666.719359,-1071.984525,-133.998066,-13686.945272
666.721897,-0.000000,-937.986459,-7503.891674
666.724435,937.986459,-995.414202,-7752.745224
666.726972,-1148.554848,153.140646,-12959.527202
666.729510,191.425808,-1952.543242,-8518.448456
666.732048,440.279358,-267.996131,-7944.171032
666.734585,535.992262,-1512.263883,-11830.114934
666.737123,-421.136778,-689.132909,-9896.714274
666.739660,-535.992262,1186.840010,-6795.616184
666.742198,1014.556782,-4039.084549,-10451.849117
666.744736,-957.129040,-1952.543242,-10356.136213
666.747273,19.142581,-899.701298,-7561.319416
666.749811,-516.849682,-1263.410333,-9705.288466
666.752348,-957.129040,1148.554848,-13763.515595
666.754886,1378.265818,1263.410333,-7255.038123
666.757424,-1416.550979,-306.281293,-10930.413637
666.759961,593.420005,-2048.256146,-11562.118803
666.762499,-191.425808,-1416.550979,-6565.905214
666.765036,-210.568389,-2526.820666,-10700.702667
666.767574,-76.570323,-1033.699363,-11849.257515
666.770112,-153.140646,-593.420005,-6948.756830
666.772649,382.851616,-210.568389,-10145.567824
666.775187,-708.275490,650.847747,-11428.120738
666.777725,325.423874,-1531.406464,-7255.038123
666.780262,38.285162,-210.568389,-10317.851051
666.782800,-823.130974,-1014.556782,-10700.702667
666.785337,1091.127106,-2699.103893,-8288.737486
666.787875,-861.416136,248.853550,-10528.419440
666.790413,440.279358,-2871.387120,-10509.276859
666.792950,-248.853550,-1722.832272,-7886.743290
666.795488,-191.425808,1339.980656,-10758.130410
666.798025,401.994197,-861.416136,-9226.723946
666.800563,-114.855485,-861.416136,-8863.014910
666.803101,459.421939,-114.855485,-11026.126541
666.805638,-937.986459,-957.129040,-8269.594906
666.808176,267.996131,19.142581,-11083.554283
666.810714,-574.277424,1952.543242,-9169.296203
666.813251,382.851616,2794.816797,-10164.710405
666.815792,-210.568389,3656.232933,-9207.581365
666.818332,-76.570323,3349.951640,-9839.286531
666.820872,-133.998066,2163.111630,-10624.132344
666.823413,325.423874,-1071.984525,-8403.592971
666.825953,-153.140646,-1014.556782,-10777.272990
666.828493,-401.994197,-382.851616,-9896.714274
666.831034,-535.992262,172.283227,-9456.434915
666.833574,459.421939,248.853550,-10279.565890
666.836114,38.285162,4594.219392,-9820.143950
666.838655,-0.000000,7178.467800,-8575.876198
666.841195,-325.423874,9590.432981,-11638.689126
666.843735,306.281293,3196.810994,-6776.473603
666.846276,612.562586,-2775.674216,-10547.562021
666.848816,-746.560651,-4211.367776,-11772.687192
666.851356,248.853550,-8499.305875,-6795.616184
666.853897,-497.707101,-7714.460062,-10317.851051
666.856437,-38.285162,-2163.111630,-12882.956878
666.858977,95.712904,1722.832272,-5015.356170
666.861518,-153.140646,4249.652938,-12902.099459
666.864058,114.855485,3541.377448,-9054.440718
666.866599,650.847747,1129.412267,-6833.901346
666.869139,-459.421939,-765.703232,-12768.101394
666.871679,-555.134843,-4000.799387,-9245.866526
666.874220,478.564520,-6642.475538,-7293.323285
666.876760,-880.558717,-3809.373579,-11887.542677
666.879300,210.568389,-2622.533570,-9915.856854
666.881841,-440.279358,995.414202,-8403.592971
666.884381,401.994197,2660.818731,-11006.983960
666.886921,-229.710970,2277.967115,-8805.587168
666.889462,-133.998066,3675.375514,-9705.288466
666.892002,114.855485,-1091.127106,-9379.864592
666.894542,95.712904,-4096.512291,-8767.302006
666.897083,-0.000000,-3120.240670,-11140.982026
666.899623,-765.703232,-3847.658741,-9035.298138
666.902163,-153.140646,-4173.082614,-10068.997501
666.904704,-95.712904,784.845813,-9571.290400
666.907244,-440.279358,2354.537438,-8173.882002
666.909785,631.705166,2048.256146,-10585.847182
666.912325,-1129.412267,3196.810994,-8020.741355
666.914865,210.568389,-2143.969050,-7657.032320
666.917407,1837.687757,-5761.916821,-12557.533005
666.919948,-2124.826469,-3139.383251,-10796.415571
666.922490,937.986459,-3751.945837,-6144.768437
666.925031,-401.994197,-478.564520,-12289.536874
666.927573,133.998066,-57.427742,-9743.573627
666.930114,76.570323,1895.115499,-8212.167163
666.932656,-689.132909,2699.103893,-10298.708470
666.935197,-114.855485,-1033.699363,-9934.999435
666.937739,-133.998066,172.283227,-8882.157491
666.940280,229.710970,-2239.681954,-11274.980091
666.942822,-133.998066,-4058.227130,-9092.725880
666.945363,-114.855485,-1761.117434,-9494.720077
666.947905,-38.285162,-650.847747,-9992.427178
666.950446,-210.568389,-708.275490,-9686.145885
666.952988,95.712904,1799.402595,-10394.421374
666.955529,38.285162,248.853550,-7618.747158
666.958070,-76.570323,-612.562586,-10356.136213
666.960612,-229.710970,-574.277424,-11064.411702
666.963153,-38.285162,-2928.814862,-7293.323285
666.965695,38.285162,-3139.383251,-10490.134278
666.968236,-287.138712,-1627.119368,-11791.829773
666.970778,-38.285162,-593.420005,-6967.899411
666.973319,-0.000000,478.564520,-10547.562021
666.975861,-229.710970,-153.140646,-11064.411702
666.978402,325.423874,-344.566454,-6317.051664
666.980944,-57.427742,-287.138712,-11428.120738
666.983485,-669.990328,-1761.117434,-11198.409768
666.986027,746.560651,-2201.396792,-6814.758765
666.988568,-382.851616,-861.416136,-10834.700733
666.991110,-76.570323,-2220.539373,-10987.841379
666.993651,38.285162,-459.421939,-8403.592971
666.996193,-344.566454,-57.427742,-8863.014910
666.998734,-95.712904,-1588.834206,-11925.827838
667.001276,-421.136778,1531.406464,-9284.151688
667.003817,401.994197,-612.562586,-6585.047795
667.006359,-19.142581,-1761.117434,-11944.970419
667.008900,-574.277424,-612.562586,-10700.702667
667.011442,669.990328,-2967.100024,-6336.194245
667.013983,-765.703232,-2584.248408,-11619.546546
667.016525,133.998066,-650.847747,-10738.987829
667.019069,287.138712,-191.425808,-5838.487144
667.021612,-344.566454,689.132909,-12174.681389
667.024155,57.427742,421.136778,-11408.978157
667.026698,-57.427742,-133.998066,-4900.500685
667.029242,-689.132909,-401.994197,-12423.534939
667.031785,-114.855485,-2986.242605,-12117.253646
667.034328,325.423874,-2009.970984,-5895.914886
667.036871,-0.000000,-727.418070,-10662.417506
667.039415,-478.564520,-1550.549045,-11925.827838
667.041958,382.851616,38.285162,-7465.606512
667.044501,-382.851616,535.992262,-9035.298138
667.047044,-0.000000,-1722.832272,-11504.691061
667.049588,-650.847747,612.562586,-9628.718142
667.052131,593.420005,-2143.969050,-9494.720077
667.054674,-363.709035,-3790.230998,-11504.691061
667.057217,-210.568389,-516.849682,-9111.868461
667.059760,-76.570323,-344.566454,-7963.313613
667.062304,-76.570323,-1339.980656,-11064.411702
667.064847,-172.283227,1339.980656,-11064.411702
667.067390,267.996131,-210.568389,-5436.492947
667.069933,-0.000000,-1052.841944,-12212.966550
667.072477,-669.990328,-689.132909,-11925.827838
667.075020,421.136778,-2335.394858,-4421.936165
667.077563,-229.710970,-1397.408398,-12557.533005
667.080106,-172.283227,-1569.691626,-11791.829773
667.082650,191.425808,-248.853550,-5685.346498
667.085193,19.142581,555.134843,-11351.550414
667.087736,-344.566454,-861.416136,-11121.839445
667.090279,57.427742,-1627.119368,-5666.203917
667.092823,-153.140646,-1722.832272,-12844.671717
667.095366,-248.853550,-2565.105827,-10145.567824
667.097909,-153.140646,382.851616,-7657.032320
667.100452,191.425808,727.418070,-9877.571693
667.102996,-153.140646,-1454.836141,-10892.128475
667.105539,-382.851616,76.570323,-9284.151688
667.108082,363.709035,-2258.824534,-8193.024582
667.110625,-229.710970,-3560.520029,-11102.696864
667.113168,-114.855485,95.712904,-10834.700733
667.115712,172.283227,-363.709035,-6068.198114
667.118255,-19.142581,440.279358,-11581.261384
667.120798,-344.566454,727.418070,-11523.833642
667.123342,574.277424,-1244.267752,-5685.346498
667.125885,-593.420005,-153.140646,-10949.556218
667.128429,-363.709035,-1129.412267,-12806.386555
667.130972,344.566454,-2679.961312,-5302.494882
667.133516,-210.568389,-1818.545176,-10528.419440
667.136059,-861.416136,-1493.121302,-12978.669782
667.138603,957.129040,-1588.834206,-6068.198114
667.141146,-421.136778,842.273555,-10432.706536
667.143690,-210.568389,-382.851616,-11600.403965
667.146233,-95.712904,1378.265818,-8441.878133
667.148777,229.710970,38.285162,-8346.165229
667.151320,-133.998066,-3330.809059,-10949.556218
667.153864,-459.421939,-957.129040,-10624.132344
667.156407,325.423874,-1703.689691,-7101.897477
667.158951,-153.140646,-3426.521963,-10777.272990
667.161494,-727.418070,153.140646,-12423.534939
667.164038,880.558717,-574.277424,-6374.479406
667.166581,-440.279358,-746.560651,-12270.394293
667.169125,-382.851616,1493.121302,-11887.542677
667.171668,593.420005,-1110.269686,-4153.940034
667.174211,-210.568389,-1818.545176,-11734.402030
667.176755,-689.132909,-421.136778,-14108.082050
667.179298,1014.556782,-2431.107762,-3139.383251
667.181842,-459.421939,-1091.127106,-11370.692995
667.184385,-803.988394,-574.277424,-13610.374949
667.186929,95.712904,-899.701298,-4957.928427
667.189472,210.568389,-535.992262,-10126.425243
667.192016,-746.560651,-1244.267752,-13170.095590
667.194559,-153.140646,-114.855485,-6699.903280
667.197103,19.142581,-823.130974,-8441.878133
667.199646,-593.420005,-2277.967115,-13667.802691
667.202190,440.279358,-861.416136,-4345.365842
667.204733,-325.423874,325.423874,-10566.704602
667.207277,1627.119368,-4230.510357,-10968.698798
667.209820,-1569.691626,-172.283227,-7752.745224
667.212364,459.421939,-1033.699363,-10547.562021
667.214907,-669.990328,-612.562586,-10758.130410
667.217451,497.707101,1110.269686,-11026.126541
667.219994,-669.990328,-133.998066,-8173.882002
667.222537,-267.996131,-669.990328,-9667.003304
667.225080,-229.710970,229.710970,-10738.987829
667.227623,-76.570323,-1665.404530,-7082.754896
667.230165,-248.853550,-1722.832272,-10413.563955
667.232708,-363.709035,-2105.683888,-10949.556218
667.235251,803.988394,-3675.375514,-8346.165229
667.237794,-1091.127106,-535.992262,-10126.425243
667.240337,363.709035,-1454.836141,-11657.831707
667.242879,-210.568389,1473.978722,-7408.178770
667.245422,-76.570323,2182.254211,-10949.556218
667.247965,-248.853550,-1148.554848,-10145.567824
667.250508,363.709035,-1703.689691,-7810.172966
667.253051,-210.568389,-1703.689691,-10968.698798
667.255593,-459.421939,-3560.520029,-10088.140082
667.258136,516.849682,-1627.119368,-8652.446522
667.260679,-650.847747,38.285162,-9207.581365
667.263222,325.423874,-1186.840010,-11083.554283
667.265765,-440.279358,1263.410333,-9513.862658
667.268308,153.140646,-114.855485,-7695.317482
667.270850,57.427742,-1493.121302,-11370.692995
667.273393,-612.562586,153.140646,-10470.991698
667.275936,708.275490,-2201.396792,-6431.907149
667.278479,-459.421939,-2086.541307,-9896.714274
667.281022,-459.421939,-784.845813,-10681.560086
667.283564,153.140646,-2565.105827,-8097.311678
667.286107,-937.986459,-1818.545176,-10719.845248
667.288650,-0.000000,-803.988394,-10470.991698
667.291193,440.279358,133.998066,-8480.163294
667.293736,-210.568389,1646.261949,-10279.565890
667.296278,-153.140646,-191.425808,-9533.005238
667.298821,669.990328,-650.847747,-8767.302006
667.301364,-976.271621,-19.142581,-10834.700733
667.303907,57.427742,-3732.803256,-9896.714274
667.306450,-95.712904,-1722.832272,-9073.583299
667.308992,-306.281293,-1014.556782,-9667.003304
667.311535,-0.000000,-2029.113565,-10509.276859
667.314078,-153.140646,478.564520,-8901.300072
667.316621,-133.998066,842.273555,-10298.708470
667.319164,-306.281293,-401.994197,-10049.854920
667.321707,267.996131,172.283227,-8882.157491
667.324248,516.849682,-2411.965181,-9628.718142
667.326790,-1110.269686,-3215.953574,-10049.854920
667.329332,650.847747,-2239.681954,-10528.419440
667.331874,-516.849682,-1550.549045,-8097.311678
667.334416,-57.427742,-861.416136,-10432.706536
667.336958,-191.425808,1129.412267,-10700.702667
667.339500,76.570323,1186.840010,-7159.325219
667.342042,-267.996131,957.129040,-11332.407834
667.344584,-95.712904,-1569.691626,-10202.995566
667.347125,191.425808,-2679.961312,-7216.752962
667.349667,-421.136778,-2105.683888,-11638.689126
667.352209,-191.425808,-3043.670347,-10738.987829
667.354751,459.421939,-1148.554848,-6719.045861
667.357293,-574.277424,803.988394,-11734.402030
667.359835,57.427742,-516.849682,-9686.145885
667.362377,325.423874,631.705166,-8039.883936
667.364919,-842.273555,344.566454,-10834.700733
667.367461,823.130974,-2641.676150,-9820.143950
667.370002,-535.992262,459.421939,-8575.876198
667.372544,229.710970,-880.558717,-9992.427178
667.375086,-133.998066,-3101.098090,-9571.290400
667.377628,-689.132909,-1416.550979,-10145.567824
667.380170,497.707101,-2545.963246,-9207.581365
667.382712,-382.851616,-1225.125171,-9705.288466
667.385254,-363.709035,363.709035,-10662.417506
667.387796,574.277424,-306.281293,-7944.171032
667.390338,-803.988394,306.281293,-10777.272990
667.392880,1091.127106,-363.709035,-10432.706536
667.395421,-535.992262,-1186.840010,-7197.610381
667.397963,76.570323,-1167.697429,-10987.841379
667.400505,-401.994197,-918.843878,-11389.835576
667.403047,-133.998066,-1033.699363,-6929.614250
667.405589,267.996131,-1818.545176,-10700.702667
667.408131,-784.845813,-1741.974853,-10336.993632
667.410673,325.423874,-631.705166,-7752.745224
667.413215,-612.562586,535.992262,-10604.989763
667.415757,516.849682,-2086.541307,-9724.431046
667.418298,899.701298,-784.845813,-9303.294269
667.420840,-1550.549045,-363.709035,-8690.731683
667.423382,823.130974,-3005.385186,-11408.978157
667.425924,-535.992262,631.705166,-10279.565890
667.428466,76.570323,-765.703232,-9781.858789
667.431007,-382.851616,-1607.976787,-10107.282662
667.433549,-133.998066,1454.836141,-9188.438784
667.436091,-19.142581,-516.849682,-8441.878133
667.438633,-363.709035,-1033.699363,-11102.696864
667.441174,172.283227,-937.986459,-9762.716208
667.443716,-421.136778,-2297.109696,-7810.172966
667.446258,-38.285162,-2603.390989,-11294.122672
667.448799,-133.998066,-1205.982590,-9762.716208
667.451341,-306.281293,-191.425808,-8173.882002
667.453883,-0.000000,0.000000,-11140.982026
667.456424,-0.000000,-1052.841944,-9150.153622
667.458966,-401.994197,-38.285162,-8920.442653
667.461508,574.277424,-689.132909,-11160.124606
667.464050,-1052.841944,-1473.978722,-7925.028451
667.466591,1110.269686,-1205.982590,-9322.436850
667.469133,-823.130974,229.710970,-9858.429112
667.471675,727.418070,-1990.828403,-9686.145885
667.474216,-535.992262,-421.136778,-9820.143950
667.476758,-803.988394,-1416.550979,-8633.303941
667.479300,612.562586,-4402.793584,-10719.845248
667.481842,-421.136778,-555.134843,-11160.124606
667.484383,535.992262,-880.558717,-6470.192310
667.486925,-306.281293,459.421939,-11274.980091
667.489467,-57.427742,2201.396792,-11370.692995
667.492008,95.712904,172.283227,-5627.918755
667.494550,-593.420005,-325.423874,-12174.681389
667.497092,401.994197,-2067.398726,-11217.552349
667.499634,-401.994197,-2335.394858,-5742.774240
667.502175,-535.992262,-1607.976787,-13495.519464
667.504717,76.570323,-1875.972918,-9284.151688
667.507259,-650.847747,-535.992262,-7293.323285
667.509800,248.853550,229.710970,-12787.243974
667.512342,-306.281293,995.414202,-6699.903280
667.514884,-306.281293,1531.406464,-8461.020714
667.517426,-57.427742,-1550.549045,-10604.989763
667.519967,1952.543242,-6317.051664,-12385.249778
667.522509,-2067.398726,-1569.691626,-7580.461997
667.525051,937.986459,-2009.970984,-8690.731683
667.527591,-0.000000,-1607.976787,-12327.822035
667.530131,-1052.841944,3235.096155,-9150.153622
667.532672,1148.554848,689.132909,-6853.043926
667.535212,-401.994197,440.279358,-11179.267187
667.537753,-899.701298,440.279358,-12021.540742
667.540293,650.847747,-3885.943902,-6929.614250
667.542833,-689.132909,-4173.082614,-10815.558152
667.545374,-95.712904,-1588.834206,-12595.818166
667.547914,325.423874,-918.843878,-5130.211654
667.550455,-421.136778,95.712904,-11351.550414
667.552995,-172.283227,574.277424,-12461.820101
667.555535,440.279358,57.427742,-5264.209720
667.558076,-57.427742,95.712904,-10758.130410
667.560616,-727.418070,-1665.404530,-12768.101394
667.563156,478.564520,-1512.263883,-6125.625856
667.565697,133.998066,-784.845813,-9418.149754
667.568237,-440.279358,-2622.533570,-12787.243974
667.570778,-478.564520,-784.845813,-7771.887805
667.573318,-114.855485,-1627.119368,-7484.749093
667.575858,478.564520,-3962.514226,-14031.511726
667.578399,-1110.269686,1818.545176,-6431.907149
667.580939,1052.841944,1435.693560,-7446.463931
667.583480,-19.142581,421.136778,-12672.388490
667.586020,-861.416136,3081.955509,-9647.860723
667.588560,861.416136,-1933.400661,-6029.912952
667.591101,-574.277424,-4670.789715,-11964.113000
667.593641,-746.560651,-2411.965181,-12614.960747
667.596182,861.416136,-3483.949706,-4019.941968
667.598722,-478.564520,-1952.543242,-12557.533005
667.601262,-229.710970,421.136778,-12059.825904
667.603803,382.851616,1129.412267,-4039.084549
667.606343,19.142581,1799.402595,-12691.531070
667.608884,-631.705166,-57.427742,-11830.114934
667.611424,440.279358,-765.703232,-5130.211654
667.613964,-153.140646,-1339.980656,-11140.982026
667.616505,-574.277424,-2986.242605,-12978.669782
667.619045,-57.427742,-2660.818731,-4211.367776
667.621585,248.853550,-1033.699363,-11581.261384
667.624126,-823.130974,-172.283227,-12825.529136
667.626666,421.136778,1914.258080,-6278.766502
667.629149,133.998066,574.277424,-8709.874264
667.631632,-612.562586,-1416.550979,-12538.390424
667.634114,172.283227,-344.566454,-8901.300072
667.636597,-0.000000,-2009.970984,-6929.614250
667.639080,-287.138712,-3503.092286,-12193.823970
667.641563,-153.140646,-784.845813,-11370.692995
667.644045,267.996131,-1282.552914,-4287.938099
667.646528,-153.140646,-784.845813,-12997.812363
667.649011,-459.421939,765.703232,-11906.685258
667.651493,593.420005,-172.283227,-5149.354235
667.653976,-248.853550,-708.275490,-12576.675586
667.656459,-306.281293,38.285162,-12021.540742
667.658942,995.414202,-1875.972918,-4307.080680
667.661424,-210.568389,-784.845813,-11887.542677
667.663907,-1588.834206,-1646.261949,-12480.962682
667.666390,172.283227,-3847.658741,-4881.358104
667.668872,229.710970,-2890.529701,-13840.085918
667.671355,-459.421939,-1148.554848,-9877.571693
667.673838,363.709035,2431.107762,-7082.754896
667.676321,133.998066,2603.390989,-10011.569758
667.678803,-803.988394,593.420005,-10930.413637
667.681286,535.992262,306.281293,-8863.014910
667.683769,459.421939,-3081.955509,-8652.446522
667.686251,-1741.974853,-4326.223261,-11045.269122
667.688734,1301.695494,-3196.810994,-8269.594906
667.691217,-746.560651,-899.701298,-7925.028451
667.693700,-95.712904,-976.271621,-12308.679454
667.696182,-0.000000,1856.830338,-10432.706536
667.698665,229.710970,823.130974,-5034.498750
667.701148,-38.285162,133.998066,-12270.394293
667.703630,-689.132909,497.707101,-12825.529136
667.706113,382.851616,-2794.816797,-3139.383251
667.708596,-114.855485,-2967.100024,-12366.107197
667.711079,-708.275490,-2297.109696,-13380.663979
667.713561,172.283227,-1665.404530,-4498.506488
667.716044,114.855485,-382.851616,-11236.694930
667.718527,-478.564520,-363.709035,-12174.681389
667.721009,-57.427742,1588.834206,-7446.463931
667.723492,267.996131,325.423874,-7982.456194
667.725975,-765.703232,-1722.832272,-12768.101394
667.728472,306.281293,-1875.972918,-6259.623922
667.730970,-0.000000,-1454.836141,-9475.577496
667.733467,-631.705166,-2909.672282,-12921.242040
667.735964,-76.570323,-153.140646,-8767.302006
667.738462,689.132909,-248.853550,-6565.905214
667.740959,-650.847747,-765.703232,-12117.253646
667.743457,-421.136778,746.560651,-12021.540742
667.745954,650.847747,-1359.123237,-4287.938099
667.748451,-363.709035,-1799.402595,-11255.837510
667.750949,-401.994197,-421.136778,-14414.363342
667.753446,325.423874,-1359.123237,-2947.957443
667.755943,19.142581,-823.130974,-11236.694930
667.758441,-995.414202,-727.418070,-14471.791085
667.760938,172.283227,-976.271621,-4479.363907
667.763436,95.712904,-1416.550979,-10643.274925
667.765933,-689.132909,-803.988394,-14797.214958
667.768430,382.851616,-918.843878,-4192.225195
667.770928,76.570323,0.000000,-9322.436850
667.773425,-593.420005,-1588.834206,-14242.080115
667.775922,612.562586,-1301.695494,-6202.196179
667.778420,-746.560651,210.568389,-8537.591037
667.780917,-114.855485,-2699.103893,-13170.095590
667.783415,76.570323,401.994197,-9456.434915
667.785912,401.994197,210.568389,-5187.639397
667.788409,918.843878,-4077.369710,-10853.843314
667.790907,-2067.398726,-153.140646,-13878.371080
667.793404,1071.984525,-1741.974853,-4823.930362
667.795901,-650.847747,-153.140646,-10738.987829
667.798399,267.996131,880.558717,-13514.662045
667.800896,-267.996131,76.570323,-3330.809059
667.803393,-114.855485,-1435.693560,-11696.116869
667.805891,-574.277424,-421.136778,-13304.093656
667.808388,38.285162,-2890.529701,-3579.662610
667.810886,38.285162,-3713.660675,-12442.677520
667.813383,-363.709035,-1493.121302,-12155.538808
667.815880,76.570323,-459.421939,-4689.932296
667.818378,38.285162,957.129040,-12806.386555
667.820875,-478.564520,-210.568389,-10470.991698
667.823372,765.703232,1129.412267,-6125.625856
667.825870,-937.986459,823.130974,-12672.388490
667.828378,306.281293,-4249.652938,-9494.720077
667.830886,114.855485,-1856.830338,-7752.745224
667.833395,-497.707101,-2048.256146,-11274.980091
667.835903,-19.142581,-2469.392923,-8346.165229
667.838411,-172.283227,1110.269686,-8059.026517
667.840919,-133.998066,1205.982590,-11810.972354
667.843428,-0.000000,-727.418070,-8365.307810
667.845936,-153.140646,1531.406464,-10068.997501
667.848444,95.712904,-2220.539373,-9150.153622
667.850952,-172.283227,-3005.385186,-8843.872330
667.853461,-287.138712,-1033.699363,-11504.691061
667.855969,-287.138712,-2679.961312,-7925.028451
667.858477,153.140646,-1378.265818,-9896.714274
667.860985,-114.855485,210.568389,-11198.409768
667.863494,-191.425808,669.990328,-7963.313613
667.866002,-38.285162,1588.834206,-10356.136213
667.868510,-229.710970,-1378.265818,-9686.145885
667.871018,-440.279358,-1359.123237,-8901.300072
667.873527,-746.560651,-2029.113565,-10968.698798
667.876035,459.421939,-3483.949706,-11925.827838
667.878543,-76.570323,-459.421939,-5704.489078
667.881051,133.998066,1818.545176,-11676.974288
667.883560,421.136778,-861.416136,-9552.147819
667.886068,-1148.554848,1627.119368,-8499.305875
667.888576,555.134843,-1033.699363,-11236.694930
667.891085,-38.285162,-3483.949706,-8882.157491
667.893593,-382.851616,-172.283227,-10432.706536
667.896101,76.570323,-1512.263883,-8365.307810
667.898609,-555.134843,-2009.970984,-9724.431046
667.901118,76.570323,-325.423874,-11083.554283
667.903626,57.427742,-1665.404530,-7848.458128
667.906134,-382.851616,-153.140646,-10585.847182
667.908642,-172.283227,555.134843,-10585.847182
667.911151,612.562586,-1110.269686,-8193.024582
667.913659,-344.566454,-421.136778,-9992.427178
667.916167,38.285162,-765.703232,-11351.550414
667.918675,57.427742,-2699.103893,-7063.612315
667.921184,-669.990328,-2258.824534,-10719.845248
667.923692,-57.427742,-2833.101958,-11619.546546
667.926200,-248.853550,-1052.841944,-7350.751027
667.928717,-57.427742,937.986459,-10088.140082
667.931234,-76.570323,-267.996131,-10930.413637
667.933750,-95.712904,1856.830338,-8193.024582
667.936267,-114.855485,382.851616,-9781.858789
667.938784,-76.570323,-3215.953574,-10030.712339
667.941301,-38.285162,-899.701298,-9628.718142
667.943817,-267.996131,-2431.107762,-8709.874264
667.946334,133.998066,-3215.953574,-9418.149754
667.948851,-421.136778,669.990328,-8671.589102
667.951367,344.566454,57.427742,-10317.851051
667.953884,-153.140646,-842.273555,-9513.862658
667.956401,-344.566454,1435.693560,-9858.429112
667.958918,421.136778,-1569.691626,-8786.444587
667.961434,-1244.267752,-880.558717,-10183.852986
667.963951,-76.570323,-1741.974853,-11083.554283
667.966468,631.705166,-3560.520029,-8671.589102
667.968985,-133.998066,-1397.408398,-8403.592971
667.971501,-95.712904,-248.853550,-11581.261384
667.974018,-153.140646,1531.406464,-8709.874264
667.976535,-229.710970,2029.113565,-9360.722011
667.979052,497.707101,-2603.390989,-10585.847182
667.981568,-191.425808,-1205.982590,-9169.296203
667.984085,-344.566454,-1722.832272,-10394.421374
667.986602,-267.996131,-2794.816797,-12059.825904
667.989119,-95.712904,-708.275490,-6853.043926
667.991635,38.285162,440.279358,-10585.847182
667.994152,-172.283227,-1129.412267,-11026.126541
667.996669,-38.285162,823.130974,-8231.309744
667.999186,-172.283227,-650.847747,-9054.440718
668.001702,-76.570323,-2603.390989,-10911.271056
668.004219,-172.283227,-57.427742,-9131.011042
668.006736,-38.285162,-1646.261949,-8729.016845
668.009253,-38.285162,-1971.685822,-10585.847182
668.011769,-153.140646,-267.996131,-9973.284597
668.014286,-19.142581,-1129.412267,-8039.883936
