#time,accel_x,accel_y,accel_z
875.271270,-76.570323,-880.558717,-9686.145885
875.274020,-114.855485,-880.558717,-9667.003304
875.276770,-114.855485,-899.701298,-9628.718142
875.279520,-0.000000,-861.416136,-9609.575562
875.282270,-19.142581,-880.558717,-9705.288466
875.285020,-114.855485,-937.986459,-9667.003304
875.287770,-133.998066,-937.986459,-9590.432981
875.290521,-76.570323,-937.986459,-9571.290400
875.293271,-95.712904,-880.558717,-9667.003304
875.296021,-76.570323,-861.416136,-9571.290400
875.298771,-172.283227,-880.558717,-9628.718142
875.301521,-153.140646,-899.701298,-9667.003304
875.304271,-114.855485,-880.558717,-9667.003304
875.307021,-114.855485,-880.558717,-9686.145885
875.309771,-76.570323,-937.986459,-9667.003304
875.312521,-76.570323,-937.986459,-9647.860723
875.315271,-172.283227,-918.843878,-9667.003304
875.318021,-38.285162,-957.129040,-9379.864592
875.320771,-153.140646,-918.843878,-9590.432981
875.323521,325.423874,-1646.261949,-9494.720077
875.326271,-95.712904,-2182.254211,-9188.438784
875.329022,-478.564520,-3885.943902,-9858.429112
875.331772,-95.712904,-8059.026517,-8920.442653
875.334522,-133.998066,-11485.548480,-9628.718142
875.337272,-325.423874,-10624.132344,-10126.425243
875.340022,306.281293,-4345.365842,-9724.431046
875.342772,-1225.125171,-1397.408398,-10547.562021
875.345522,957.129040,1378.265818,-7886.743290
875.348272,-267.996131,1167.697429,-7944.171032
875.350940,-172.283227,-1359.123237,-11581.261384
875.353609,-497.707101,-4096.512291,-9073.583299
875.356277,-899.701298,-10432.706536,-6297.909083
875.358945,-497.707101,-9992.427178,-12653.245909
875.361614,3732.803256,-6221.338760,-14146.367211
875.364282,-4058.227130,-1550.549045,-4402.793584
875.366951,1416.550979,-2163.111630,-8920.442653
875.369619,421.136778,2182.254211,-14127.224630
875.372287,-19.142581,1129.412267,-3426.521963
875.374956,-459.421939,-5474.778109,-12768.101394
875.377624,-172.283227,-8518.448456,-8748.159426
875.380292,-459.421939,-8327.022648,-6431.907149
875.382961,957.129040,-7255.038123,-16807.185942
875.385629,-2431.107762,-1933.400661,-3809.373579
875.388298,2431.107762,-516.849682,-9360.722011
875.390966,-535.992262,6642.475538,-10298.708470
875.393634,-3713.660675,7982.456194,-13227.523333
875.396303,5168.496816,-842.273555,-6125.625856
875.398971,-2622.533570,-153.140646,-10298.708470
875.401639,229.710970,-4977.071008,-11255.837510
875.404308,976.271621,-7599.604578,-7006.184573
875.406976,-1837.687757,-5455.635528,-11887.542677
875.409645,937.986459,-2833.101958,-10451.849117
875.412313,-1263.410333,2086.541307,-9111.868461
875.414981,803.988394,3407.379382,-10336.993632
875.417650,3349.951640,1607.976787,-5723.631659
875.420318,-3579.662610,5589.633594,-12997.812363
875.422986,2469.392923,-2813.959378,-4766.502619
875.425655,-2009.970984,-3828.516160,-11696.116869
875.428323,516.849682,-6221.338760,-14892.927862
875.430991,-2431.107762,-1627.119368,-4249.652938
875.433660,4938.785846,-5953.342629,-9111.868461
875.436328,-4096.512291,2584.248408,-15026.925928
875.438997,-38.285162,2124.826469,-4268.795518
875.441665,1837.687757,995.414202,-11944.970419
875.444333,-2067.398726,3101.098090,-10279.565890
875.447002,1301.695494,-1914.258080,-7523.034254
875.449670,1416.550979,-3828.516160,-7752.745224
875.452338,-3751.945837,-3024.527766,-12270.394293
875.455007,-382.851616,-3464.807125,-10260.423309
875.457621,1569.691626,-3369.094221,-12921.242040
875.460236,1339.980656,-535.992262,-1454.836141
875.462850,-2584.248408,2986.242605,-19927.426613
875.465464,4804.787781,-1665.404530,-3943.371645
875.468079,-4498.506488,3369.094221,-7791.030386
875.470693,1914.258080,-2967.100024,-18089.738856
875.473307,287.138712,-1856.830338,267.996131
875.475922,-1435.693560,-2545.963246,-12768.101394
875.478536,-612.562586,-3962.514226,-11925.827838
875.481151,1359.123237,-2526.820666,-9245.866526
875.483765,344.566454,0.000000,-7523.034254
875.486379,-1493.121302,2584.248408,-16481.762069
875.488994,3866.801322,-1071.984525,-3637.090352
875.491608,-4058.227130,2813.959378,-7963.313613
875.494223,2182.254211,-2469.392923,-14797.214958
875.496837,-650.847747,-2277.967115,-4096.512291
875.499451,-842.273555,-2622.533570,-12078.968485
875.502066,-267.996131,-2182.254211,-10566.704602
875.504680,76.570323,-1071.984525,-5455.635528
875.507294,133.998066,-593.420005,-13112.667848
875.509909,-1933.400661,1799.402595,-10796.415571
875.512523,4460.221326,-2201.396792,-4153.940034
875.515138,-3675.375514,1933.400661,-15582.060771
875.517752,957.129040,-1225.125171,-7676.174901
875.520366,3924.229064,-3924.229064,-8154.739421
875.522981,-3885.943902,689.132909,-8729.016845
875.525595,1761.117434,-2909.672282,-15026.925928
875.528209,-172.283227,-1263.410333,-4689.932296
875.530824,-440.279358,153.140646,-13131.810429
875.533438,976.271621,-1301.695494,-10738.987829
875.536053,-2373.680019,1684.547110,-6317.051664
875.538667,4498.506488,-4249.652938,-9341.579430
875.541281,-5704.489078,2258.824534,-14950.355605
875.543896,4651.647134,-2048.256146,-4594.219392
875.546510,-114.855485,-114.855485,-8939.585234
875.549125,765.703232,593.420005,-13744.373014
875.551739,-1607.976787,-38.285162,-4364.508422
875.554353,191.425808,-2813.959378,-10298.708470
875.556968,-1339.980656,-3005.385186,-21037.696299
875.559582,1167.697429,-2316.252277,4766.502619
875.562167,-191.425808,-1359.123237,-16673.187877
875.564752,-2258.824534,1569.691626,-14414.363342
875.567336,3598.805190,-2124.826469,2469.392923
875.569921,-2641.676150,1052.841944,-19965.711774
875.572506,2679.961312,-2909.672282,-7599.604578
875.575090,-4785.645200,2852.244539,-4651.647134
875.577675,3675.375514,-2813.959378,-16003.197549
875.580260,459.421939,-1091.127106,-6967.899411
875.582845,-2871.387120,727.418070,-4134.797453
875.585429,2297.109696,-4115.654872,-20080.567259
875.588014,-1646.261949,76.570323,-7159.325219
875.590599,1607.976787,-1818.545176,-2124.826469
875.593184,-689.132909,-1301.695494,-18664.016280
875.595768,-1091.127106,861.416136,-5493.920690
875.598353,421.136778,-1531.406464,-4728.217458
875.600938,-1703.689691,593.420005,-21899.112435
875.603523,3732.803256,-1952.543242,-382.851616
875.606107,-3254.238736,1110.269686,-7963.313613
875.608692,1339.980656,-2239.681954,-17553.746594
875.611277,650.847747,-1837.687757,-3349.951640
875.613862,-1167.697429,-267.996131,-10700.702667
875.616446,248.853550,-440.279358,-13093.525267
875.619031,-1914.258080,2029.113565,2067.398726
875.621616,669.990328,-3235.096155,-18644.873699
875.624200,95.712904,-1186.840010,-11964.113000
875.626785,-76.570323,-287.138712,-1837.687757
875.629370,708.275490,-1761.117434,-14950.355605
875.631955,-1225.125171,-708.275490,-11274.980091
875.634539,1397.408398,-1799.402595,-2373.680019
875.637124,-287.138712,-1339.980656,-15620.345933
875.639709,-1110.269686,-248.853550,-11064.411702
875.642294,918.843878,-1837.687757,-4058.227130
875.644854,-1378.265818,803.988394,-15390.634963
875.647414,-727.418070,-76.570323,-7159.325219
875.649974,4613.361973,-3905.086483,-7178.467800
875.652534,-4211.367776,1646.261949,-14950.355605
875.655094,2699.103893,-2086.541307,-7427.321350
875.657654,-842.273555,497.707101,-11160.124606
875.660214,-306.281293,-459.421939,-9992.427178
875.662774,6087.340694,-4785.645200,-10068.997501
875.665334,-6738.188442,2737.389054,-4632.504554
875.667894,2986.242605,-4249.652938,-15869.199483
875.670454,-918.843878,-669.990328,-10011.569758
875.673014,-440.279358,-133.998066,-3962.514226
875.675574,3503.092286,-4134.797453,-14969.498186
875.678134,-5302.494882,3522.234867,-10413.563955
875.680694,1282.552914,-823.130974,-2545.963246
875.683254,-1493.121302,1014.556782,-20061.424678
875.685815,823.130974,-1263.410333,-3694.518094
875.688375,2105.683888,-3081.955509,-8729.016845
875.690935,-3120.240670,497.707101,-15945.769806
875.693495,2067.398726,-2679.961312,-5608.776174
875.696055,-191.425808,-1856.830338,-13782.658176
875.698615,-1186.840010,-1091.127106,-11332.407834
875.701175,3369.094221,-2737.389054,-4077.369710
875.703735,-6948.756830,3771.088418,-14203.794954
875.706295,2909.672282,-2067.398726,-15543.775610
875.708855,3273.381317,-1454.836141,-842.273555
875.711415,-6451.049730,3962.514226,-10222.138147
875.713975,4823.930362,-4326.223261,-21229.122107
875.716535,-2124.826469,229.710970,957.129040
875.719095,172.283227,-1990.828403,-12212.966550
875.721655,555.134843,-2909.672282,-14471.791085
875.724215,-1780.260014,-114.855485,-1971.685822
875.726775,2794.816797,-3483.949706,-13610.374949
875.729335,-3675.375514,1550.549045,-14069.796888
875.731895,2833.101958,-267.996131,-803.988394
875.734456,1665.404530,-918.843878,-14835.500120
875.737016,-8097.311678,4632.504554,-11753.544611
875.739576,8805.587168,-7848.458128,-3656.232933
875.742136,-3598.805190,-1129.412267,-14031.511726
875.744696,-3081.955509,-344.566454,-13399.806560
875.747071,3273.381317,-4996.213589,-2163.111630
875.749446,727.418070,-727.418070,-10183.852986
875.751821,1071.984525,-918.843878,-13227.523333
875.754196,-1607.976787,2124.826469,-5876.772306
875.756571,-1493.121302,2392.822600,-15199.209155
875.758947,2565.105827,-1282.552914,-8729.016845
875.761322,-1205.982590,114.855485,-4000.799387
875.763697,-2258.824534,-1186.840010,-17438.891109
875.766072,2641.676150,-5608.776174,-248.853550
875.768447,-2986.242605,-306.281293,-11581.261384
875.770822,1837.687757,-3139.383251,-17036.896912
875.773198,-823.130974,937.986459,-1761.117434
875.775573,1741.974853,-1091.127106,-9475.577496
875.777948,-1895.115499,861.416136,-15773.486579
875.780323,-3751.945837,3464.807125,-6929.614250
875.782698,5340.780043,-4689.932296,-6087.340694
875.785073,-4804.787781,861.416136,-13112.667848
875.787448,4421.936165,-4230.510357,-14069.796888
875.789824,650.847747,-1378.265818,2890.529701
875.792199,4192.225195,-1914.258080,-20654.844683
875.794574,-3771.088418,1607.976787,-7427.321350
875.796949,-2660.818731,1339.980656,-4211.367776
875.799324,3656.232933,-4977.071008,-21784.256950
875.801699,-3407.379382,1110.269686,1646.261949
875.804075,2890.529701,-4919.643266,-17496.318851
875.806450,-3503.092286,248.853550,-9667.003304
875.808825,3713.660675,-2679.961312,-4287.938099
875.811200,-574.277424,-76.570323,-11887.542677
875.813575,-8193.024582,6527.620053,-15830.914322
875.815950,10604.989763,-6163.911018,-1052.841944
875.818326,-4536.791650,325.423874,-11983.255581
875.820701,-2986.242605,401.994197,-15658.631094
875.823076,5781.059402,-5895.914886,-823.130974
875.825451,-2239.681954,459.421939,-10872.985894
875.827826,-708.275490,-1091.127106,-14969.498186
875.830201,-421.136778,440.279358,210.568389
875.832576,823.130974,-1665.404530,-17553.746594
875.834952,-995.414202,-842.273555,-12212.966550
875.837327,76.570323,2641.676150,-5359.922624
875.839702,1607.976787,-3139.383251,-13572.089787
875.842135,-2584.248408,-497.707101,-9016.155557
875.844568,2450.250342,-3369.094221,-6470.192310
875.847001,-2392.822600,-861.416136,-13763.515595
875.849435,-267.996131,344.566454,-9571.290400
875.851868,6604.190376,-3713.660675,-8901.300072
875.854301,-7523.034254,4919.643266,-4153.940034
875.856734,7503.891674,-4977.071008,-14816.357539
875.859167,-6585.047795,2660.818731,-12098.111066
875.861600,2124.826469,95.712904,-2201.396792
875.864034,1339.980656,-1990.828403,-15945.769806
875.866467,-5953.342629,6661.618118,-6680.760699
875.868900,6776.473603,-1148.554848,-8556.733618
875.871333,-4881.358104,6623.332957,-12155.538808
875.873766,5149.354235,1378.265818,-12576.675586
875.876200,-1990.828403,3809.373579,-7197.610381
875.878633,-823.130974,2124.826469,-9418.149754
875.881066,2201.396792,-2048.256146,-11408.978157
875.883499,-2813.959378,4192.225195,-7331.608446
875.885932,1627.119368,-574.277424,-12940.384621
875.888365,-1205.982590,-363.709035,-6451.049730
875.890799,287.138712,4249.652938,-10585.847182
875.893232,19.142581,3905.086483,-12098.111066
875.895665,-689.132909,2373.680019,-7771.887805
875.898098,1550.549045,555.134843,-7408.178770
875.900531,-1416.550979,5034.498750,-13954.941403
875.902965,-95.712904,3005.385186,-8575.876198
875.905398,746.560651,1359.123237,-6757.331022
875.907831,-1148.554848,1359.123237,-13916.656242
875.910264,689.132909,1205.982590,-7503.891674
875.912697,-650.847747,1837.687757,-8384.450390
875.915130,-95.712904,1091.127106,-13935.798822
875.917564,248.853550,1722.832272,-6317.051664
875.919997,-535.992262,1799.402595,-9667.003304
875.922430,229.710970,-1761.117434,-12021.540742
875.924863,-344.566454,76.570323,-8709.874264
875.927296,-210.568389,-248.853550,-8384.450390
875.929729,191.425808,57.427742,-12921.242040
875.932163,-114.855485,4900.500685,-8173.882002
875.934596,727.418070,6891.329088,-8154.739421
875.937029,-708.275490,10968.698798,-13380.663979
875.939498,-401.994197,7542.176835,-6776.473603
875.941967,803.988394,1627.119368,-7503.891674
875.944436,363.709035,-880.558717,-13667.802691
875.946905,-459.421939,-1607.976787,-9686.145885
875.949374,401.994197,-4421.936165,-9494.720077
875.951843,-497.707101,-19.142581,-11332.407834
875.954312,535.992262,2890.529701,-7274.180704
875.956781,-133.998066,6355.336826,-11504.691061
875.959250,-0.000000,7848.458128,-10700.702667
875.961719,-133.998066,5551.348432,-8078.169098
875.964188,1205.982590,555.134843,-8269.594906
875.966657,-401.994197,-344.566454,-13572.089787
875.969126,-1895.115499,-133.998066,-7178.467800
875.971595,2143.969050,-3943.371645,-8614.161360
875.974064,-803.988394,95.712904,-12768.101394
875.976533,-4881.358104,5321.637462,-6967.899411
875.979002,6948.756830,-880.558717,-14108.082050
875.981470,-4441.078746,7810.172966,-1780.260014
875.983939,4536.791650,-1818.545176,-16692.330458
875.986408,-4689.932296,1301.695494,-7963.313613
875.988877,2756.531635,-5493.920690,-5359.922624
875.991346,287.138712,-7886.743290,-13648.660110
875.993815,-3005.385186,-2469.392923,-10815.558152
875.996284,3809.373579,-4938.785846,-6336.194245
875.998753,-3120.240670,2277.967115,-10796.415571
876.001222,1033.699363,1856.830338,-15371.492382
876.003691,1588.834206,3962.514226,-689.132909
876.006160,-3924.229064,4804.787781,-13036.097525
876.008629,3177.668413,-4134.797453,-16711.473038
876.011098,-2086.541307,-1071.984525,-1569.691626
876.013567,-1301.695494,-3847.658741,-13859.228499
876.016036,3101.098090,-7542.176835,-7331.608446
876.018505,-3713.660675,-2392.822600,-12710.673651
876.020974,1167.697429,-976.271621,-11983.255581
876.023443,382.851616,3369.094221,-4421.936165
876.025912,-153.140646,2603.390989,-10700.702667
876.028381,1780.260014,-210.568389,-12729.816232
876.030850,-5570.491013,3483.949706,-5704.489078
876.033319,9571.290400,-9590.432981,-9724.431046
876.035788,-9226.723946,2756.531635,-11198.409768
876.038165,5761.916821,-6948.756830,-11791.829773
876.040541,-1780.260014,-1282.552914,-4594.219392
876.042918,-1990.828403,650.847747,-12825.529136
876.045295,2871.387120,-1569.691626,-12040.683323
876.047672,-5838.487144,6585.047795,-9226.723946
876.050049,76.570323,2450.250342,-8882.157491
876.052426,12270.394293,-7255.038123,-3292.523898
876.054802,-10413.563955,2124.826469,-12423.534939
876.057179,4134.797453,-7427.321350,-9418.149754
876.059556,5015.356170,-6240.481341,-7044.469734
876.061933,-7503.891674,3196.810994,-12653.245909
876.064310,1569.691626,-1071.984525,-15199.209155
876.066687,4115.654872,-1416.550979,-3751.945837
876.069063,-3522.234867,3905.086483,-7025.327154
876.071440,-803.988394,1627.119368,-18644.873699
876.073817,2450.250342,-1780.260014,-3560.520029
876.076194,-421.136778,-631.705166,-3771.088418
876.078571,153.140646,-3369.094221,-19410.576931
876.080948,-1301.695494,-2450.250342,-6240.481341
876.083324,-191.425808,-2660.818731,-4689.932296
876.085701,784.845813,-3196.810994,-15486.347867
876.088078,-4134.797453,2545.963246,-12251.251712
876.090455,6776.473603,-1416.550979,-7752.745224
876.092832,306.281293,-1856.830338,-2143.969050
876.095208,-10547.562021,6240.481341,-35298.918995
876.097585,6699.903280,-2775.674216,7637.889739
876.099962,1550.549045,-1454.836141,-3235.096155
876.102339,-5857.629725,2143.969050,-23602.802126
876.104716,8595.018779,-5417.350366,-2737.389054
876.107093,-5876.772306,76.570323,267.996131
876.109469,803.988394,-4517.649069,-23181.665349
876.111846,-1741.974853,-1148.554848,-5474.778109
876.114223,3101.098090,-2488.535504,-765.703232
876.116600,-3483.949706,2756.531635,-20999.411138
876.118977,-708.275490,2565.105827,-8173.882002
876.121354,1378.265818,612.562586,1837.687757
876.123730,-2086.541307,-363.709035,-23736.800192
876.126107,478.564520,-2890.529701,-2526.820666
876.128484,382.851616,-2488.535504,-3369.094221
876.130861,-1875.972918,-3254.238736,-23794.227934
876.133294,574.277424,-1588.834206,-1397.408398
876.135727,-210.568389,-612.562586,-5455.635528
876.138160,3043.670347,-3790.230998,-19602.002739
876.140593,-4766.502619,5761.916821,-8748.159426
876.143026,2603.390989,669.990328,-2488.535504
876.145459,-1493.121302,1339.980656,-15524.633029
876.147891,-2124.826469,153.140646,-9858.429112
876.150324,1856.830338,-4632.504554,-2048.256146
876.152757,-689.132909,-3675.375514,-18989.440154
876.155190,-995.414202,-2947.957443,-7695.317482
876.157623,-306.281293,-1339.980656,-3694.518094
876.160056,1569.691626,-3637.090352,-13954.941403
876.162489,-2431.107762,2316.252277,-5742.774240
876.164922,-842.273555,4019.941968,-11102.696864
876.167355,2507.678085,-248.853550,-11217.552349
876.169788,-3024.527766,2852.244539,-6680.760699
876.172221,1435.693560,-2469.392923,-10336.993632
876.174654,153.140646,-4843.072942,-8997.012976
876.177087,-746.560651,-3637.090352,-9896.714274
876.179520,650.847747,-4173.082614,-10949.556218
876.181953,-3579.662610,1052.841944,-9437.292334
876.184386,3560.520029,-2852.244539,-11542.976222
876.186819,-133.998066,2813.959378,-5608.776174
876.189252,-1799.402595,3349.951640,-11523.833642
876.191685,2143.969050,-1359.123237,-11581.261384
876.194118,-2928.814862,2163.111630,-6297.909083
876.196551,1550.549045,-3426.521963,-12940.384621
876.198984,-172.283227,-3732.803256,-4441.078746
876.201417,-153.140646,-3732.803256,-12098.111066
876.203849,-823.130974,-2297.109696,-12634.103328
876.206282,-689.132909,382.851616,-5551.348432
876.208715,2450.250342,-1627.119368,-12404.392358
876.211148,823.130974,1818.545176,-8135.596840
876.213581,-3598.805190,2890.529701,-5800.201982
876.216014,4345.365842,-4134.797453,-15486.347867
876.218447,-4843.072942,2009.970984,-7178.467800
876.220880,2660.818731,-3675.375514,-8958.727814
876.223313,-1148.554848,-746.560651,-11504.691061
876.225746,1110.269686,-3081.955509,-7886.743290
876.228179,-861.416136,-421.136778,-9418.149754
876.230652,650.847747,-1148.554848,-9341.579430
876.233124,-172.283227,-708.275490,-9686.145885
876.235595,133.998066,1531.406464,-7101.897477
876.238067,401.994197,516.849682,-9322.436850
876.240539,2258.824534,-1990.828403,-11428.120738
876.243010,-3656.232933,669.990328,-8690.731683
876.245482,2297.109696,-3828.516160,-11581.261384
876.247954,995.414202,-2890.529701,-8231.309744
876.250425,-1186.840010,-2067.398726,-9016.155557
876.252897,344.566454,-1148.554848,-12672.388490
876.255369,823.130974,-1244.267752,-3675.375514
876.257840,-1014.556782,421.136778,-14031.511726
876.260312,-153.140646,1531.406464,-11255.837510
876.262784,-19.142581,823.130974,-5187.639397
876.265255,2201.396792,-1454.836141,-12366.107197
876.267727,-3349.951640,1205.982590,-9801.001370
876.270199,1588.834206,-3637.090352,-6068.198114
876.272670,1837.687757,-4632.504554,-10738.987829
876.275142,-2756.531635,-1052.841944,-13686.945272
876.277614,4077.369710,-2086.541307,-7063.612315
876.280085,-2316.252277,-191.425808,-650.847747
876.282557,-5551.348432,3177.668413,-31106.693800
876.285029,6623.332957,191.425808,6527.620053
876.287501,-6738.188442,3177.668413,-14337.793019
876.289972,4575.076811,-3924.229064,-16290.336261
876.292444,-2986.242605,1052.841944,-3177.668413
876.294916,2086.541307,-1761.117434,-4804.787781
876.297387,210.568389,-5398.207786,-22549.960182
876.299859,-3407.379382,976.271621,4153.940034
876.302331,3905.086483,-3177.668413,-13686.945272
876.304802,-3541.377448,631.705166,-19678.573062
876.307274,2794.816797,2220.539373,2239.681954
876.309746,1627.119368,440.279358,-14816.357539
876.312217,-4900.500685,899.701298,-12059.825904
876.314689,995.414202,-2909.672282,-4268.795518
876.317161,-57.427742,-3081.955509,-10336.993632
876.319632,-2660.818731,1627.119368,-10413.563955
876.322104,6029.912952,-5474.778109,-9437.292334
876.324576,-6297.909083,3235.096155,-8824.729749
876.327047,4058.227130,-2622.533570,-10509.276859
876.329456,-2067.398726,899.701298,-10011.569758
876.331865,478.564520,267.996131,-11045.269122
876.334274,2986.242605,-3751.945837,-5608.776174
876.336682,-2775.674216,593.420005,-13112.667848
876.339091,1378.265818,-3215.953574,-10777.272990
876.341500,-2258.824534,-95.712904,-6489.334891
876.343909,363.709035,306.281293,-9035.298138
876.346317,1282.552914,-2431.107762,-8690.731683
876.348726,-957.129040,-1091.127106,-13361.521398
876.351135,-95.712904,-1225.125171,-5321.637462
876.353543,478.564520,-1665.404530,-10260.423309
876.355952,-957.129040,-19.142581,-14969.498186
876.358361,401.994197,-555.134843,-3369.094221
876.360770,19.142581,363.709035,-11657.831707
876.363178,-3847.658741,-191.425808,-10624.132344
876.365587,5053.641331,-5072.783912,-10796.415571
876.367996,-1588.834206,1167.697429,-3981.656806
876.370404,-1722.832272,-229.710970,-15792.629160
876.372813,2699.103893,-2316.252277,-8729.016845
876.375222,-2871.387120,1473.978722,-4058.227130
876.377631,2029.113565,-2641.676150,-15773.486579
876.380039,-727.418070,-57.427742,-6661.618118
876.382448,650.847747,-1205.982590,-7446.463931
876.384857,-746.560651,-57.427742,-14624.931731
876.387266,784.845813,-1378.265818,-4498.506488
876.389674,-1703.689691,-440.279358,-11064.411702
876.392083,1339.980656,-1895.115499,-11313.265253
876.394492,-2239.681954,-421.136778,-5245.067139
876.396900,1818.545176,-3828.516160,-14031.511726
876.399309,3139.383251,-4383.651003,-12021.540742
876.401718,-6125.625856,5455.635528,-4249.652938
876.404127,4747.360038,-2201.396792,-13055.240106
876.406535,-4077.369710,2852.244539,-7312.465866
876.408944,38.285162,229.710970,-11140.982026
876.411353,363.709035,-2392.822600,-9533.005238
876.413762,-2641.676150,478.564520,-8250.452325
876.416170,5608.776174,-6699.903280,-5781.059402
876.418579,-6910.471669,516.849682,-15658.631094
876.420988,3579.662610,-3790.230998,-13208.380752
876.423396,38.285162,-650.847747,1799.402595
876.425852,-5838.487144,4019.941968,-19142.580800
876.428308,6853.043926,-3924.229064,-11849.257515
876.430763,-2488.535504,3254.238736,4058.227130
876.433219,-1856.830338,516.849682,-21669.401466
876.435674,3158.525832,-5627.918755,-7312.465866
876.438130,-2718.246474,-2258.824534,-4555.934230
876.440585,2009.970984,-7963.313613,-16807.185942
876.443041,191.425808,-6336.194245,-8039.883936
876.445497,-3062.812928,-3426.521963,-6317.051664
876.447952,3598.805190,-6661.618118,-18166.309179
876.450408,-4632.504554,1722.832272,-38.285162
876.452863,6546.762634,-8595.018779,-16386.049165
876.455319,-4058.227130,-2469.392923,-11964.113000
876.457774,1761.117434,-3464.807125,3637.090352
876.460230,689.132909,-2067.398726,-19716.858224
876.462686,-3024.527766,-3598.805190,-10643.274925
876.465141,3273.381317,-8097.311678,-114.855485
876.467597,-880.558717,-3273.381317,-13074.382686
876.470052,-1818.545176,-3579.662610,-17477.176270
876.472508,2143.969050,-5570.491013,899.701298
876.474963,-880.558717,-2679.961312,-10317.851051
876.477419,19.142581,-3273.381317,-17266.607882
876.479875,-267.996131,-2545.963246,-4077.369710
876.482330,95.712904,-4364.508422,-6221.338760
876.484786,363.709035,-5206.781978,-16730.615619
876.487241,-382.851616,-3981.656806,-5608.776174
876.489697,612.562586,-4651.647134,-9265.009107
876.492152,-1129.412267,-3771.088418,-15084.353670
876.494608,899.701298,-842.273555,-5206.781978
876.497064,-478.564520,-440.279358,-7082.754896
876.499519,-0.000000,-1646.261949,-15677.773675
876.501975,382.851616,-2239.681954,-5876.772306
876.504430,-765.703232,-3828.516160,-6891.329088
876.506886,114.855485,-7657.032320,-14835.500120
876.509342,267.996131,-10719.845248,-7274.180704
876.511797,-1110.269686,-7905.885870,-8193.024582
876.514253,459.421939,-6087.340694,-15180.066574
876.516708,344.566454,-4402.793584,-4689.932296
876.519164,267.996131,1225.125171,-9245.866526
876.521619,1244.267752,1569.691626,-13840.085918
876.524109,-2641.676150,1665.404530,-4441.078746
876.526598,3043.670347,-8786.444587,-8958.727814
876.529087,-3043.670347,-7695.317482,-12614.960747
876.531576,287.138712,-8173.882002,-8729.016845
876.534065,1071.984525,-10547.562021,-8671.589102
876.536554,535.992262,-6297.909083,-8767.302006
876.539043,-3560.520029,4651.647134,-14567.503989
876.541533,2220.539373,3292.523898,-4153.940034
876.544022,382.851616,-1435.693560,-13170.095590
876.546511,-2526.820666,-1320.838075,-8269.594906
876.549000,2182.254211,-7255.038123,-10107.282662
876.551489,-1473.978722,-7810.172966,-9284.151688
876.553978,-937.986459,-8480.163294,-9954.142016
876.556468,1378.265818,-7044.469734,-9724.431046
876.558957,-669.990328,1454.836141,-9437.292334
876.561446,-708.275490,5264.209720,-12327.822035
876.563935,1033.699363,5053.641331,-4594.219392
876.566424,-3866.801322,6336.194245,-12500.105262
876.568913,4192.225195,-2584.248408,-8441.878133
876.571402,-2622.533570,-2909.672282,-11389.835576
876.573892,76.570323,-7886.743290,-8958.727814
876.576381,1741.974853,-6623.332957,-9705.288466
876.578870,-1914.258080,-2124.826469,-10241.280728
876.581359,1780.260014,-1167.697429,-9035.298138
876.583848,-1205.982590,3981.656806,-10451.849117
876.586337,-306.281293,4000.799387,-8365.307810
876.588827,650.847747,2009.970984,-12500.105262
876.591316,-2411.965181,574.277424,-3637.090352
876.593805,1933.400661,-6738.188442,-15160.923994
876.596294,2277.967115,-6068.198114,-10738.987829
876.598783,-4230.510357,2258.824534,-5130.211654
876.601272,8556.733618,-5379.065205,-12136.396227
876.603761,-7848.458128,6355.336826,-2316.252277
876.606251,2718.246474,-1588.834206,-21726.829208
876.608740,1588.834206,-765.703232,-1052.841944
876.611229,-4287.938099,1569.691626,-8346.165229
876.613718,3560.520029,-5819.344563,-18625.731118
876.616207,-2411.965181,-19.142581,-172.283227
876.618696,574.277424,-1378.265818,-12940.384621
876.621186,555.134843,-1129.412267,-12021.540742
876.623700,-1167.697429,631.705166,-3464.807125
876.626215,3905.086483,-2852.244539,-13323.236237
876.628730,-1837.687757,-1167.697429,-8135.596840
876.631244,-1856.830338,669.990328,-10011.569758
876.633759,-5666.203917,3905.086483,-12882.956878
876.636274,7216.752962,-7101.897477,-2794.816797
876.638788,-6431.907149,1569.691626,-15773.486579
876.641303,1895.115499,-2660.818731,-12136.396227
876.643818,1627.119368,-1703.689691,-2890.529701
876.646332,-2813.959378,1148.554848,-12921.242040
876.648847,1875.972918,-1588.834206,-11255.837510
876.651362,-95.712904,267.996131,-4039.084549
876.653876,-2679.961312,-114.855485,-12308.679454
876.656391,1167.697429,-3081.955509,-14624.931731
876.658906,-2660.818731,1110.269686,-5819.344563
876.661420,6125.625856,-5283.352301,-9590.432981
876.663935,-4613.361973,1091.127106,-13495.519464
876.666450,1837.687757,-2258.824534,-2928.814862
876.668964,401.994197,-861.416136,-15448.062706
876.671479,-2565.105827,1684.547110,-8461.020714
876.673994,1339.980656,-1148.554848,-7580.461997
876.676508,-2392.822600,593.420005,-11274.980091
876.679023,2086.541307,-4096.512291,-8327.022648
876.681538,-2718.246474,421.136778,-9341.579430
876.684052,-650.847747,-708.275490,-13438.091722
876.686567,5666.203917,-4766.502619,-3771.088418
876.689082,-7274.180704,4249.652938,-13380.663979
876.691596,7101.897477,-5149.354235,-10317.851051
876.694111,-4517.649069,3005.385186,-4555.934230
876.696626,344.566454,-1665.404530,-14395.220762
876.699140,2258.824534,-2852.244539,-9686.145885
876.701655,-3369.094221,1416.550979,-5647.061336
876.704170,1875.972918,-2947.957443,-12040.683323
876.706684,287.138712,-746.560651,-12078.968485
876.709199,-650.847747,555.134843,-746.560651
876.711714,306.281293,-861.416136,-21803.399531
876.714228,-1033.699363,248.853550,-4709.074877
876.716743,2699.103893,-2488.535504,-4345.365842
876.719258,-2469.392923,-1799.402595,-17726.029821
876.721772,229.710970,-2067.398726,-4019.941968
876.724305,2086.541307,-2641.676150,-9437.292334
876.726838,-4077.369710,1033.699363,-14605.789150
876.729370,2335.394858,-1454.836141,-6297.909083
876.731903,3005.385186,-1339.980656,-9494.720077
876.734435,-1129.412267,957.129040,-8365.307810
876.736968,-2029.113565,880.558717,-12863.814298
876.739501,3541.377448,-3254.238736,-6680.760699
876.742033,-3043.670347,229.710970,-12002.398162
876.744566,5359.922624,-4019.941968,-12423.534939
876.747098,-4173.082614,1416.550979,4230.510357
876.749631,2718.246474,-5168.496816,-21841.684693
876.752164,-2679.961312,-535.992262,-9360.722011
876.754696,-325.423874,0.000000,3637.090352
876.757229,2297.109696,-2277.967115,-23813.370515
876.759761,1052.841944,306.281293,1818.545176
876.762294,-5857.629725,5742.774240,-9801.001370
876.764827,5627.918755,-4077.369710,-16768.900781
876.767359,-4402.793584,1512.263883,-4709.074877
876.769892,861.416136,-2928.814862,-5608.776174
876.772424,2584.248408,-4364.508422,-19736.000805
876.774957,-5015.356170,2009.970984,2890.529701
876.777490,4862.215523,-5934.200048,-16788.043362
876.780022,-4058.227130,2182.254211,-12136.396227
876.782555,1493.121302,-459.421939,535.992262
876.785087,-1454.836141,574.277424,-18185.451760
876.787620,1684.547110,-803.988394,-5513.063270
876.790153,-1741.974853,-19.142581,-10911.271056
876.792685,-1799.402595,210.568389,-14127.224630
876.795218,2335.394858,-5072.783912,-6144.768437
876.797750,-593.420005,-1473.978722,-5570.491013
876.800283,-976.271621,-1952.543242,-19602.002739
876.802816,1875.972918,-1435.693560,-842.273555
876.805348,-1875.972918,1818.545176,-9341.579430
876.807881,363.709035,-1378.265818,-15180.066574
876.810413,1397.408398,-133.998066,-6355.336826
876.812946,1071.984525,-1607.976787,-5857.629725
876.815479,-2641.676150,708.275490,-16539.189811
876.818011,-880.558717,325.423874,-10777.272990
876.820544,3503.092286,-3043.670347,-1167.697429
876.823076,-3713.660675,-153.140646,-17649.459498
876.825621,1205.982590,-2354.537438,-5723.631659
876.828165,861.416136,-1052.841944,-4287.938099
876.830710,-2679.961312,765.703232,-17266.607882
876.833254,6776.473603,-3158.525832,-8288.737486
876.835799,-5321.637462,4096.512291,3943.371645
876.838343,1780.260014,-3503.092286,-23143.380187
876.840888,-593.420005,-325.423874,-7331.608446
876.843432,-4517.649069,2871.387120,-746.560651
876.845977,7063.612315,-8154.739421,-21439.690496
876.848521,-6565.905214,1933.400661,-9150.153622
876.851065,2507.678085,-3177.668413,421.136778
876.853610,-1531.406464,-1588.834206,-15256.636898
876.856154,-3503.092286,2794.816797,-17726.029821
876.858699,10662.417506,-4058.227130,1627.119368
876.861243,-9303.294269,6259.623922,-13591.232368
876.863788,5130.211654,-5034.498750,-16003.197549
876.866332,-1722.832272,-401.994197,-1205.982590
876.868877,-3598.805190,421.136778,-12959.527202
876.871421,5723.631659,-6776.473603,-14701.502054
876.873966,-6374.479406,3522.234867,899.701298
876.876510,3962.514226,-4670.789715,-15830.914322
876.879055,-727.418070,-229.710970,-13208.380752
876.881599,-2277.967115,2852.244539,-1320.838075
876.884143,3311.666478,-2852.244539,-14395.220762
876.886688,-3579.662610,2048.256146,-12959.527202
876.889232,2163.111630,-2411.965181,-1052.841944
876.891777,1473.978722,-3196.810994,-11351.550414
876.894321,-6183.053598,1856.830338,-16022.340130
876.896866,8212.167163,-4957.928427,-3617.947771
876.899410,-8212.167163,5493.920690,-9934.999435
876.901955,2641.676150,-2105.683888,-12040.683323
876.904499,-1741.974853,325.423874,-8958.727814
876.907044,2277.967115,-3349.951640,-6642.475538
876.909588,-248.853550,-2182.254211,-14146.367211
876.912133,-1282.552914,-1014.556782,-7771.887805
876.914677,2009.970984,-3732.803256,-8709.874264
876.917221,-1320.838075,344.566454,-8671.589102
876.919766,497.707101,-574.277424,-15467.205286
876.922310,1875.972918,0.000000,-2258.824534
876.924855,-2277.967115,1971.685822,-14165.509792
876.927409,1550.549045,-918.843878,-12346.964616
876.929962,114.855485,-1033.699363,-2641.676150
876.932516,-344.566454,-2354.537438,-14108.082050
876.935070,-612.562586,-1493.121302,-8307.880067
876.937624,2201.396792,-3503.092286,-2488.535504
876.940177,-2603.390989,76.570323,-17840.885306
876.942731,2756.531635,-2603.390989,-6451.049730
876.945285,-2833.101958,1148.554848,-1741.974853
876.947838,-459.421939,995.414202,-24043.081485
876.950392,4651.647134,-1416.550979,-1014.556782
876.952946,-8327.022648,6565.905214,-38.285162
876.955500,5704.489078,-6221.338760,-28273.591842
876.958053,-1722.832272,-344.566454,-803.988394
876.960607,-708.275490,-535.992262,631.705166
876.963161,842.273555,-5264.209720,-28024.738291
876.965715,57.427742,-574.277424,4689.932296
876.968268,-937.986459,-459.421939,-10968.698798
876.970822,-1244.267752,-38.285162,-16481.762069
876.973376,4096.512291,-957.129040,153.140646
876.975930,-1512.263883,19.142581,-10911.271056
876.978483,1052.841944,-2009.970984,-16654.045296
876.981037,-2756.531635,1435.693560,-5647.061336
876.983591,3828.516160,-2660.818731,-5206.781978
876.986145,-4326.223261,1186.840010,-20157.137582
876.988698,2411.965181,-2679.961312,-267.996131
876.991252,1531.406464,-4326.223261,-11102.696864
876.993806,-4230.510357,593.420005,-14778.072378
876.996360,3541.377448,-1569.691626,-5168.496816
876.998913,-1091.127106,382.851616,-7465.606512
877.001467,-306.281293,-631.705166,-16462.619488
877.004021,3828.516160,-2545.963246,325.423874
877.006575,-4517.649069,2507.678085,-16424.334326
877.009128,2258.824534,-1052.841944,-8499.305875
877.011682,-210.568389,-1416.550979,-5685.346498
877.014236,-2431.107762,612.562586,-13648.660110
877.016790,2986.242605,-3847.658741,-9724.431046
877.019343,-1588.834206,-1856.830338,-4364.508422
877.021897,574.277424,-2163.111630,-14222.937534
877.024451,1914.258080,-1569.691626,-12423.534939
877.027005,-2373.680019,2488.535504,2258.824534
877.029564,172.283227,1627.119368,-18530.018214
877.032124,574.277424,-191.425808,-13131.810429
877.034683,-1799.402595,3771.088418,1550.549045
877.037243,2048.256146,1205.982590,-18932.012411
877.039802,-3139.383251,5455.635528,-14854.642701
877.042362,2411.965181,2220.539373,2833.101958
877.044921,478.564520,535.992262,-15448.062706
877.047481,-2699.103893,2947.957443,-6355.336826
877.050040,1493.121302,1837.687757,-1129.412267
877.052600,-2488.535504,2526.820666,-19927.426613
877.055159,1761.117434,-631.705166,-8958.727814
877.057719,-976.271621,4039.084549,-1473.978722
877.060278,306.281293,4268.795518,-21726.829208
877.062838,-669.990328,689.132909,-4843.072942
877.065397,229.710970,2354.537438,-2565.105827
877.067957,76.570323,1856.830338,-20405.991133
877.070516,-1225.125171,3120.240670,-6317.051664
877.073076,1244.267752,689.132909,-4326.223261
877.075635,-1110.269686,1320.838075,-17534.604013
877.078195,-574.277424,2871.387120,-7427.321350
877.080754,1263.410333,2220.539373,-5474.778109
877.083314,-1205.982590,3120.240670,-16500.904650
877.085873,918.843878,1454.836141,-5130.211654
877.088433,-114.855485,1569.691626,-9131.011042
877.090992,-612.562586,784.845813,-14931.213024
877.093552,248.853550,-861.416136,-5015.356170
877.096111,-401.994197,-210.568389,-10834.700733
877.098671,-478.564520,-823.130974,-13208.380752
877.101230,133.998066,593.420005,-5398.207786
877.103790,172.283227,3177.668413,-11485.548480
877.106349,-153.140646,6470.192310,-11906.685258
877.108909,-57.427742,9647.860723,-6087.340694
877.111468,803.988394,7293.323285,-9896.714274
877.114028,-861.416136,5953.342629,-11734.402030
877.116587,-0.000000,918.843878,-9207.581365
877.119147,-210.568389,-5015.356170,-7523.034254
877.121706,-746.560651,-2967.100024,-12978.669782
877.124266,191.425808,-1320.838075,-8920.442653
877.126825,-803.988394,2813.959378,-11255.837510
877.129385,95.712904,6987.041992,-9647.860723
877.131948,287.138712,6872.186507,-8786.444587
877.134510,-153.140646,5723.631659,-8135.596840
877.137073,344.566454,4785.645200,-12978.669782
877.139636,-76.570323,1148.554848,-7446.463931
877.142199,-57.427742,-2775.674216,-10872.985894
877.144762,-4000.799387,-1244.267752,-8001.598774
877.147325,4421.936165,-2986.242605,-14854.642701
877.149888,-3522.234867,4268.795518,-4268.795518
877.152451,1607.976787,3483.949706,-14127.224630
877.155014,-1473.978722,7446.463931,-11255.837510
877.157577,-2373.680019,7561.319416,-9303.294269
877.160139,7618.747158,-3579.662610,-6891.329088
877.162702,-5800.201982,-4039.084549,-19123.438219
877.165265,1856.830338,-8690.731683,-7714.460062
877.167828,1684.547110,-6967.899411,-2775.674216
877.170391,-3905.086483,-2086.541307,-19621.145320
877.172954,2182.254211,-76.570323,-7503.891674
877.175517,995.414202,3560.520029,-5225.924558
877.178080,-2143.969050,6929.614250,-14510.076246
877.180643,2450.250342,1186.840010,-9877.571693
877.183206,-574.277424,497.707101,-2431.107762
877.185769,-267.996131,-3637.090352,-15084.353670
877.188331,-918.843878,-5819.344563,-11638.689126
877.190894,995.414202,-5091.926493,-3637.090352
877.193457,-229.710970,-3771.088418,-14108.082050
877.196020,-593.420005,478.564520,-10470.991698
877.198583,-1071.984525,4000.799387,-4594.219392
877.201146,-861.416136,2986.242605,-15333.207221
877.203709,1799.402595,995.414202,-9379.864592
877.206272,-1397.408398,746.560651,-2679.961312
877.208835,421.136778,-3885.943902,-14414.363342
877.211398,-3694.518094,-3981.656806,-11964.113000
877.213961,6451.049730,-8288.737486,-2813.959378
877.216523,-5953.342629,2297.109696,-13131.810429
877.219086,3101.098090,-2201.396792,-15696.916256
877.221649,-287.138712,4077.369710,-1186.840010
877.224212,-440.279358,2737.389054,-9131.011042
877.226775,-1646.261949,861.416136,-17343.178205
877.229338,2354.537438,-1952.543242,-3828.516160
877.231901,-1837.687757,-2029.113565,-6642.475538
877.234466,-2622.533570,-1052.841944,-22760.528571
877.237032,5781.059402,-6967.899411,3981.656806
877.239598,-2947.957443,-1588.834206,-15850.056902
877.242163,-5379.065205,2220.539373,-18070.596275
877.244729,8595.018779,-4249.652938,-1454.836141
877.247294,1205.982590,-401.994197,2833.101958
877.249860,-3656.232933,3809.373579,-33767.512531
877.252426,-1531.406464,3962.514226,5589.633594
877.254991,516.849682,-57.427742,440.279358
877.257557,-2565.105827,-2699.103893,-21841.684693
877.260122,-2928.814862,-1665.404530,-10202.995566
877.262688,4402.793584,-6068.198114,-153.140646
877.265253,-3924.229064,-899.701298,-23660.229869
877.267819,-3177.668413,-133.998066,-10853.843314
877.270385,7140.182638,-3254.238736,7197.610381
877.272950,-6431.907149,5340.780043,-24291.935035
877.275516,4364.508422,-669.990328,-1205.982590
877.278081,-1359.123237,95.712904,-114.855485
877.280647,-4594.219392,612.562586,-25670.200853
877.283212,459.421939,-3598.805190,-5474.778109
877.285778,133.998066,-2354.537438,382.851616
877.288344,-861.416136,-3962.514226,-20482.561456
877.290909,-401.994197,-1052.841944,-10202.995566
877.293475,133.998066,-478.564520,4115.654872
877.296040,2507.678085,-1550.549045,-19353.149189
877.298606,-5225.924558,5551.348432,-11562.118803
877.301172,5857.629725,-2641.676150,-1569.691626
877.303737,-2794.816797,1320.838075,-16347.764003
877.306303,-2775.674216,-76.570323,-10604.989763
877.308868,5091.926493,-5493.920690,-3273.381317
877.311434,-4747.360038,-95.712904,-17668.602078
877.313999,2852.244539,-4670.789715,-10566.704602
877.316565,-3675.375514,1378.265818,-937.986459
877.319131,4019.941968,-2565.105827,-17879.170467
877.321696,-1397.408398,3196.810994,-6967.899411
877.324262,-1435.693560,3311.666478,-2794.816797
877.326827,3292.523898,-2622.533570,-16098.910453
877.329393,-1263.410333,-842.273555,-9973.284597
877.331959,-842.273555,-2335.394858,-6987.041992
877.334524,1875.972918,-4421.936165,-13399.806560
877.337090,-2450.250342,-1167.697429,-7178.467800
877.339657,2813.959378,-2507.678085,-9360.722011
877.342223,-4709.074877,1914.258080,-10892.128475
877.344789,3062.812928,-2526.820666,-11294.122672
877.347356,1244.267752,363.709035,-8748.159426
877.349922,-784.845813,1607.976787,-14433.505923
877.352488,1531.406464,-1780.260014,-9705.288466
877.355055,-669.990328,-1761.117434,-4019.941968
877.357621,689.132909,-5072.783912,-17400.605947
877.360187,-478.564520,-1895.115499,-7503.891674
877.362754,191.425808,-880.558717,-3617.947771
877.365320,612.562586,-1052.841944,-17783.457563
877.367886,-3215.953574,2067.398726,-6680.760699
877.370453,3215.953574,-1895.115499,-8652.446522
877.373019,-76.570323,-421.136778,-15122.638832
877.375585,-2411.965181,2009.970984,-4058.227130
877.378152,3349.951640,-2239.681954,-13170.095590
877.380718,-4785.645200,1722.832272,-6546.762634
877.383284,4670.789715,-6049.055533,-8499.305875
877.385851,-3311.666478,-574.277424,-14912.070443
877.388417,1933.400661,-2718.246474,-5685.346498
877.390983,-19.142581,-114.855485,-12863.814298
877.393550,-3924.229064,1531.406464,-8575.876198
877.396116,4823.930362,-4211.367776,-10834.700733
877.398682,-2622.533570,1339.980656,-8958.727814
877.401249,-306.281293,-459.421939,-8480.163294
877.403815,976.271621,-650.847747,-12653.245909
877.406381,-2718.246474,899.701298,-3483.949706
877.408948,4307.080680,-4364.508422,-11140.982026
877.411514,-4000.799387,38.285162,-14395.220762
877.414080,1741.974853,-2890.529701,-2029.113565
877.416647,-727.418070,-267.996131,-14644.074312
877.419213,1071.984525,-1186.840010,-11389.835576
877.421779,-3273.381317,2871.387120,-2622.533570
877.424346,3273.381317,-2239.681954,-14931.213024
877.426912,-2565.105827,1110.269686,-1454.836141
877.429478,-1990.828403,1952.543242,-14414.363342
877.432045,4670.789715,-5283.352301,-6297.909083
877.434611,-1493.121302,-899.701298,-9456.434915
877.437177,-172.283227,-2526.820666,-11466.405899
877.439743,1646.261949,-3675.375514,-8039.883936
877.442309,-2354.537438,803.988394,-11542.976222
877.444874,3426.521963,-2277.967115,-9188.438784
877.447440,-4460.221326,4153.940034,-8116.454259
877.450005,3101.098090,-1569.691626,-10681.560086
877.452571,6221.338760,-4957.928427,-2143.969050
877.455137,-7829.315547,3120.240670,-17458.033690
877.457702,-4594.219392,957.129040,-7503.891674
877.460268,8307.880067,-6565.905214,-2813.959378
877.462834,-7197.610381,2507.678085,-20463.418875
877.465399,4096.512291,-4077.369710,-8039.883936
877.467965,-1186.840010,784.845813,-1684.547110
877.470531,842.273555,-1071.984525,-20233.707906
877.473096,-5225.924558,2871.387120,-6757.331022
877.475662,6106.483275,-4785.645200,-5742.774240
877.478228,-3809.373579,1493.121302,-12461.820101
877.480793,823.130974,-2373.680019,-11830.114934
877.483359,4689.932296,-5072.783912,-2067.398726
877.485925,-4613.361973,1205.982590,-17630.316917
877.488490,-1339.980656,-229.710970,-10892.128475
877.491056,2239.681954,803.988394,803.988394
877.493622,-1722.832272,1646.261949,-16386.049165
877.496187,1129.412267,-1493.121302,-12787.243974
877.498753,38.285162,-172.283227,191.425808
877.501319,-5685.346498,-497.707101,-16654.045296
877.503884,5283.352301,-5168.496816,-7867.600709
877.506450,-3751.945837,976.271621,784.845813
877.509016,1550.549045,-3177.668413,-23028.524702
877.511581,-708.275490,669.990328,-4460.221326
877.514147,-248.853550,478.564520,-3541.377448
877.516713,401.994197,-555.134843,-19908.284032
877.519278,-535.992262,-995.414202,-2067.398726
877.521844,-669.990328,-918.843878,-9992.427178
877.524410,440.279358,-1091.127106,-14433.505923
877.526975,-1895.115499,-114.855485,-3579.662610
877.529541,363.709035,-1665.404530,-13763.515595
877.532106,114.855485,-2009.970984,-10968.698798
877.534672,114.855485,229.710970,-6163.911018
877.537238,497.707101,-1339.980656,-9494.720077
877.539803,-1780.260014,153.140646,-11045.269122
877.542369,287.138712,-38.285162,-4173.082614
877.544934,-1167.697429,-440.279358,-13189.238171
877.547499,1033.699363,-535.992262,-10088.140082
877.550065,133.998066,-880.558717,-5245.067139
877.552630,363.709035,-1512.263883,-13131.810429
877.555195,-2718.246474,-114.855485,-8843.872330
877.557761,4364.508422,-5168.496816,-12595.818166
877.560326,-4479.363907,1531.406464,-6680.760699
877.562891,2354.537438,-3254.238736,-9207.581365
877.565457,1014.556782,-1148.554848,-7293.323285
877.568022,2699.103893,-2565.105827,-13036.097525
877.570587,-6585.047795,5379.065205,-7255.038123
877.573153,5608.776174,-2833.101958,-11657.831707
877.575718,-4728.217458,2813.959378,-9245.866526
877.578283,1780.260014,-2469.392923,-3924.229064
877.580849,38.285162,-3732.803256,-14222.937534
877.583414,-1301.695494,-3062.812928,-10145.567824
877.585979,2392.822600,-2488.535504,-6719.045861
877.588545,-2009.970984,478.564520,-10815.558152
877.591110,-382.851616,1071.984525,-11351.550414
877.593675,2373.680019,-1569.691626,-6489.334891
877.596241,-4058.227130,2354.537438,-8690.731683
877.598806,4996.213589,-3598.805190,-14720.644635
877.601371,-6527.620053,4287.938099,-1895.115499
877.603937,5570.491013,-4555.934230,-13706.087853
877.606502,-957.129040,-1780.260014,-10585.847182
877.609067,-2565.105827,19.142581,-2833.101958
877.611633,3196.810994,-5130.211654,-15428.920125
877.614198,-4287.938099,1818.545176,-8135.596840
877.616763,2545.963246,-937.986459,-10107.282662
877.619329,-1569.691626,1071.984525,-12059.825904
877.621894,516.849682,-19.142581,-5857.629725
877.624459,-1799.402595,-784.845813,-10604.989763
877.627025,248.853550,-3005.385186,-14146.367211
877.629590,-593.420005,-459.421939,-4804.787781
877.632155,1799.402595,-3464.807125,-11504.691061
877.634721,-2009.970984,172.283227,-9111.868461
877.637286,1397.408398,-2526.820666,-9820.143950
877.639851,-2545.963246,-1933.400661,-7465.606512
877.642417,2124.826469,-6470.192310,-9341.579430
877.644980,-1435.693560,-5321.637462,-11964.113000
877.647544,-363.709035,-5819.344563,-7867.600709
877.650107,3464.807125,-7676.174901,-6489.334891
877.652671,-4766.502619,-1205.982590,-11791.829773
877.655234,4153.940034,-3081.955509,-11638.689126
877.657798,-5436.492947,3541.377448,-1014.556782
877.660361,2967.100024,-7101.897477,-19678.573062
877.662925,-57.427742,-4230.510357,-3062.812928
877.665488,-1339.980656,-1416.550979,-9513.862658
877.668052,1071.984525,-7905.885870,-15428.920125
877.670615,-1607.976787,-4766.502619,-3483.949706
877.673179,1435.693560,-5915.057467,-9341.579430
877.675743,-1205.982590,-1550.549045,-16175.480776
877.678306,-459.421939,-1780.260014,-5340.780043
