#time,accel_x,accel_y,accel_z
478.865484,-440.279358,0.000000,-10202.995566
478.868176,248.853550,1148.554848,-9609.575562
478.870867,-114.855485,3694.518094,-9552.147819
478.873559,-19.142581,4862.215523,-9992.427178
478.876250,-248.853550,5685.346498,-9954.142016
478.878942,-210.568389,2297.109696,-8288.737486
478.881633,-57.427742,1493.121302,-12251.251712
478.884325,-95.712904,-4345.365842,-7542.176835
478.887016,-57.427742,-9667.003304,-10700.702667
478.889708,-153.140646,-10107.282662,-9590.432981
478.892399,784.845813,-6202.196179,-9590.432981
478.895091,-2354.537438,2201.396792,-10222.138147
478.897782,2009.970984,-2277.967115,-7848.458128
478.900474,-765.703232,-95.712904,-10758.130410
478.903165,210.568389,-1665.404530,-9571.290400
478.905857,-153.140646,-1454.836141,-9169.296203
478.908488,-95.712904,-1493.121302,-10241.280728
478.911120,-76.570323,-1493.121302,-9150.153622
478.913751,-172.283227,-1761.117434,-9456.434915
478.916383,-153.140646,-2086.541307,-10509.276859
478.919014,-153.140646,-1799.402595,-8786.444587
478.921645,-57.427742,-1282.552914,-10164.710405
478.924277,-57.427742,-478.564520,-9418.149754
478.926908,-95.712904,-76.570323,-9284.151688
478.929540,-57.427742,-535.992262,-9992.427178
478.932171,-57.427742,-1416.550979,-9341.579430
478.934803,-114.855485,-1627.119368,-9686.145885
478.937434,-19.142581,-1684.547110,-10030.712339
478.940065,-229.710970,-918.843878,-9647.860723
478.942697,-0.000000,-401.994197,-9456.434915
478.945328,-114.855485,57.427742,-9781.858789
478.947960,-95.712904,-57.427742,-9533.005238
478.950591,19.142581,-899.701298,-9226.723946
478.953223,-114.855485,-861.416136,-10126.425243
478.955854,-0.000000,-1014.556782,-9226.723946
478.958486,-153.140646,-1186.840010,-9781.858789
478.961117,-114.855485,-1205.982590,-9915.856854
478.963748,-38.285162,-1301.695494,-9341.579430
478.966380,-95.712904,-1416.550979,-9915.856854
478.969011,-95.712904,-1473.978722,-9686.145885
478.971643,-133.998066,-1014.556782,-9284.151688
478.974274,-76.570323,-535.992262,-9858.429112
478.976906,-153.140646,-229.710970,-9437.292334
478.979537,-76.570323,-421.136778,-9552.147819
478.982168,-19.142581,-746.560651,-9858.429112
478.984800,-210.568389,-1129.412267,-9647.860723
478.987431,-38.285162,-1320.838075,-9705.288466
478.990063,-76.570323,-1186.840010,-9743.573627
478.992694,-172.283227,-746.560651,-9475.577496
478.995326,-57.427742,-880.558717,-9667.003304
478.997957,-133.998066,-1110.269686,-9590.432981
479.000589,-38.285162,-1378.265818,-9552.147819
479.003220,-153.140646,-1416.550979,-9896.714274
479.005851,-133.998066,-995.414202,-9647.860723
479.008483,-95.712904,-421.136778,-9705.288466
479.011114,-95.712904,-76.570323,-9647.860723
479.013708,-95.712904,-38.285162,-9705.288466
479.016301,-38.285162,-325.423874,-9628.718142
479.018894,-114.855485,-1110.269686,-9628.718142
479.021487,-133.998066,-1359.123237,-9801.001370
479.024081,-133.998066,-1454.836141,-9456.434915
479.026674,-114.855485,-1244.267752,-9571.290400
479.029267,-172.283227,-842.273555,-9820.143950
479.031860,-57.427742,-535.992262,-9494.720077
479.034453,-95.712904,-803.988394,-9705.288466
479.037047,-0.000000,-1071.984525,-9724.431046
479.039640,-76.570323,-1052.841944,-9360.722011
479.042233,-38.285162,-689.132909,-9896.714274
479.044826,-172.283227,-478.564520,-9590.432981
479.047420,-57.427742,-478.564520,-9513.862658
479.050013,-133.998066,-918.843878,-9743.573627
479.052606,-114.855485,-1359.123237,-9647.860723
479.055199,-114.855485,-1301.695494,-9686.145885
479.057793,-95.712904,-1052.841944,-9820.143950
479.060386,-95.712904,-708.275490,-9628.718142
479.062979,-57.427742,-574.277424,-9437.292334
479.065572,-172.283227,-689.132909,-9858.429112
479.068166,-38.285162,-1186.840010,-9628.718142
479.070759,-19.142581,-1646.261949,-9743.573627
479.073352,-153.140646,-1607.976787,-9934.999435
479.075945,-153.140646,-1148.554848,-9456.434915
479.078539,-133.998066,-401.994197,-9667.003304
479.081132,-38.285162,0.000000,-9686.145885
479.083725,-57.427742,-133.998066,-9475.577496
479.086318,-57.427742,-746.560651,-9494.720077
479.088912,-114.855485,-1225.125171,-9801.001370
479.091505,-0.000000,-1397.408398,-9533.005238
479.094098,-114.855485,-1129.412267,-9877.571693
479.096691,-133.998066,-995.414202,-9724.431046
479.099285,-0.000000,-899.701298,-9284.151688
479.101878,-95.712904,-937.986459,-9992.427178
479.104471,-114.855485,-937.986459,-9705.288466
479.107064,-57.427742,-1263.410333,-9456.434915
479.109658,-38.285162,-957.129040,-9743.573627
479.112251,-114.855485,-478.564520,-9705.288466
479.114844,-76.570323,-344.566454,-9475.577496
479.117419,-76.570323,-631.705166,-9820.143950
479.119993,-76.570323,-1110.269686,-9533.005238
479.122568,-133.998066,-1320.838075,-9781.858789
479.125143,-57.427742,-1129.412267,-9686.145885
479.127717,-133.998066,-803.988394,-9590.432981
479.130292,-57.427742,-803.988394,-9647.860723
479.132866,-114.855485,-880.558717,-9533.005238
479.135441,-38.285162,-1225.125171,-9552.147819
479.138016,-114.855485,-1531.406464,-9686.145885
479.140590,-114.855485,-1378.265818,-9724.431046
479.143165,-172.283227,-1014.556782,-9456.434915
479.145740,-76.570323,-325.423874,-9877.571693
479.148314,-95.712904,-76.570323,-9533.005238
479.150889,-95.712904,-172.283227,-9418.149754
479.153463,-0.000000,-574.277424,-9781.858789
479.156038,-114.855485,-1148.554848,-9724.431046
479.158613,-114.855485,-1205.982590,-9686.145885
479.161187,-172.283227,-1129.412267,-9686.145885
479.163762,-57.427742,-1129.412267,-9552.147819
479.166337,-57.427742,-746.560651,-9801.001370
479.168911,-0.000000,-861.416136,-9781.858789
479.171486,-153.140646,-1167.697429,-9494.720077
479.174060,-76.570323,-1531.406464,-9820.143950
479.176635,-95.712904,-1225.125171,-9743.573627
479.179210,-133.998066,-765.703232,-9743.573627
479.181784,-57.427742,-497.707101,-9686.145885
479.184359,-153.140646,-76.570323,-9647.860723
479.186934,-114.855485,-133.998066,-9533.005238
479.189508,-57.427742,-593.420005,-9743.573627
479.192083,-133.998066,-1071.984525,-9820.143950
479.194657,-114.855485,-1244.267752,-9418.149754
479.197232,-76.570323,-1186.840010,-9781.858789
479.199807,-95.712904,-957.129040,-9858.429112
479.202381,-172.283227,-957.129040,-9399.007173
479.204956,-0.000000,-1263.410333,-9705.288466
479.207531,114.855485,-1129.412267,-9743.573627
479.210105,-38.285162,-1129.412267,-9169.296203
479.212680,-153.140646,-823.130974,-10260.423309
479.215254,-38.285162,-746.560651,-9628.718142
479.217829,-153.140646,-440.279358,-9035.298138
479.220380,-133.998066,-516.849682,-10107.282662
479.222937,-133.998066,-918.843878,-9475.577496
479.225494,-76.570323,-765.703232,-9533.005238
479.228051,-57.427742,-995.414202,-9705.288466
479.230608,-38.285162,-1071.984525,-9533.005238
479.233165,-0.000000,-976.271621,-9341.579430
479.235722,-114.855485,-1129.412267,-9877.571693
479.238280,-172.283227,-1550.549045,-9628.718142
479.240837,-19.142581,-1435.693560,-9533.005238
479.243394,-0.000000,-1052.841944,-9781.858789
479.245951,-114.855485,-248.853550,-9877.571693
479.248508,-172.283227,19.142581,-9360.722011
479.251065,-76.570323,-114.855485,-9724.431046
479.253622,-153.140646,-421.136778,-9762.716208
479.256179,-133.998066,-1225.125171,-9533.005238
479.258736,-38.285162,-1569.691626,-9762.716208
479.261293,-172.283227,-1493.121302,-9686.145885
479.263850,-95.712904,-1014.556782,-9628.718142
479.266407,-172.283227,-784.845813,-9647.860723
479.268964,-153.140646,-746.560651,-9590.432981
479.271521,-95.712904,-1205.982590,-9667.003304
479.274078,-57.427742,-1282.552914,-9915.856854
479.276635,-133.998066,-1320.838075,-9705.288466
479.279192,-114.855485,-842.273555,-9667.003304
479.281749,-38.285162,-440.279358,-9647.860723
479.284307,-133.998066,-153.140646,-9628.718142
479.286864,-133.998066,-363.709035,-9513.862658
479.289421,-38.285162,-880.558717,-9552.147819
479.291978,-133.998066,-1052.841944,-9992.427178
479.294535,-57.427742,-1359.123237,-9456.434915
479.297092,-114.855485,-1052.841944,-9609.575562
479.299649,-38.285162,-823.130974,-9762.716208
479.302026,-114.855485,-842.273555,-9513.862658
479.304402,-38.285162,-1167.697429,-9686.145885
479.306779,-133.998066,-1493.121302,-9973.284597
479.309156,-76.570323,-1167.697429,-9552.147819
479.311532,-76.570323,-593.420005,-9571.290400
479.313909,-57.427742,-248.853550,-9686.145885
479.316286,-133.998066,-229.710970,-9590.432981
479.318663,-133.998066,-574.277424,-9399.007173
479.321039,-95.712904,-1167.697429,-9781.858789
479.323416,-19.142581,-1550.549045,-9762.716208
479.325793,-153.140646,-1378.265818,-9705.288466
479.328169,-95.712904,-1129.412267,-9571.290400
479.330546,-76.570323,-593.420005,-9877.571693
479.332923,-57.427742,-459.421939,-9494.720077
479.335299,-0.000000,-861.416136,-9571.290400
479.337676,-133.998066,-1205.982590,-9724.431046
479.340053,-57.427742,-1339.980656,-9724.431046
479.342430,-133.998066,-1014.556782,-9667.003304
479.344806,-133.998066,-669.990328,-9686.145885
479.347183,-153.140646,-421.136778,-9590.432981
479.349560,-0.000000,-459.421939,-9513.862658
479.351936,-114.855485,-574.277424,-9552.147819
479.354313,-76.570323,-823.130974,-9954.142016
479.356690,-95.712904,-1148.554848,-9379.864592
479.359066,-57.427742,-1205.982590,-9571.290400
479.361443,-114.855485,-937.986459,-9992.427178
479.363820,-114.855485,-1110.269686,-9379.864592
479.366197,19.142581,-1454.836141,-9360.722011
479.368573,-76.570323,-1454.836141,-9839.286531
479.370950,-133.998066,-1301.695494,-9934.999435
479.373327,-76.570323,-823.130974,-9456.434915
479.375703,-57.427742,-133.998066,-9647.860723
479.378080,-57.427742,19.142581,-9667.003304
479.380457,-153.140646,-421.136778,-9456.434915
479.382833,-114.855485,-1129.412267,-9820.143950
479.385210,-133.998066,-1588.834206,-9781.858789
479.387587,-133.998066,-1607.976787,-9609.575562
479.389964,-38.285162,-1186.840010,-9724.431046
479.392340,-95.712904,-574.277424,-9609.575562
479.394717,-57.427742,-363.709035,-9781.858789
479.397152,19.142581,-516.849682,-9590.432981
479.399588,-133.998066,-784.845813,-9322.436850
479.402023,-19.142581,-1359.123237,-9934.999435
479.404458,-172.283227,-1378.265818,-9781.858789
479.406894,-133.998066,-1205.982590,-9207.581365
479.409329,-57.427742,-976.271621,-9801.001370
479.411765,-57.427742,-899.701298,-9647.860723
479.414200,-114.855485,-842.273555,-9399.007173
479.416635,-114.855485,-1129.412267,-9954.142016
479.419071,-172.283227,-880.558717,-9590.432981
479.421506,-95.712904,-574.277424,-9399.007173
479.423941,-95.712904,-478.564520,-9839.286531
479.426377,-95.712904,-765.703232,-9590.432981
479.428812,-133.998066,-1052.841944,-9111.868461
479.431247,-19.142581,-1665.404530,-9934.999435
479.433683,-38.285162,-1569.691626,-9858.429112
479.436118,-306.281293,-1033.699363,-9418.149754
479.438553,-57.427742,-535.992262,-9896.714274
479.440989,-172.283227,-19.142581,-9609.575562
479.443424,-19.142581,-19.142581,-9226.723946
479.445860,-114.855485,-440.279358,-9762.716208
479.448295,-114.855485,-1091.127106,-9743.573627
479.450730,-133.998066,-1512.263883,-9552.147819
479.453166,-133.998066,-1684.547110,-9801.001370
479.455601,-95.712904,-1148.554848,-9686.145885
479.458036,-172.283227,-803.988394,-9628.718142
479.460472,-76.570323,-918.843878,-9571.290400
479.462907,-57.427742,-1014.556782,-9552.147819
479.465342,-153.140646,-1014.556782,-9724.431046
479.467778,-38.285162,-1091.127106,-9781.858789
479.470213,-133.998066,-708.275490,-9647.860723
479.472649,-19.142581,-459.421939,-9609.575562
479.475084,-114.855485,-191.425808,-9839.286531
479.477519,-38.285162,-765.703232,-9475.577496
479.479955,-172.283227,-1205.982590,-9303.294269
479.482390,-133.998066,-976.271621,-10356.136213
479.484825,-38.285162,-842.273555,-9552.147819
479.487261,-95.712904,-727.418070,-9418.149754
479.489696,-0.000000,-727.418070,-9647.860723
479.492131,-95.712904,-803.988394,-9513.862658
479.494478,-95.712904,-1301.695494,-9628.718142
479.496825,-57.427742,-1818.545176,-9992.427178
479.499172,-133.998066,-1550.549045,-9590.432981
479.501519,-95.712904,-918.843878,-9743.573627
479.503866,-114.855485,-248.853550,-9743.573627
479.506213,-0.000000,-57.427742,-9379.864592
479.508560,-191.425808,-114.855485,-9475.577496
479.510907,-19.142581,-880.558717,-9762.716208
479.513254,-114.855485,-1186.840010,-9686.145885
479.515601,-38.285162,-1263.410333,-9513.862658
479.517948,-38.285162,-1148.554848,-9686.145885
479.520295,-153.140646,-746.560651,-9552.147819
479.522642,-0.000000,-957.129040,-9781.858789
479.524989,-95.712904,-1244.267752,-9628.718142
479.527336,-153.140646,-1378.265818,-9647.860723
479.529683,-38.285162,-1148.554848,-10049.854920
479.532030,-133.998066,-708.275490,-9475.577496
479.534378,-76.570323,-325.423874,-9360.722011
479.536725,-57.427742,19.142581,-9877.571693
479.539072,-76.570323,-287.138712,-9552.147819
479.541419,-133.998066,-976.271621,-9437.292334
479.543766,-114.855485,-1263.410333,-10088.140082
479.546113,-38.285162,-1339.980656,-9456.434915
479.548460,-57.427742,-1186.840010,-9647.860723
479.550807,-95.712904,-861.416136,-9839.286531
479.553154,-95.712904,-669.990328,-9207.581365
479.555501,-57.427742,-1052.841944,-9705.288466
479.557848,-133.998066,-1301.695494,-9973.284597
479.560195,-38.285162,-1359.123237,-9609.575562
479.562542,-114.855485,-918.843878,-9628.718142
479.564889,-114.855485,-478.564520,-9820.143950
479.567236,-57.427742,-325.423874,-9628.718142
479.569583,-95.712904,-555.134843,-9513.862658
479.571930,-57.427742,-861.416136,-9781.858789
479.574277,-38.285162,-995.414202,-9762.716208
479.576624,-57.427742,-1014.556782,-9533.005238
479.578971,-95.712904,-1033.699363,-9724.431046
479.581318,-114.855485,-976.271621,-9456.434915
479.583665,-57.427742,-861.416136,-9552.147819
479.586012,-38.285162,-957.129040,-9686.145885
479.588429,-133.998066,-1435.693560,-9647.860723
479.590847,-114.855485,-1473.978722,-9743.573627
479.593265,-38.285162,-861.416136,-9781.858789
479.595683,-153.140646,-172.283227,-9609.575562
479.598101,-172.283227,-133.998066,-9647.860723
479.600518,-19.142581,-421.136778,-9628.718142
479.602936,-0.000000,-727.418070,-9399.007173
479.605354,-38.285162,-1014.556782,-10088.140082
479.607772,-133.998066,-1129.412267,-9494.720077
479.610190,-76.570323,-1091.127106,-9456.434915
479.612607,-133.998066,-918.843878,-9934.999435
479.615025,-38.285162,-1014.556782,-9667.003304
479.617443,-95.712904,-1110.269686,-9360.722011
479.619861,-57.427742,-1339.980656,-9724.431046
479.622279,-153.140646,-1320.838075,-9954.142016
479.624696,-38.285162,-937.986459,-9379.864592
479.627114,-153.140646,-459.421939,-9705.288466
479.629532,-57.427742,-191.425808,-9705.288466
479.631950,-19.142581,-191.425808,-9456.434915
479.634367,-172.283227,-842.273555,-9494.720077
479.636785,-57.427742,-1339.980656,-9762.716208
479.639203,-153.140646,-1225.125171,-9743.573627
479.641621,-114.855485,-1167.697429,-9686.145885
479.644039,38.285162,-995.414202,-9858.429112
479.646456,-95.712904,-650.847747,-9437.292334
479.648874,-38.285162,-765.703232,-9609.575562
479.651292,-38.285162,-1071.984525,-9896.714274
479.653710,-363.709035,-1148.554848,-9609.575562
479.656128,114.855485,-1493.121302,-9724.431046
479.658545,-172.283227,-669.990328,-9609.575562
479.660963,-38.285162,-306.281293,-9533.005238
479.663381,-172.283227,-287.138712,-9609.575562
479.665799,-172.283227,-401.994197,-9609.575562
479.668217,-19.142581,-1091.127106,-9743.573627
479.670634,-57.427742,-1167.697429,-9705.288466
479.673052,-76.570323,-1091.127106,-9705.288466
479.675470,-57.427742,-1186.840010,-9762.716208
479.677888,-95.712904,-1110.269686,-9456.434915
479.680306,-57.427742,-1110.269686,-9475.577496
479.682723,-57.427742,-1339.980656,-9724.431046
479.685189,-95.712904,-1301.695494,-9896.714274
479.687654,-114.855485,-918.843878,-9571.290400
479.690120,-76.570323,-306.281293,-9743.573627
479.692585,-38.285162,-114.855485,-9571.290400
479.695051,-0.000000,-229.710970,-9533.005238
479.697516,-114.855485,-995.414202,-9571.290400
479.699982,-133.998066,-1454.836141,-9820.143950
479.702447,-114.855485,-1531.406464,-9571.290400
479.704913,-57.427742,-1244.267752,-9628.718142
479.707378,-114.855485,-689.132909,-9609.575562
479.709844,-0.000000,-401.994197,-9762.716208
479.712309,-38.285162,-669.990328,-9437.292334
479.714775,-133.998066,-1129.412267,-9533.005238
479.717240,-133.998066,-1435.693560,-9915.856854
479.719706,-133.998066,-1665.404530,-9705.288466
479.722171,-38.285162,-1167.697429,-9590.432981
479.724637,-172.283227,-574.277424,-9571.290400
479.727102,-76.570323,38.285162,-9801.001370
479.729568,-76.570323,-114.855485,-9590.432981
479.732033,-114.855485,-708.275490,-9418.149754
479.734499,-114.855485,-937.986459,-9781.858789
479.736964,-95.712904,-1320.838075,-9609.575562
479.739430,-172.283227,-1397.408398,-9494.720077
479.741895,-57.427742,-1225.125171,-9877.571693
479.744361,-19.142581,-899.701298,-9590.432981
479.746826,-95.712904,-899.701298,-9475.577496
479.749292,-57.427742,-1033.699363,-9877.571693
479.751757,-114.855485,-880.558717,-9609.575562
479.754223,-57.427742,-669.990328,-9533.005238
479.756688,-95.712904,-497.707101,-9667.003304
479.759153,-57.427742,-631.705166,-9667.003304
479.761619,-95.712904,-842.273555,-9437.292334
479.764084,-114.855485,-1244.267752,-9686.145885
479.766550,-153.140646,-1129.412267,-9743.573627
479.769015,-57.427742,-937.986459,-9590.432981
479.771481,-57.427742,-823.130974,-9762.716208
479.773946,-133.998066,-689.132909,-9590.432981
479.776412,-95.712904,-842.273555,-9456.434915
479.778877,-76.570323,-1071.984525,-9705.288466
479.781343,-38.285162,-1607.976787,-9590.432981
479.783841,-114.855485,-1588.834206,-9724.431046
479.786339,-38.285162,-861.416136,-9667.003304
479.788837,-133.998066,-153.140646,-9552.147819
479.791335,-114.855485,-19.142581,-9743.573627
479.793833,-0.000000,-401.994197,-9667.003304
479.796331,-95.712904,-957.129040,-9418.149754
479.798829,-133.998066,-1359.123237,-9973.284597
479.801327,-114.855485,-1550.549045,-9265.009107
479.803825,-0.000000,-1263.410333,-9341.579430
479.806323,-114.855485,-631.705166,-10202.995566
479.808821,-38.285162,-650.847747,-9513.862658
479.811319,-0.000000,-1014.556782,-9303.294269
479.813817,-114.855485,-1205.982590,-9954.142016
479.816315,-153.140646,-1014.556782,-9724.431046
479.818813,-0.000000,-995.414202,-9513.862658
479.821311,-172.283227,-631.705166,-9609.575562
479.823809,-95.712904,-478.564520,-9590.432981
479.826307,-19.142581,-478.564520,-9667.003304
479.828805,-153.140646,-765.703232,-9705.288466
479.831303,-172.283227,-1033.699363,-9839.286531
479.833800,-76.570323,-1091.127106,-9571.290400
479.836298,-172.283227,-957.129040,-9647.860723
479.838796,-57.427742,-880.558717,-9647.860723
479.841294,-57.427742,-708.275490,-9590.432981
479.843792,-133.998066,-1071.984525,-9609.575562
479.846290,-133.998066,-1473.978722,-9686.145885
479.848788,-95.712904,-1378.265818,-9896.714274
479.851286,-38.285162,-1091.127106,-9628.718142
479.853784,-57.427742,-516.849682,-9533.005238
479.856282,-57.427742,-95.712904,-9571.290400
479.858780,-38.285162,-153.140646,-9667.003304
479.861278,-114.855485,-555.134843,-9475.577496
479.863776,-57.427742,-1263.410333,-9686.145885
479.866274,-76.570323,-1225.125171,-9724.431046
479.868772,-76.570323,-1110.269686,-9686.145885
479.871270,-57.427742,-976.271621,-9628.718142
479.873768,-0.000000,-861.416136,-9628.718142
479.876266,-95.712904,-842.273555,-9724.431046
479.878764,-0.000000,-1263.410333,-9781.858789
479.881262,-133.998066,-1282.552914,-9781.858789
479.883693,-76.570323,-1033.699363,-9513.862658
479.886123,-172.283227,-363.709035,-9705.288466
479.888554,-38.285162,-153.140646,-9705.288466
479.890985,-0.000000,-248.853550,-9475.577496
479.893415,-38.285162,-727.418070,-9552.147819
479.895846,-95.712904,-1167.697429,-9858.429112
479.898276,-133.998066,-1435.693560,-9609.575562
479.900707,-38.285162,-1320.838075,-9628.718142
479.903138,-95.712904,-842.273555,-9724.431046
479.905568,-114.855485,-669.990328,-9724.431046
479.907999,-57.427742,-918.843878,-9399.007173
479.910429,-57.427742,-1416.550979,-9724.431046
479.912860,-133.998066,-1473.978722,-9781.858789
479.915291,-153.140646,-1014.556782,-9839.286531
479.917721,-95.712904,-535.992262,-9724.431046
479.920152,-0.000000,-287.138712,-9360.722011
479.922582,-38.285162,-114.855485,-9781.858789
479.925013,-38.285162,-478.564520,-9724.431046
479.927444,-172.283227,-937.986459,-9475.577496
479.929874,-153.140646,-1033.699363,-9858.429112
479.932305,-114.855485,-1225.125171,-9590.432981
479.934735,-76.570323,-1186.840010,-9456.434915
479.937166,-95.712904,-842.273555,-9762.716208
479.939597,-38.285162,-765.703232,-9590.432981
479.942027,-19.142581,-1129.412267,-9513.862658
479.944458,-172.283227,-1435.693560,-9915.856854
479.946888,-114.855485,-1244.267752,-9743.573627
479.949319,-95.712904,-861.416136,-9724.431046
479.951750,-57.427742,-153.140646,-9743.573627
479.954180,-38.285162,-38.285162,-9456.434915
479.956611,-19.142581,-421.136778,-9628.718142
479.959042,-191.425808,-842.273555,-9839.286531
479.961472,-76.570323,-1263.410333,-9628.718142
479.963903,-76.570323,-1339.980656,-9456.434915
479.966333,-172.283227,-1167.697429,-9781.858789
479.968764,-76.570323,-1110.269686,-9628.718142
479.971195,-76.570323,-1071.984525,-9513.862658
479.973625,-57.427742,-1052.841944,-9647.860723
479.976056,-133.998066,-1091.127106,-9839.286531
479.978486,-172.283227,-1110.269686,-9609.575562
479.980961,-114.855485,-784.845813,-9839.286531
479.983435,-38.285162,-344.566454,-9475.577496
479.985909,-57.427742,-382.851616,-9494.720077
479.988384,-172.283227,-593.420005,-9877.571693
479.990858,-133.998066,-1110.269686,-9379.864592
479.993333,-38.285162,-1301.695494,-9934.999435
479.995807,-76.570323,-1205.982590,-9705.288466
479.998281,-114.855485,-899.701298,-9341.579430
480.000756,-19.142581,-784.845813,-9915.856854
480.003230,-172.283227,-669.990328,-9418.149754
480.005704,-95.712904,-1071.984525,-9590.432981
480.008179,-57.427742,-1588.834206,-9896.714274
480.010653,-133.998066,-1627.119368,-9896.714274
480.013127,-95.712904,-1263.410333,-9475.577496
480.015602,-76.570323,-612.562586,-9743.573627
480.018076,-19.142581,57.427742,-9628.718142
480.020551,-38.285162,0.000000,-9379.864592
480.023025,-38.285162,-516.849682,-9781.858789
480.025499,-57.427742,-899.701298,-9858.429112
480.027974,-57.427742,-1225.125171,-9437.292334
480.030448,-19.142581,-1339.980656,-9801.001370
480.032922,-133.998066,-1110.269686,-9647.860723
480.035397,-172.283227,-1033.699363,-9533.005238
480.037871,-133.998066,-1225.125171,-9762.716208
480.040345,-0.000000,-1473.978722,-9609.575562
480.042820,-114.855485,-1205.982590,-9571.290400
480.045294,-95.712904,-440.279358,-10011.569758
480.047768,-153.140646,76.570323,-9245.866526
480.050243,-153.140646,0.000000,-9571.290400
480.052717,-0.000000,-880.558717,-9743.573627
480.055192,-133.998066,-1282.552914,-9513.862658
480.057666,-38.285162,-1761.117434,-9820.143950
480.060140,-38.285162,-1435.693560,-9590.432981
480.062615,-153.140646,-631.705166,-9360.722011
480.065089,-0.000000,-401.994197,-10049.854920
480.067563,-191.425808,-57.427742,-9743.573627
480.070038,-57.427742,-478.564520,-9207.581365
480.072512,-0.000000,-1129.412267,-9877.571693
480.074986,-248.853550,-1359.123237,-10068.997501
480.077461,-57.427742,-1531.406464,-9341.579430
480.079966,-38.285162,-1148.554848,-9762.716208
480.082472,-153.140646,-555.134843,-9762.716208
480.084977,-133.998066,-535.992262,-9360.722011
480.087482,-38.285162,-823.130974,-9609.575562
480.089988,-133.998066,-976.271621,-9762.716208
480.092493,-95.712904,-995.414202,-9571.290400
480.094998,-57.427742,-803.988394,-9743.573627
480.097504,-76.570323,-727.418070,-9724.431046
480.100009,-19.142581,-937.986459,-9475.577496
480.102514,-133.998066,-1225.125171,-9705.288466
480.105020,-57.427742,-1761.117434,-9801.001370
480.107525,-114.855485,-1741.974853,-9609.575562
480.110030,-76.570323,-1186.840010,-9801.001370
480.112536,-133.998066,-325.423874,-9647.860723
480.115041,-19.142581,19.142581,-9322.436850
480.117547,-38.285162,0.000000,-9667.003304
480.120052,-172.283227,-191.425808,-9647.860723
480.122557,-19.142581,-1244.267752,-9513.862658
480.125063,-172.283227,-1301.695494,-9954.142016
480.127568,-57.427742,-1225.125171,-9686.145885
480.130073,-57.427742,-1129.412267,-9513.862658
480.132579,-133.998066,-957.129040,-9743.573627
480.135084,-0.000000,-1091.127106,-9590.432981
480.137589,-95.712904,-1282.552914,-9552.147819
480.140095,-248.853550,-1282.552914,-10068.997501
480.142600,-19.142581,-1052.841944,-9437.292334
480.145105,-38.285162,-497.707101,-9590.432981
480.147611,-153.140646,-95.712904,-9896.714274
480.150116,-19.142581,-401.994197,-9533.005238
480.152622,-57.427742,-727.418070,-9418.149754
480.155127,-76.570323,-1110.269686,-10030.712339
480.157632,-38.285162,-1129.412267,-9724.431046
480.160138,-76.570323,-995.414202,-9418.149754
480.162643,-114.855485,-918.843878,-9686.145885
480.165148,-38.285162,-957.129040,-9743.573627
480.167654,-19.142581,-1033.699363,-9379.864592
480.170159,-153.140646,-1282.552914,-9686.145885
480.172664,-153.140646,-1359.123237,-9839.286531
480.175170,-133.998066,-1225.125171,-9533.005238
480.177675,-0.000000,-746.560651,-9762.716208
480.180128,-133.998066,-153.140646,-9667.003304
480.182581,-38.285162,-95.712904,-9399.007173
480.185034,-95.712904,-497.707101,-9705.288466
480.187487,-95.712904,-1225.125171,-9533.005238
480.189940,-133.998066,-1167.697429,-9743.573627
480.192393,-172.283227,-1033.699363,-9590.432981
480.194846,-76.570323,-861.416136,-9513.862658
480.197299,-38.285162,-803.988394,-9705.288466
480.199752,-38.285162,-765.703232,-9609.575562
480.202205,-172.283227,-1205.982590,-9571.290400
480.204658,-133.998066,-1512.263883,-9762.716208
480.207111,-57.427742,-1244.267752,-9628.718142
480.209564,-95.712904,-574.277424,-9686.145885
480.212017,-38.285162,-172.283227,-9667.003304
480.214471,-114.855485,-133.998066,-9533.005238
480.216924,-133.998066,-497.707101,-9647.860723
480.219377,-19.142581,-1052.841944,-9686.145885
480.221830,-95.712904,-1263.410333,-9705.288466
480.224283,-19.142581,-1148.554848,-9628.718142
480.226736,-38.285162,-1052.841944,-9609.575562
480.229189,-133.998066,-861.416136,-9686.145885
480.231642,-95.712904,-784.845813,-9552.147819
480.234095,-38.285162,-1071.984525,-9705.288466
480.236548,-114.855485,-1378.265818,-9533.005238
480.239001,-153.140646,-1263.410333,-9762.716208
480.241454,-76.570323,-708.275490,-9590.432981
480.243907,-76.570323,-114.855485,-9456.434915
480.246360,-0.000000,-153.140646,-9820.143950
480.248813,-19.142581,-440.279358,-9571.290400
480.251266,-95.712904,-1071.984525,-9590.432981
480.253719,-153.140646,-1225.125171,-10202.995566
480.256172,-95.712904,-1493.121302,-9399.007173
480.258625,-0.000000,-1244.267752,-9437.292334
480.261078,-153.140646,-746.560651,-9896.714274
480.263531,-114.855485,-765.703232,-9418.149754
480.265984,-38.285162,-823.130974,-9533.005238
480.268437,-76.570323,-937.986459,-9934.999435
480.270890,-172.283227,-1033.699363,-9724.431046
480.273343,-38.285162,-957.129040,-9513.862658
480.275796,-95.712904,-650.847747,-9647.860723
480.278286,-57.427742,-593.420005,-9667.003304
480.280775,-57.427742,-784.845813,-9533.005238
480.283265,-95.712904,-1186.840010,-9647.860723
480.285755,-133.998066,-1052.841944,-9839.286531
480.288245,-76.570323,-803.988394,-9475.577496
480.290735,-76.570323,-516.849682,-9686.145885
480.293225,-38.285162,-516.849682,-9590.432981
480.295714,-57.427742,-746.560651,-9475.577496
480.298204,-172.283227,-1301.695494,-9858.429112
480.300694,-133.998066,-2029.113565,-9609.575562
480.303184,-38.285162,-2086.541307,-9762.716208
480.305674,-133.998066,-1148.554848,-9858.429112
480.308163,-0.000000,-267.996131,-9590.432981
480.310653,-153.140646,267.996131,-9322.436850
480.313143,-172.283227,95.712904,-9743.573627
480.315633,-19.142581,-650.847747,-9399.007173
480.318123,-133.998066,-1148.554848,-9762.716208
480.320613,-76.570323,-1684.547110,-9609.575562
480.323102,-95.712904,-1435.693560,-9494.720077
480.325592,-95.712904,-937.986459,-9934.999435
480.328082,-172.283227,-937.986459,-9456.434915
480.330572,-0.000000,-1167.697429,-9552.147819
480.333062,-76.570323,-1052.841944,-9858.429112
480.335551,-114.855485,-861.416136,-9686.145885
480.338041,-38.285162,-765.703232,-9628.718142
480.340531,-57.427742,-287.138712,-9552.147819
480.343021,-76.570323,-172.283227,-9667.003304
480.345511,-38.285162,-689.132909,-9533.005238
480.348001,-114.855485,-1225.125171,-9494.720077
480.350490,-114.855485,-1550.549045,-9934.999435
480.352980,-114.855485,-1282.552914,-9456.434915
480.355470,-76.570323,-612.562586,-9743.573627
480.357960,-76.570323,-133.998066,-9667.003304
480.360450,-57.427742,-191.425808,-9494.720077
480.362939,-19.142581,-861.416136,-9647.860723
480.365429,-153.140646,-1741.974853,-9590.432981
480.367919,-114.855485,-2009.970984,-9820.143950
480.370409,-172.283227,-1722.832272,-9667.003304
480.372899,-172.283227,-650.847747,-9820.143950
480.375388,-133.998066,-76.570323,-9705.288466
480.377838,-19.142581,-76.570323,-9341.579430
480.380288,-76.570323,0.000000,-9820.143950
480.382738,-57.427742,-880.558717,-9571.290400
480.385188,-76.570323,-1071.984525,-9571.290400
480.387638,-133.998066,-1225.125171,-9801.001370
480.390088,-153.140646,-1148.554848,-9801.001370
480.392538,-114.855485,-1033.699363,-9418.149754
480.394987,-57.427742,-1225.125171,-9628.718142
480.397437,-38.285162,-1588.834206,-9801.001370
480.399887,-38.285162,-1435.693560,-9667.003304
480.402337,-95.712904,-842.273555,-9513.862658
480.404787,-0.000000,-153.140646,-9743.573627
480.407237,-38.285162,0.000000,-9571.290400
480.409687,-76.570323,-114.855485,-9590.432981
480.412136,-76.570323,-593.420005,-9571.290400
480.414586,-95.712904,-1244.267752,-9877.571693
480.417036,-57.427742,-1435.693560,-9647.860723
480.419486,-95.712904,-1091.127106,-9686.145885
480.421936,-172.283227,-880.558717,-9686.145885
480.424386,-19.142581,-784.845813,-9571.290400
480.426836,-133.998066,-1033.699363,-9513.862658
480.429285,-19.142581,-1512.263883,-9762.716208
480.431735,-172.283227,-1493.121302,-9934.999435
480.434185,-153.140646,-1148.554848,-9437.292334
480.436635,-153.140646,-555.134843,-9781.858789
480.439085,-19.142581,-114.855485,-9762.716208
480.441535,-153.140646,-153.140646,-9303.294269
480.443985,-114.855485,-631.705166,-9686.145885
480.446434,-38.285162,-1091.127106,-9724.431046
480.448884,-172.283227,-899.701298,-9781.858789
480.451334,-38.285162,-1148.554848,-9513.862658
480.453784,-153.140646,-823.130974,-9609.575562
480.456234,-114.855485,-650.847747,-9686.145885
480.458684,-76.570323,-746.560651,-9801.001370
480.461134,-57.427742,-1416.550979,-9494.720077
480.463583,-172.283227,-1646.261949,-9820.143950
480.466033,-76.570323,-1416.550979,-9781.858789
480.468483,19.142581,-861.416136,-9705.288466
480.470933,-153.140646,-344.566454,-9437.292334
480.473383,-0.000000,-95.712904,-9820.143950
480.475871,-76.570323,-325.423874,-9571.290400
480.478359,-95.712904,-957.129040,-9513.862658
480.480848,-95.712904,-1129.412267,-9934.999435
480.483336,-114.855485,-995.414202,-9609.575562
480.485824,-57.427742,-1052.841944,-9494.720077
480.488312,-114.855485,-1186.840010,-9686.145885
480.490800,-172.283227,-1186.840010,-9609.575562
480.493288,-133.998066,-1416.550979,-9667.003304
480.495777,-57.427742,-1607.976787,-9954.142016
480.498265,-57.427742,-1186.840010,-9628.718142
480.500753,-19.142581,-382.851616,-9647.860723
480.503241,-114.855485,-19.142581,-9647.860723
480.505729,-19.142581,287.138712,-9647.860723
480.508218,-38.285162,-172.283227,-9456.434915
480.510706,-153.140646,-1263.410333,-9609.575562
480.513194,-114.855485,-1378.265818,-10030.712339
480.515682,-95.712904,-1493.121302,-9513.862658
480.518170,-114.855485,-1186.840010,-9743.573627
480.520659,-76.570323,-631.705166,-9915.856854
480.523147,-38.285162,-497.707101,-9399.007173
480.525635,-0.000000,-803.988394,-9743.573627
480.528123,-153.140646,-1148.554848,-9743.573627
480.530611,-0.000000,-1320.838075,-9571.290400
480.533100,-172.283227,-823.130974,-9647.860723
480.535588,19.142581,-669.990328,-9571.290400
480.538076,-172.283227,-325.423874,-9590.432981
480.540564,-38.285162,-497.707101,-9705.288466
480.543052,-38.285162,-1033.699363,-9609.575562
480.545541,-191.425808,-1186.840010,-9628.718142
480.548029,-38.285162,-1186.840010,-9705.288466
480.550517,-133.998066,-842.273555,-9724.431046
480.553005,-133.998066,-669.990328,-9571.290400
480.555493,-95.712904,-803.988394,-9647.860723
480.557982,-57.427742,-1052.841944,-9609.575562
480.560470,-114.855485,-1512.263883,-9667.003304
480.562958,-38.285162,-1684.547110,-9896.714274
480.565446,-95.712904,-1205.982590,-9571.290400
480.567934,-76.570323,-363.709035,-9628.718142
480.570423,-114.855485,-19.142581,-9686.145885
480.572911,-57.427742,-133.998066,-9533.005238
480.575427,-19.142581,-689.132909,-9475.577496
480.577944,-172.283227,-1033.699363,-10011.569758
480.580460,-95.712904,-1339.980656,-9552.147819
480.582977,-133.998066,-1110.269686,-9609.575562
480.585493,-172.283227,-976.271621,-9934.999435
480.588010,-0.000000,-995.414202,-9418.149754
480.590526,-38.285162,-1071.984525,-9513.862658
480.593043,-95.712904,-1225.125171,-9858.429112
480.595559,-114.855485,-1186.840010,-9858.429112
480.598076,-95.712904,-880.558717,-9571.290400
480.600592,-76.570323,-421.136778,-9724.431046
480.603109,-133.998066,-95.712904,-9628.718142
480.605625,-0.000000,-516.849682,-9475.577496
480.608142,-172.283227,-1033.699363,-9686.145885
480.610658,-76.570323,-1416.550979,-9724.431046
480.613175,-76.570323,-1320.838075,-9667.003304
480.615691,-114.855485,-765.703232,-9647.860723
480.618208,-38.285162,-784.845813,-9801.001370
480.620724,-95.712904,-803.988394,-9628.718142
480.623241,-95.712904,-823.130974,-9552.147819
480.625757,-57.427742,-1397.408398,-9533.005238
480.628274,-114.855485,-1435.693560,-9934.999435
480.630790,-38.285162,-1052.841944,-9705.288466
480.633307,-38.285162,-650.847747,-9552.147819
480.635823,-57.427742,-325.423874,-9667.003304
480.638340,-76.570323,-210.568389,-9609.575562
480.640856,-57.427742,-574.277424,-9628.718142
480.643373,-153.140646,-1301.695494,-9724.431046
480.645889,-114.855485,-1186.840010,-9571.290400
480.648406,-57.427742,-918.843878,-9609.575562
480.650922,-153.140646,-746.560651,-9762.716208
480.653439,-95.712904,-746.560651,-9590.432981
480.655955,-0.000000,-803.988394,-9475.577496
480.658472,-114.855485,-1320.838075,-9647.860723
480.660988,-153.140646,-1588.834206,-9858.429112
480.663505,-114.855485,-1225.125171,-9609.575562
480.666021,-172.283227,-516.849682,-9628.718142
480.668538,-19.142581,-191.425808,-9686.145885
480.671054,-57.427742,-133.998066,-9379.864592
480.673571,-57.427742,-631.705166,-9743.573627
480.676110,-133.998066,-1225.125171,-9820.143950
480.678648,-153.140646,-1359.123237,-9513.862658
480.681187,-114.855485,-1033.699363,-9724.431046
480.683726,-95.712904,-746.560651,-9628.718142
480.686265,-76.570323,-631.705166,-9513.862658
480.688804,-76.570323,-899.701298,-9609.575562
480.691342,-95.712904,-1282.552914,-9743.573627
480.693881,-114.855485,-1550.549045,-9743.573627
480.696420,-38.285162,-1454.836141,-9743.573627
480.698959,-172.283227,-727.418070,-9762.716208
480.701498,-0.000000,-172.283227,-9552.147819
480.704036,-133.998066,-38.285162,-9686.145885
480.706575,-19.142581,-382.851616,-9743.573627
480.709114,-95.712904,-976.271621,-9245.866526
480.711653,-95.712904,-976.271621,-10164.710405
480.714192,-210.568389,-1186.840010,-9360.722011
480.716730,-57.427742,-957.129040,-9418.149754
480.719269,-114.855485,-880.558717,-9973.284597
480.721808,-19.142581,-899.701298,-9437.292334
480.724347,-95.712904,-1378.265818,-9609.575562
480.726885,-133.998066,-1512.263883,-9992.427178
480.729424,-95.712904,-1320.838075,-9590.432981
480.731963,-95.712904,-708.275490,-9705.288466
480.734502,-133.998066,-114.855485,-9839.286531
480.737041,-57.427742,-114.855485,-9418.149754
480.739579,-57.427742,-421.136778,-9456.434915
480.742118,-95.712904,-937.986459,-9839.286531
480.744657,-95.712904,-1339.980656,-9743.573627
480.747196,-76.570323,-1359.123237,-9552.147819
480.749735,-133.998066,-861.416136,-9820.143950
480.752273,-38.285162,-842.273555,-9533.005238
480.754812,-76.570323,-880.558717,-9456.434915
480.757351,-57.427742,-1167.697429,-9724.431046
480.759890,-57.427742,-1397.408398,-9590.432981
480.762429,-153.140646,-1282.552914,-9896.714274
480.764967,-76.570323,-880.558717,-9628.718142
480.767506,-76.570323,-401.994197,-9590.432981
480.770045,-114.855485,-133.998066,-9724.431046
480.772584,-19.142581,-421.136778,-9609.575562
480.775123,-38.285162,-1033.699363,-9379.864592
480.777677,-95.712904,-1244.267752,-10126.425243
480.780232,-0.000000,-1282.552914,-9399.007173
480.782787,-114.855485,-918.843878,-9322.436850
480.785342,-38.285162,-803.988394,-9954.142016
480.787897,-172.283227,-535.992262,-9418.149754
480.790452,-57.427742,-880.558717,-9571.290400
480.793006,-172.283227,-1397.408398,-9896.714274
480.795561,-95.712904,-1550.549045,-9667.003304
480.798116,38.285162,-1186.840010,-9705.288466
480.800671,-76.570323,-497.707101,-9647.860723
480.803226,-38.285162,-172.283227,-9590.432981
480.805781,-19.142581,-382.851616,-9533.005238
480.808335,-114.855485,-631.705166,-9743.573627
480.810890,-76.570323,-880.558717,-9609.575562
480.813445,-38.285162,-1110.269686,-9667.003304
480.816000,-114.855485,-1014.556782,-9839.286531
480.818555,-133.998066,-976.271621,-9552.147819
480.821109,-0.000000,-1129.412267,-9513.862658
480.823664,-95.712904,-1110.269686,-9934.999435
480.826219,-114.855485,-1473.978722,-9533.005238
480.828774,-95.712904,-1435.693560,-9724.431046
480.831329,-76.570323,-401.994197,-9762.716208
480.833884,-95.712904,344.566454,-9360.722011
480.836438,-0.000000,153.140646,-9705.288466
480.838993,-76.570323,-650.847747,-9571.290400
480.841548,-57.427742,-1454.836141,-9456.434915
480.844103,-172.283227,-1971.685822,-9877.571693
480.846658,-95.712904,-1646.261949,-9743.573627
480.849213,-19.142581,-1033.699363,-9533.005238
480.851767,-172.283227,-248.853550,-9743.573627
480.854322,-172.283227,-133.998066,-9743.573627
480.856877,-0.000000,-765.703232,-9513.862658
480.859432,-133.998066,-1244.267752,-9533.005238
480.861987,-95.712904,-1741.974853,-10011.569758
480.864542,-76.570323,-1799.402595,-9322.436850
480.867096,-114.855485,-957.129040,-9820.143950
480.869651,-76.570323,-172.283227,-9590.432981
480.872206,-57.427742,-421.136778,-9475.577496
480.874761,-57.427742,-612.562586,-9820.143950
480.877316,-38.285162,-803.988394,-9647.860723
480.879881,-133.998066,-880.558717,-9571.290400
480.882447,-19.142581,-823.130974,-9705.288466
480.885013,-133.998066,-650.847747,-9513.862658
480.887578,-38.285162,-765.703232,-9609.575562
480.890144,-76.570323,-1225.125171,-9686.145885
480.892710,-133.998066,-1741.974853,-9628.718142
480.895275,-114.855485,-1646.261949,-9915.856854
480.897841,-76.570323,-1359.123237,-9781.858789
480.900406,-133.998066,-459.421939,-9686.145885
480.902972,-57.427742,-19.142581,-9494.720077
480.905538,-76.570323,57.427742,-9590.432981
480.908103,-57.427742,-555.134843,-9418.149754
480.910669,-114.855485,-1493.121302,-9686.145885
480.913235,-153.140646,-1435.693560,-9992.427178
480.915800,-38.285162,-1129.412267,-9475.577496
480.918366,-133.998066,-861.416136,-9647.860723
480.920932,-76.570323,-784.845813,-9686.145885
480.923497,-76.570323,-746.560651,-9399.007173
480.926063,-57.427742,-1033.699363,-9915.856854
480.928628,-95.712904,-1320.838075,-9552.147819
480.931194,-76.570323,-1071.984525,-9475.577496
480.933760,-38.285162,-612.562586,-9877.571693
480.936325,-95.712904,-535.992262,-9379.864592
480.938891,-57.427742,-440.279358,-9552.147819
480.941457,-114.855485,-727.418070,-9781.858789
480.944022,-95.712904,-995.414202,-9647.860723
480.946588,-114.855485,-1110.269686,-9533.005238
480.949154,-76.570323,-1014.556782,-9820.143950
480.951719,-76.570323,-708.275490,-9628.718142
480.954285,-38.285162,-727.418070,-9571.290400
480.956851,-95.712904,-803.988394,-9762.716208
480.959416,-0.000000,-1378.265818,-9513.862658
480.961982,-172.283227,-1550.549045,-9686.145885
480.964547,-95.712904,-1703.689691,-9801.001370
480.967113,-153.140646,-899.701298,-9494.720077
480.969679,-95.712904,-440.279358,-9533.005238
480.972244,-172.283227,-19.142581,-9877.571693
480.974810,-38.285162,-172.283227,-9609.575562
480.977376,-0.000000,-669.990328,-9418.149754
480.979941,-172.283227,-880.558717,-9973.284597
480.982515,-57.427742,-1225.125171,-9437.292334
480.985089,-38.285162,-1263.410333,-9552.147819
480.987662,-57.427742,-899.701298,-9934.999435
480.990236,-95.712904,-746.560651,-9284.151688
480.992810,-57.427742,-1148.554848,-9705.288466
480.995383,-95.712904,-1320.838075,-9877.571693
480.997957,-114.855485,-1186.840010,-9609.575562
481.000531,-76.570323,-669.990328,-9858.429112
481.003104,-57.427742,-459.421939,-9781.858789
481.005678,-38.285162,-287.138712,-9303.294269
481.008252,-57.427742,-593.420005,-9762.716208
481.010826,-57.427742,-1052.841944,-9762.716208
481.013399,-38.285162,-1244.267752,-9513.862658
481.015973,-114.855485,-1129.412267,-9724.431046
481.018547,-172.283227,-995.414202,-9686.145885
481.021120,-172.283227,-765.703232,-9418.149754
481.023694,-0.000000,-976.271621,-9705.288466
481.026268,-133.998066,-1205.982590,-9647.860723
481.028841,-19.142581,-1665.404530,-9590.432981
481.031415,-172.283227,-1416.550979,-9858.429112
481.033989,-76.570323,-842.273555,-9571.290400
481.036562,-57.427742,-478.564520,-9494.720077
481.039136,-114.855485,-133.998066,-9705.288466
481.041710,-114.855485,-133.998066,-9494.720077
481.044284,-57.427742,-459.421939,-9456.434915
481.046857,-172.283227,-631.705166,-9992.427178
481.049431,-95.712904,-1052.841944,-9360.722011
481.052005,-57.427742,-976.271621,-9628.718142
481.054578,-114.855485,-784.845813,-10030.712339
481.057152,-133.998066,-861.416136,-9513.862658
481.059726,-0.000000,-1378.265818,-9628.718142
481.062299,-114.855485,-1550.549045,-9762.716208
481.064873,-95.712904,-1378.265818,-9705.288466
481.067447,-133.998066,-669.990328,-9647.860723
481.070020,-210.568389,-95.712904,-9590.432981
481.072594,-19.142581,-133.998066,-9628.718142
481.075168,-57.427742,-574.277424,-9686.145885
481.077741,-172.283227,-1052.841944,-9533.005238
481.080315,-19.142581,-1512.263883,-9801.001370
481.082889,-172.283227,-1205.982590,-9667.003304
481.085467,-95.712904,-1052.841944,-9647.860723
481.088046,-114.855485,-765.703232,-9590.432981
481.090625,-57.427742,-689.132909,-9686.145885
481.093203,-95.712904,-918.843878,-9590.432981
481.095782,-76.570323,-1493.121302,-9552.147819
481.098360,-95.712904,-1493.121302,-9781.858789
481.100939,-133.998066,-976.271621,-9647.860723
481.103517,-57.427742,-287.138712,-9571.290400
481.106096,-95.712904,76.570323,-9686.145885
481.108675,-95.712904,-306.281293,-9513.862658
481.111253,-95.712904,-880.558717,-9533.005238
481.113832,-114.855485,-1454.836141,-9973.284597
481.116410,-153.140646,-1493.121302,-9399.007173
481.118989,-133.998066,-1244.267752,-9667.003304
481.121567,-0.000000,-899.701298,-9781.858789
481.124146,-133.998066,-593.420005,-9456.434915
481.126725,-95.712904,-478.564520,-9590.432981
481.129303,-76.570323,-937.986459,-9647.860723
481.131882,-172.283227,-1359.123237,-9686.145885
481.134460,-19.142581,-1339.980656,-9686.145885
481.137039,-38.285162,-823.130974,-9705.288466
481.139617,-133.998066,-172.283227,-9705.288466
481.142196,-0.000000,-401.994197,-9456.434915
481.144774,-133.998066,-842.273555,-9743.573627
481.147353,-76.570323,-1033.699363,-9705.288466
481.149932,-133.998066,-1033.699363,-9705.288466
481.152510,-133.998066,-861.416136,-9743.573627
481.155089,-133.998066,-803.988394,-9609.575562
481.157667,-76.570323,-918.843878,-9609.575562
481.160246,-57.427742,-995.414202,-9628.718142
481.162824,-133.998066,-1416.550979,-9590.432981
481.165403,-95.712904,-1435.693560,-9686.145885
481.167982,-19.142581,-1071.984525,-9609.575562
481.170560,-76.570323,-593.420005,-9628.718142
481.173139,-57.427742,-421.136778,-9762.716208
481.175717,-114.855485,-382.851616,-9571.290400
481.178296,-57.427742,-784.845813,-9552.147819
481.180874,-76.570323,-1263.410333,-9705.288466
481.183453,-76.570323,-1071.984525,-9686.145885
481.186032,-76.570323,-823.130974,-9667.003304
481.188613,-114.855485,-803.988394,-9724.431046
481.191194,-19.142581,-746.560651,-9590.432981
481.193776,-95.712904,-765.703232,-9533.005238
481.196357,-76.570323,-1244.267752,-9647.860723
481.198939,-114.855485,-1493.121302,-9858.429112
481.201520,-172.283227,-1397.408398,-9418.149754
481.204101,-95.712904,-880.558717,-9954.142016
481.206683,-76.570323,-478.564520,-9590.432981
481.209264,-57.427742,-267.996131,-9341.579430
481.211846,-172.283227,-421.136778,-9801.001370
481.214427,-76.570323,-784.845813,-9609.575562
481.217009,-133.998066,-1167.697429,-9456.434915
481.219590,-133.998066,-1263.410333,-9801.001370
481.222171,-0.000000,-1071.984525,-9858.429112
481.224753,-133.998066,-708.275490,-9533.005238
481.227334,-76.570323,-708.275490,-9571.290400
481.229916,-19.142581,-957.129040,-9705.288466
481.232497,-114.855485,-1244.267752,-9628.718142
481.235078,-57.427742,-1339.980656,-9781.858789
481.237660,-172.283227,-669.990328,-9724.431046
481.240241,-38.285162,-401.994197,-9418.149754
481.242823,-76.570323,-497.707101,-9781.858789
481.245404,-76.570323,-880.558717,-9743.573627
481.247985,-38.285162,-1607.976787,-9341.579430
481.250567,-172.283227,-1378.265818,-10126.425243
481.253148,-153.140646,-1148.554848,-9513.862658
481.255730,-76.570323,-784.845813,-9303.294269
481.258311,-95.712904,-325.423874,-10049.854920
481.260893,-114.855485,-325.423874,-9475.577496
481.263474,-0.000000,-1225.125171,-9399.007173
481.266055,-114.855485,-1569.691626,-9954.142016
481.268637,-38.285162,-1665.404530,-9590.432981
481.271218,-133.998066,-1339.980656,-9494.720077
481.273800,-172.283227,-516.849682,-9858.429112
481.276381,38.285162,-95.712904,-9552.147819
481.278962,-114.855485,-114.855485,-9533.005238
481.281544,-38.285162,-669.990328,-9820.143950
481.284125,-38.285162,-957.129040,-9533.005238
481.286707,-57.427742,-1110.269686,-9590.432981
481.289288,-133.998066,-1033.699363,-9877.571693
481.291871,-133.998066,-861.416136,-9513.862658
481.294454,-0.000000,-1110.269686,-9456.434915
481.297038,-57.427742,-1244.267752,-9801.001370
481.299621,-38.285162,-1799.402595,-9705.288466
481.302204,-0.000000,-1665.404530,-9686.145885
481.304787,-153.140646,-995.414202,-9839.286531
481.307370,-38.285162,-287.138712,-9475.577496
481.309953,-57.427742,57.427742,-9552.147819
481.312537,-76.570323,-153.140646,-9915.856854
481.315120,-0.000000,-727.418070,-9379.864592
481.317703,-114.855485,-1052.841944,-9839.286531
481.320286,-114.855485,-1301.695494,-9896.714274
481.322869,-133.998066,-1110.269686,-9303.294269
481.325452,-95.712904,-1014.556782,-9896.714274
481.328036,-172.283227,-823.130974,-9494.720077
481.330619,-57.427742,-976.271621,-9475.577496
481.333202,-114.855485,-401.994197,-10164.710405
481.335785,-172.283227,669.990328,-9533.005238
481.338368,-95.712904,1990.828403,-9494.720077
481.340951,-95.712904,-669.990328,-10183.852986
481.343535,-210.568389,-842.273555,-10375.278794
481.346118,-0.000000,-899.701298,-8633.303941
481.348701,-172.283227,-880.558717,-9743.573627
481.351284,-114.855485,-535.992262,-10470.991698
481.353867,-76.570323,-248.853550,-8729.016845
481.356450,38.285162,-38.285162,-9781.858789
481.359034,-95.712904,784.845813,-10183.852986
481.361617,-0.000000,708.275490,-9131.011042
481.364200,-57.427742,-421.136778,-10068.997501
481.366783,-191.425808,-1167.697429,-9686.145885
481.369366,-172.283227,-1550.549045,-9226.723946
481.371949,-76.570323,-1435.693560,-10030.712339
481.374532,-153.140646,-1052.841944,-9820.143950
481.377116,-0.000000,-708.275490,-8843.872330
481.379699,-114.855485,-497.707101,-10202.995566
481.382282,-153.140646,-708.275490,-9590.432981
481.384865,-95.712904,-1225.125171,-9226.723946
481.387448,-153.140646,-1320.838075,-9954.142016
481.390031,-57.427742,-1014.556782,-9762.716208
481.392615,-19.142581,-823.130974,-9188.438784
481.395197,-76.570323,-765.703232,-10030.712339
481.397780,-38.285162,-899.701298,-9437.292334
481.400363,-38.285162,-1071.984525,-9360.722011
481.402946,-172.283227,-918.843878,-10107.282662
481.405529,-95.712904,-784.845813,-9456.434915
481.408112,19.142581,-669.990328,-9360.722011
481.410694,-133.998066,-401.994197,-10030.712339
481.413277,-38.285162,-612.562586,-9379.864592
481.415860,-95.712904,-1033.699363,-9513.862658
481.418443,-172.283227,-1320.838075,-10068.997501
481.421026,-38.285162,-1454.836141,-9552.147819
481.423609,-0.000000,-1359.123237,-9379.864592
481.426191,-114.855485,-727.418070,-10030.712339
481.428774,-0.000000,-861.416136,-9245.866526
481.431357,-76.570323,-650.847747,-9379.864592
481.433940,-210.568389,-287.138712,-10298.708470
481.436523,-57.427742,-478.564520,-9609.575562
481.439106,-95.712904,-823.130974,-9513.862658
481.441688,-38.285162,-631.705166,-9992.427178
481.444271,-95.712904,-421.136778,-9379.864592
481.446854,-133.998066,-861.416136,-9896.714274
481.449437,-133.998066,-1416.550979,-9743.573627
481.452020,-95.712904,-1837.687757,-9475.577496
481.454603,-133.998066,-1799.402595,-9934.999435
481.457185,-95.712904,-1416.550979,-9858.429112
481.459768,-95.712904,-746.560651,-9226.723946
481.462351,-95.712904,-344.566454,-9820.143950
481.464934,-95.712904,-306.281293,-9896.714274
481.467517,-95.712904,-593.420005,-9437.292334
481.470100,-38.285162,-1014.556782,-9686.145885
481.472682,-133.998066,-803.988394,-9877.571693
481.475265,-38.285162,-555.134843,-9437.292334
481.477848,-172.283227,-459.421939,-9724.431046
481.480431,-0.000000,-842.273555,-9628.718142
481.483014,-76.570323,-1301.695494,-9322.436850
481.485596,-19.142581,-1531.406464,-10068.997501
481.488179,-114.855485,-1416.550979,-9801.001370
481.490762,-76.570323,-1282.552914,-9360.722011
481.493345,-57.427742,-631.705166,-9877.571693
481.495928,-95.712904,-459.421939,-9399.007173
481.498510,-57.427742,-689.132909,-9341.579430
481.501093,-172.283227,-574.277424,-10088.140082
481.503676,-38.285162,-842.273555,-9456.434915
481.506259,-95.712904,-1148.554848,-9494.720077
481.508841,-95.712904,-765.703232,-10011.569758
481.511424,-172.283227,-516.849682,-9265.009107
481.514007,-38.285162,-669.990328,-9858.429112
481.516589,-38.285162,-1129.412267,-9647.860723
481.519172,-95.712904,-1531.406464,-9494.720077
481.521755,-133.998066,-1569.691626,-9877.571693
481.524337,-114.855485,-1320.838075,-9628.718142
481.526920,-133.998066,-708.275490,-9590.432981
481.529503,-38.285162,-555.134843,-9628.718142
481.532085,-114.855485,-631.705166,-9552.147819
481.534668,-38.285162,-803.988394,-9647.860723
481.537251,-95.712904,-880.558717,-9743.573627
481.539833,-133.998066,-995.414202,-9724.431046
481.542416,-133.998066,-555.134843,-9552.147819
481.544999,-95.712904,-421.136778,-9724.431046
481.547581,-95.712904,-401.994197,-9705.288466
481.550164,-57.427742,-899.701298,-9533.005238
481.552747,-95.712904,-1627.119368,-9705.288466
481.555329,-95.712904,-1780.260014,-9762.716208
481.557912,-114.855485,-1454.836141,-9686.145885
481.560495,-133.998066,-727.418070,-9781.858789
481.563077,38.285162,-382.851616,-9360.722011
481.565660,-172.283227,-191.425808,-9820.143950
481.568243,-0.000000,-497.707101,-9934.999435
481.570825,-114.855485,-976.271621,-9341.579430
481.573408,-57.427742,-1263.410333,-9743.573627
481.575991,-133.998066,-689.132909,-9915.856854
481.578574,-95.712904,-382.851616,-9379.864592
481.581156,-38.285162,-593.420005,-9513.862658
481.583739,-57.427742,-669.990328,-9801.001370
481.586322,-0.000000,-1378.265818,-9552.147819
481.588904,-114.855485,-1780.260014,-9877.571693
481.591487,-133.998066,-1722.832272,-9705.288466
481.594070,-76.570323,-899.701298,-9552.147819
481.596652,-114.855485,-459.421939,-9724.431046
481.599235,-133.998066,-153.140646,-9628.718142
481.601816,-19.142581,-516.849682,-9513.862658
481.604398,-19.142581,-842.273555,-9877.571693
481.606979,-153.140646,-957.129040,-9743.573627
481.609560,-114.855485,-1071.984525,-9475.577496
481.612141,-191.425808,-861.416136,-9724.431046
481.614723,-57.427742,-1110.269686,-9781.858789
481.617304,-133.998066,-1186.840010,-9494.720077
481.619885,-114.855485,-1397.408398,-9590.432981
481.622467,-38.285162,-1205.982590,-9820.143950
481.625048,-172.283227,-708.275490,-9513.862658
481.627629,-19.142581,-306.281293,-9801.001370
481.630211,-210.568389,-229.710970,-9590.432981
481.632792,-19.142581,-937.986459,-9456.434915
481.635373,-133.998066,-1301.695494,-9839.286531
481.637955,-38.285162,-1473.978722,-9762.716208
481.640536,-57.427742,-1339.980656,-9533.005238
481.643117,-133.998066,-746.560651,-9877.571693
481.645698,-38.285162,-38.285162,-9781.858789
481.648280,-57.427742,153.140646,-9245.866526
481.650861,-76.570323,-133.998066,-9934.999435
481.653442,-76.570323,-1033.699363,-9437.292334
481.656024,-76.570323,-1665.404530,-9552.147819
481.658605,-133.998066,-1780.260014,-9858.429112
481.661186,-153.140646,-1454.836141,-9456.434915
481.663768,-0.000000,-957.129040,-9724.431046
481.666349,-133.998066,-593.420005,-9801.001370
481.668930,-0.000000,-765.703232,-9513.862658
481.671511,-95.712904,-765.703232,-9609.575562
481.674093,-57.427742,-727.418070,-9801.001370
481.676674,-114.855485,-612.562586,-9552.147819
481.679255,-95.712904,-459.421939,-9609.575562
481.681837,-95.712904,-421.136778,-9705.288466
481.684418,-57.427742,-1071.984525,-9418.149754
481.686999,-133.998066,-1588.834206,-9858.429112
481.689581,-57.427742,-1799.402595,-9743.573627
481.692162,-114.855485,-1378.265818,-9590.432981
481.694743,-19.142581,-937.986459,-9724.431046
481.697324,-114.855485,-229.710970,-9781.858789
481.699906,-38.285162,-555.134843,-9284.151688
481.702487,-57.427742,-995.414202,-9628.718142
481.705066,-19.142581,-1397.408398,-9418.149754
481.707645,-76.570323,-1052.841944,-9801.001370
481.710224,-153.140646,-842.273555,-9915.856854
481.712802,-153.140646,-574.277424,-9379.864592
481.715381,-38.285162,-248.853550,-9475.577496
481.717960,-114.855485,-191.425808,-9973.284597
481.720539,-133.998066,-918.843878,-9379.864592
481.723118,-57.427742,-1588.834206,-9533.005238
481.725697,-153.140646,-1684.547110,-10011.569758
481.728276,-95.712904,-1397.408398,-9494.720077
481.730854,-95.712904,-957.129040,-9513.862658
481.733433,-0.000000,-842.273555,-9896.714274
481.736012,-114.855485,-631.705166,-9533.005238
481.738591,-57.427742,-727.418070,-9801.001370
481.741170,-133.998066,-823.130974,-9743.573627
481.743749,-114.855485,-765.703232,-9552.147819
481.746328,-133.998066,-535.992262,-9686.145885
481.748906,-76.570323,-287.138712,-9686.145885
481.751485,-19.142581,-669.990328,-9552.147819
481.754064,-76.570323,-1282.552914,-9533.005238
481.756643,-57.427742,-1818.545176,-9858.429112
481.759222,-133.998066,-1512.263883,-9686.145885
481.761801,-57.427742,-1320.838075,-9513.862658
481.764380,-95.712904,-708.275490,-10011.569758
481.766958,-38.285162,-650.847747,-9131.011042
481.769537,-57.427742,-497.707101,-9934.999435
481.772116,-172.283227,-555.134843,-9896.714274
481.774695,-19.142581,-1186.840010,-9265.009107
481.777274,-95.712904,-1091.127106,-9781.858789
481.779853,-57.427742,-478.564520,-9647.860723
481.782432,-133.998066,-133.998066,-9475.577496
481.785010,-76.570323,-650.847747,-9801.001370
481.787589,-57.427742,-1167.697429,-9418.149754
481.790168,-172.283227,-1435.693560,-9494.720077
481.792747,-114.855485,-1684.547110,-10107.282662
481.795326,-57.427742,-1588.834206,-9513.862658
481.797905,-133.998066,-918.843878,-9494.720077
481.800483,-114.855485,-631.705166,-9954.142016
481.803062,-76.570323,-574.277424,-9609.575562
481.805641,-57.427742,-803.988394,-9494.720077
481.808218,-76.570323,-918.843878,-9858.429112
481.810796,-133.998066,-823.130974,-9609.575562
481.813373,-133.998066,-689.132909,-9609.575562
481.815950,-38.285162,-535.992262,-9743.573627
481.818527,-133.998066,-593.420005,-9322.436850
481.821105,-57.427742,-1110.269686,-9609.575562
481.823682,-76.570323,-1512.263883,-9877.571693
481.826259,-95.712904,-1531.406464,-9513.862658
481.828836,-95.712904,-1282.552914,-9839.286531
481.831414,-133.998066,-880.558717,-9820.143950
481.833991,-38.285162,-631.705166,-9303.294269
481.836568,-172.283227,-306.281293,-9877.571693
481.839145,57.427742,-1205.982590,-9839.286531
481.841723,-133.998066,-1033.699363,-9284.151688
481.844300,-57.427742,-708.275490,-9954.142016
481.846877,-114.855485,-669.990328,-9896.714274
481.849454,-76.570323,-555.134843,-9188.438784
481.852032,19.142581,-535.992262,-9667.003304
481.854609,-95.712904,-803.988394,-9877.571693
481.857186,-114.855485,-1646.261949,-9418.149754
481.859763,-114.855485,-2048.256146,-9647.860723
481.862341,-133.998066,-1588.834206,-9801.001370
481.864918,-76.570323,-669.990328,-9475.577496
481.867495,-38.285162,-267.996131,-9571.290400
481.870072,-95.712904,-191.425808,-9724.431046
481.872649,-19.142581,-401.994197,-9533.005238
481.875227,-133.998066,-861.416136,-9762.716208
481.877804,-0.000000,-1091.127106,-9858.429112
481.880381,-95.712904,-1071.984525,-9456.434915
481.882958,-76.570323,-765.703232,-9647.860723
481.885536,-95.712904,-593.420005,-9647.860723
481.888113,-95.712904,-823.130974,-9628.718142
481.890690,-172.283227,-1244.267752,-9667.003304
481.893267,-76.570323,-1531.406464,-9609.575562
481.895845,-133.998066,-1052.841944,-9590.432981
481.898422,-38.285162,-842.273555,-9743.573627
481.900999,-95.712904,-459.421939,-9533.005238
481.903576,-95.712904,-574.277424,-9647.860723
481.906154,-114.855485,-1148.554848,-9667.003304
481.908731,-57.427742,-1014.556782,-9647.860723
481.911306,-172.283227,-880.558717,-9667.003304
481.913881,-95.712904,-746.560651,-9724.431046
481.916456,-76.570323,-363.709035,-9686.145885
481.919031,-19.142581,-210.568389,-9341.579430
481.921606,-95.712904,-612.562586,-9934.999435
481.924181,-153.140646,-1320.838075,-9571.290400
481.926756,-38.285162,-1895.115499,-9513.862658
481.929331,-133.998066,-1684.547110,-9915.856854
481.931906,-57.427742,-995.414202,-9647.860723
481.934481,-38.285162,-478.564520,-9628.718142
481.937056,-95.712904,-325.423874,-9667.003304
481.939631,-38.285162,-440.279358,-9571.290400
481.942206,-95.712904,-631.705166,-9743.573627
481.944781,-153.140646,-995.414202,-9724.431046
481.947356,-57.427742,-1148.554848,-9533.005238
481.949931,-0.000000,-784.845813,-9858.429112
481.952506,-172.283227,-478.564520,-9724.431046
481.955081,-95.712904,-650.847747,-9513.862658
481.957656,-57.427742,-1186.840010,-9686.145885
481.960231,-19.142581,-1416.550979,-9858.429112
481.962806,-133.998066,-1454.836141,-9590.432981
481.965381,-76.570323,-1244.267752,-9552.147819
481.967956,-114.855485,-574.277424,-9552.147819
481.970531,-153.140646,-440.279358,-9513.862658
481.973106,-95.712904,-765.703232,-9647.860723
481.975681,-57.427742,-803.988394,-9705.288466
481.978256,-133.998066,-861.416136,-9724.431046
481.980831,-95.712904,-880.558717,-9896.714274
481.983406,-133.998066,-612.562586,-9494.720077
481.985981,-0.000000,-574.277424,-9379.864592
481.988556,-76.570323,-765.703232,-9973.284597
481.991131,-95.712904,-1244.267752,-9360.722011
481.993703,-38.285162,-1646.261949,-9456.434915
481.996276,-57.427742,-1359.123237,-10030.712339
481.998849,-133.998066,-899.701298,-9571.290400
482.001421,-0.000000,-689.132909,-9437.292334
482.003994,-114.855485,-440.279358,-9801.001370
482.006566,-38.285162,-516.849682,-9590.432981
482.009139,-76.570323,-803.988394,-9686.145885
482.011712,-95.712904,-1186.840010,-9724.431046
482.014284,-95.712904,-1091.127106,-9705.288466
482.016857,-57.427742,-823.130974,-9571.290400
482.019430,-172.283227,-574.277424,-9647.860723
482.022002,-95.712904,-612.562586,-9513.862658
482.024575,-0.000000,-1033.699363,-9647.860723
482.027147,-153.140646,-1378.265818,-9743.573627
482.029720,-76.570323,-1588.834206,-9628.718142
482.032293,-38.285162,-1397.408398,-9667.003304
482.034865,-114.855485,-803.988394,-9762.716208
482.037438,-76.570323,-555.134843,-9456.434915
482.040011,-38.285162,-363.709035,-9705.288466
482.042583,-153.140646,-555.134843,-10202.995566
482.045156,-0.000000,-1205.982590,-9360.722011
482.047728,-76.570323,-1320.838075,-9686.145885
482.050301,-153.140646,-669.990328,-10049.854920
482.052874,-19.142581,-306.281293,-9207.581365
482.055446,-38.285162,-363.709035,-9571.290400
482.058019,-153.140646,-669.990328,-9686.145885
482.060592,-133.998066,-1186.840010,-9609.575562
482.063164,-0.000000,-1722.832272,-9801.001370
482.065737,-172.283227,-1588.834206,-9743.573627
482.068309,-38.285162,-1110.269686,-9590.432981
482.070882,-133.998066,-727.418070,-9609.575562
482.073455,-114.855485,-555.134843,-9781.858789
482.076027,-0.000000,-555.134843,-9590.432981
482.078600,-76.570323,-689.132909,-9628.718142
482.081172,-38.285162,-918.843878,-9781.858789
482.083745,-172.283227,-669.990328,-9590.432981
482.086318,-19.142581,-535.992262,-9647.860723
482.088890,-57.427742,-574.277424,-9628.718142
482.091463,-133.998066,-1071.984525,-9360.722011
482.094036,-114.855485,-1359.123237,-10030.712339
482.096563,-38.285162,-1665.404530,-9590.432981
482.099090,-76.570323,-1244.267752,-9552.147819
482.101617,-57.427742,-842.273555,-9877.571693
482.104145,-133.998066,-593.420005,-9513.862658
482.106672,-114.855485,-478.564520,-9571.290400
482.109199,-153.140646,-995.414202,-9781.858789
482.111727,-76.570323,-1052.841944,-9533.005238
482.114254,-133.998066,-861.416136,-9571.290400
482.116781,-133.998066,-535.992262,-9858.429112
482.119308,-57.427742,-133.998066,-9399.007173
482.121836,-114.855485,-325.423874,-9628.718142
482.124363,-19.142581,-1014.556782,-9820.143950
482.126890,-172.283227,-1627.119368,-9571.290400
482.129417,-0.000000,-2048.256146,-9686.145885
482.131945,-114.855485,-1684.547110,-9915.856854
482.134472,-57.427742,-899.701298,-9513.862658
482.136999,-38.285162,-535.992262,-9552.147819
482.139527,-133.998066,-325.423874,-9801.001370
482.142054,-76.570323,-459.421939,-9628.718142
482.144581,-38.285162,-899.701298,-9552.147819
482.147108,-172.283227,-1091.127106,-9820.143950
482.149636,-19.142581,-1071.984525,-9667.003304
482.152163,-95.712904,-746.560651,-9647.860723
482.154690,-76.570323,-593.420005,-9571.290400
482.157217,-0.000000,-899.701298,-9552.147819
482.159745,-172.283227,-1148.554848,-9858.429112
482.162272,-95.712904,-1588.834206,-9762.716208
482.164799,-114.855485,-1186.840010,-9571.290400
482.167327,-76.570323,-861.416136,-9877.571693
482.169854,-19.142581,-631.705166,-9590.432981
482.172381,-153.140646,-746.560651,-9379.864592
482.174908,-0.000000,-1129.412267,-9475.577496
482.177436,-153.140646,-727.418070,-10049.854920
482.179963,-76.570323,-995.414202,-9494.720077
482.182490,-95.712904,-1014.556782,-9667.003304
482.185017,-133.998066,-229.710970,-9934.999435
482.187545,-19.142581,-114.855485,-9399.007173
482.190072,-172.283227,-708.275490,-9724.431046
482.192599,-95.712904,-1454.836141,-9667.003304
482.195127,-57.427742,-1856.830338,-9609.575562
482.197661,-133.998066,-1454.836141,-10164.710405
482.200195,-153.140646,-976.271621,-9399.007173
482.202729,-38.285162,-535.992262,-9513.862658
482.205264,-76.570323,-210.568389,-9724.431046
482.207798,-0.000000,-401.994197,-9667.003304
482.210333,-133.998066,-708.275490,-9667.003304
482.212867,-38.285162,-1091.127106,-9609.575562
482.215402,-76.570323,-899.701298,-9686.145885
482.217936,-114.855485,-593.420005,-9705.288466
482.220470,-19.142581,-574.277424,-9724.431046
482.223005,-133.998066,-746.560651,-9418.149754
482.225539,-95.712904,-1301.695494,-9705.288466
482.228074,-19.142581,-1741.974853,-9954.142016
482.230608,-153.140646,-1665.404530,-9628.718142
482.233143,-57.427742,-1205.982590,-9647.860723
482.235677,-114.855485,-248.853550,-9858.429112
482.238212,-19.142581,-191.425808,-9341.579430
482.240746,-0.000000,-516.849682,-9533.005238
482.243280,-114.855485,-708.275490,-10030.712339
482.245815,-114.855485,-1186.840010,-9418.149754
482.248349,-172.283227,-1493.121302,-9762.716208
482.250884,-95.712904,-1148.554848,-9896.714274
482.253418,-172.283227,-574.277424,-9456.434915
482.255953,-133.998066,-708.275490,-9705.288466
482.258487,-76.570323,-1052.841944,-9781.858789
482.261021,-172.283227,-1052.841944,-9494.720077
482.263556,-19.142581,-1052.841944,-9877.571693
482.266090,-95.712904,-803.988394,-9667.003304
482.268625,-19.142581,-708.275490,-9475.577496
482.271159,-95.712904,-803.988394,-9705.288466
482.273694,-172.283227,-746.560651,-9705.288466
482.276228,-57.427742,-1033.699363,-9628.718142
482.278762,-76.570323,-1129.412267,-9628.718142
482.281297,-133.998066,-937.986459,-9820.143950
482.283831,-114.855485,-631.705166,-9571.290400
482.286366,-0.000000,-689.132909,-9552.147819
482.288900,-172.283227,-727.418070,-9705.288466
482.291435,-19.142581,-1148.554848,-9552.147819
482.293969,-95.712904,-1091.127106,-9724.431046
482.296504,-172.283227,-1186.840010,-9686.145885
482.299002,-267.996131,-1014.556782,-9628.718142
482.301501,38.285162,-1014.556782,-9820.143950
482.304000,-172.283227,-899.701298,-9303.294269
482.306499,-19.142581,-842.273555,-9973.284597
482.308998,-210.568389,-669.990328,-9762.716208
482.311497,-0.000000,-918.843878,-9073.583299
482.313996,-57.427742,-535.992262,-9954.142016
482.316495,-114.855485,-114.855485,-9915.856854
482.318994,-38.285162,-401.994197,-9111.868461
482.321493,-133.998066,-784.845813,-9762.716208
482.323992,-19.142581,-1186.840010,-9686.145885
482.326491,-76.570323,-1646.261949,-9552.147819
482.328990,-153.140646,-2009.970984,-9686.145885
482.331489,-38.285162,-1627.119368,-9858.429112
482.333988,-114.855485,-574.277424,-9609.575562
482.336487,-57.427742,-325.423874,-9647.860723
482.338986,-95.712904,-382.851616,-9686.145885
482.341485,-38.285162,-555.134843,-9456.434915
482.343984,-133.998066,-1033.699363,-9858.429112
482.346482,-172.283227,-1052.841944,-9762.716208
482.348981,-0.000000,-1148.554848,-9379.864592
482.351480,-114.855485,-918.843878,-9743.573627
482.353979,-114.855485,-574.277424,-9571.290400
482.356478,-38.285162,-803.988394,-9590.432981
482.358977,-114.855485,-937.986459,-9647.860723
482.361476,-95.712904,-1205.982590,-9724.431046
482.363975,-76.570323,-1148.554848,-9724.431046
482.366474,-153.140646,-995.414202,-9705.288466
482.368973,-133.998066,-803.988394,-9571.290400
482.371472,-76.570323,-937.986459,-9533.005238
482.373971,-172.283227,-861.416136,-9877.571693
482.376470,-153.140646,-861.416136,-9743.573627
482.378969,-133.998066,-995.414202,-9705.288466
482.381468,-38.285162,-650.847747,-9896.714274
482.383967,-38.285162,-306.281293,-9494.720077
482.386466,-57.427742,-401.994197,-9513.862658
482.388965,-38.285162,-861.416136,-9858.429112
482.391464,-38.285162,-1378.265818,-9513.862658
482.393963,-114.855485,-1665.404530,-9762.716208
482.396461,-153.140646,-1473.978722,-10145.567824
482.398974,-38.285162,-1301.695494,-9399.007173
482.401487,-95.712904,-861.416136,-9437.292334
482.404000,-133.998066,-535.992262,-9877.571693
482.406513,-38.285162,-497.707101,-9360.722011
482.409026,-76.570323,-535.992262,-9418.149754
482.411538,-38.285162,-842.273555,-10183.852986
482.414051,-57.427742,-823.130974,-9590.432981
482.416564,-0.000000,-803.988394,-9456.434915
482.419077,-133.998066,-861.416136,-10049.854920
482.421590,-57.427742,-899.701298,-9609.575562
482.424103,-133.998066,-1435.693560,-9456.434915
482.426615,-76.570323,-1627.119368,-9820.143950
482.429128,-114.855485,-1129.412267,-9667.003304
482.431641,-114.855485,-765.703232,-9494.720077
482.434154,-153.140646,-229.710970,-9781.858789
482.436667,-19.142581,-363.709035,-9647.860723
482.439180,-0.000000,-880.558717,-9265.009107
482.441692,-229.710970,-1014.556782,-10126.425243
482.444205,-95.712904,-1378.265818,-9494.720077
482.446718,-114.855485,-1282.552914,-9399.007173
482.449231,-76.570323,-535.992262,-10107.282662
482.451744,-57.427742,-191.425808,-9399.007173
482.454257,-95.712904,-344.566454,-9571.290400
482.456769,-95.712904,-1014.556782,-9628.718142
482.459282,-57.427742,-1627.119368,-9647.860723
482.461795,-153.140646,-1703.689691,-9858.429112
482.464308,-57.427742,-1646.261949,-9724.431046
482.466821,-133.998066,-899.701298,-9437.292334
482.469334,-76.570323,-440.279358,-9705.288466
482.471846,-57.427742,-459.421939,-9762.716208
482.474359,-95.712904,-612.562586,-9571.290400
482.476872,-95.712904,-803.988394,-9590.432981
482.479385,-133.998066,-803.988394,-9934.999435
482.481898,-38.285162,-669.990328,-9552.147819
482.484410,-95.712904,-555.134843,-9456.434915
482.486923,-57.427742,-976.271621,-9609.575562
482.489436,-133.998066,-1473.978722,-9513.862658
482.491949,-133.998066,-1627.119368,-9724.431046
482.494462,-95.712904,-1359.123237,-9839.286531
482.496975,-57.427742,-918.843878,-9571.290400
482.499498,-57.427742,-248.853550,-9571.290400
482.502021,-38.285162,-344.566454,-9456.434915
482.504545,-95.712904,-516.849682,-9513.862658
482.507068,-153.140646,-803.988394,-9667.003304
482.509591,-114.855485,-1071.984525,-9686.145885
482.512115,-57.427742,-1091.127106,-9724.431046
482.514638,-114.855485,-746.560651,-9724.431046
482.517161,-38.285162,-535.992262,-9456.434915
482.519685,-38.285162,-708.275490,-9590.432981
482.522208,-153.140646,-1033.699363,-9552.147819
482.524731,-95.712904,-1320.838075,-9705.288466
482.527255,-153.140646,-1473.978722,-9762.716208
482.529778,-172.283227,-1186.840010,-9724.431046
482.532301,-19.142581,-784.845813,-9686.145885
482.534824,-57.427742,-612.562586,-9379.864592
482.537348,-95.712904,-689.132909,-9743.573627
482.539871,-114.855485,-784.845813,-9705.288466
482.542394,-76.570323,-1033.699363,-9590.432981
482.544918,-76.570323,-880.558717,-9858.429112
482.547441,-95.712904,-612.562586,-9743.573627
482.549964,-0.000000,-535.992262,-9590.432981
482.552488,-133.998066,-650.847747,-9456.434915
482.555011,-0.000000,-918.843878,-9705.288466
482.557534,-153.140646,-1263.410333,-9571.290400
482.560058,-133.998066,-1512.263883,-9743.573627
482.562581,-76.570323,-1435.693560,-9609.575562
482.565104,-57.427742,-918.843878,-9667.003304
482.567628,-95.712904,-650.847747,-9494.720077
482.570151,-133.998066,-401.994197,-9686.145885
482.572674,-95.712904,-784.845813,-9781.858789
482.575198,-133.998066,-765.703232,-9475.577496
482.577721,-57.427742,-593.420005,-9801.001370
482.580244,-133.998066,-497.707101,-9877.571693
482.582768,-95.712904,-650.847747,-9265.009107
482.585291,-57.427742,-899.701298,-9667.003304
482.587814,-133.998066,-1167.697429,-9762.716208
482.590338,-38.285162,-1684.547110,-9667.003304
482.592861,-38.285162,-1722.832272,-9609.575562
482.595384,-114.855485,-1033.699363,-10011.569758
482.597908,-57.427742,-306.281293,-9571.290400
482.600440,-133.998066,-76.570323,-9705.288466
482.602973,-95.712904,-535.992262,-9724.431046
482.605505,-114.855485,-1052.841944,-9513.862658
482.608038,-57.427742,-1359.123237,-9781.858789
482.610571,-133.998066,-1359.123237,-9839.286531
482.613103,-57.427742,-1033.699363,-9475.577496
482.615636,-19.142581,-478.564520,-9667.003304
482.618168,-19.142581,-325.423874,-9705.288466
482.620701,-0.000000,-555.134843,-9284.151688
482.623234,-95.712904,-899.701298,-9839.286531
482.625766,-172.283227,-1148.554848,-9686.145885
482.628299,-57.427742,-1550.549045,-9552.147819
482.630831,-133.998066,-1684.547110,-9801.001370
482.633364,-172.283227,-1282.552914,-9647.860723
482.635897,-57.427742,-1033.699363,-9571.290400
482.638429,-172.283227,-784.845813,-9915.856854
482.640962,-38.285162,-650.847747,-9513.862658
482.643494,-76.570323,-497.707101,-9303.294269
482.646027,-114.855485,-344.566454,-10068.997501
482.648560,-153.140646,-401.994197,-9609.575562
482.651092,-153.140646,-497.707101,-9475.577496
482.653625,-76.570323,-880.558717,-9801.001370
482.656158,-57.427742,-1359.123237,-9667.003304
482.658690,-133.998066,-1761.117434,-9571.290400
482.661223,-133.998066,-1722.832272,-9934.999435
482.663755,-114.855485,-1129.412267,-9571.290400
482.666288,-114.855485,-631.705166,-9628.718142
482.668821,-0.000000,-650.847747,-9896.714274
482.671353,-114.855485,-689.132909,-9418.149754
482.673886,-38.285162,-689.132909,-9724.431046
482.676418,-153.140646,-727.418070,-9839.286531
482.678951,-38.285162,-650.847747,-9513.862658
482.681484,-76.570323,-497.707101,-9705.288466
482.684016,-306.281293,-650.847747,-9686.145885
482.686549,-19.142581,-1301.695494,-9762.716208
482.689081,-114.855485,-1512.263883,-9437.292334
482.691614,-133.998066,-1569.691626,-9858.429112
482.694147,-19.142581,-1129.412267,-9762.716208
482.696679,-133.998066,-535.992262,-9207.581365
482.699212,-0.000000,-95.712904,-9973.284597
482.701751,-57.427742,-287.138712,-9360.722011
482.704290,-57.427742,-1052.841944,-9226.723946
482.706830,-133.998066,-1148.554848,-10317.851051
482.709369,-153.140646,-1301.695494,-9379.864592
482.711908,-133.998066,-918.843878,-9399.007173
482.714448,-57.427742,-440.279358,-9647.860723
482.716987,-19.142581,19.142581,-9590.432981
482.719526,-133.998066,-287.138712,-9647.860723
482.722065,-76.570323,-1359.123237,-9705.288466
482.724605,-19.142581,-1933.400661,-9533.005238
482.727144,-114.855485,-1703.689691,-9801.001370
482.729683,-114.855485,-1378.265818,-9724.431046
482.732222,-133.998066,-842.273555,-9437.292334
482.734762,-38.285162,-516.849682,-9724.431046
482.737301,-38.285162,-612.562586,-9820.143950
482.739840,-57.427742,-727.418070,-9494.720077
482.742380,-38.285162,-1091.127106,-9667.003304
482.744919,-76.570323,-669.990328,-9743.573627
482.747458,-0.000000,-440.279358,-9513.862658
482.749997,-172.283227,-267.996131,-9571.290400
482.752537,-133.998066,-765.703232,-9647.860723
482.755076,-38.285162,-1588.834206,-9552.147819
482.757615,-114.855485,-1703.689691,-9781.858789
482.760154,-133.998066,-1761.117434,-9801.001370
482.762694,-57.427742,-1244.267752,-9494.720077
482.765233,-114.855485,-401.994197,-9820.143950
482.767772,-57.427742,-382.851616,-9322.436850
482.770312,-172.283227,-19.142581,-9743.573627
482.772851,-76.570323,-823.130974,-9839.286531
482.775390,-19.142581,-1339.980656,-9265.009107
482.777929,-114.855485,-957.129040,-9973.284597
482.780469,-133.998066,-555.134843,-9896.714274
482.783008,-114.855485,-746.560651,-9169.296203
482.785547,-57.427742,-784.845813,-9475.577496
482.788086,-19.142581,-1205.982590,-9686.145885
482.790626,-133.998066,-1378.265818,-9724.431046
482.793165,-95.712904,-1416.550979,-9686.145885
482.795704,-76.570323,-1186.840010,-9647.860723
482.798244,-114.855485,-631.705166,-9628.718142
482.800783,-76.570323,-535.992262,-9609.575562
482.803327,-114.855485,-612.562586,-9781.858789
482.805871,-19.142581,-995.414202,-9609.575562
482.808415,-114.855485,-1091.127106,-9494.720077
482.810959,-19.142581,-1186.840010,-9954.142016
482.813503,-133.998066,-765.703232,-9590.432981
482.816047,-76.570323,-401.994197,-9475.577496
482.818591,-76.570323,-382.851616,-9686.145885
482.821135,-133.998066,-708.275490,-9590.432981
482.823680,-19.142581,-1359.123237,-9762.716208
482.826224,-172.283227,-1607.976787,-9667.003304
482.828768,-76.570323,-1416.550979,-9628.718142
482.831312,-76.570323,-880.558717,-9762.716208
482.833856,-19.142581,-880.558717,-9341.579430
482.836400,-76.570323,-478.564520,-9686.145885
482.838944,-172.283227,-535.992262,-10011.569758
482.841488,-19.142581,-1014.556782,-9437.292334
482.844032,-38.285162,-1071.984525,-9513.862658
482.846576,-114.855485,-325.423874,-10107.282662
482.849120,-114.855485,-287.138712,-9494.720077
482.851664,-57.427742,-689.132909,-9131.011042
482.854208,-57.427742,-1052.841944,-9839.286531
482.856753,-95.712904,-1454.836141,-9839.286531
482.859297,-95.712904,-1895.115499,-9781.858789
482.861841,-114.855485,-1454.836141,-9743.573627
482.864385,-38.285162,-669.990328,-9437.292334
482.866929,-19.142581,-287.138712,-9456.434915
482.869473,-133.998066,-172.283227,-10011.569758
482.872017,-38.285162,-727.418070,-9590.432981
482.874561,-133.998066,-1052.841944,-9418.149754
482.877105,-95.712904,-1071.984525,-9915.856854
482.879649,-57.427742,-976.271621,-9724.431046
482.882193,-57.427742,-803.988394,-9360.722011
482.884737,-76.570323,-631.705166,-9667.003304
482.887282,-38.285162,-708.275490,-9647.860723
482.889826,-38.285162,-1014.556782,-9647.860723
482.892370,-95.712904,-1473.978722,-9820.143950
482.894914,-19.142581,-1129.412267,-9724.431046
482.897458,-95.712904,-669.990328,-9762.716208
482.900002,-95.712904,-401.994197,-9686.145885
482.902546,-133.998066,-631.705166,-9590.432981
482.905094,-133.998066,-1129.412267,-9858.429112
482.907643,-38.285162,-1244.267752,-9628.718142
482.910191,-95.712904,-1186.840010,-9590.432981
482.912740,-95.712904,-765.703232,-9686.145885
482.915288,-76.570323,-172.283227,-9686.145885
482.917837,-19.142581,-191.425808,-9379.864592
482.920385,-153.140646,-574.277424,-9801.001370
482.922933,-133.998066,-1225.125171,-9667.003304
482.925482,-133.998066,-1741.974853,-9705.288466
482.928030,-172.283227,-1741.974853,-9686.145885
482.930579,-0.000000,-1435.693560,-9628.718142
482.933127,-114.855485,-1033.699363,-9418.149754
482.935675,-76.570323,-593.420005,-9686.145885
482.938224,-38.285162,-401.994197,-9647.860723
482.940772,-114.855485,-440.279358,-9552.147819
482.943321,-76.570323,-765.703232,-9743.573627
482.945869,-57.427742,-535.992262,-9705.288466
482.948418,-172.283227,-478.564520,-9590.432981
482.950966,-38.285162,-861.416136,-9762.716208
482.953514,-95.712904,-1167.697429,-9552.147819
482.956063,-95.712904,-1607.976787,-9647.860723
482.958611,-114.855485,-1703.689691,-9839.286531
482.961160,-172.283227,-1244.267752,-9628.718142
482.963708,-19.142581,-784.845813,-9647.860723
482.966257,-57.427742,-114.855485,-9820.143950
482.968805,-19.142581,-478.564520,-9341.579430
482.971353,-76.570323,-669.990328,-9571.290400
482.973902,-153.140646,-1148.554848,-9915.856854
482.976450,-38.285162,-1607.976787,-9705.288466
482.978999,-114.855485,-1378.265818,-9705.288466
482.981547,-19.142581,-459.421939,-9973.284597
482.984096,-133.998066,0.000000,-9245.866526
482.986644,-95.712904,-95.712904,-9590.432981
482.989192,-19.142581,-899.701298,-9705.288466
482.991741,-38.285162,-1435.693560,-9590.432981
482.994289,-114.855485,-1703.689691,-9781.858789
482.996838,-114.855485,-1493.121302,-9686.145885
482.999386,-38.285162,-976.271621,-9475.577496
483.001934,-76.570323,-823.130974,-9647.860723
483.004483,-133.998066,-593.420005,-9915.856854
483.007034,-38.285162,-669.990328,-9571.290400
483.009586,-133.998066,-765.703232,-9686.145885
483.012137,-76.570323,-765.703232,-9820.143950
483.014688,-95.712904,-478.564520,-9513.862658
483.017240,-57.427742,-478.564520,-9552.147819
483.019791,-76.570323,-784.845813,-9781.858789
483.022342,-57.427742,-1397.408398,-9494.720077
483.024894,-57.427742,-1684.547110,-9858.429112
483.027445,-57.427742,-1741.974853,-9801.001370
483.029996,-114.855485,-1244.267752,-9379.864592
483.032548,-133.998066,-440.279358,-9973.284597
483.035099,19.142581,-535.992262,-9379.864592
483.037650,-0.000000,-401.994197,-9590.432981
483.040202,-114.855485,-880.558717,-9839.286531
483.042753,-95.712904,-1263.410333,-9590.432981
483.045304,-76.570323,-976.271621,-9934.999435
483.047856,-95.712904,-612.562586,-10011.569758
483.050407,-0.000000,-497.707101,-9131.011042
483.052958,-114.855485,-497.707101,-9533.005238
483.055510,-133.998066,-1033.699363,-9858.429112
483.058061,-325.423874,-1569.691626,-9494.720077
483.060612,-38.285162,-1990.828403,-9724.431046
483.063164,-133.998066,-1550.549045,-10011.569758
483.065715,-153.140646,-650.847747,-9456.434915
483.068267,38.285162,-344.566454,-9667.003304
483.070818,-172.283227,-306.281293,-9858.429112
483.073369,-57.427742,-593.420005,-9437.292334
483.075921,-229.710970,-957.129040,-9858.429112
483.078472,-0.000000,-1225.125171,-9954.142016
483.081023,-95.712904,-995.414202,-9341.579430
483.083575,-133.998066,-401.994197,-9877.571693
483.086126,-114.855485,-401.994197,-9686.145885
483.088677,-0.000000,-803.988394,-9150.153622
483.091229,-57.427742,-1359.123237,-10030.712339
483.093780,-172.283227,-1607.976787,-9667.003304
483.096331,-95.712904,-1282.552914,-9456.434915
483.098883,-172.283227,-746.560651,-9954.142016
483.101434,-0.000000,-727.418070,-9533.005238
483.103985,-57.427742,-440.279358,-9533.005238
483.106537,-153.140646,-765.703232,-10145.567824
483.109091,-19.142581,-1339.980656,-9188.438784
483.111645,-38.285162,-1033.699363,-9437.292334
483.114199,-133.998066,-535.992262,-10375.278794
483.116753,-133.998066,-440.279358,-9284.151688
483.119307,-95.712904,-363.709035,-9150.153622
483.121861,-19.142581,-1071.984525,-10030.712339
483.124415,-172.283227,-1435.693560,-9418.149754
483.126969,-76.570323,-1933.400661,-9609.575562
483.129523,-153.140646,-1761.117434,-10049.854920
483.132077,-133.998066,-842.273555,-9494.720077
483.134631,-0.000000,-344.566454,-9437.292334
483.137185,-153.140646,-172.283227,-9915.856854
483.139739,-38.285162,-631.705166,-9379.864592
483.142293,-95.712904,-976.271621,-9494.720077
483.144847,-133.998066,-1282.552914,-10164.710405
483.147401,-153.140646,-1129.412267,-9379.864592
483.149955,-76.570323,-669.990328,-9341.579430
483.152509,-114.855485,-382.851616,-9877.571693
483.155063,-95.712904,-516.849682,-9533.005238
483.157617,-153.140646,-1014.556782,-9475.577496
483.160171,-38.285162,-1627.119368,-10011.569758
483.162725,-133.998066,-1454.836141,-9437.292334
483.165279,-38.285162,-976.271621,-9762.716208
483.167833,-114.855485,-382.851616,-9743.573627
483.170387,-95.712904,-363.709035,-9303.294269
483.172941,38.285162,-1110.269686,-9513.862658
483.175495,-172.283227,-861.416136,-10030.712339
483.178049,-76.570323,-1033.699363,-9475.577496
483.180603,-114.855485,-899.701298,-9456.434915
483.183157,-57.427742,-363.709035,-9954.142016
483.185711,-19.142581,-133.998066,-9265.009107
483.188265,-153.140646,-459.421939,-9705.288466
483.190819,-57.427742,-1378.265818,-9801.001370
483.193373,-153.140646,-1837.687757,-9552.147819
483.195927,-38.285162,-1818.545176,-10126.425243
483.198481,-153.140646,-1052.841944,-9667.003304
483.201035,-76.570323,-555.134843,-9265.009107
483.203589,-133.998066,-459.421939,-9590.432981
483.206143,-76.570323,-421.136778,-9781.858789
483.208697,-57.427742,-746.560651,-9494.720077
483.211252,-133.998066,-957.129040,-9820.143950
483.213808,-95.712904,-976.271621,-9724.431046
483.216363,-133.998066,-669.990328,-9628.718142
483.218918,-95.712904,-555.134843,-9686.145885
483.221473,-95.712904,-842.273555,-9705.288466
483.224029,-57.427742,-1167.697429,-9418.149754
483.226584,-153.140646,-1531.406464,-9858.429112
483.229139,-133.998066,-1550.549045,-9839.286531
483.231694,-57.427742,-1129.412267,-9341.579430
483.234249,-114.855485,-325.423874,-9801.001370
483.236805,-19.142581,-440.279358,-9590.432981
483.239360,-19.142581,-995.414202,-9150.153622
483.241915,-133.998066,-1071.984525,-10107.282662
483.244470,-133.998066,-1225.125171,-9705.288466
483.247026,-76.570323,-1167.697429,-9628.718142
483.249581,-95.712904,-287.138712,-9877.571693
483.252136,-0.000000,-38.285162,-9360.722011
483.254691,-153.140646,-306.281293,-9552.147819
483.257246,-38.285162,-1052.841944,-9762.716208
483.259802,-0.000000,-1588.834206,-9571.290400
483.262357,-172.283227,-1895.115499,-9781.858789
483.264912,-95.712904,-1703.689691,-9839.286531
483.267467,-76.570323,-937.986459,-9590.432981
483.270023,-57.427742,-401.994197,-9494.720077
483.272578,-114.855485,-421.136778,-9762.716208
483.275133,-95.712904,-650.847747,-9475.577496
483.277688,-38.285162,-918.843878,-9590.432981
483.280243,-76.570323,-918.843878,-9954.142016
483.282799,-133.998066,-650.847747,-9418.149754
483.285354,-57.427742,-631.705166,-9399.007173
483.287909,-133.998066,-727.418070,-9743.573627
483.290464,-133.998066,-823.130974,-9590.432981
483.293020,-172.283227,-1301.695494,-9647.860723
483.295575,-38.285162,-1569.691626,-9877.571693
483.298130,-76.570323,-1244.267752,-9552.147819
483.300685,-95.712904,-823.130974,-9743.573627
483.303240,-0.000000,-995.414202,-9456.434915
483.305796,-172.283227,-669.990328,-9839.286531
483.308351,-0.000000,-880.558717,-9934.999435
483.310906,-0.000000,-937.986459,-9533.005238
483.313462,-57.427742,-842.273555,-9647.860723
483.316018,-114.855485,-267.996131,-9877.571693
483.318574,-172.283227,-344.566454,-9284.151688
483.321130,-95.712904,-459.421939,-9609.575562
483.323686,-133.998066,-995.414202,-9609.575562
483.326242,-114.855485,-1320.838075,-9667.003304
483.328798,-38.285162,-1780.260014,-9781.858789
483.331354,-57.427742,-1761.117434,-9724.431046
483.333909,-57.427742,-995.414202,-9647.860723
483.336465,-114.855485,-612.562586,-9667.003304
483.339021,-114.855485,-689.132909,-9667.003304
483.341577,-19.142581,-746.560651,-9494.720077
483.344133,-95.712904,-880.558717,-9647.860723
483.346689,-153.140646,-1014.556782,-9954.142016
483.349245,-95.712904,-899.701298,-9571.290400
483.351801,-19.142581,-765.703232,-9552.147819
483.354357,-114.855485,-401.994197,-9973.284597
483.356913,-133.998066,-421.136778,-9513.862658
483.359469,-57.427742,-1091.127106,-9533.005238
483.362025,-210.568389,-1416.550979,-9896.714274
483.364580,-76.570323,-1397.408398,-9686.145885
483.367136,-76.570323,-1129.412267,-9667.003304
483.369692,-172.283227,-899.701298,-9609.575562
483.372248,-38.285162,-823.130974,-9686.145885
483.374804,-114.855485,-727.418070,-9743.573627
483.377360,-114.855485,-765.703232,-9705.288466
483.379916,-57.427742,-880.558717,-9513.862658
483.382472,-133.998066,-440.279358,-9839.286531
483.385028,-76.570323,-210.568389,-9571.290400
483.387584,-133.998066,-459.421939,-9379.864592
483.390140,-38.285162,-1129.412267,-9609.575562
483.392696,-95.712904,-1761.117434,-9781.858789
483.395251,-172.283227,-1837.687757,-9686.145885
483.397807,-95.712904,-1569.691626,-9858.429112
483.400363,-95.712904,-746.560651,-9628.718142
483.402919,-95.712904,-191.425808,-9475.577496
483.405475,-57.427742,-325.423874,-9705.288466
483.408031,-191.425808,-631.705166,-9494.720077
483.410587,-19.142581,-1014.556782,-9609.575562
483.413143,-172.283227,-1167.697429,-9667.003304
483.415663,-57.427742,-1014.556782,-9762.716208
483.418183,-95.712904,-708.275490,-9647.860723
483.420703,-114.855485,-401.994197,-9647.860723
483.423224,-76.570323,-689.132909,-9609.575562
483.425744,-172.283227,-1186.840010,-9743.573627
483.428264,-19.142581,-1607.976787,-9724.431046
483.430784,-172.283227,-1435.693560,-9590.432981
483.433304,-153.140646,-957.129040,-9762.716208
483.435825,-95.712904,-497.707101,-9609.575562
483.438345,-38.285162,-650.847747,-9513.862658
483.440865,-172.283227,-727.418070,-9781.858789
483.443385,-95.712904,-1091.127106,-9647.860723
483.445905,-133.998066,-976.271621,-9513.862658
483.448426,-172.283227,-631.705166,-9992.427178
483.450946,-57.427742,-325.423874,-9609.575562
483.453466,-153.140646,-344.566454,-9131.011042
483.455986,-38.285162,-918.843878,-9877.571693
483.458506,-153.140646,-1569.691626,-9667.003304
483.461027,-114.855485,-1780.260014,-9399.007173
483.463547,-153.140646,-1512.263883,-10164.710405
483.466067,-153.140646,-842.273555,-9743.573627
483.468587,-57.427742,-459.421939,-9169.296203
483.471107,-19.142581,-421.136778,-9954.142016
483.473628,-95.712904,-593.420005,-9667.003304
483.476148,-76.570323,-899.701298,-9245.866526
483.478668,-76.570323,-1110.269686,-10011.569758
483.481188,-153.140646,-1110.269686,-9915.856854
483.483708,-95.712904,-708.275490,-9303.294269
483.486229,-57.427742,-689.132909,-9762.716208
483.488749,-133.998066,-727.418070,-9781.858789
483.491269,-38.285162,-1014.556782,-9399.007173
483.493789,-133.998066,-1129.412267,-9724.431046
483.496309,-172.283227,-1186.840010,-9877.571693
483.498829,-38.285162,-1167.697429,-9437.292334
483.501350,-57.427742,-689.132909,-9686.145885
483.503870,-153.140646,-842.273555,-9494.720077
483.506390,38.285162,-1225.125171,-9552.147819
483.508910,-114.855485,-784.845813,-9992.427178
483.511430,-153.140646,-708.275490,-9781.858789
483.513951,-114.855485,-746.560651,-9475.577496
483.516479,-133.998066,-344.566454,-9858.429112
483.519007,-57.427742,-191.425808,-9188.438784
483.521535,-95.712904,-612.562586,-9513.862658
483.524063,-172.283227,-1263.410333,-9743.573627
483.526591,-38.285162,-1722.832272,-9533.005238
483.529119,267.996131,-2086.541307,-9437.292334
483.531647,-229.710970,-1703.689691,-9762.716208
483.534175,-0.000000,-1014.556782,-9743.573627
483.536703,-38.285162,-344.566454,-9265.009107
483.539231,-95.712904,-191.425808,-9724.431046
483.541759,-38.285162,-555.134843,-9686.145885
483.544287,-153.140646,-708.275490,-9590.432981
483.546815,-133.998066,-957.129040,-9762.716208
483.549343,-172.283227,-727.418070,-9762.716208
483.551871,-19.142581,-478.564520,-9379.864592
483.554399,-95.712904,-535.992262,-9743.573627
483.556927,-114.855485,-995.414202,-9667.003304
483.559455,-172.283227,-1244.267752,-9571.290400
483.561983,-172.283227,-1493.121302,-9954.142016
483.564511,-153.140646,-1263.410333,-9743.573627
483.567039,-114.855485,-669.990328,-9571.290400
483.569567,-0.000000,-516.849682,-9399.007173
483.572095,-76.570323,-669.990328,-9590.432981
483.574623,38.285162,-1397.408398,-10222.138147
483.577151,-248.853550,-1722.832272,-9590.432981
483.579679,-38.285162,-1569.691626,-9494.720077
483.582207,-76.570323,-516.849682,-10183.852986
483.584735,-38.285162,133.998066,-9437.292334
483.587263,-38.285162,76.570323,-9437.292334
483.589791,-57.427742,-363.709035,-9877.571693
483.592319,-172.283227,-1225.125171,-9418.149754
483.594847,-114.855485,-1952.543242,-9552.147819
483.597375,-153.140646,-2029.113565,-9934.999435
483.599903,-133.998066,-1205.982590,-9437.292334
483.602431,-172.283227,-669.990328,-9590.432981
483.604959,-76.570323,-363.709035,-9724.431046
483.607487,-95.712904,-421.136778,-9552.147819
483.610015,-153.140646,-612.562586,-9877.571693
483.612543,-57.427742,-899.701298,-9667.003304
483.615071,-153.140646,-842.273555,-9571.290400
483.617570,-114.855485,-784.845813,-9781.858789
483.620069,-19.142581,-880.558717,-9418.149754
483.622568,-153.140646,-1110.269686,-9533.005238
483.625067,-38.285162,-1359.123237,-9896.714274
483.627566,-172.283227,-1435.693560,-9571.290400
483.630066,-0.000000,-1282.552914,-9609.575562
483.632565,-57.427742,-669.990328,-9820.143950
483.635064,-76.570323,-229.710970,-9628.718142
483.637563,-133.998066,-440.279358,-9552.147819
483.640062,-114.855485,-1282.552914,-9762.716208
483.642561,-57.427742,-1512.263883,-9265.009107
483.645060,-76.570323,-1225.125171,-9858.429112
483.647559,-172.283227,-344.566454,-10011.569758
483.650058,-133.998066,-38.285162,-9188.438784
483.652557,-57.427742,-19.142581,-9686.145885
483.655056,-95.712904,-478.564520,-9686.145885
483.657555,-57.427742,-1454.836141,-9418.149754
483.660054,-172.283227,-2258.824534,-9858.429112
483.662554,-133.998066,-2182.254211,-9686.145885
483.665053,-114.855485,-1244.267752,-9628.718142
483.667552,-38.285162,-478.564520,-9762.716208
483.670051,-114.855485,-76.570323,-9590.432981
483.672550,-76.570323,-325.423874,-9322.436850
483.675049,-133.998066,-631.705166,-10030.712339
483.677548,-76.570323,-918.843878,-9820.143950
483.680047,-114.855485,-976.271621,-9571.290400
483.682546,-114.855485,-861.416136,-9667.003304
483.685045,-38.285162,-669.990328,-9437.292334
483.687544,-38.285162,-861.416136,-9743.573627
483.690043,-114.855485,-1263.410333,-9877.571693
483.692542,-95.712904,-1512.263883,-9475.577496
483.695042,-153.140646,-1263.410333,-9839.286531
483.697541,-38.285162,-995.414202,-9705.288466
483.700040,-76.570323,-191.425808,-9399.007173
483.702539,-76.570323,-287.138712,-9743.573627
483.705038,-172.283227,-784.845813,-9705.288466
483.707537,-57.427742,-1359.123237,-9513.862658
483.710036,-38.285162,-1588.834206,-9839.286531
483.712535,-133.998066,-1148.554848,-9973.284597
483.715034,-38.285162,-478.564520,-9533.005238
