#time,accel_x,accel_y,accel_z
484.733050,-19.142581,-880.558717,-9724.431046
484.735960,-57.427742,-880.558717,-9609.575562
484.738871,-76.570323,-880.558717,-9628.718142
484.741781,-57.427742,-880.558717,-9686.145885
484.744691,-76.570323,-861.416136,-9571.290400
484.747602,-401.994197,287.138712,-10049.854920
484.750512,57.427742,1818.545176,-9858.429112
484.753423,-153.140646,4153.940034,-9284.151688
484.756333,172.283227,4785.645200,-9973.284597
484.759244,-153.140646,4996.213589,-9533.005238
484.762154,-248.853550,2086.541307,-9533.005238
484.765064,440.279358,-1339.980656,-9647.860723
484.767975,-937.986459,-5206.781978,-8518.448456
484.770885,535.992262,-11638.689126,-11121.839445
484.773796,-172.283227,-11140.982026,-8307.880067
484.776706,995.414202,-1454.836141,-10241.280728
484.779616,-1416.550979,1263.410333,-9207.581365
484.782527,842.273555,-2067.398726,-9954.142016
484.785437,-746.560651,-191.425808,-9322.436850
484.788348,459.421939,-2201.396792,-9533.005238
484.791258,-287.138712,-1359.123237,-10317.851051
484.794169,-114.855485,-1703.689691,-8556.733618
484.796932,-153.140646,-2354.537438,-9992.427178
484.799696,-38.285162,-2641.676150,-9303.294269
484.802459,-133.998066,-1665.404530,-9820.143950
484.805223,-153.140646,-401.994197,-9743.573627
484.807987,-114.855485,19.142581,-9724.431046
484.810750,-0.000000,-172.283227,-9322.436850
484.813514,-38.285162,-937.986459,-9858.429112
484.816278,-76.570323,-1588.834206,-9820.143950
484.819041,-114.855485,-1780.260014,-9188.438784
484.821805,-153.140646,-1397.408398,-9973.284597
484.824569,-0.000000,-1091.127106,-9896.714274
484.827332,-114.855485,-746.560651,-9379.864592
484.830096,-57.427742,-689.132909,-9915.856854
484.832860,-153.140646,0.000000,-9609.575562
484.835623,-57.427742,-19.142581,-9533.005238
484.838387,-114.855485,-593.420005,-9628.718142
484.841151,-133.998066,-1244.267752,-9131.011042
484.843914,-38.285162,-1856.830338,-9858.429112
484.846678,-153.140646,-1933.400661,-9973.284597
484.849442,-172.283227,-1741.974853,-9647.860723
484.852205,-19.142581,-823.130974,-9705.288466
484.854969,-133.998066,-38.285162,-9820.143950
484.857733,-114.855485,57.427742,-9226.723946
484.860496,-38.285162,-363.709035,-9456.434915
484.863260,-114.855485,-784.845813,-9705.288466
484.866024,-76.570323,-1244.267752,-9686.145885
484.868787,-133.998066,-1416.550979,-9609.575562
484.871551,-19.142581,-1454.836141,-9686.145885
484.874315,-114.855485,-1435.693560,-9628.718142
484.877078,-76.570323,-1761.117434,-9762.716208
484.879842,-133.998066,-1110.269686,-9820.143950
484.882605,-0.000000,-38.285162,-9628.718142
484.885369,-114.855485,401.994197,-9705.288466
484.888133,-38.285162,-38.285162,-9437.292334
484.890896,-19.142581,-440.279358,-9667.003304
484.893660,-153.140646,-1091.127106,-9896.714274
484.896424,-38.285162,-1761.117434,-9437.292334
484.899187,-114.855485,-1493.121302,-9590.432981
484.901951,-114.855485,-1148.554848,-10107.282662
484.904715,-172.283227,-1167.697429,-9379.864592
484.907395,-38.285162,-1569.691626,-9456.434915
484.910074,-114.855485,-1301.695494,-9973.284597
484.912754,-114.855485,-823.130974,-9667.003304
484.915434,-0.000000,-478.564520,-9399.007173
484.918114,-38.285162,-172.283227,-9915.856854
484.920793,-38.285162,-421.136778,-9609.575562
484.923473,-133.998066,-918.843878,-9743.573627
484.926153,-57.427742,-1110.269686,-9781.858789
484.928833,-95.712904,-1225.125171,-9437.292334
484.931513,-57.427742,-1493.121302,-9705.288466
484.934192,-114.855485,-1397.408398,-9533.005238
484.936872,-57.427742,-1205.982590,-9437.292334
484.939552,-19.142581,-899.701298,-9954.142016
484.942232,-191.425808,-612.562586,-9609.575562
484.944911,-19.142581,-210.568389,-9379.864592
484.947591,-114.855485,-38.285162,-10049.854920
484.950271,-57.427742,-459.421939,-9475.577496
484.952951,-114.855485,-1416.550979,-9303.294269
484.955631,-95.712904,-1301.695494,-10183.852986
484.958310,-57.427742,-1148.554848,-9456.434915
484.960990,-95.712904,-823.130974,-9801.001370
484.963670,-133.998066,-842.273555,-9590.432981
484.966350,-19.142581,-1014.556782,-9475.577496
484.969030,-114.855485,-1301.695494,-9992.427178
484.971709,-0.000000,-1359.123237,-9724.431046
484.974389,-95.712904,-746.560651,-9303.294269
484.977069,-0.000000,-306.281293,-10088.140082
484.979749,-76.570323,-363.709035,-9418.149754
484.982428,-76.570323,-823.130974,-9399.007173
484.985108,-76.570323,-899.701298,-9973.284597
484.987788,-95.712904,-957.129040,-9494.720077
484.990468,-133.998066,-1014.556782,-9418.149754
484.993148,-95.712904,-1071.984525,-9896.714274
484.995827,-95.712904,-1301.695494,-9379.864592
484.998507,-133.998066,-1799.402595,-9628.718142
485.001187,-114.855485,-1416.550979,-9801.001370
485.003867,-133.998066,-363.709035,-9513.862658
485.006546,-57.427742,-57.427742,-9781.858789
485.009226,-95.712904,-38.285162,-9801.001370
485.011906,-76.570323,-210.568389,-9399.007173
485.014527,-172.283227,-937.986459,-10030.712339
485.017148,-19.142581,-1607.976787,-9456.434915
485.019770,-114.855485,-1473.978722,-9322.436850
485.022391,-95.712904,-1244.267752,-10222.138147
485.025012,-172.283227,-1148.554848,-9437.292334
485.027633,-0.000000,-1263.410333,-9437.292334
485.030254,-114.855485,-746.560651,-10298.708470
485.032876,-38.285162,-382.851616,-9399.007173
485.035497,-133.998066,-344.566454,-9494.720077
485.038118,-76.570323,-497.707101,-9609.575562
485.040739,-38.285162,-995.414202,-9245.866526
485.043361,-133.998066,-1531.406464,-9934.999435
485.045982,-76.570323,-1473.978722,-9686.145885
485.048603,-76.570323,-1033.699363,-9475.577496
485.051224,-172.283227,-708.275490,-9801.001370
485.053845,-133.998066,-918.843878,-9360.722011
485.056467,-95.712904,-1205.982590,-9341.579430
485.059088,-95.712904,-1473.978722,-9934.999435
485.061709,-133.998066,-1320.838075,-9609.575562
485.064330,-95.712904,-631.705166,-9379.864592
485.066951,-133.998066,-114.855485,-10126.425243
485.069573,-57.427742,-19.142581,-9265.009107
485.072194,-38.285162,-382.851616,-9513.862658
485.074815,-172.283227,-497.707101,-10107.282662
485.077436,-172.283227,-880.558717,-9265.009107
485.080057,-38.285162,-1339.980656,-9667.003304
485.082679,-19.142581,-1416.550979,-9877.571693
485.085300,-133.998066,-1588.834206,-9494.720077
485.087921,-191.425808,-1588.834206,-9915.856854
485.090542,-57.427742,-1493.121302,-9915.856854
485.093163,-95.712904,-440.279358,-9590.432981
485.095785,-95.712904,172.283227,-9839.286531
485.098406,-57.427742,57.427742,-9724.431046
485.101027,-133.998066,-229.710970,-9265.009107
485.103648,-76.570323,-746.560651,-9801.001370
485.106269,-114.855485,-1091.127106,-9820.143950
485.108891,-95.712904,-1454.836141,-9475.577496
485.111512,-172.283227,-1397.408398,-10088.140082
485.114133,-76.570323,-1378.265818,-9418.149754
485.116754,-0.000000,-1454.836141,-9379.864592
485.119333,267.996131,-1320.838075,-9533.005238
485.121911,-344.566454,-497.707101,-9858.429112
485.124490,-95.712904,-401.994197,-9647.860723
485.127069,-0.000000,-229.710970,-9188.438784
485.129647,-172.283227,-478.564520,-9762.716208
485.132226,-0.000000,-1186.840010,-10049.854920
485.134804,-0.000000,-1359.123237,-9073.583299
485.137383,-133.998066,-1110.269686,-9590.432981
485.139961,-38.285162,-957.129040,-10126.425243
485.142540,-153.140646,-880.558717,-9131.011042
485.145118,172.283227,-1416.550979,-9360.722011
485.147697,-76.570323,-1110.269686,-10356.136213
485.150276,-172.283227,-535.992262,-9667.003304
485.152854,-114.855485,-344.566454,-9245.866526
485.155433,-0.000000,-459.421939,-9686.145885
485.158011,-76.570323,-727.418070,-9628.718142
485.160590,-19.142581,-1052.841944,-9705.288466
485.163168,-172.283227,-1071.984525,-9820.143950
485.165747,-172.283227,-937.986459,-9609.575562
485.168325,-57.427742,-1091.127106,-9513.862658
485.170904,-172.283227,-1339.980656,-9801.001370
485.173483,-57.427742,-1550.549045,-9494.720077
485.176061,-153.140646,-1205.982590,-9801.001370
485.178640,-95.712904,-784.845813,-9801.001370
485.181218,-133.998066,-153.140646,-9628.718142
485.183797,-57.427742,-57.427742,-9590.432981
485.186375,-95.712904,-153.140646,-9647.860723
485.188954,-76.570323,-937.986459,-9552.147819
485.191532,-95.712904,-1148.554848,-9934.999435
485.194111,-114.855485,-1454.836141,-9743.573627
485.196690,-172.283227,-1397.408398,-9475.577496
485.199268,-76.570323,-1148.554848,-9705.288466
485.201847,-133.998066,-1110.269686,-9686.145885
485.204425,-57.427742,-1033.699363,-9609.575562
485.207004,-76.570323,-842.273555,-9781.858789
485.209582,-38.285162,-153.140646,-9571.290400
485.212161,-38.285162,-95.712904,-9724.431046
485.214739,-172.283227,-421.136778,-9590.432981
485.217318,-114.855485,-1052.841944,-9418.149754
485.219897,-57.427742,-1397.408398,-9781.858789
485.222450,-153.140646,-1320.838075,-9896.714274
485.225003,-57.427742,-1167.697429,-9494.720077
485.227557,-76.570323,-880.558717,-9552.147819
485.230110,-38.285162,-957.129040,-9781.858789
485.232664,-38.285162,-1129.412267,-9590.432981
485.235217,-57.427742,-1148.554848,-9801.001370
485.237771,-133.998066,-401.994197,-9896.714274
485.240324,-133.998066,-382.851616,-9418.149754
485.242878,19.142581,-516.849682,-9341.579430
485.245431,-114.855485,-669.990328,-9801.001370
485.247984,-95.712904,-976.271621,-9877.571693
485.250538,-76.570323,-1416.550979,-9533.005238
485.253091,-38.285162,-1378.265818,-9571.290400
485.255645,-57.427742,-1091.127106,-9724.431046
485.258198,-95.712904,-1014.556782,-9609.575562
485.260752,-133.998066,-1359.123237,-9456.434915
485.263305,-0.000000,-1167.697429,-9820.143950
485.265859,-95.712904,-612.562586,-9877.571693
485.268412,-114.855485,-114.855485,-9590.432981
485.270966,-153.140646,-153.140646,-9628.718142
485.273519,-0.000000,-650.847747,-9513.862658
485.276072,-57.427742,-1052.841944,-9552.147819
485.278626,-95.712904,-1205.982590,-10049.854920
485.281179,-57.427742,-1110.269686,-9533.005238
485.283733,-172.283227,-937.986459,-9379.864592
485.286286,-38.285162,-1148.554848,-9858.429112
485.288840,-57.427742,-1378.265818,-9705.288466
485.291393,-191.425808,-1435.693560,-9647.860723
485.293947,-153.140646,-1282.552914,-9743.573627
485.296500,-210.568389,-421.136778,-9762.716208
485.299053,-19.142581,-19.142581,-9379.864592
485.301607,-19.142581,-114.855485,-9571.290400
485.304160,-114.855485,-555.134843,-9188.438784
485.306714,-95.712904,-995.414202,-9762.716208
485.309267,-114.855485,-1091.127106,-9973.284597
485.311821,-114.855485,-1397.408398,-9437.292334
485.314374,38.285162,-1339.980656,-9628.718142
485.316928,-172.283227,-1091.127106,-9724.431046
485.319481,-172.283227,-1263.410333,-9801.001370
485.322035,-38.285162,-1320.838075,-9647.860723
485.324564,-172.283227,-421.136778,-9647.860723
485.327097,-0.000000,-76.570323,-9762.716208
485.329630,-172.283227,-133.998066,-9418.149754
485.332163,-57.427742,-957.129040,-9647.860723
485.334696,-95.712904,-1071.984525,-9762.716208
485.337229,-95.712904,-1091.127106,-9801.001370
485.339762,-76.570323,-1129.412267,-9341.579430
485.342295,-172.283227,-1205.982590,-9571.290400
485.344827,-0.000000,-1225.125171,-9590.432981
485.347360,-95.712904,-1282.552914,-9590.432981
485.349893,-133.998066,-1167.697429,-10049.854920
485.352426,-114.855485,-535.992262,-9858.429112
485.354959,-38.285162,-229.710970,-9226.723946
485.357492,-57.427742,-210.568389,-9609.575562
485.360025,-114.855485,-555.134843,-9839.286531
485.362558,-172.283227,-937.986459,-9437.292334
485.365091,-38.285162,-1205.982590,-9628.718142
485.367624,-114.855485,-899.701298,-9801.001370
485.370157,-38.285162,-918.843878,-9647.860723
485.372690,-57.427742,-1301.695494,-9552.147819
485.375223,-153.140646,-1550.549045,-9513.862658
485.377756,-0.000000,-1588.834206,-9973.284597
485.380289,-172.283227,-784.845813,-9781.858789
485.382822,-38.285162,-210.568389,-9437.292334
485.385355,38.285162,-76.570323,-9667.003304
485.387888,-57.427742,-191.425808,-9647.860723
485.390421,-0.000000,-842.273555,-9647.860723
485.392954,-153.140646,-1320.838075,-9724.431046
485.395487,-0.000000,-1473.978722,-9590.432981
485.398020,-133.998066,-1205.982590,-9667.003304
485.400553,-114.855485,-1244.267752,-9647.860723
485.403085,-57.427742,-1454.836141,-9590.432981
485.405618,-133.998066,-1167.697429,-9552.147819
485.408151,-76.570323,-803.988394,-9839.286531
485.410684,-57.427742,-114.855485,-9762.716208
485.413217,-267.996131,57.427742,-9475.577496
485.415750,-0.000000,-555.134843,-9781.858789
485.418283,-210.568389,-1167.697429,-9303.294269
485.420816,-76.570323,-1244.267752,-9934.999435
485.423349,-38.285162,-1244.267752,-9896.714274
485.425866,-153.140646,-995.414202,-9360.722011
485.428383,-0.000000,-918.843878,-9628.718142
485.430900,-19.142581,-899.701298,-9762.716208
485.433416,-153.140646,-1052.841944,-9667.003304
485.435933,-57.427742,-1052.841944,-9724.431046
485.438450,-133.998066,-669.990328,-9858.429112
485.440967,-133.998066,-382.851616,-9533.005238
485.443484,-19.142581,-669.990328,-9667.003304
485.446001,-172.283227,-899.701298,-9571.290400
485.448517,-172.283227,-880.558717,-9609.575562
485.451034,-19.142581,-995.414202,-9801.001370
485.453551,-57.427742,-650.847747,-9590.432981
485.456068,-57.427742,-746.560651,-9494.720077
485.458585,-172.283227,-1052.841944,-9590.432981
485.461102,19.142581,-1818.545176,-9762.716208
485.463618,-153.140646,-1473.978722,-9934.999435
485.466135,-95.712904,-1052.841944,-9762.716208
485.468652,-57.427742,-746.560651,-9494.720077
485.471169,-114.855485,-210.568389,-9647.860723
485.473686,-133.998066,-172.283227,-9801.001370
485.476202,-172.283227,-727.418070,-9628.718142
485.478719,-0.000000,-1033.699363,-9456.434915
485.481236,-38.285162,-784.845813,-9647.860723
485.483753,-153.140646,-937.986459,-10011.569758
485.486270,-95.712904,-1512.263883,-9341.579430
485.488787,-57.427742,-1818.545176,-9475.577496
485.491303,-172.283227,-1569.691626,-10107.282662
485.493820,-57.427742,-899.701298,-9896.714274
485.496337,-76.570323,-344.566454,-9245.866526
485.498854,-153.140646,229.710970,-9609.575562
485.501371,57.427742,-38.285162,-9915.856854
485.503888,-172.283227,-478.564520,-9379.864592
485.506404,-38.285162,-1110.269686,-9934.999435
485.508921,-19.142581,-1339.980656,-9609.575562
485.511438,-153.140646,-1225.125171,-9360.722011
485.513955,-95.712904,-1359.123237,-10030.712339
485.516472,-19.142581,-1512.263883,-9475.577496
485.518989,-76.570323,-1339.980656,-9590.432981
485.521505,-95.712904,-899.701298,-9877.571693
485.524022,-153.140646,-172.283227,-9724.431046
485.526531,-0.000000,-76.570323,-9571.290400
485.529040,-172.283227,-133.998066,-9724.431046
485.531549,-153.140646,-727.418070,-9437.292334
485.534057,-95.712904,-937.986459,-9877.571693
485.536566,-153.140646,-1416.550979,-9743.573627
485.539075,-114.855485,-1569.691626,-9379.864592
485.541584,-38.285162,-1263.410333,-9686.145885
485.544093,-133.998066,-1339.980656,-9781.858789
485.546601,-153.140646,-1416.550979,-9590.432981
485.549110,-38.285162,-861.416136,-9820.143950
485.551619,-172.283227,19.142581,-9609.575562
485.554128,-57.427742,248.853550,-9533.005238
485.556636,-57.427742,-191.425808,-9418.149754
485.559145,-76.570323,-1052.841944,-9781.858789
485.561654,-95.712904,-1531.406464,-9762.716208
485.564163,-153.140646,-1493.121302,-9724.431046
485.566672,-57.427742,-1397.408398,-9513.862658
485.569180,-133.998066,-957.129040,-9724.431046
485.571689,-133.998066,-861.416136,-9820.143950
485.574198,-38.285162,-1129.412267,-9418.149754
485.576707,-38.285162,-937.986459,-9820.143950
485.579216,-172.283227,-401.994197,-9839.286531
485.581724,-57.427742,-516.849682,-9379.864592
485.584233,-95.712904,-325.423874,-9437.292334
485.586742,-114.855485,-535.992262,-9839.286531
485.589251,-114.855485,-1110.269686,-9647.860723
485.591760,-76.570323,-1186.840010,-9609.575562
485.594268,-153.140646,-976.271621,-9686.145885
485.596777,-133.998066,-1110.269686,-9781.858789
485.599286,-76.570323,-1186.840010,-9303.294269
485.601795,-0.000000,-1627.119368,-9513.862658
485.604303,-133.998066,-1359.123237,-9915.856854
485.606803,-114.855485,-612.562586,-9743.573627
485.609303,-76.570323,-57.427742,-9207.581365
485.611802,-19.142581,19.142581,-9839.286531
485.614302,-19.142581,-210.568389,-9915.856854
485.616802,-57.427742,-823.130974,-9265.009107
485.619301,-153.140646,-1263.410333,-9820.143950
485.621801,-38.285162,-1282.552914,-9724.431046
485.624300,-38.285162,-1282.552914,-9456.434915
485.626800,-172.283227,-1320.838075,-9647.860723
485.629300,-19.142581,-1588.834206,-9686.145885
485.631799,-172.283227,-1550.549045,-9628.718142
485.634299,-287.138712,-937.986459,-9877.571693
485.636798,-0.000000,-267.996131,-9379.864592
485.639298,-153.140646,267.996131,-9437.292334
485.641798,-191.425808,-76.570323,-10011.569758
485.644297,-19.142581,-1052.841944,-9284.151688
485.646797,-172.283227,-1186.840010,-9839.286531
485.649296,-95.712904,-1378.265818,-9877.571693
485.651796,38.285162,-1493.121302,-9341.579430
485.654296,-325.423874,-899.701298,-9418.149754
485.656795,-0.000000,-1148.554848,-9896.714274
485.659295,-114.855485,-1225.125171,-9609.575562
485.661794,-191.425808,-1071.984525,-9590.432981
485.664294,-95.712904,-689.132909,-10049.854920
485.666794,-95.712904,-133.998066,-9781.858789
485.669293,-76.570323,-210.568389,-9303.294269
485.671793,-19.142581,-803.988394,-9686.145885
485.674292,-114.855485,-1014.556782,-9647.860723
485.676792,-95.712904,-1014.556782,-9647.860723
485.679292,-114.855485,-995.414202,-9667.003304
485.681791,-133.998066,-1014.556782,-9628.718142
485.684291,-19.142581,-1263.410333,-9571.290400
485.686790,-133.998066,-1627.119368,-9628.718142
485.689290,-153.140646,-1359.123237,-9954.142016
485.691790,-95.712904,-899.701298,-9858.429112
485.694289,-38.285162,-382.851616,-9360.722011
485.696789,-57.427742,-57.427742,-9820.143950
485.699289,-76.570323,0.000000,-9686.145885
485.701788,-0.000000,-842.273555,-9437.292334
485.704288,-114.855485,-1091.127106,-9724.431046
485.706787,-133.998066,-1225.125171,-9743.573627
485.709287,-0.000000,-1263.410333,-9686.145885
485.711787,-133.998066,-1167.697429,-9571.290400
485.714286,-57.427742,-1473.978722,-9571.290400
485.716786,-133.998066,-1129.412267,-9954.142016
485.719285,-57.427742,-957.129040,-9781.858789
485.721785,-76.570323,-363.709035,-9456.434915
485.724285,-19.142581,19.142581,-9647.860723
485.726783,-172.283227,-76.570323,-9590.432981
485.729282,-95.712904,-803.988394,-9628.718142
485.731780,-38.285162,-1359.123237,-9686.145885
485.734279,-114.855485,-1301.695494,-9571.290400
485.736778,-38.285162,-1282.552914,-9762.716208
485.739276,-114.855485,-1244.267752,-9609.575562
485.741775,-57.427742,-1397.408398,-9513.862658
485.744273,-76.570323,-1339.980656,-9762.716208
485.746772,-114.855485,-823.130974,-9667.003304
485.749271,-76.570323,-95.712904,-9667.003304
485.751769,-38.285162,-153.140646,-9437.292334
485.754268,-114.855485,-478.564520,-9724.431046
485.756766,-38.285162,-1071.984525,-9590.432981
485.759265,-133.998066,-1014.556782,-10011.569758
485.761764,-114.855485,-1186.840010,-9820.143950
485.764262,-76.570323,-1186.840010,-9265.009107
485.766761,-57.427742,-995.414202,-9781.858789
485.769259,-19.142581,-1052.841944,-9762.716208
485.771758,-172.283227,-1416.550979,-9552.147819
485.774256,-57.427742,-1339.980656,-9801.001370
485.776755,-0.000000,-689.132909,-9781.858789
485.779254,-172.283227,-114.855485,-9513.862658
485.781752,-0.000000,-344.566454,-9418.149754
485.784251,-153.140646,-727.418070,-9456.434915
485.786749,-172.283227,-899.701298,-9686.145885
485.789248,-19.142581,-1129.412267,-9801.001370
485.791747,-95.712904,-1225.125171,-9437.292334
485.794245,-172.283227,-1186.840010,-9628.718142
485.796744,-0.000000,-1416.550979,-9858.429112
485.799242,-114.855485,-1435.693560,-9341.579430
485.801741,-95.712904,-1186.840010,-9820.143950
485.804240,-114.855485,-689.132909,-9820.143950
485.806733,-95.712904,-114.855485,-9494.720077
485.809227,-19.142581,-114.855485,-9686.145885
485.811721,-133.998066,-459.421939,-9705.288466
485.814215,-95.712904,-1033.699363,-9475.577496
485.816709,-0.000000,-1186.840010,-9762.716208
485.819202,-172.283227,-1052.841944,-9724.431046
485.821696,-76.570323,-1205.982590,-9762.716208
485.824190,-133.998066,-1225.125171,-9379.864592
485.826684,-0.000000,-1780.260014,-9647.860723
485.829177,-133.998066,-1473.978722,-9877.571693
485.831671,-133.998066,-689.132909,-9896.714274
485.834165,-76.570323,-57.427742,-9092.725880
485.836659,-153.140646,0.000000,-9762.716208
485.839153,19.142581,-191.425808,-9934.999435
485.841646,-38.285162,-612.562586,-9437.292334
485.844140,-172.283227,-1033.699363,-9686.145885
485.846634,-114.855485,-1301.695494,-9915.856854
485.849128,-19.142581,-1359.123237,-9379.864592
485.851621,-95.712904,-1244.267752,-9513.862658
485.854115,-114.855485,-1244.267752,-9954.142016
485.856609,-153.140646,-1301.695494,-9437.292334
485.859103,-153.140646,-669.990328,-9743.573627
485.861597,-38.285162,-401.994197,-9915.856854
485.864090,-95.712904,-114.855485,-9226.723946
485.866584,-133.998066,-516.849682,-9590.432981
485.869078,-133.998066,-1110.269686,-10030.712339
485.871572,-210.568389,-899.701298,-9762.716208
485.874065,-76.570323,-995.414202,-9647.860723
485.876559,-19.142581,-784.845813,-9609.575562
485.879053,-153.140646,-344.566454,-9686.145885
485.881547,-76.570323,-1014.556782,-9360.722011
485.884041,-153.140646,-1780.260014,-9858.429112
485.886534,-153.140646,-1741.974853,-9896.714274
485.889028,-57.427742,-1071.984525,-9533.005238
485.891522,-57.427742,-555.134843,-9609.575562
485.894016,-19.142581,-306.281293,-9418.149754
485.896509,-0.000000,-612.562586,-9513.862658
485.899003,-38.285162,-631.705166,-9858.429112
485.901497,-114.855485,-669.990328,-9762.716208
485.903991,-38.285162,-995.414202,-9322.436850
485.906483,-0.000000,-1378.265818,-9513.862658
485.908976,-153.140646,-1473.978722,-9762.716208
485.911468,-0.000000,-2124.826469,-9303.294269
485.913961,-57.427742,-1741.974853,-9934.999435
485.916453,-153.140646,-784.845813,-9934.999435
485.918946,-57.427742,210.568389,-9475.577496
485.921438,-0.000000,555.134843,-9647.860723
485.923931,-95.712904,38.285162,-9571.290400
485.926423,-172.283227,-746.560651,-9475.577496
485.928916,-57.427742,-1148.554848,-9839.286531
485.931408,-133.998066,-1320.838075,-9647.860723
485.933901,-76.570323,-1722.832272,-9571.290400
485.936393,-153.140646,-1665.404530,-9571.290400
485.938886,-153.140646,-1435.693560,-9724.431046
485.941378,76.570323,-1339.980656,-9820.143950
485.943871,-210.568389,-478.564520,-9762.716208
485.946363,-95.712904,133.998066,-9437.292334
485.948856,133.998066,325.423874,-9571.290400
485.951348,-172.283227,-114.855485,-9571.290400
485.953841,-76.570323,-1225.125171,-9571.290400
485.956333,-95.712904,-1531.406464,-9743.573627
485.958826,-95.712904,-1512.263883,-9762.716208
485.961318,-38.285162,-1435.693560,-9628.718142
485.963811,-76.570323,-1129.412267,-9590.432981
485.966303,-38.285162,-1148.554848,-9781.858789
485.968796,-114.855485,-1320.838075,-9801.001370
485.971288,-114.855485,-918.843878,-9667.003304
485.973781,-38.285162,-248.853550,-9667.003304
485.976273,-172.283227,-19.142581,-9686.145885
485.978766,-38.285162,-344.566454,-9494.720077
485.981258,-38.285162,-842.273555,-9513.862658
485.983751,-172.283227,-478.564520,-10164.710405
485.986243,-38.285162,-1186.840010,-9590.432981
485.988736,-95.712904,-1320.838075,-9303.294269
485.991228,76.570323,-1167.697429,-9781.858789
485.993721,-133.998066,-1205.982590,-9743.573627
485.996213,-191.425808,-1531.406464,-9647.860723
485.998706,153.140646,-1512.263883,-9686.145885
486.001198,-191.425808,-497.707101,-9915.856854
486.003691,-0.000000,-133.998066,-9858.429112
486.006101,-0.000000,-593.420005,-9399.007173
486.008511,-363.709035,-650.847747,-9552.147819
486.010921,-19.142581,-995.414202,-10068.997501
486.013331,-95.712904,-1071.984525,-9418.149754
486.015741,-153.140646,-976.271621,-9379.864592
486.018151,19.142581,-1244.267752,-10030.712339
486.020561,-172.283227,-1378.265818,-9399.007173
486.022971,-38.285162,-1684.547110,-9360.722011
486.025381,-114.855485,-1244.267752,-10279.565890
486.027791,-191.425808,-555.134843,-9686.145885
486.030201,-19.142581,-19.142581,-9111.868461
486.032612,-57.427742,172.283227,-9896.714274
486.035022,-172.283227,-210.568389,-9724.431046
486.037432,19.142581,-1378.265818,-9226.723946
486.039842,-191.425808,-1435.693560,-9801.001370
486.042252,-19.142581,-1359.123237,-9839.286531
486.044662,-0.000000,-1014.556782,-9647.860723
486.047072,-153.140646,-1205.982590,-9341.579430
486.049482,-57.427742,-1205.982590,-9915.856854
486.051892,-0.000000,-1205.982590,-9667.003304
486.054302,-344.566454,-880.558717,-9686.145885
486.056712,-76.570323,-612.562586,-9781.858789
486.059122,76.570323,-344.566454,-9418.149754
486.061532,-172.283227,-191.425808,-9552.147819
486.063942,-172.283227,-784.845813,-9762.716208
486.066352,-0.000000,-1033.699363,-9762.716208
486.068762,-287.138712,-708.275490,-9590.432981
486.071172,-57.427742,-1033.699363,-9781.858789
486.073582,-38.285162,-1263.410333,-9437.292334
486.075992,-76.570323,-1512.263883,-9399.007173
486.078402,-133.998066,-1722.832272,-9992.427178
486.080813,-248.853550,-1110.269686,-9858.429112
486.083223,-38.285162,-421.136778,-9437.292334
486.085633,-19.142581,19.142581,-9533.005238
486.088043,-153.140646,-95.712904,-9705.288466
486.090453,-19.142581,-1014.556782,-9475.577496
486.092863,-114.855485,-1225.125171,-9839.286531
486.095273,-133.998066,-1071.984525,-9743.573627
486.097683,-19.142581,-1129.412267,-9399.007173
486.100093,-76.570323,-995.414202,-9724.431046
486.102528,-57.427742,-1091.127106,-9801.001370
486.104964,-0.000000,-1301.695494,-9437.292334
486.107399,-172.283227,-1110.269686,-9877.571693
486.109835,-172.283227,-765.703232,-9858.429112
486.112270,-38.285162,-248.853550,-9226.723946
486.114705,-57.427742,-191.425808,-9609.575562
486.117141,-76.570323,-689.132909,-9801.001370
486.119576,-133.998066,-823.130974,-9647.860723
486.122012,-57.427742,-1167.697429,-9647.860723
486.124447,-172.283227,-1033.699363,-9705.288466
486.126882,-57.427742,-995.414202,-9628.718142
486.129318,-114.855485,-1205.982590,-9552.147819
486.131753,-38.285162,-1684.547110,-9590.432981
486.134189,-133.998066,-1435.693560,-9877.571693
486.136624,-172.283227,-880.558717,-9820.143950
486.139059,19.142581,-574.277424,-9418.149754
486.141495,-19.142581,0.000000,-9647.860723
486.143930,-191.425808,-133.998066,-9858.429112
486.146366,-0.000000,-937.986459,-9513.862658
486.148801,-0.000000,-1397.408398,-9360.722011
486.151236,-114.855485,-1033.699363,-9839.286531
486.153672,-76.570323,-1129.412267,-9743.573627
486.156107,-114.855485,-1339.980656,-9169.296203
486.158543,19.142581,-1416.550979,-9724.431046
486.160978,-95.712904,-1244.267752,-9954.142016
486.163414,-57.427742,-899.701298,-9494.720077
486.165849,-0.000000,-459.421939,-9437.292334
486.168284,-0.000000,-153.140646,-9801.001370
486.170720,-133.998066,-191.425808,-9590.432981
486.173155,-191.425808,-727.418070,-9590.432981
486.175591,-38.285162,-1071.984525,-9896.714274
486.178026,-95.712904,-976.271621,-9628.718142
486.180461,-172.283227,-918.843878,-9571.290400
486.182897,-0.000000,-1263.410333,-9647.860723
486.185332,-172.283227,-1301.695494,-9341.579430
486.187768,-344.566454,-1416.550979,-9915.856854
486.190203,76.570323,-1473.978722,-10011.569758
486.192638,-114.855485,-497.707101,-9265.009107
486.195074,-191.425808,19.142581,-9609.575562
486.197509,57.427742,-306.281293,-9801.001370
486.199964,-133.998066,-440.279358,-9341.579430
486.202419,-172.283227,-631.705166,-9762.716208
486.204875,-19.142581,-1435.693560,-9877.571693
486.207330,-95.712904,-1359.123237,-9207.581365
486.209785,-153.140646,-861.416136,-9934.999435
486.212240,-172.283227,-1071.984525,-9896.714274
486.214695,-133.998066,-1454.836141,-9150.153622
486.217150,-38.285162,-1301.695494,-9896.714274
486.219605,-153.140646,-497.707101,-9839.286531
486.222060,19.142581,-133.998066,-9341.579430
486.224516,19.142581,-574.277424,-9475.577496
486.226971,-382.851616,-689.132909,-9801.001370
486.229426,-57.427742,-995.414202,-9686.145885
486.231881,-19.142581,-1263.410333,-9360.722011
486.234336,-153.140646,-1110.269686,-9647.860723
486.236791,-0.000000,-1033.699363,-9609.575562
486.239246,-172.283227,-1071.984525,-9418.149754
486.241701,-114.855485,-1569.691626,-9647.860723
486.244157,-153.140646,-1627.119368,-9934.999435
486.246612,-19.142581,-1148.554848,-9839.286531
486.249067,-133.998066,-459.421939,-9303.294269
486.251522,-172.283227,-19.142581,-9896.714274
486.253977,114.855485,-19.142581,-9533.005238
486.256432,-248.853550,-459.421939,-9533.005238
486.258887,-57.427742,-1205.982590,-9877.571693
486.261342,-38.285162,-1320.838075,-9533.005238
486.263798,-172.283227,-1205.982590,-9628.718142
486.266253,-0.000000,-1435.693560,-9820.143950
486.268708,-38.285162,-1473.978722,-9303.294269
486.271163,-153.140646,-1129.412267,-9973.284597
486.273618,-133.998066,-746.560651,-10030.712339
486.276073,-191.425808,-191.425808,-9303.294269
486.278528,19.142581,-191.425808,-9705.288466
486.280983,-57.427742,-382.851616,-9743.573627
486.283439,-114.855485,-861.416136,-9418.149754
486.285894,-19.142581,-1186.840010,-9839.286531
486.288349,-172.283227,-1033.699363,-9801.001370
486.290804,-38.285162,-995.414202,-9399.007173
486.293259,-38.285162,-1167.697429,-9686.145885
486.295714,-133.998066,-1282.552914,-9743.573627
486.298185,-19.142581,-1703.689691,-9647.860723
486.300655,-153.140646,-1301.695494,-9839.286531
486.303125,-76.570323,-516.849682,-9628.718142
486.305594,-38.285162,-76.570323,-9399.007173
486.308064,-114.855485,-133.998066,-9781.858789
486.310534,-19.142581,-593.420005,-9418.149754
486.313004,-172.283227,-746.560651,-9839.286531
486.315473,-76.570323,-1301.695494,-9781.858789
486.317943,-38.285162,-1263.410333,-9418.149754
486.320413,-38.285162,-880.558717,-9705.288466
486.322882,-76.570323,-1225.125171,-9762.716208
486.325352,-172.283227,-1646.261949,-9437.292334
486.327822,-38.285162,-1244.267752,-9609.575562
486.330291,-57.427742,-248.853550,-9877.571693
486.332761,-114.855485,172.283227,-9494.720077
486.335231,-114.855485,-114.855485,-9513.862658
486.337701,-153.140646,-823.130974,-9705.288466
486.340170,-76.570323,-1244.267752,-9686.145885
486.342640,-133.998066,-1416.550979,-9781.858789
486.345110,-133.998066,-1320.838075,-9590.432981
486.347579,-57.427742,-1186.840010,-9667.003304
486.350049,-114.855485,-918.843878,-9667.003304
486.352519,172.283227,-1167.697429,-9571.290400
486.354989,-172.283227,-957.129040,-9839.286531
486.357458,-153.140646,-803.988394,-9647.860723
486.359928,-0.000000,-612.562586,-9628.718142
486.362398,-95.712904,-497.707101,-9820.143950
486.364867,-0.000000,-957.129040,-9609.575562
486.367337,-38.285162,-1320.838075,-9533.005238
486.369807,-133.998066,-1033.699363,-9743.573627
486.372277,-76.570323,-440.279358,-9801.001370
486.374746,-38.285162,-478.564520,-9552.147819
486.377216,-57.427742,-746.560651,-9341.579430
486.379686,-38.285162,-1244.267752,-9686.145885
486.382155,-191.425808,-1550.549045,-9743.573627
486.384625,459.421939,-1818.545176,-10049.854920
486.387095,-210.568389,-153.140646,-9207.581365
486.389565,-76.570323,267.996131,-9513.862658
486.392034,-76.570323,-133.998066,-9820.143950
486.394504,-133.998066,-842.273555,-9341.579430
486.396987,38.285162,-1473.978722,-9954.142016
486.399470,-114.855485,-1397.408398,-9686.145885
486.401953,-114.855485,-1339.980656,-9628.718142
486.404436,-114.855485,-1263.410333,-9743.573627
486.406919,-38.285162,-1397.408398,-9571.290400
486.409402,-153.140646,-1416.550979,-9667.003304
486.411884,-95.712904,-1244.267752,-9877.571693
486.414367,-172.283227,-497.707101,-9667.003304
486.416850,-38.285162,-95.712904,-9418.149754
486.419333,-19.142581,-153.140646,-9609.575562
486.421816,-19.142581,-19.142581,-9379.864592
486.424299,-210.568389,-153.140646,-9801.001370
486.426782,-0.000000,-1071.984525,-9743.573627
486.429265,-0.000000,-1397.408398,-9169.296203
486.431748,-114.855485,-1607.976787,-9954.142016
486.434231,-172.283227,-2029.113565,-9647.860723
486.436714,-19.142581,-1607.976787,-9150.153622
486.439197,-363.709035,-497.707101,-9877.571693
486.441680,-76.570323,153.140646,-9839.286531
486.444163,-76.570323,248.853550,-9494.720077
486.446646,-153.140646,-363.709035,-9820.143950
486.449128,-114.855485,-976.271621,-9667.003304
486.451611,-57.427742,-1435.693560,-9743.573627
486.454094,-172.283227,-1627.119368,-9801.001370
486.456577,-76.570323,-1186.840010,-9590.432981
486.459060,-19.142581,-918.843878,-9552.147819
486.461543,-153.140646,-689.132909,-9839.286531
486.464026,-0.000000,-1129.412267,-9456.434915
486.466509,-133.998066,-1225.125171,-9628.718142
486.468992,-57.427742,-1110.269686,-9896.714274
486.471475,-114.855485,-459.421939,-9399.007173
486.473958,-0.000000,-172.283227,-9801.001370
486.476441,-76.570323,-497.707101,-9781.858789
486.478924,-172.283227,-1244.267752,-9437.292334
486.481407,-76.570323,-1167.697429,-9801.001370
486.483890,-114.855485,-727.418070,-9705.288466
486.486372,-0.000000,-823.130974,-9437.292334
486.488855,-76.570323,-995.414202,-9494.720077
486.491338,-38.285162,-861.416136,-9667.003304
486.493821,-38.285162,-1167.697429,-9801.001370
486.496314,-172.283227,-1205.982590,-9686.145885
486.498807,-19.142581,-1033.699363,-9494.720077
486.501299,-153.140646,-650.847747,-9839.286531
486.503792,-95.712904,-842.273555,-9667.003304
486.506285,-0.000000,-957.129040,-9341.579430
486.508777,-114.855485,-478.564520,-9839.286531
486.511270,-38.285162,-325.423874,-9705.288466
486.513763,-133.998066,-172.283227,-9437.292334
486.516255,-0.000000,-1033.699363,-9647.860723
486.518748,-95.712904,-1646.261949,-9743.573627
486.521241,-114.855485,-2258.824534,-9494.720077
486.523733,-133.998066,-2086.541307,-10049.854920
486.526226,-133.998066,-995.414202,-9647.860723
486.528719,-95.712904,-57.427742,-9552.147819
486.531211,-133.998066,555.134843,-9877.571693
486.533704,-95.712904,650.847747,-9322.436850
486.536197,38.285162,-382.851616,-9858.429112
486.538689,-210.568389,-1244.267752,-9513.862658
486.541182,-0.000000,-1703.689691,-9437.292334
486.543675,-133.998066,-1684.547110,-9877.571693
486.546167,-133.998066,-1722.832272,-9552.147819
486.548660,-0.000000,-1684.547110,-9475.577496
486.551153,-76.570323,-1282.552914,-10088.140082
486.553646,-19.142581,-344.566454,-9743.573627
486.556138,-76.570323,306.281293,-9456.434915
486.558631,-19.142581,-19.142581,-9820.143950
486.561124,-38.285162,-631.705166,-9437.292334
486.563616,-76.570323,-1320.838075,-9667.003304
486.566109,-114.855485,-1435.693560,-9934.999435
486.568602,-133.998066,-1454.836141,-9360.722011
486.571094,-57.427742,-1282.552914,-9801.001370
486.573587,-76.570323,-861.416136,-9820.143950
486.576080,-114.855485,-995.414202,-9322.436850
486.578572,-133.998066,-899.701298,-9781.858789
486.581065,-38.285162,-842.273555,-9743.573627
486.583558,-76.570323,-306.281293,-9360.722011
486.586050,-76.570323,-248.853550,-9858.429112
486.588543,-95.712904,-574.277424,-9647.860723
486.591036,-38.285162,-1416.550979,-9437.292334
486.593528,-172.283227,-1263.410333,-9781.858789
486.596028,-76.570323,-1148.554848,-9781.858789
486.598528,-0.000000,-1052.841944,-9245.866526
486.601028,-172.283227,-823.130974,-9762.716208
486.603528,-0.000000,-937.986459,-9418.149754
486.606028,-76.570323,-1263.410333,-9743.573627
486.608528,-114.855485,-1225.125171,-9877.571693
486.611028,-19.142581,-631.705166,-9418.149754
486.613528,-153.140646,-153.140646,-9781.858789
486.616028,-76.570323,-497.707101,-9647.860723
486.618528,-57.427742,-899.701298,-9322.436850
486.621028,-133.998066,-1071.984525,-10011.569758
486.623528,-0.000000,-1225.125171,-9590.432981
486.626028,-95.712904,-1110.269686,-9571.290400
486.628528,-57.427742,-1091.127106,-9724.431046
486.631028,-38.285162,-1301.695494,-9552.147819
486.633528,-153.140646,-1320.838075,-9590.432981
486.636028,-114.855485,-1339.980656,-10011.569758
486.638528,-57.427742,-593.420005,-9379.864592
486.641028,-38.285162,-95.712904,-9667.003304
486.643528,-95.712904,-191.425808,-9858.429112
486.646028,-95.712904,-650.847747,-9245.866526
486.648528,-172.283227,-1033.699363,-9915.856854
486.651028,-76.570323,-1378.265818,-9533.005238
486.653528,-114.855485,-1071.984525,-9418.149754
486.656028,-38.285162,-765.703232,-10068.997501
486.658528,-133.998066,-727.418070,-9552.147819
486.661028,-38.285162,-1493.121302,-9494.720077
486.663528,-133.998066,-1550.549045,-10049.854920
486.666028,-114.855485,-823.130974,-9475.577496
486.668528,-38.285162,-325.423874,-9686.145885
486.671028,-114.855485,-133.998066,-9705.288466
486.673528,-114.855485,-382.851616,-9494.720077
486.676028,-57.427742,-784.845813,-9896.714274
486.678528,-95.712904,-1052.841944,-9647.860723
486.681028,-95.712904,-976.271621,-9494.720077
486.683528,-95.712904,-1129.412267,-9705.288466
486.686028,-114.855485,-1454.836141,-9494.720077
486.688528,-57.427742,-1761.117434,-9418.149754
486.691028,-133.998066,-1761.117434,-9934.999435
486.693528,-153.140646,-1378.265818,-9724.431046
486.696034,287.138712,-497.707101,-9494.720077
486.698541,-325.423874,574.277424,-9724.431046
486.701048,57.427742,516.849682,-9628.718142
486.703555,-114.855485,-440.279358,-9590.432981
486.706062,-76.570323,-1033.699363,-9743.573627
486.708569,-0.000000,-1416.550979,-9571.290400
486.711075,-57.427742,-1454.836141,-9533.005238
486.713582,-57.427742,-1454.836141,-9724.431046
486.716089,-57.427742,-1339.980656,-9418.149754
486.718596,-172.283227,-1129.412267,-9877.571693
486.721103,-344.566454,-803.988394,-10011.569758
486.723610,76.570323,-478.564520,-9284.151688
486.726117,-191.425808,-19.142581,-9705.288466
486.728623,-133.998066,-229.710970,-9820.143950
486.731130,-95.712904,-880.558717,-9379.864592
486.733637,-153.140646,-1225.125171,-9934.999435
486.736144,-95.712904,-1205.982590,-9801.001370
486.738651,-57.427742,-1148.554848,-9284.151688
486.741158,-76.570323,-957.129040,-9647.860723
486.743665,-153.140646,-1148.554848,-9724.431046
486.746171,-114.855485,-1741.974853,-9360.722011
486.748678,-133.998066,-1454.836141,-9973.284597
486.751185,-114.855485,-612.562586,-9724.431046
486.753692,-19.142581,-248.853550,-9379.864592
486.756199,-114.855485,-133.998066,-9801.001370
486.758706,-95.712904,-363.709035,-9494.720077
486.761212,-95.712904,-823.130974,-9858.429112
486.763719,-0.000000,-1454.836141,-9571.290400
486.766226,-114.855485,-1225.125171,-9399.007173
486.768733,-0.000000,-1186.840010,-10088.140082
486.771240,-153.140646,-937.986459,-9590.432981
486.773747,-38.285162,-1359.123237,-9475.577496
486.776254,-38.285162,-803.988394,-10011.569758
486.778760,-0.000000,-76.570323,-9781.858789
486.781267,-76.570323,-153.140646,-9437.292334
486.783774,19.142581,-689.132909,-9686.145885
486.786281,-133.998066,-861.416136,-9590.432981
486.788788,-38.285162,-1301.695494,-9724.431046
486.791295,-133.998066,-1320.838075,-9667.003304
486.793802,-19.142581,-1110.269686,-9341.579430
486.796313,-172.283227,-593.420005,-9877.571693
486.798825,-114.855485,-842.273555,-9609.575562
486.801337,-19.142581,-1416.550979,-9265.009107
486.803849,-172.283227,-1493.121302,-9877.571693
486.806361,-57.427742,-880.558717,-9686.145885
486.808872,-0.000000,-401.994197,-9265.009107
486.811384,-153.140646,-95.712904,-9973.284597
486.813896,-57.427742,-344.566454,-9609.575562
486.816408,-76.570323,-1071.984525,-9226.723946
486.818920,-38.285162,-1205.982590,-9896.714274
486.821431,-133.998066,-937.986459,-9571.290400
486.823943,-76.570323,-861.416136,-9399.007173
486.826455,-19.142581,-937.986459,-9743.573627
486.828967,-57.427742,-1014.556782,-9609.575562
486.831479,-76.570323,-1454.836141,-9705.288466
486.833990,-133.998066,-1607.976787,-9896.714274
486.836502,-38.285162,-861.416136,-9437.292334
486.839014,-38.285162,-172.283227,-9724.431046
486.841526,-76.570323,-287.138712,-9667.003304
486.844038,-95.712904,-535.992262,-9437.292334
486.846549,-95.712904,-746.560651,-9801.001370
486.849061,-57.427742,-880.558717,-9571.290400
486.851573,-76.570323,-1110.269686,-9552.147819
486.854085,-76.570323,-1378.265818,-9762.716208
486.856597,-133.998066,-1416.550979,-9686.145885
486.859108,-57.427742,-1378.265818,-9494.720077
486.861620,-95.712904,-574.277424,-9781.858789
486.864132,-95.712904,57.427742,-9533.005238
486.866644,-95.712904,-38.285162,-9513.862658
486.869156,-172.283227,-593.420005,-9781.858789
486.871667,-57.427742,-1282.552914,-9533.005238
486.874179,-133.998066,-1722.832272,-9858.429112
486.876691,-19.142581,-1780.260014,-9724.431046
486.879203,-38.285162,-1167.697429,-9150.153622
486.881715,-19.142581,-689.132909,-10107.282662
486.884226,-133.998066,-708.275490,-9667.003304
486.886738,-95.712904,-1359.123237,-9360.722011
486.889250,-57.427742,-1512.263883,-10049.854920
486.891762,-57.427742,-918.843878,-9667.003304
486.894274,-95.712904,-689.132909,-9303.294269
486.896789,-114.855485,-478.564520,-10030.712339
486.899304,-57.427742,-325.423874,-9494.720077
486.901819,-133.998066,-535.992262,-9609.575562
486.904334,-114.855485,-746.560651,-9954.142016
486.906850,-76.570323,-631.705166,-9475.577496
486.909365,-19.142581,-746.560651,-9647.860723
486.911880,-114.855485,-1205.982590,-9839.286531
486.914395,-38.285162,-1588.834206,-9360.722011
486.916910,-133.998066,-1722.832272,-9973.284597
486.919426,-57.427742,-1110.269686,-9934.999435
486.921941,-95.712904,-421.136778,-9207.581365
486.924456,-95.712904,0.000000,-10049.854920
486.926971,-57.427742,-114.855485,-9781.858789
486.929486,-0.000000,-784.845813,-9245.866526
486.932002,-76.570323,-995.414202,-10088.140082
486.934517,-133.998066,-1014.556782,-9628.718142
486.937032,-114.855485,-1110.269686,-9590.432981
486.939547,-57.427742,-1205.982590,-9667.003304
486.942063,-114.855485,-1263.410333,-9494.720077
486.944578,-133.998066,-1454.836141,-9820.143950
486.947093,-114.855485,-1359.123237,-9839.286531
486.949608,-114.855485,-459.421939,-9475.577496
486.952123,19.142581,-19.142581,-9762.716208
486.954639,-153.140646,-38.285162,-9437.292334
486.957154,-19.142581,-899.701298,-9533.005238
486.959669,-114.855485,-1186.840010,-9954.142016
486.962184,-95.712904,-1225.125171,-9571.290400
486.964699,-76.570323,-1282.552914,-9513.862658
486.967215,-76.570323,-1052.841944,-9839.286531
486.969730,-57.427742,-1052.841944,-9456.434915
486.972245,-133.998066,-1359.123237,-9686.145885
486.974760,-57.427742,-1301.695494,-9992.427178
486.977276,-0.000000,-727.418070,-9571.290400
486.979791,-114.855485,-210.568389,-9705.288466
486.982306,-19.142581,-191.425808,-9533.005238
486.984821,-153.140646,-229.710970,-9647.860723
486.987336,-153.140646,-957.129040,-9934.999435
486.989852,-95.712904,-1301.695494,-9475.577496
486.992367,-76.570323,-1091.127106,-9418.149754
486.994882,-38.285162,-918.843878,-9992.427178
486.997346,-172.283227,-1033.699363,-9475.577496
486.999811,-38.285162,-746.560651,-9781.858789
487.002275,-172.283227,516.849682,-9877.571693
487.004739,-172.283227,2258.824534,-9590.432981
487.007204,-76.570323,-823.130974,-8824.729749
487.009668,-382.851616,-497.707101,-10719.845248
487.012132,-0.000000,-1033.699363,-8920.442653
487.014596,-95.712904,-861.416136,-9265.009107
487.017061,-153.140646,-689.132909,-10968.698798
487.019525,-57.427742,-325.423874,-8652.446522
487.021989,-0.000000,210.568389,-9781.858789
487.024454,-38.285162,382.851616,-9992.427178
487.026918,-0.000000,382.851616,-8901.300072
487.029382,-57.427742,114.855485,-10049.854920
487.031847,-133.998066,153.140646,-9839.286531
487.034311,-38.285162,-421.136778,-9399.007173
487.036775,-172.283227,-1320.838075,-9609.575562
487.039240,19.142581,-2297.109696,-9762.716208
487.041704,-172.283227,-2526.820666,-9571.290400
487.044168,-38.285162,-2335.394858,-10011.569758
487.046632,-172.283227,-1110.269686,-9533.005238
487.049097,-19.142581,19.142581,-9533.005238
487.051561,-76.570323,497.707101,-9724.431046
487.054025,-76.570323,0.000000,-9437.292334
487.056490,-95.712904,-727.418070,-9437.292334
487.058954,-76.570323,-1205.982590,-10049.854920
487.061418,-114.855485,-1473.978722,-9379.864592
487.063883,-153.140646,-995.414202,-9667.003304
487.066347,-38.285162,-823.130974,-9705.288466
487.068811,-114.855485,-1014.556782,-9628.718142
487.071276,-38.285162,-1263.410333,-9820.143950
487.073740,-19.142581,-1071.984525,-9686.145885
487.076204,-95.712904,-593.420005,-9303.294269
487.078668,-0.000000,-574.277424,-9667.003304
487.081133,-76.570323,-497.707101,-9647.860723
487.083597,-191.425808,-918.843878,-9724.431046
487.086061,-57.427742,-1473.978722,-9418.149754
487.088526,-19.142581,-880.558717,-9705.288466
487.090990,-133.998066,-76.570323,-9896.714274
487.093454,-57.427742,-287.138712,-9399.007173
487.095935,-133.998066,-842.273555,-9494.720077
487.098416,-76.570323,-1282.552914,-9571.290400
487.100896,-57.427742,-1607.976787,-9877.571693
487.103377,-172.283227,-1263.410333,-9647.860723
487.105857,-57.427742,-1129.412267,-9475.577496
487.108338,-19.142581,-842.273555,-9686.145885
487.110818,-95.712904,-669.990328,-9762.716208
487.113299,-76.570323,-650.847747,-9724.431046
487.115780,-95.712904,-535.992262,-9686.145885
487.118260,-38.285162,-153.140646,-9705.288466
487.120741,-172.283227,-133.998066,-9494.720077
487.123221,-95.712904,-803.988394,-9418.149754
487.125702,-38.285162,-1473.978722,-9743.573627
487.128183,-172.283227,-1799.402595,-9647.860723
487.130663,-38.285162,-1722.832272,-9647.860723
487.133144,-172.283227,-880.558717,-9858.429112
487.135624,-95.712904,-669.990328,-9934.999435
487.138105,-114.855485,-746.560651,-9399.007173
487.140585,-57.427742,-191.425808,-9552.147819
487.143066,-133.998066,-38.285162,-10068.997501
487.145547,19.142581,-306.281293,-9456.434915
487.148027,-57.427742,-708.275490,-9188.438784
487.150508,-95.712904,-1014.556782,-9954.142016
487.152988,-172.283227,-1933.400661,-9705.288466
487.155469,-210.568389,-2431.107762,-9513.862658
487.157950,-0.000000,-2086.541307,-10049.854920
487.160430,-114.855485,-899.701298,-9628.718142
487.162911,-57.427742,-306.281293,-9647.860723
487.165391,-95.712904,-153.140646,-9609.575562
487.167872,-57.427742,-114.855485,-9533.005238
487.170352,-153.140646,-229.710970,-9705.288466
487.172833,-95.712904,-382.851616,-9667.003304
487.175314,-172.283227,-689.132909,-9456.434915
487.177794,-57.427742,-1435.693560,-9743.573627
487.180275,-114.855485,-1856.830338,-9686.145885
487.182755,-57.427742,-1971.685822,-9724.431046
487.185236,-133.998066,-1339.980656,-9839.286531
487.187717,-38.285162,-440.279358,-9762.716208
487.190197,-19.142581,-114.855485,-9418.149754
487.192678,-57.427742,0.000000,-9801.001370
487.195171,-153.140646,-478.564520,-9877.571693
487.197665,-76.570323,-1435.693560,-9322.436850
487.200158,-19.142581,-1397.408398,-9724.431046
487.202652,-114.855485,-631.705166,-9915.856854
487.205145,-76.570323,-612.562586,-9379.864592
487.207639,-153.140646,-995.414202,-9552.147819
487.210132,-38.285162,-1397.408398,-9533.005238
487.212626,-57.427742,-1320.838075,-9858.429112
487.215119,-114.855485,-918.843878,-9743.573627
487.217613,19.142581,-1033.699363,-9265.009107
487.220106,-172.283227,-861.416136,-9724.431046
487.222600,-95.712904,-746.560651,-9801.001370
487.225093,-133.998066,-880.558717,-9475.577496
487.227587,-133.998066,-650.847747,-9839.286531
487.230080,-114.855485,-325.423874,-9801.001370
487.232574,-95.712904,-401.994197,-9418.149754
487.235067,-153.140646,-803.988394,-9647.860723
487.237561,-57.427742,-1359.123237,-9781.858789
487.240054,-95.712904,-1646.261949,-9494.720077
487.242548,-114.855485,-1493.121302,-9686.145885
487.245041,-133.998066,-880.558717,-9647.860723
487.247535,-76.570323,-784.845813,-9647.860723
487.250028,-95.712904,-765.703232,-9858.429112
487.252522,-95.712904,-612.562586,-9475.577496
487.255016,-19.142581,-114.855485,-9743.573627
487.257509,-133.998066,229.710970,-9992.427178
487.260003,-133.998066,0.000000,-9169.296203
487.262496,-57.427742,-765.703232,-9571.290400
487.264990,-172.283227,-1665.404530,-9954.142016
487.267483,-172.283227,-2603.390989,-9418.149754
487.269977,-114.855485,-2507.678085,-9762.716208
487.272470,-114.855485,-1320.838075,-9724.431046
487.274964,-57.427742,-401.994197,-9667.003304
487.277457,-95.712904,-38.285162,-9590.432981
487.279951,-95.712904,0.000000,-9552.147819
487.282444,-57.427742,-669.990328,-9686.145885
487.284938,-0.000000,-1339.980656,-9743.573627
487.287431,-95.712904,-1282.552914,-9533.005238
487.289925,-19.142581,-1359.123237,-9705.288466
487.292418,-133.998066,-1263.410333,-9571.290400
487.294922,-153.140646,-1110.269686,-9705.288466
487.297425,-38.285162,-823.130974,-9705.288466
487.299929,-133.998066,-229.710970,-9628.718142
487.302432,-19.142581,-210.568389,-9379.864592
487.304936,-153.140646,-153.140646,-10107.282662
487.307439,-19.142581,-1091.127106,-9533.005238
487.309943,-133.998066,-1627.119368,-9284.151688
487.312446,-133.998066,-1186.840010,-10202.995566
487.314950,-95.712904,-746.560651,-9667.003304
487.317453,-95.712904,-459.421939,-9475.577496
487.319957,-133.998066,-976.271621,-9571.290400
487.322460,-57.427742,-1205.982590,-9590.432981
487.324964,-57.427742,-1359.123237,-9934.999435
487.327467,-95.712904,-918.843878,-9647.860723
487.329971,-76.570323,-727.418070,-9475.577496
487.332474,-38.285162,-516.849682,-9781.858789
487.334977,-95.712904,-746.560651,-9839.286531
487.337481,-133.998066,-1091.127106,-9552.147819
487.339984,-133.998066,-1110.269686,-9705.288466
487.342488,-76.570323,-765.703232,-9762.716208
487.344991,-76.570323,-555.134843,-9533.005238
487.347495,-57.427742,-842.273555,-9590.432981
487.349998,-76.570323,-1129.412267,-9628.718142
487.352502,-114.855485,-1205.982590,-9571.290400
487.355005,-57.427742,-1186.840010,-9686.145885
487.357509,-114.855485,-689.132909,-9609.575562
487.360012,-95.712904,-976.271621,-9609.575562
487.362516,-153.140646,-1225.125171,-9896.714274
487.365019,-57.427742,-1033.699363,-9456.434915
487.367523,-133.998066,-516.849682,-9667.003304
487.370026,-172.283227,114.855485,-10011.569758
487.372530,-76.570323,-57.427742,-9035.298138
487.375033,-0.000000,-229.710970,-9552.147819
487.377537,-172.283227,-861.416136,-10088.140082
487.380040,-0.000000,-2048.256146,-9169.296203
487.382544,-153.140646,-2373.680019,-9820.143950
487.385047,-57.427742,-1703.689691,-9801.001370
487.387551,-172.283227,-957.129040,-9418.149754
487.390054,-133.998066,-535.992262,-9743.573627
487.392558,-38.285162,-344.566454,-9552.147819
487.395021,-133.998066,-57.427742,-9647.860723
487.397485,-114.855485,-114.855485,-9801.001370
487.399949,-57.427742,-459.421939,-9418.149754
487.402412,-114.855485,-1110.269686,-9494.720077
487.404876,-95.712904,-1914.258080,-9973.284597
487.407339,-153.140646,-2220.539373,-9647.860723
487.409803,-133.998066,-1761.117434,-9590.432981
487.412266,-76.570323,-1052.841944,-9992.427178
487.414730,-76.570323,-306.281293,-9265.009107
487.417193,-38.285162,-153.140646,-9934.999435
487.419657,-153.140646,-382.851616,-9839.286531
487.422121,-57.427742,-842.273555,-9418.149754
487.424584,-95.712904,-631.705166,-9973.284597
487.427048,-76.570323,-478.564520,-9513.862658
487.429511,-210.568389,-669.990328,-9590.432981
487.431975,-38.285162,-1473.978722,-9801.001370
487.434438,-19.142581,-1914.258080,-9418.149754
487.436902,-153.140646,-1512.263883,-9820.143950
487.439365,-38.285162,-1091.127106,-9801.001370
487.441829,-95.712904,-612.562586,-9188.438784
487.444293,-76.570323,-325.423874,-9762.716208
487.446756,-114.855485,-421.136778,-9896.714274
487.449220,-76.570323,-765.703232,-9360.722011
487.451683,-153.140646,-708.275490,-9915.856854
487.454147,-133.998066,-401.994197,-9896.714274
487.456610,-114.855485,-497.707101,-9265.009107
487.459074,-38.285162,-976.271621,-9762.716208
487.461537,-172.283227,-1397.408398,-9552.147819
487.464001,-76.570323,-1799.402595,-9628.718142
487.466465,-153.140646,-1435.693560,-9915.856854
487.468928,-38.285162,-784.845813,-9475.577496
487.471392,-76.570323,-727.418070,-9533.005238
487.473855,-57.427742,-497.707101,-9762.716208
487.476319,-114.855485,-210.568389,-9571.290400
487.478782,-114.855485,-574.277424,-9724.431046
487.481246,-153.140646,-459.421939,-9915.856854
487.483709,-19.142581,-880.558717,-9303.294269
487.486173,-191.425808,-1205.982590,-9647.860723
487.488637,-57.427742,-1856.830338,-9934.999435
487.491100,-38.285162,-2067.398726,-9207.581365
487.493582,-172.283227,-1167.697429,-9992.427178
487.496064,-57.427742,-363.709035,-9781.858789
487.498546,-114.855485,-76.570323,-9418.149754
487.501028,-57.427742,-382.851616,-10049.854920
487.503509,-95.712904,-784.845813,-9513.862658
487.505991,-38.285162,-1167.697429,-9552.147819
487.508473,-133.998066,-1148.554848,-9858.429112
487.510955,-95.712904,-995.414202,-9533.005238
487.513437,-57.427742,-784.845813,-9494.720077
487.515919,-57.427742,-1091.127106,-9724.431046
487.518401,-38.285162,-1320.838075,-9628.718142
487.520882,-172.283227,-899.701298,-9647.860723
487.523364,-57.427742,-784.845813,-9801.001370
487.525846,-38.285162,-708.275490,-9207.581365
487.528328,-76.570323,-689.132909,-9973.284597
487.530810,-133.998066,-995.414202,-9877.571693
487.533292,-76.570323,-1148.554848,-9284.151688
487.535774,-38.285162,-976.271621,-10241.280728
487.538255,-133.998066,-421.136778,-9571.290400
487.540737,-114.855485,-421.136778,-9552.147819
487.543219,-19.142581,-1014.556782,-9820.143950
487.545701,-172.283227,-1205.982590,-9552.147819
487.548183,-19.142581,-1435.693560,-9801.001370
487.550665,-153.140646,-1148.554848,-9667.003304
487.553147,-38.285162,-976.271621,-9494.720077
487.555628,-114.855485,-746.560651,-9781.858789
487.558110,-153.140646,-727.418070,-9896.714274
487.560592,-95.712904,-861.416136,-9533.005238
487.563074,-133.998066,-727.418070,-9705.288466
487.565556,-57.427742,-363.709035,-9724.431046
487.568038,-0.000000,-306.281293,-9418.149754
487.570520,-57.427742,-746.560651,-9724.431046
487.573001,-172.283227,-1339.980656,-9762.716208
487.575483,-153.140646,-1531.406464,-9456.434915
487.577965,-19.142581,-1493.121302,-9820.143950
487.580447,-133.998066,-842.273555,-9801.001370
487.582929,-172.283227,-1033.699363,-9341.579430
487.585411,-57.427742,-1071.984525,-9954.142016
487.587893,-153.140646,-746.560651,-9513.862658
487.590374,-57.427742,-937.986459,-9724.431046
487.592871,-133.998066,-95.712904,-9705.288466
487.595367,-76.570323,76.570323,-9533.005238
487.597864,-133.998066,-555.134843,-9628.718142
487.600360,-76.570323,-1569.691626,-9686.145885
487.602856,76.570323,-2124.826469,-9379.864592
487.605353,-153.140646,-1512.263883,-9705.288466
487.607849,-95.712904,-918.843878,-9877.571693
487.610345,-153.140646,-229.710970,-9207.581365
487.612842,-38.285162,-325.423874,-9839.286531
487.615338,-153.140646,-344.566454,-9743.573627
487.617835,-57.427742,-478.564520,-9150.153622
487.620331,-114.855485,-803.988394,-9839.286531
487.622827,-153.140646,-803.988394,-9609.575562
487.625324,-19.142581,-1435.693560,-9360.722011
487.627820,-57.427742,-2086.541307,-9724.431046
487.630317,-76.570323,-2201.396792,-9858.429112
487.632813,-95.712904,-1646.261949,-9647.860723
487.635309,-114.855485,-708.275490,-9609.575562
487.637806,-38.285162,-153.140646,-9590.432981
487.640302,172.283227,-57.427742,-9667.003304
487.642798,-153.140646,-57.427742,-9915.856854
487.645295,-76.570323,-765.703232,-9322.436850
487.647791,19.142581,-1129.412267,-9494.720077
487.650288,-344.566454,-612.562586,-10049.854920
487.652784,-38.285162,-861.416136,-9552.147819
487.655280,-114.855485,-1320.838075,-9360.722011
487.657777,-76.570323,-1646.261949,-9858.429112
487.660273,-95.712904,-1397.408398,-9839.286531
487.662770,-133.998066,-823.130974,-9494.720077
487.665266,-0.000000,-689.132909,-9552.147819
487.667762,-133.998066,-440.279358,-9609.575562
487.670259,-114.855485,-631.705166,-9667.003304
487.672755,-0.000000,-1052.841944,-9858.429112
487.675251,-133.998066,-899.701298,-9743.573627
487.677748,-114.855485,-631.705166,-9571.290400
487.680244,-114.855485,-401.994197,-9705.288466
487.682741,-57.427742,-861.416136,-9418.149754
487.685237,-133.998066,-1359.123237,-9801.001370
487.687733,-133.998066,-1512.263883,-9858.429112
487.690230,-0.000000,-1435.693560,-9437.292334
487.692693,-172.283227,-631.705166,-9609.575562
487.695156,-76.570323,-861.416136,-10030.712339
487.697619,-38.285162,-1071.984525,-9360.722011
487.700082,-95.712904,-612.562586,-9743.573627
487.702546,38.285162,-401.994197,-9973.284597
487.705009,-153.140646,-267.996131,-9494.720077
487.707472,38.285162,-593.420005,-9284.151688
487.709935,-19.142581,-593.420005,-9877.571693
487.712398,-38.285162,-1454.836141,-9762.716208
487.714861,-38.285162,-2029.113565,-9341.579430
487.717324,-153.140646,-1627.119368,-9839.286531
487.719788,-19.142581,-937.986459,-9762.716208
487.722251,-153.140646,-555.134843,-9513.862658
487.724714,-76.570323,-516.849682,-9724.431046
487.727177,-133.998066,-478.564520,-9590.432981
487.729640,-114.855485,-516.849682,-9590.432981
487.732103,-95.712904,-669.990328,-9915.856854
487.734567,-114.855485,-631.705166,-9379.864592
487.737030,-38.285162,-957.129040,-9245.866526
487.739493,-57.427742,-1454.836141,-10030.712339
487.741956,-153.140646,-1607.976787,-9877.571693
487.744419,-57.427742,-1588.834206,-9513.862658
487.746882,-153.140646,-1148.554848,-9686.145885
487.749346,-76.570323,-459.421939,-9934.999435
487.751809,-153.140646,-382.851616,-9418.149754
487.754272,-172.283227,-421.136778,-9839.286531
487.756735,-57.427742,-957.129040,-9418.149754
487.759198,-19.142581,-727.418070,-9494.720077
487.761661,-0.000000,-287.138712,-9858.429112
487.764124,-153.140646,-535.992262,-9628.718142
487.766588,-57.427742,-1263.410333,-9399.007173
487.769051,-76.570323,-1703.689691,-9954.142016
487.771514,-133.998066,-1531.406464,-9762.716208
487.773977,-76.570323,-1320.838075,-9533.005238
487.776440,-38.285162,-1052.841944,-9705.288466
487.778903,-153.140646,-535.992262,-9705.288466
487.781367,-19.142581,-421.136778,-9647.860723
487.783830,-133.998066,-421.136778,-9647.860723
487.786293,-172.283227,-325.423874,-9686.145885
487.788756,-19.142581,-440.279358,-9590.432981
487.791195,-153.140646,-918.843878,-9494.720077
487.793634,-76.570323,-1550.549045,-9686.145885
487.796074,19.142581,-2163.111630,-9533.005238
487.798513,-153.140646,-1818.545176,-9839.286531
487.800952,-172.283227,-1282.552914,-9839.286531
487.803391,-0.000000,-267.996131,-9552.147819
487.805830,-95.712904,-114.855485,-9360.722011
487.808269,-133.998066,-229.710970,-9877.571693
487.810708,-0.000000,-727.418070,-9533.005238
487.813148,-172.283227,-899.701298,-9399.007173
487.815587,-172.283227,-1071.984525,-10164.710405
487.818026,-57.427742,-1205.982590,-9571.290400
487.820465,-57.427742,-899.701298,-9341.579430
487.822904,-153.140646,-937.986459,-9858.429112
487.825343,-133.998066,-1205.982590,-9801.001370
487.827782,-114.855485,-995.414202,-9399.007173
487.830222,-57.427742,-689.132909,-9743.573627
487.832661,-114.855485,-669.990328,-9762.716208
487.835100,-38.285162,-823.130974,-9399.007173
487.837539,-114.855485,-899.701298,-9686.145885
487.839978,-153.140646,-995.414202,-9954.142016
487.842417,-172.283227,-784.845813,-9513.862658
487.844857,-114.855485,-574.277424,-9609.575562
487.847296,-19.142581,-823.130974,-9762.716208
487.849735,-114.855485,-1205.982590,-9628.718142
487.852174,-114.855485,-1301.695494,-9552.147819
487.854613,-114.855485,-1186.840010,-9877.571693
487.857052,-401.994197,-976.271621,-9801.001370
487.859491,229.710970,-1052.841944,-9399.007173
487.861931,-153.140646,-689.132909,-9628.718142
487.864370,-133.998066,-784.845813,-10222.138147
487.866809,-95.712904,-689.132909,-9437.292334
487.869248,-76.570323,-210.568389,-9437.292334
487.871687,-57.427742,-76.570323,-9801.001370
487.874126,-0.000000,-172.283227,-9437.292334
487.876566,-57.427742,-1167.697429,-9245.866526
487.879005,-153.140646,-1837.687757,-9858.429112
487.881444,-95.712904,-1895.115499,-9762.716208
487.883883,-95.712904,-1761.117434,-9552.147819
487.886322,-153.140646,-1148.554848,-9743.573627
487.888745,-76.570323,-593.420005,-9647.860723
487.891167,-38.285162,-382.851616,-9590.432981
487.893590,-57.427742,-306.281293,-9628.718142
487.896012,-57.427742,-287.138712,-9877.571693
487.898435,-153.140646,-459.421939,-9705.288466
487.900857,-114.855485,-937.986459,-9418.149754
487.903280,-76.570323,-1512.263883,-9590.432981
487.905702,-210.568389,-1627.119368,-9820.143950
487.908125,-133.998066,-1761.117434,-9475.577496
487.910548,-133.998066,-1148.554848,-9801.001370
487.912970,-153.140646,-95.712904,-9896.714274
487.915393,-19.142581,-325.423874,-9284.151688
487.917815,-0.000000,-555.134843,-9533.005238
487.920238,-114.855485,-708.275490,-9915.856854
487.922660,-95.712904,-957.129040,-9418.149754
487.925083,-133.998066,-1071.984525,-9724.431046
487.927505,-76.570323,-823.130974,-9590.432981
487.929928,-0.000000,-765.703232,-9399.007173
487.932350,-172.283227,-937.986459,-9915.856854
487.934773,-153.140646,-1359.123237,-9705.288466
487.937195,-95.712904,-1244.267752,-9379.864592
487.939618,-57.427742,-937.986459,-9686.145885
487.942041,-114.855485,-765.703232,-9801.001370
487.944463,-76.570323,-880.558717,-9552.147819
487.946886,-114.855485,-689.132909,-9609.575562
487.949308,-114.855485,-689.132909,-9954.142016
487.951731,-38.285162,-650.847747,-9609.575562
487.954153,-57.427742,-535.992262,-9456.434915
487.956576,-95.712904,-708.275490,-9628.718142
487.958998,-114.855485,-1205.982590,-9705.288466
487.961421,-95.712904,-1569.691626,-9743.573627
487.963843,-57.427742,-1397.408398,-9762.716208
487.966266,-76.570323,-1071.984525,-9533.005238
487.968689,-76.570323,-842.273555,-9418.149754
487.971111,-114.855485,-478.564520,-9896.714274
487.973534,-95.712904,-727.418070,-9571.290400
487.975956,-76.570323,-995.414202,-9379.864592
487.978379,-153.140646,-555.134843,-10049.854920
487.980801,-76.570323,-287.138712,-9686.145885
487.983224,-57.427742,-574.277424,-9341.579430
487.985636,-38.285162,-1186.840010,-9475.577496
487.988048,-38.285162,-1588.834206,-9992.427178
487.990460,-133.998066,-1818.545176,-9762.716208
487.992872,-76.570323,-1550.549045,-9456.434915
487.995284,-95.712904,-976.271621,-9743.573627
487.997696,-76.570323,-325.423874,-9533.005238
488.000108,-57.427742,-440.279358,-9494.720077
488.002520,-76.570323,-421.136778,-9724.431046
488.004932,-19.142581,-478.564520,-9590.432981
488.007344,-133.998066,-497.707101,-9705.288466
488.009756,-95.712904,-957.129040,-9686.145885
488.012168,-57.427742,-1512.263883,-9590.432981
488.014580,-172.283227,-1799.402595,-9686.145885
488.016992,-76.570323,-1837.687757,-9858.429112
488.019404,-114.855485,-1244.267752,-9590.432981
488.021816,-191.425808,-114.855485,-9647.860723
488.024228,-0.000000,-229.710970,-9475.577496
488.026640,-133.998066,-153.140646,-9533.005238
488.029052,-57.427742,-555.134843,-9896.714274
488.031464,-0.000000,-1091.127106,-9360.722011
488.033876,-191.425808,-880.558717,-9647.860723
488.036288,-57.427742,-880.558717,-9877.571693
488.038700,-133.998066,-842.273555,-9418.149754
488.041113,-0.000000,-1320.838075,-9858.429112
488.043525,-153.140646,-1416.550979,-9705.288466
488.045937,-114.855485,-1091.127106,-9705.288466
488.048349,-0.000000,-765.703232,-9590.432981
488.050761,-172.283227,-631.705166,-9647.860723
488.053173,-114.855485,-803.988394,-9571.290400
488.055585,-114.855485,-937.986459,-9552.147819
488.057997,-95.712904,-957.129040,-9858.429112
488.060409,-95.712904,-746.560651,-9705.288466
488.062821,-133.998066,-401.994197,-9590.432981
488.065233,-57.427742,-650.847747,-9418.149754
488.067645,-57.427742,-1071.984525,-9858.429112
488.070057,-133.998066,-1110.269686,-9705.288466
488.072469,-114.855485,-1301.695494,-9647.860723
488.074881,-172.283227,-1397.408398,-9839.286531
488.077293,-19.142581,-995.414202,-9341.579430
488.079705,-76.570323,-899.701298,-9743.573627
488.082152,-172.283227,-765.703232,-9839.286531
488.084599,-114.855485,-689.132909,-9533.005238
488.087046,-0.000000,-440.279358,-9801.001370
488.089493,-133.998066,-248.853550,-9667.003304
488.091940,-95.712904,-574.277424,-9552.147819
488.094388,-38.285162,-1263.410333,-9437.292334
488.096835,-133.998066,-1837.687757,-9858.429112
488.099282,-114.855485,-1875.972918,-9801.001370
488.101729,-57.427742,-1416.550979,-9647.860723
488.104176,-95.712904,-631.705166,-9647.860723
488.106623,-76.570323,-191.425808,-9724.431046
488.109070,19.142581,-421.136778,-9705.288466
488.111517,-76.570323,-689.132909,-9686.145885
488.113964,-38.285162,-918.843878,-9781.858789
488.116411,-38.285162,-708.275490,-9705.288466
488.118858,-76.570323,-976.271621,-9513.862658
488.121306,-38.285162,-1091.127106,-9667.003304
488.123753,-76.570323,-1129.412267,-9686.145885
488.126200,-172.283227,-1282.552914,-9552.147819
488.128647,-95.712904,-1225.125171,-9781.858789
488.131094,-76.570323,-765.703232,-9839.286531
488.133541,-76.570323,-1052.841944,-9265.009107
488.135988,-76.570323,-1110.269686,-9590.432981
488.138435,-38.285162,-708.275490,-9973.284597
488.140882,-172.283227,-631.705166,-9418.149754
488.143329,-172.283227,-784.845813,-9896.714274
488.145776,-76.570323,-689.132909,-9686.145885
488.148224,-133.998066,-440.279358,-9571.290400
488.150671,-95.712904,-823.130974,-9781.858789
488.153118,-153.140646,-1550.549045,-9628.718142
488.155565,-95.712904,-1627.119368,-9571.290400
488.158012,-57.427742,-1186.840010,-9762.716208
488.160459,-248.853550,-784.845813,-9724.431046
488.162906,-114.855485,-727.418070,-9494.720077
488.165353,-38.285162,-842.273555,-9915.856854
488.167800,-57.427742,-631.705166,-9647.860723
488.170247,-76.570323,-535.992262,-9552.147819
488.172694,-76.570323,-382.851616,-9437.292334
488.175141,-95.712904,-612.562586,-9552.147819
488.177589,-114.855485,-1359.123237,-9896.714274
488.180065,38.285162,-1780.260014,-9647.860723
488.182540,-210.568389,-1205.982590,-9858.429112
488.185015,-38.285162,-727.418070,-9781.858789
488.187491,-76.570323,-440.279358,-9322.436850
488.189966,-76.570323,-172.283227,-9877.571693
488.192441,-38.285162,-995.414202,-9724.431046
488.194916,-114.855485,-1359.123237,-9418.149754
488.197392,-57.427742,-746.560651,-9801.001370
488.199867,-95.712904,-95.712904,-9915.856854
488.202342,-38.285162,-287.138712,-9150.153622
488.204818,-133.998066,-899.701298,-9284.151688
488.207293,-38.285162,-1512.263883,-10202.995566
488.209768,-153.140646,-1780.260014,-9896.714274
488.212243,-76.570323,-1799.402595,-9226.723946
488.214719,-0.000000,-1225.125171,-9762.716208
488.217194,-133.998066,-555.134843,-9743.573627
488.219669,-57.427742,-421.136778,-9609.575562
488.222145,-153.140646,-593.420005,-9743.573627
488.224620,-153.140646,-516.849682,-9590.432981
488.227095,-19.142581,-191.425808,-9667.003304
488.229570,-76.570323,-306.281293,-9647.860723
488.232046,-76.570323,-937.986459,-9552.147819
488.234521,-38.285162,-1741.974853,-9571.290400
488.236996,-210.568389,-1837.687757,-9877.571693
488.239472,-114.855485,-1627.119368,-9705.288466
488.241947,-172.283227,-861.416136,-9686.145885
488.244422,-57.427742,-555.134843,-9284.151688
488.246897,-57.427742,-267.996131,-9762.716208
488.249373,-172.283227,-382.851616,-9877.571693
488.251848,-38.285162,-995.414202,-9360.722011
488.254323,-153.140646,-650.847747,-9667.003304
488.256799,-57.427742,-593.420005,-9418.149754
488.259274,-19.142581,-669.990328,-9705.288466
488.261749,-210.568389,-1320.838075,-9781.858789
488.264224,-57.427742,-2009.970984,-9513.862658
488.266700,-210.568389,-1493.121302,-9839.286531
488.269175,-76.570323,-746.560651,-9915.856854
488.271650,-57.427742,-574.277424,-9456.434915
488.274126,-153.140646,-363.709035,-9188.438784
488.276601,-19.142581,-612.562586,-9934.999435
488.279099,-153.140646,-823.130974,-9781.858789
488.281597,-153.140646,-995.414202,-9647.860723
488.284095,19.142581,-937.986459,-9724.431046
488.286593,-76.570323,-650.847747,-9494.720077
488.289090,-133.998066,-880.558717,-9609.575562
488.291588,-114.855485,-1225.125171,-9915.856854
488.294086,-172.283227,-1282.552914,-9571.290400
488.296584,-95.712904,-1186.840010,-9475.577496
488.299082,-76.570323,-803.988394,-9820.143950
488.301580,-76.570323,-650.847747,-9590.432981
488.304078,-76.570323,-957.129040,-9743.573627
488.306576,-172.283227,-784.845813,-9647.860723
488.309074,-38.285162,-650.847747,-9896.714274
488.311572,-172.283227,-133.998066,-9820.143950
488.314070,-76.570323,-382.851616,-9265.009107
488.316567,57.427742,-1014.556782,-9437.292334
488.319065,-210.568389,-1416.550979,-9954.142016
488.321563,-0.000000,-1933.400661,-9820.143950
488.324061,-38.285162,-1665.404530,-9341.579430
488.326559,-153.140646,-957.129040,-9781.858789
488.329057,-19.142581,-669.990328,-9667.003304
488.331555,-114.855485,-497.707101,-9647.860723
488.334053,-76.570323,-497.707101,-9667.003304
488.336551,-76.570323,-363.709035,-9762.716208
488.339049,-153.140646,-229.710970,-9609.575562
488.341547,-95.712904,-669.990328,-9456.434915
488.344044,-19.142581,-1359.123237,-9686.145885
488.346542,-114.855485,-1741.974853,-9647.860723
488.349040,-114.855485,-1799.402595,-9647.860723
488.351538,-153.140646,-1359.123237,-9628.718142
488.354036,-0.000000,-440.279358,-9858.429112
488.356534,-57.427742,-497.707101,-9035.298138
488.359032,-95.712904,-516.849682,-9839.286531
488.361530,-57.427742,-689.132909,-9858.429112
488.364028,-133.998066,-689.132909,-9303.294269
488.366526,-76.570323,-803.988394,-10049.854920
488.369024,-153.140646,-689.132909,-9284.151688
488.371521,-19.142581,-880.558717,-9418.149754
488.374019,-114.855485,-1186.840010,-9973.284597
488.376517,-191.425808,-1435.693560,-9552.147819
488.379034,-19.142581,-1397.408398,-9571.290400
488.381551,-114.855485,-842.273555,-9743.573627
488.384068,-172.283227,-593.420005,-9667.003304
488.386585,-19.142581,-880.558717,-9418.149754
488.389102,-172.283227,-784.845813,-9801.001370
488.391619,-76.570323,-842.273555,-9801.001370
488.394135,-133.998066,-803.988394,-9590.432981
488.396652,-95.712904,-555.134843,-9743.573627
488.399169,-95.712904,-555.134843,-9437.292334
488.401686,-0.000000,-1071.984525,-9513.862658
488.404203,-172.283227,-1684.547110,-9724.431046
488.406720,-133.998066,-1454.836141,-9781.858789
488.409237,-38.285162,-1014.556782,-9667.003304
488.411753,-172.283227,-574.277424,-9494.720077
488.414270,-76.570323,-248.853550,-9954.142016
488.416787,-95.712904,-631.705166,-9686.145885
488.419304,-38.285162,-1071.984525,-9226.723946
488.421821,-114.855485,-708.275490,-10164.710405
488.424338,-172.283227,-401.994197,-9877.571693
488.426855,-76.570323,-727.418070,-9207.581365
488.429372,38.285162,-1186.840010,-9456.434915
488.431888,-133.998066,-1493.121302,-9954.142016
488.434405,-172.283227,-1569.691626,-9724.431046
488.436922,-114.855485,-1129.412267,-9341.579430
488.439439,-19.142581,-784.845813,-9590.432981
488.441956,-95.712904,-593.420005,-9686.145885
488.444473,-76.570323,-669.990328,-9820.143950
488.446990,-95.712904,-1052.841944,-9667.003304
488.449506,-114.855485,-784.845813,-9590.432981
488.452023,-57.427742,-382.851616,-9667.003304
488.454540,-133.998066,-344.566454,-9513.862658
488.457057,-95.712904,-842.273555,-9552.147819
488.459588,-133.998066,-1493.121302,-9590.432981
488.462118,-76.570323,-1780.260014,-9781.858789
488.464649,-95.712904,-1512.263883,-9820.143950
488.467180,-172.283227,-708.275490,-9858.429112
488.469711,-38.285162,-669.990328,-9284.151688
488.472241,-0.000000,-727.418070,-9571.290400
488.474772,-153.140646,-229.710970,-10011.569758
488.477303,-114.855485,-535.992262,-9781.858789
488.479833,-114.855485,-593.420005,-9858.429112
488.482364,-133.998066,-784.845813,-9265.009107
488.484895,-0.000000,-880.558717,-9437.292334
488.487425,-172.283227,-1339.980656,-9801.001370
488.489956,-191.425808,-1875.972918,-9724.431046
488.492487,-19.142581,-1741.974853,-9705.288466
488.495017,-38.285162,-957.129040,-9820.143950
488.497548,-191.425808,-363.709035,-9590.432981
488.500079,-38.285162,-401.994197,-9647.860723
488.502610,-0.000000,-593.420005,-9533.005238
488.505140,-229.710970,-631.705166,-9781.858789
488.507671,-133.998066,-842.273555,-10068.997501
488.510202,-95.712904,-612.562586,-9265.009107
488.512732,-76.570323,-631.705166,-9533.005238
488.515263,-57.427742,-1282.552914,-9820.143950
488.517794,-57.427742,-1359.123237,-9456.434915
488.520324,-76.570323,-1167.697429,-9839.286531
488.522855,-133.998066,-1033.699363,-9781.858789
488.525386,-38.285162,-650.847747,-9475.577496
488.527916,-114.855485,-306.281293,-9686.145885
488.530447,-153.140646,-899.701298,-9839.286531
488.532978,-76.570323,-1129.412267,-9360.722011
488.535509,-114.855485,-689.132909,-9973.284597
488.538039,-133.998066,-382.851616,-9896.714274
488.540570,-0.000000,-401.994197,-9150.153622
488.543101,-38.285162,-899.701298,-9513.862658
488.545631,-133.998066,-1378.265818,-9973.284597
488.548162,-114.855485,-1856.830338,-9686.145885
488.550693,-76.570323,-1512.263883,-9475.577496
488.553223,-38.285162,-1071.984525,-9724.431046
488.555754,-76.570323,-497.707101,-9571.290400
488.558285,-0.000000,-497.707101,-9552.147819
488.560827,-153.140646,-708.275490,-9705.288466
488.563370,-0.000000,-669.990328,-9628.718142
488.565912,-38.285162,-478.564520,-9762.716208
488.568455,-133.998066,-248.853550,-9571.290400
488.570997,-76.570323,-746.560651,-9475.577496
488.573540,-133.998066,-1435.693560,-9686.145885
488.576083,-57.427742,-2105.683888,-9705.288466
488.578625,-114.855485,-1780.260014,-9705.288466
488.581168,-172.283227,-823.130974,-9762.716208
488.583710,-95.712904,-593.420005,-9494.720077
488.586253,-114.855485,-535.992262,-9609.575562
488.588795,-38.285162,-708.275490,-9858.429112
488.591338,-153.140646,-765.703232,-9724.431046
488.593880,-95.712904,-497.707101,-9686.145885
488.596423,-19.142581,-382.851616,-9475.577496
488.598965,-133.998066,-325.423874,-9667.003304
488.601508,-19.142581,-1225.125171,-9858.429112
488.604050,-172.283227,-1971.685822,-9552.147819
488.606593,-19.142581,-1856.830338,-9820.143950
488.609136,-133.998066,-1091.127106,-9781.858789
488.611678,-172.283227,-669.990328,-9475.577496
488.614221,19.142581,-574.277424,-9571.290400
488.616763,-153.140646,-459.421939,-9705.288466
488.619306,-153.140646,-650.847747,-9801.001370
488.621848,-95.712904,-631.705166,-9667.003304
488.624391,-133.998066,-344.566454,-9628.718142
488.626933,-19.142581,-784.845813,-9571.290400
488.629476,-95.712904,-1473.978722,-9513.862658
488.632018,-153.140646,-1837.687757,-9743.573627
488.634561,-0.000000,-1607.976787,-9858.429112
488.637104,-133.998066,-899.701298,-9513.862658
488.639646,-38.285162,-172.283227,-9571.290400
488.642189,-95.712904,-191.425808,-9494.720077
488.644731,-153.140646,-555.134843,-10049.854920
488.647274,-114.855485,-1052.841944,-9475.577496
488.649816,-38.285162,-1167.697429,-9801.001370
488.652359,-133.998066,-650.847747,-10126.425243
488.654901,-153.140646,-478.564520,-9245.866526
488.657444,-0.000000,-631.705166,-9303.294269
488.659986,-210.568389,-1033.699363,-10068.997501
488.662538,-57.427742,-1588.834206,-9781.858789
488.665089,-191.425808,-1435.693560,-9628.718142
488.667640,-57.427742,-1091.127106,-9724.431046
488.670191,-57.427742,-631.705166,-9552.147819
488.672743,-172.283227,-631.705166,-9647.860723
488.675294,-114.855485,-784.845813,-9839.286531
488.677845,-95.712904,-708.275490,-9628.718142
488.680396,-95.712904,-440.279358,-9781.858789
488.682948,-0.000000,-574.277424,-9647.860723
488.685499,-153.140646,-803.988394,-9226.723946
488.688050,-0.000000,-1435.693560,-9686.145885
488.690601,-153.140646,-1473.978722,-10049.854920
488.693152,-133.998066,-1397.408398,-9513.862658
488.695704,-114.855485,-842.273555,-9743.573627
488.698255,-57.427742,-823.130974,-9379.864592
488.700806,-0.000000,-937.986459,-9456.434915
488.703357,-172.283227,-784.845813,-10011.569758
488.705909,-95.712904,-842.273555,-9628.718142
488.708460,-114.855485,-612.562586,-9533.005238
488.711011,-172.283227,-76.570323,-9628.718142
488.713562,-133.998066,-363.709035,-9552.147819
488.716114,-38.285162,-1263.410333,-9571.290400
488.718665,-76.570323,-1818.545176,-9609.575562
488.721216,-0.000000,-1569.691626,-9915.856854
488.723767,-153.140646,-1052.841944,-9590.432981
488.726319,-95.712904,-918.843878,-9494.720077
488.728870,-114.855485,-631.705166,-9743.573627
488.731421,-172.283227,-497.707101,-9628.718142
488.733972,-114.855485,-746.560651,-9781.858789
488.736524,-57.427742,-880.558717,-9552.147819
488.739075,-153.140646,-440.279358,-9590.432981
488.741626,-57.427742,-421.136778,-9418.149754
488.744177,-114.855485,-1052.841944,-9494.720077
488.746728,-172.283227,-1493.121302,-9877.571693
488.749280,-38.285162,-1531.406464,-9858.429112
488.751831,-76.570323,-1282.552914,-9590.432981
488.754382,-76.570323,-803.988394,-9533.005238
488.756933,-95.712904,-650.847747,-9801.001370
488.759485,-172.283227,-593.420005,-9781.858789
488.762036,-19.142581,-823.130974,-9322.436850
488.764593,-133.998066,-363.709035,-9820.143950
488.767151,-172.283227,-19.142581,-9858.429112
488.769709,-0.000000,-612.562586,-9092.725880
488.772266,-19.142581,-1320.838075,-9418.149754
488.774824,-133.998066,-1952.543242,-10126.425243
488.777381,-57.427742,-1837.687757,-9609.575562
488.779939,-172.283227,-1225.125171,-9456.434915
488.782497,-0.000000,-440.279358,-9781.858789
488.785054,-133.998066,-95.712904,-9590.432981
488.787612,-38.285162,-401.994197,-9609.575562
488.790169,-172.283227,-746.560651,-9896.714274
488.792727,-133.998066,-784.845813,-9628.718142
488.795285,-114.855485,-823.130974,-9686.145885
488.797842,-95.712904,-842.273555,-9762.716208
488.800400,-114.855485,-899.701298,-9341.579430
488.802957,-57.427742,-1263.410333,-9724.431046
488.805515,-57.427742,-1550.549045,-9934.999435
488.808072,-19.142581,-1397.408398,-9494.720077
488.810630,-114.855485,-669.990328,-9667.003304
488.813188,-95.712904,-689.132909,-9552.147819
488.815745,-76.570323,-918.843878,-9379.864592
488.818303,-133.998066,-478.564520,-10011.569758
488.820860,-133.998066,-727.418070,-9915.856854
488.823418,-133.998066,-689.132909,-9399.007173
488.825976,-95.712904,-478.564520,-9533.005238
488.828533,-248.853550,-689.132909,-9839.286531
488.831091,133.998066,-1914.258080,-9839.286531
488.833648,-325.423874,-1990.828403,-9399.007173
488.836206,-0.000000,-1665.404530,-10049.854920
488.838763,-114.855485,-555.134843,-9686.145885
488.841321,-172.283227,-306.281293,-9265.009107
488.843879,-0.000000,-325.423874,-9820.143950
488.846436,-57.427742,-478.564520,-9858.429112
488.848994,-114.855485,-727.418070,-9494.720077
488.851551,-38.285162,-803.988394,-9781.858789
488.854109,-153.140646,-612.562586,-9418.149754
488.856667,-38.285162,-880.558717,-9379.864592
488.859224,-95.712904,-1186.840010,-9839.286531
488.861782,-153.140646,-1320.838075,-9724.431046
488.864339,-38.285162,-1339.980656,-9571.290400
488.866902,-76.570323,-880.558717,-9686.145885
488.869465,-57.427742,-535.992262,-9647.860723
488.872028,-114.855485,-631.705166,-9322.436850
488.874591,-114.855485,-1129.412267,-9934.999435
488.877154,-172.283227,-1052.841944,-9571.290400
488.879717,-0.000000,-708.275490,-9590.432981
488.882280,-0.000000,-478.564520,-10088.140082
488.884843,-153.140646,-363.709035,-9360.722011
488.887406,38.285162,-708.275490,-9207.581365
488.889969,-133.998066,-1378.265818,-10183.852986
488.892532,-38.285162,-1607.976787,-9705.288466
488.895095,-76.570323,-1454.836141,-9207.581365
488.897658,57.427742,-1435.693560,-9341.579430
488.900221,-363.709035,-823.130974,-10164.710405
488.902784,38.285162,-1148.554848,-9399.007173
488.905347,-153.140646,-842.273555,-9552.147819
488.907910,-57.427742,-593.420005,-10164.710405
488.910473,-133.998066,-76.570323,-9418.149754
488.913036,-95.712904,-19.142581,-9303.294269
488.915599,-57.427742,-535.992262,-9724.431046
488.918162,-114.855485,-937.986459,-9686.145885
488.920725,-133.998066,-1435.693560,-9705.288466
488.923288,-114.855485,-1473.978722,-9686.145885
488.925851,-38.285162,-1033.699363,-9820.143950
488.928414,-76.570323,-861.416136,-9265.009107
488.930976,-95.712904,-1091.127106,-9686.145885
488.933539,-114.855485,-574.277424,-10183.852986
488.936102,38.285162,-1091.127106,-9781.858789
488.938665,-76.570323,-1110.269686,-9915.856854
488.941228,-76.570323,-421.136778,-9552.147819
488.943791,-95.712904,-344.566454,-9590.432981
488.946354,-153.140646,-995.414202,-9896.714274
488.948917,-0.000000,-1588.834206,-9207.581365
488.951480,-95.712904,-1244.267752,-9992.427178
488.954043,-172.283227,-861.416136,-9896.714274
488.956606,-19.142581,-823.130974,-9169.296203
488.959169,-172.283227,-631.705166,-9915.856854
488.961732,-133.998066,-708.275490,-9934.999435
488.964295,-172.283227,-727.418070,-9494.720077
488.966858,-114.855485,-708.275490,-9954.142016
488.969388,-114.855485,-440.279358,-9513.862658
488.971918,-76.570323,-516.849682,-9399.007173
488.974447,-95.712904,-1244.267752,-9762.716208
488.976977,-38.285162,-1646.261949,-9437.292334
488.979507,-114.855485,-1531.406464,-9762.716208
488.982037,-133.998066,-1244.267752,-9839.286531
488.984567,-76.570323,-650.847747,-9437.292334
488.987096,-133.998066,-248.853550,-9858.429112
488.989626,-76.570323,-1014.556782,-9724.431046
488.992156,-172.283227,-976.271621,-9494.720077
488.994686,-95.712904,-689.132909,-9820.143950
488.997216,-133.998066,-114.855485,-9801.001370
488.999745,-57.427742,-114.855485,-9092.725880
489.002275,-57.427742,-899.701298,-9609.575562
489.004805,-95.712904,-1665.404530,-9743.573627
489.007335,-114.855485,-1971.685822,-9552.147819
489.009865,-133.998066,-1875.972918,-9820.143950
489.012395,-19.142581,-1359.123237,-9609.575562
489.014924,-57.427742,-516.849682,-9667.003304
489.017454,-76.570323,-478.564520,-9896.714274
489.019984,-95.712904,-421.136778,-9341.579430
489.022514,-38.285162,-382.851616,-9781.858789
489.025044,-95.712904,-306.281293,-9858.429112
489.027573,-172.283227,-478.564520,-9226.723946
489.030103,-38.285162,-1129.412267,-9686.145885
489.032633,-38.285162,-1837.687757,-9743.573627
489.035163,-95.712904,-1971.685822,-9533.005238
489.037693,-95.712904,-1320.838075,-10049.854920
489.040222,-153.140646,-267.996131,-9858.429112
489.042752,38.285162,-612.562586,-9054.440718
489.045282,-95.712904,-363.709035,-9820.143950
489.047812,-153.140646,-363.709035,-10126.425243
489.050342,-210.568389,-1091.127106,-9284.151688
489.052871,-95.712904,-1167.697429,-9724.431046
489.055401,-57.427742,-267.996131,-9820.143950
489.057931,-133.998066,-248.853550,-9628.718142
489.060461,-172.283227,-1186.840010,-9686.145885
489.062991,-0.000000,-1531.406464,-9284.151688
489.065520,-57.427742,-1148.554848,-10202.995566
489.068050,-172.283227,-995.414202,-9590.432981
