#time,accel_x,accel_y,accel_z
214.358126,2451.505594,-222.061783,9548.656652
214.358434,2451.505594,-222.061783,9696.697840
214.358742,2757.943793,-296.082377,9770.718434
214.359050,3064.381992,-148.041188,9622.677246
214.359358,3217.601092,-148.041188,9844.739029
214.359666,2834.553343,-0.000000,9252.574275
214.359974,2834.553343,518.144159,9178.553681
214.360282,3140.991542,1184.329507,9400.615463
214.360590,3294.210641,1406.391290,9030.512492
214.360898,3524.039291,1332.370696,8438.347739
214.361206,2911.162892,1480.411884,8290.306550
214.361513,2681.334243,1184.329507,9178.553681
214.361821,2221.676944,666.185348,10140.821405
214.362129,1532.190996,740.205942,10955.047942
214.362437,1378.971896,444.123565,10955.047942
214.362745,766.095498,-370.102971,10658.965565
214.363053,1149.143247,-666.185348,11325.150913
214.363361,995.924147,-1036.288319,11547.212695
214.363669,1149.143247,-1776.494261,11843.295072
214.363977,1532.190996,-2146.597232,11695.253884
214.364285,1302.362347,-2294.638420,11621.233289
214.364593,2451.505594,-1258.350101,10658.965565
214.364901,2987.772442,-814.226536,9844.739029
214.365209,4443.353888,-740.205942,10066.800811
214.365517,4290.134789,-148.041188,9030.512492
214.365825,4443.353888,-0.000000,9326.594869
214.366132,4519.963438,-370.102971,9030.512492
214.366440,4519.963438,-518.144159,8956.491898
214.366748,5132.839837,-0.000000,9178.553681
214.367056,5515.887586,296.082377,8142.265362
214.367364,5592.497135,444.123565,8290.306550
214.367672,5822.325785,444.123565,8290.306550
214.367980,6052.154434,962.267725,7772.162391
214.368288,6128.763984,1036.288319,7994.224174
214.368596,6128.763984,1110.308913,8290.306550
214.368904,6281.983084,1184.329507,8142.265362
214.369212,5898.935335,1110.308913,8142.265362
214.369520,6358.592633,1850.514855,8586.388927
214.369828,6052.154434,1480.411884,8142.265362
214.370136,6511.811733,1702.473667,8142.265362
214.370444,6281.983084,1776.494261,8512.368333
214.370752,6588.421283,1776.494261,8586.388927
214.371059,6205.373534,1850.514855,8882.471304
214.371367,5439.278036,1702.473667,9252.574275
214.371675,5822.325785,666.185348,9918.759623
214.371983,5209.449386,814.226536,9548.656652
214.372291,5132.839837,1110.308913,10288.862594
214.372599,3907.087040,-0.000000,10955.047942
214.372907,4060.306139,518.144159,11251.130318
214.373215,3140.991542,-148.041188,11029.068536
214.373523,2911.162892,-518.144159,11177.109724
214.373831,2987.772442,-444.123565,11769.274478
214.374139,2604.724693,-296.082377,11251.130318
214.374447,3370.820191,-148.041188,11547.212695
214.374755,3677.258390,-0.000000,10955.047942
214.375063,3677.258390,-0.000000,10658.965565
214.375371,3600.648841,148.041188,9992.780217
214.375678,4060.306139,296.082377,9696.697840
214.375986,4213.525239,222.061783,9770.718434
214.376294,4290.134789,-0.000000,9326.594869
214.376602,4519.963438,-0.000000,8956.491898
214.376910,4903.011187,-0.000000,8660.409521
214.377218,4519.963438,444.123565,8586.388927
214.377526,4596.572988,592.164754,8364.327145
214.377834,4596.572988,814.226536,7994.224174
214.378142,4443.353888,666.185348,7920.203579
214.378450,4060.306139,518.144159,7920.203579
214.378758,3830.477490,444.123565,8142.265362
214.379066,3217.601092,148.041188,8142.265362
214.379374,3140.991542,666.185348,8438.347739
214.379682,2451.505594,518.144159,8956.491898
214.379990,2221.676944,1036.288319,8586.388927
214.380298,2068.457845,1258.350101,8586.388927
214.380605,2145.067394,1554.432478,8512.368333
214.380913,1915.238745,1998.556043,8438.347739
214.381221,2145.067394,1332.370696,8956.491898
214.381529,1762.019645,1110.308913,9622.677246
214.381837,689.485948,-444.123565,10140.821405
214.382145,-459.657299,-1480.411884,11695.253884
214.382453,-1838.629195,-2590.720797,12213.398043
214.382761,-2834.553343,-4219.173869,13471.748144
214.383069,-3907.087040,-4737.318029,14137.933492
214.383377,-3677.258390,-5033.400406,14730.098246
214.383685,-2834.553343,-4959.379811,14211.954086
214.383993,-1838.629195,-4071.132681,12953.603985
214.384301,153.219100,-2368.659014,11621.233289
214.384609,1532.190996,-962.267725,9918.759623
214.384917,3370.820191,888.247130,8512.368333
214.385224,4213.525239,2072.576638,6957.935855
214.385532,4749.792088,2812.782580,6587.832884
214.385840,4673.182538,2960.823768,6439.791695
214.386148,4136.915689,3330.926739,5995.668130
214.386456,3447.429741,3182.885551,5773.606348
214.386764,2604.724693,3701.029710,5551.544565
214.387072,1838.629195,4071.132681,6143.709319
214.387380,1225.752797,4367.215058,6217.729913
214.387688,1072.533697,3701.029710,7550.100608
214.387996,612.876398,2590.720797,9326.594869
214.388304,229.828649,1258.350101,9622.677246
214.388612,-1608.800546,518.144159,9918.759623
214.388920,-1532.190996,-1406.391290,12435.459826
214.389228,-3294.210641,-2960.823768,14508.036463
214.389536,-4979.620737,-2960.823768,15248.242405
214.389844,-4903.011187,-4071.132681,15322.262999
214.390151,-4749.792088,-4811.338623,15840.407159
214.390459,-4213.525239,-5033.400406,15026.180623
214.390767,-2681.334243,-3701.029710,13249.686362
214.391075,-459.657299,-2886.803174,12435.459826
214.391383,919.314598,-1406.391290,9178.553681
214.391692,2681.334243,-0.000000,8734.430116
214.392000,4519.963438,1554.432478,8216.285956
214.392308,4136.915689,2590.720797,5477.523971
214.392616,4903.011187,3034.844362,5773.606348
214.392924,4826.401637,3923.091493,4663.297435
214.393232,4519.963438,4515.256246,4959.379811
214.393540,3830.477490,4737.318029,4071.132681
214.393848,4903.011187,4885.359217,5107.421000
214.394156,3753.867940,3849.070898,6809.894666
214.394464,1762.019645,2220.617826,6143.709319
214.394772,689.485948,666.185348,9474.636058
214.395080,-1532.190996,-1924.535449,11177.109724
214.395389,-2604.724693,-3552.988522,13545.768739
214.395697,-3600.648841,-4737.318029,14063.912898
214.396005,-3140.991542,-4811.338623,13841.851115
214.396313,-2604.724693,-4737.318029,13841.851115
214.396621,-612.876398,-3330.926739,12435.459826
214.396929,1072.533697,-1850.514855,11843.295072
214.397237,1991.848295,-666.185348,9918.759623
214.397545,3217.601092,-0.000000,9030.512492
214.397853,3524.039291,962.267725,8142.265362
214.398161,3677.258390,1998.556043,6809.894666
214.398469,3753.867940,2960.823768,6365.771101
214.398777,4519.963438,2960.823768,6365.771101
214.399085,4060.306139,3182.885551,5773.606348
214.399394,2987.772442,3330.926739,5625.565159
214.399702,3064.381992,2738.761985,7105.977043
214.400010,1991.848295,1850.514855,7994.224174
214.400318,383.047749,518.144159,9326.594869
214.400626,153.219100,-814.226536,11103.089130
214.400934,-842.705048,-2220.617826,12583.501014
214.401242,-1838.629195,-2368.659014,13323.706956
214.401550,-1838.629195,-2812.782580,13619.789333
214.401858,-1685.410096,-3108.864956,13619.789333
214.402166,-995.924147,-2664.741391,12731.542202
214.402474,-306.438199,-1924.535449,11991.336260
214.402782,842.705048,-1110.308913,10584.944971
214.403091,1608.800546,-0.000000,9104.533087
214.403399,2374.896044,1110.308913,7772.162391
214.403707,3524.039291,1628.453072,7624.121203
214.404015,3064.381992,3256.906145,6809.894666
214.404323,4136.915689,4293.194464,6809.894666
214.404631,3983.696590,4441.235652,5847.626942
214.404939,2757.943793,4367.215058,5773.606348
214.405247,2298.286494,2812.782580,7772.162391
214.405555,689.485948,2368.659014,8512.368333
214.405863,-536.266849,-0.000000,10807.006753
214.406171,-1915.238745,-740.205942,11769.274478
214.406479,-2298.286494,-1850.514855,13101.645173
214.406787,-2757.943793,-2738.761985,13767.830521
214.407096,-2068.457845,-2738.761985,13323.706956
214.407404,-1762.019645,-2442.679609,13101.645173
214.407712,-766.095498,-2072.576638,11991.336260
214.408020,153.219100,-1554.432478,11695.253884
214.408328,842.705048,-888.247130,9622.677246
214.408636,2681.334243,222.061783,9030.512492
214.408944,3064.381992,962.267725,7328.038826
214.409252,2681.334243,2368.659014,7328.038826
214.409560,3217.601092,2738.761985,7254.018232
214.409868,3064.381992,3552.988522,6143.709319
214.410176,2604.724693,3849.070898,6809.894666
214.410484,2068.457845,3034.844362,7328.038826
214.410793,995.924147,2146.597232,8290.306550
214.411101,-383.047749,814.226536,9770.718434
214.411409,-995.924147,-666.185348,11325.150913
214.411717,-2068.457845,-2146.597232,12805.562797
214.412025,-3447.429741,-3330.926739,13397.727550
214.412333,-3524.039291,-3923.091493,13989.892304
214.412641,-3447.429741,-4071.132681,14063.912898
214.412949,-2681.334243,-3478.967927,12953.603985
214.413257,-1838.629195,-2368.659014,11547.212695
214.413565,383.047749,-1850.514855,10288.862594
214.413873,842.705048,-444.123565,9104.533087
214.414181,1608.800546,370.102971,7328.038826
214.414489,3294.210641,2146.597232,6291.750507
214.414798,3524.039291,2738.761985,6143.709319
214.415106,4060.306139,3627.009116,5477.523971
214.415414,3830.477490,3849.070898,4885.359217
214.415722,3064.381992,3923.091493,5625.565159
214.416030,2451.505594,3849.070898,5847.626942
214.416338,1608.800546,2368.659014,7105.977043
214.416646,306.438199,1110.308913,8734.430116
214.416954,-1302.362347,-0.000000,10066.800811
214.417262,-2757.943793,-1184.329507,11547.212695
214.417570,-3064.381992,-2590.720797,13249.686362
214.417878,-3753.867940,-3034.844362,13619.789333
214.418186,-3600.648841,-3034.844362,13619.789333
214.418495,-2451.505594,-3478.967927,13471.748144
214.418803,-1991.848295,-2664.741391,12139.377449
214.419111,-766.095498,-1776.494261,11547.212695
214.419419,612.876398,-962.267725,10214.842000
214.419727,1302.362347,-0.000000,8956.491898
214.420035,1838.629195,1036.288319,7994.224174
214.420343,2681.334243,2072.576638,7772.162391
214.420651,2757.943793,3108.864956,6957.935855
214.420959,2987.772442,3849.070898,6587.832884
214.421267,2987.772442,3923.091493,6069.688724
214.421575,2987.772442,3923.091493,6587.832884
214.421883,2221.676944,2960.823768,7476.080014
214.422191,1072.533697,1998.556043,8660.409521
214.422500,-153.219100,444.123565,10214.842000
214.422808,-1378.971896,-1480.411884,11547.212695
214.423116,-3064.381992,-2442.679609,13471.748144
214.423424,-3294.210641,-3182.885551,14359.995275
214.423732,-3447.429741,-4441.235652,14359.995275
214.424040,-2987.772442,-3997.112087,14137.933492
214.424348,-1915.238745,-3256.906145,12731.542202
214.424656,-459.657299,-2220.617826,11843.295072
214.424964,919.314598,-888.247130,9326.594869
214.425272,2757.943793,1110.308913,7994.224174
214.425580,3370.820191,1998.556043,6883.915261
214.425888,3753.867940,2812.782580,6439.791695
214.426197,4826.401637,3404.947333,6439.791695
214.426505,3753.867940,3627.009116,5329.482782
214.426813,3447.429741,3923.091493,5477.523971
214.427121,3370.820191,3552.988522,6587.832884
214.427429,2451.505594,3108.864956,7254.018232
214.427737,1149.143247,1554.432478,8290.306550
214.428045,536.266849,148.041188,9992.780217
214.428353,-995.924147,-1332.370696,10658.965565
214.428661,-2145.067394,-2442.679609,11843.295072
214.428969,-2145.067394,-3478.967927,13841.851115
214.429277,-1991.848295,-3552.988522,13619.789333
214.429585,-1915.238745,-3552.988522,13249.686362
214.429893,-612.876398,-2590.720797,12139.377449
214.430202,919.314598,-1702.473667,11177.109724
214.430510,2145.067394,-740.205942,10214.842000
214.430818,2757.943793,222.061783,8660.409521
214.431126,3907.087040,1258.350101,8068.244768
214.431434,3294.210641,1776.494261,7402.059420
214.431742,4060.306139,2368.659014,7254.018232
214.432050,3830.477490,3182.885551,5995.668130
214.432358,3753.867940,3849.070898,6143.709319
214.432666,3524.039291,3775.050304,6883.915261
214.432974,2604.724693,3108.864956,7254.018232
214.433282,1915.238745,2442.679609,8364.327145
214.433590,306.438199,666.185348,10288.862594
214.433899,-1225.752797,-962.267725,11547.212695
214.434207,-2451.505594,-2368.659014,13175.665768
214.434515,-2911.162892,-3627.009116,14285.974681
214.434823,-3140.991542,-3775.050304,14508.036463
214.435131,-2298.286494,-3849.070898,13545.768739
214.435439,-1225.752797,-2738.761985,12657.521608
214.435747,229.828649,-2220.617826,11325.150913
214.436055,1455.581446,-0.000000,9622.677246
214.436363,2681.334243,740.205942,8512.368333
214.436671,3370.820191,1554.432478,7402.059420
214.436979,3600.648841,2442.679609,6513.812290
214.437287,3983.696590,3627.009116,5921.647536
214.437595,3600.648841,3701.029710,6069.688724
214.437904,2987.772442,4515.256246,5847.626942
214.438212,3140.991542,4589.276840,6143.709319
214.438520,2451.505594,3552.988522,6957.935855
214.438828,1225.752797,2442.679609,8290.306550
214.439136,-612.876398,1110.308913,9918.759623
214.439444,-1762.019645,-296.082377,11251.130318
214.439752,-2528.115143,-2220.617826,12657.521608
214.440060,-2681.334243,-3701.029710,13249.686362
214.440368,-3217.601092,-3627.009116,13693.809927
214.440676,-2374.896044,-4145.153275,14434.015869
214.440984,-1838.629195,-3627.009116,13101.645173
214.441292,-995.924147,-2072.576638,11843.295072
214.441601,459.657299,-1480.411884,10732.986159
214.441909,1915.238745,-296.082377,8882.471304
214.442217,2221.676944,1184.329507,7402.059420
214.442525,2681.334243,2072.576638,7105.977043
214.442833,2681.334243,2812.782580,6809.894666
214.443141,3140.991542,3627.009116,6291.750507
214.443449,2834.553343,4663.297435,5847.626942
214.443757,2528.115143,4293.194464,6143.709319
214.444065,1455.581446,3256.906145,7402.059420
214.444373,0.000000,1924.535449,8438.347739
214.444681,-1915.238745,-148.041188,10436.903782
214.444989,-3294.210641,-2294.638420,12657.521608
214.445297,-4213.525239,-3775.050304,13767.830521
214.445606,-4366.744339,-4071.132681,14359.995275
214.445914,-3140.991542,-4515.256246,14656.077652
214.446222,-3294.210641,-3997.112087,13397.727550
214.446530,-2145.067394,-3330.926739,12139.377449
214.446838,-459.657299,-2072.576638,10807.006753
214.447146,995.924147,-814.226536,9326.594869
214.447454,2451.505594,-0.000000,8068.244768
214.447762,3294.210641,740.205942,6439.791695
214.448070,3370.820191,2368.659014,6069.688724
214.448378,3217.601092,2590.720797,6439.791695
214.448686,3447.429741,3478.967927,5699.585753
214.448994,2987.772442,4219.173869,5625.565159
214.449302,2451.505594,3627.009116,6143.709319
214.449611,2145.067394,3330.926739,6809.894666
214.449919,995.924147,2146.597232,7624.121203
214.450227,0.000000,1036.288319,9770.718434
214.450535,-1302.362347,-444.123565,10881.027347
214.450843,-1838.629195,-1998.556043,12731.542202
214.451151,-2604.724693,-2886.803174,13693.809927
214.451459,-2757.943793,-3404.947333,14063.912898
214.451767,-2374.896044,-3849.070898,13693.809927
214.452075,-1455.581446,-3034.844362,12953.603985
214.452383,-153.219100,-2072.576638,11843.295072
214.452691,1915.238745,-1184.329507,10584.944971
214.452999,2911.162892,-222.061783,9326.594869
214.453308,2834.553343,1184.329507,8142.265362
214.453616,3370.820191,1628.453072,7254.018232
214.453924,4213.525239,2294.638420,7772.162391
214.454232,3600.648841,3182.885551,6513.812290
214.454540,3370.820191,4293.194464,5995.668130
214.454848,3907.087040,4145.153275,6957.935855
214.455156,2528.115143,3775.050304,6957.935855
214.455464,1532.190996,2738.761985,8438.347739
214.455772,459.657299,888.247130,10066.800811
214.456080,-842.705048,-518.144159,11473.192101
214.456388,-2451.505594,-2368.659014,12953.603985
214.456696,-2834.553343,-3404.947333,14063.912898
214.457004,-2757.943793,-4515.256246,14211.954086
214.457313,-2681.334243,-3997.112087,13619.789333
214.457621,-1225.752797,-3404.947333,13027.624579
214.457929,612.876398,-1998.556043,10658.965565
214.458237,2298.286494,-962.267725,10140.821405
214.458545,3217.601092,518.144159,8216.285956
214.458853,3524.039291,1480.411884,6883.915261
214.459161,4136.915689,2368.659014,7254.018232
214.459469,3907.087040,2886.803174,7105.977043
214.459777,4213.525239,3627.009116,6587.832884
214.460085,4366.744339,4293.194464,5255.462188
214.460393,3140.991542,4441.235652,6513.812290
214.460701,2374.896044,3923.091493,6661.853478
214.461010,1532.190996,3182.885551,7698.141797
214.461318,612.876398,1702.473667,9474.636058
214.461626,-1149.143247,-148.041188,10510.924376
214.461934,-2221.676944,-888.247130,12361.439231
214.462242,-2604.724693,-2960.823768,13101.645173
214.462550,-2451.505594,-3701.029710,13989.892304
214.462858,-2068.457845,-3478.967927,13471.748144
214.463166,-1149.143247,-3404.947333,12657.521608
214.463474,153.219100,-2738.761985,11917.315666
214.463782,1225.752797,-1924.535449,10510.924376
214.464090,2298.286494,-222.061783,9400.615463
214.464398,2681.334243,370.102971,7994.224174
214.464706,3140.991542,1258.350101,7105.977043
214.465015,3830.477490,2368.659014,6735.874072
214.465323,3447.429741,3108.864956,6587.832884
214.465631,2987.772442,3997.112087,6143.709319
214.465939,2528.115143,4145.153275,6143.709319
214.466247,1762.019645,3404.947333,6957.935855
214.466555,459.657299,2146.597232,8438.347739
214.466863,-306.438199,518.144159,10288.862594
214.467171,-1991.848295,-1776.494261,11769.274478
214.467479,-3064.381992,-2886.803174,13175.665768
214.467787,-4366.744339,-4441.235652,13841.851115
214.468095,-4213.525239,-4589.276840,14211.954086
214.468403,-3447.429741,-4071.132681,13841.851115
214.468712,-2374.896044,-3404.947333,12879.583391
214.469020,-919.314598,-2368.659014,11399.171507
214.469328,459.657299,-1554.432478,9400.615463
214.469636,1838.629195,518.144159,7772.162391
214.469944,3217.601092,1110.308913,7402.059420
214.470252,3294.210641,2220.617826,6957.935855
214.470560,3064.381992,2886.803174,6217.729913
214.470868,2681.334243,3552.988522,6217.729913
214.471176,2681.334243,3775.050304,6069.688724
214.471484,2374.896044,4219.173869,6291.750507
214.471792,2374.896044,4219.173869,7031.956449
214.472100,1302.362347,2590.720797,8068.244768
214.472408,0.000000,1258.350101,8882.471304
214.472717,-1838.629195,370.102971,11251.130318
214.473025,-2298.286494,-1036.288319,11843.295072
214.473333,-3217.601092,-2442.679609,13175.665768
214.473641,-3294.210641,-2960.823768,13841.851115
214.473949,-2987.772442,-3034.844362,13545.768739
214.474257,-1915.238745,-3478.967927,13841.851115
214.474565,-1532.190996,-2368.659014,12509.480420
214.474873,229.828649,-1850.514855,10881.027347
214.475181,1991.848295,-518.144159,9918.759623
214.475489,2834.553343,296.082377,8734.430116
214.475797,3447.429741,1554.432478,7846.182985
214.476105,3753.867940,2664.741391,6735.874072
214.476414,3753.867940,3330.926739,6661.853478
214.476722,4290.134789,4071.132681,5773.606348
214.477030,3064.381992,4515.256246,6661.853478
214.477338,2757.943793,3849.070898,7179.997637
214.477646,1302.362347,2442.679609,8216.285956
214.477954,0.000000,1110.308913,9696.697840
214.478262,-1762.019645,-962.267725,11399.171507
214.478570,-2757.943793,-2442.679609,13027.624579
214.478878,-3294.210641,-3775.050304,13767.830521
214.479186,-3677.258390,-4293.194464,13471.748144
214.479494,-2757.943793,-4145.153275,13767.830521
214.479802,-1149.143247,-3478.967927,13175.665768
214.480110,0.000000,-1998.556043,11769.274478
214.480419,1302.362347,-1406.391290,9844.739029
214.480727,2374.896044,222.061783,8142.265362
214.481035,3600.648841,1036.288319,7105.977043
214.481343,3524.039291,1702.473667,6513.812290
214.481651,3677.258390,2516.700203,7179.997637
214.481959,2757.943793,2886.803174,7031.956449
214.482267,3140.991542,3478.967927,5995.668130
214.482575,3140.991542,3627.009116,6291.750507
214.482883,2834.553343,3775.050304,6661.853478
214.483191,2145.067394,3256.906145,7254.018232
214.483499,1378.971896,2442.679609,8364.327145
214.483807,459.657299,962.267725,9400.615463
214.484116,-995.924147,-814.226536,10732.986159
214.484424,-1455.581446,-1628.453072,12287.418637
214.484732,-1608.800546,-2664.741391,13101.645173
214.485040,-2757.943793,-3034.844362,13693.809927
214.485348,-1991.848295,-3552.988522,13545.768739
214.485656,-1072.533697,-2812.782580,12657.521608
214.485964,383.047749,-2146.597232,11695.253884
214.486272,1378.971896,-888.247130,10140.821405
214.486580,2298.286494,148.041188,8734.430116
214.486888,2681.334243,1184.329507,7328.038826
214.487196,3753.867940,1776.494261,7179.997637
214.487504,3753.867940,3034.844362,6735.874072
214.487812,3677.258390,3849.070898,6365.771101
214.488121,3217.601092,4219.173869,6291.750507
214.488429,2451.505594,3627.009116,6883.915261
214.488737,1378.971896,2516.700203,8068.244768
214.489045,306.438199,666.185348,9548.656652
214.489353,-1302.362347,-1184.329507,11325.150913
214.489661,-2681.334243,-2886.803174,12879.583391
214.489969,-3370.820191,-3775.050304,13397.727550
214.490277,-3830.477490,-3997.112087,13841.851115
214.490585,-3064.381992,-4071.132681,13323.706956
214.490893,-1378.971896,-3256.906145,12805.562797
214.491201,-153.219100,-2368.659014,11177.109724
214.491509,1302.362347,-740.205942,9696.697840
214.491818,2528.115143,222.061783,7846.182985
214.492126,3217.601092,1702.473667,7031.956449
214.492434,3830.477490,1554.432478,6587.832884
214.492742,3294.210641,2664.741391,5847.626942
214.493050,3217.601092,2738.761985,6883.915261
214.493358,2298.286494,3182.885551,6735.874072
214.493666,2604.724693,3849.070898,6661.853478
214.493974,2604.724693,3256.906145,7179.997637
214.494282,1149.143247,3182.885551,7254.018232
214.494590,-153.219100,1776.494261,9104.533087
214.494898,-766.095498,518.144159,10584.944971
214.495206,-1915.238745,-1184.329507,12361.439231
214.495514,-2604.724693,-2368.659014,12879.583391
214.495822,-3064.381992,-2738.761985,14137.933492
214.496130,-2604.724693,-2886.803174,13767.830521
214.496438,-1225.752797,-2812.782580,13841.851115
214.496746,-536.266849,-2220.617826,12361.439231
214.497054,919.314598,-1036.288319,10732.986159
214.497362,2145.067394,-666.185348,10288.862594
214.497670,2298.286494,962.267725,7846.182985
214.497978,3064.381992,1406.391290,7994.224174
214.498286,3753.867940,2368.659014,6957.935855
214.498594,3830.477490,2886.803174,7031.956449
214.498902,2911.162892,3849.070898,6587.832884
214.499210,3294.210641,3849.070898,6069.688724
214.499518,2451.505594,2960.823768,7846.182985
214.499826,612.876398,2442.679609,8068.244768
214.500134,-459.657299,1332.370696,9770.718434
214.500441,-1991.848295,-666.185348,11251.130318
214.500749,-3064.381992,-2146.597232,12657.521608
214.501057,-3140.991542,-3404.947333,13545.768739
214.501365,-3753.867940,-3552.988522,13841.851115
214.501673,-2834.553343,-3923.091493,13471.748144
214.501981,-1838.629195,-3478.967927,12879.583391
214.502289,-995.924147,-2590.720797,12065.356855
214.502597,229.828649,-1776.494261,10362.883188
214.502905,1685.410096,-814.226536,8734.430116
214.503213,2681.334243,296.082377,7550.100608
214.503521,3983.696590,888.247130,6809.894666
214.503829,3907.087040,2146.597232,6661.853478
214.504137,4060.306139,2738.761985,5699.585753
214.504445,4136.915689,3330.926739,5403.503377
214.504753,3140.991542,4219.173869,4885.359217
214.505061,3217.601092,4367.215058,5847.626942
214.505368,2528.115143,3552.988522,6735.874072
214.505676,1225.752797,2664.741391,8068.244768
214.505984,0.000000,666.185348,10214.842000
214.506292,-2451.505594,-666.185348,11547.212695
214.506600,-2451.505594,-2368.659014,13471.748144
214.506908,-3600.648841,-3997.112087,14137.933492
214.507216,-3294.210641,-3775.050304,14434.015869
214.507524,-2221.676944,-3775.050304,14211.954086
214.507832,-1149.143247,-3108.864956,12805.562797
214.508140,306.438199,-2072.576638,11547.212695
214.508448,2298.286494,-888.247130,9918.759623
214.508756,3064.381992,148.041188,8364.327145
214.509064,3907.087040,1554.432478,6957.935855
214.509372,4596.572988,2812.782580,6957.935855
214.509680,4136.915689,3552.988522,6513.812290
214.509988,3677.258390,4219.173869,5847.626942
214.510295,3140.991542,4219.173869,6291.750507
214.510603,2374.896044,3849.070898,7031.956449
214.510911,1378.971896,2294.638420,7994.224174
214.511219,-229.828649,1110.308913,9770.718434
214.511527,-1149.143247,-296.082377,11177.109724
214.511835,-2298.286494,-2220.617826,12435.459826
214.512143,-3524.039291,-3256.906145,13323.706956
214.512451,-3370.820191,-3627.009116,13767.830521
214.512759,-2757.943793,-3627.009116,13545.768739
214.513067,-1762.019645,-3034.844362,12879.583391
214.513375,-766.095498,-2072.576638,11917.315666
214.513683,1455.581446,-1110.308913,9992.780217
214.513991,1991.848295,-222.061783,8660.409521
214.514299,2834.553343,-0.000000,7846.182985
214.514607,3370.820191,1036.288319,7179.997637
214.514915,3140.991542,1480.411884,6957.935855
214.515222,3217.601092,2146.597232,6809.894666
214.515530,2987.772442,2738.761985,6143.709319
214.515838,3140.991542,3330.926739,6143.709319
214.516146,2834.553343,3849.070898,6291.750507
214.516454,2451.505594,3404.947333,6809.894666
214.516762,1225.752797,3256.906145,8142.265362
214.517070,612.876398,1036.288319,9844.739029
214.517378,-1455.581446,-444.123565,11251.130318
214.517686,-2068.457845,-1776.494261,12805.562797
214.517994,-2528.115143,-2960.823768,13989.892304
214.518302,-3217.601092,-3478.967927,13989.892304
214.518610,-2451.505594,-2960.823768,14211.954086
214.518918,-1608.800546,-3108.864956,13323.706956
214.519226,0.000000,-2516.700203,11843.295072
214.519534,1455.581446,-1332.370696,9992.780217
214.519842,2451.505594,148.041188,8438.347739
214.520149,3600.648841,1258.350101,7550.100608
214.520457,4060.306139,2368.659014,6809.894666
214.520765,4136.915689,3627.009116,6069.688724
214.521073,3983.696590,4293.194464,6217.729913
214.521381,3370.820191,4071.132681,6143.709319
214.521689,2604.724693,3627.009116,6587.832884
214.521997,1685.410096,3034.844362,7772.162391
214.522305,-306.438199,1628.453072,9252.574275
214.522613,-1532.190996,-222.061783,11103.089130
214.522921,-2681.334243,-1850.514855,12657.521608
214.523229,-3370.820191,-3182.885551,13323.706956
214.523537,-4213.525239,-3256.906145,13471.748144
214.523845,-4060.306139,-4145.153275,13767.830521
214.524153,-2757.943793,-3404.947333,13545.768739
214.524461,-1455.581446,-2590.720797,12509.480420
214.524769,0.000000,-2368.659014,10955.047942
214.525076,919.314598,-592.164754,8956.491898
214.525384,2145.067394,-222.061783,8438.347739
214.525692,2374.896044,1110.308913,6957.935855
214.526000,3294.210641,1776.494261,6513.812290
214.526308,3217.601092,2516.700203,6513.812290
214.526616,2681.334243,3182.885551,5699.585753
214.526924,3370.820191,3775.050304,5847.626942
214.527232,3064.381992,4589.276840,5773.606348
214.527540,2681.334243,3478.967927,6809.894666
214.527848,1149.143247,2960.823768,7698.141797
214.528156,766.095498,1184.329507,9548.656652
214.528464,-1072.533697,-888.247130,11917.315666
214.528772,-2681.334243,-2664.741391,12805.562797
214.529080,-3447.429741,-3627.009116,14804.118840
214.529388,-3677.258390,-3923.091493,14211.954086
214.529695,-2834.553343,-3849.070898,14211.954086
214.530003,-1838.629195,-3330.926739,13175.665768
214.530311,0.000000,-2294.638420,11473.192101
214.530619,919.314598,-962.267725,9918.759623
214.530927,3140.991542,370.102971,8734.430116
214.531235,4136.915689,1406.391290,7550.100608
214.531543,4366.744339,2738.761985,6291.750507
214.531851,4366.744339,3701.029710,6365.771101
214.532159,4060.306139,4441.235652,5773.606348
214.532467,3677.258390,4367.215058,5847.626942
214.532775,3294.210641,3997.112087,6957.935855
214.533083,1302.362347,3034.844362,7920.203579
214.533391,0.000000,1406.391290,9474.636058
214.533699,-1455.581446,-740.205942,11251.130318
214.534007,-2681.334243,-2220.617826,12805.562797
214.534315,-3524.039291,-3108.864956,13545.768739
214.534622,-3753.867940,-3627.009116,14211.954086
214.534930,-3447.429741,-3627.009116,13619.789333
214.535238,-2068.457845,-2886.803174,13323.706956
214.535546,-689.485948,-2220.617826,11843.295072
214.535854,919.314598,-1480.411884,10584.944971
214.536162,1991.848295,-370.102971,8956.491898
214.536470,2451.505594,592.164754,7994.224174
214.536778,3140.991542,1036.288319,7179.997637
214.537086,2834.553343,1776.494261,6957.935855
214.537394,3294.210641,2294.638420,7031.956449
214.537702,3217.601092,2368.659014,6143.709319
214.538010,3600.648841,3701.029710,5699.585753
214.538318,3677.258390,3627.009116,6069.688724
214.538626,3524.039291,3701.029710,6439.791695
214.538934,2298.286494,2368.659014,8216.285956
214.539242,612.876398,962.267725,9326.594869
214.539549,-842.705048,-740.205942,10732.986159
214.539857,-2374.896044,-2294.638420,12287.418637
214.540165,-2451.505594,-3627.009116,13841.851115
214.540473,-2987.772442,-4145.153275,14211.954086
214.540781,-2834.553343,-3997.112087,13693.809927
214.541089,-1608.800546,-3478.967927,13323.706956
214.541397,-459.657299,-2294.638420,11917.315666
214.541705,919.314598,-888.247130,10140.821405
214.542013,2451.505594,296.082377,8660.409521
214.542321,3677.258390,1628.453072,7624.121203
214.542629,4903.011187,2516.700203,6809.894666
214.542937,4673.182538,3552.988522,5995.668130
214.543245,5209.449386,4663.297435,6143.709319
214.543553,3907.087040,4293.194464,5921.647536
214.543861,3217.601092,4441.235652,6439.791695
214.544169,1915.238745,2960.823768,7624.121203
214.544476,459.657299,1480.411884,9030.512492
214.544784,-1149.143247,-0.000000,10881.027347
214.545092,-2987.772442,-1406.391290,12879.583391
214.545400,-2757.943793,-3034.844362,13693.809927
214.545708,-3677.258390,-3849.070898,13619.789333
214.546016,-3447.429741,-3478.967927,13915.871710
214.546324,-2604.724693,-3404.947333,12953.603985
214.546632,-1378.971896,-2590.720797,12509.480420
214.546940,0.000000,-1110.308913,10732.986159
214.547248,1072.533697,-296.082377,9252.574275
214.547556,2374.896044,592.164754,8290.306550
214.547864,2681.334243,888.247130,7105.977043
214.548172,2834.553343,1554.432478,6735.874072
214.548480,3140.991542,1924.535449,7031.956449
214.548788,2987.772442,2738.761985,6291.750507
214.549096,3064.381992,3552.988522,5773.606348
214.549403,2911.162892,3923.091493,5477.523971
214.549711,2987.772442,3404.947333,6291.750507
214.550019,2451.505594,2294.638420,7254.018232
214.550327,383.047749,1184.329507,9474.636058
214.550635,-612.876398,-814.226536,11177.109724
214.550943,-1838.629195,-2368.659014,12583.501014
214.551251,-3064.381992,-3627.009116,13989.892304
214.551559,-3753.867940,-4145.153275,14656.077652
214.551867,-3217.601092,-3923.091493,14359.995275
214.552175,-2451.505594,-3256.906145,13841.851115
214.552483,-612.876398,-2220.617826,12213.398043
214.552791,995.924147,-1258.350101,10807.006753
214.553099,2145.067394,222.061783,8660.409521
214.553407,3064.381992,1702.473667,7550.100608
214.553715,4136.915689,2590.720797,6883.915261
214.554023,4443.353888,3478.967927,5921.647536
214.554330,4213.525239,4367.215058,5699.585753
214.554638,3753.867940,4441.235652,6143.709319
214.554946,2834.553343,3997.112087,7105.977043
214.555254,1149.143247,2664.741391,7698.141797
214.555562,153.219100,1628.453072,9474.636058
214.555870,-1838.629195,-370.102971,11473.192101
214.556178,-2681.334243,-1628.453072,12583.501014
214.556486,-3600.648841,-2886.803174,13989.892304
214.556794,-4136.915689,-3627.009116,13545.768739
214.557102,-3447.429741,-3552.988522,13545.768739
214.557410,-2298.286494,-3256.906145,13027.624579
214.557718,-842.705048,-2664.741391,11991.336260
214.558026,-383.047749,-1110.308913,10584.944971
214.558334,1302.362347,-962.267725,9548.656652
214.558642,1915.238745,-0.000000,7994.224174
214.558950,2451.505594,1184.329507,7105.977043
214.559257,3064.381992,1776.494261,7031.956449
214.559565,3294.210641,2590.720797,6587.832884
214.559873,3753.867940,2960.823768,5995.668130
214.560181,3983.696590,3552.988522,5403.503377
214.560489,3447.429741,4071.132681,5551.544565
214.560797,2834.553343,3849.070898,6661.853478
214.561105,1762.019645,2516.700203,7772.162391
214.561413,536.266849,740.205942,9696.697840
214.561721,-1225.752797,-962.267725,11473.192101
214.562029,-2221.676944,-2664.741391,13323.706956
214.562337,-3370.820191,-3923.091493,14730.098246
214.562645,-3600.648841,-4441.235652,14434.015869
214.562953,-2221.676944,-4071.132681,14359.995275
214.563261,-1838.629195,-3034.844362,13693.809927
214.563569,153.219100,-2220.617826,11843.295072
214.563877,1532.190996,-518.144159,9992.780217
214.564184,3140.991542,962.267725,7994.224174
214.564492,4596.572988,2146.597232,7105.977043
214.564800,4519.963438,3034.844362,7031.956449
214.565108,5056.230287,3404.947333,6439.791695
214.565416,4213.525239,3997.112087,5773.606348
214.565724,3907.087040,3923.091493,5995.668130
214.566032,2528.115143,3923.091493,6809.894666
214.566340,1915.238745,2960.823768,7550.100608
214.566648,536.266849,2072.576638,9400.615463
214.566956,-689.485948,148.041188,10658.965565
214.567264,-2068.457845,-1480.411884,12139.377449
214.567572,-2681.334243,-3256.906145,13545.768739
214.567880,-3753.867940,-3849.070898,13323.706956
214.568188,-3600.648841,-3627.009116,13545.768739
214.568496,-2681.334243,-3404.947333,13471.748144
214.568804,-1532.190996,-2738.761985,12879.583391
214.569111,-306.438199,-1776.494261,10955.047942
214.569419,689.485948,-814.226536,9474.636058
214.569727,2298.286494,-0.000000,8216.285956
214.570035,2834.553343,888.247130,7105.977043
214.570343,3524.039291,1406.391290,6587.832884
214.570651,3753.867940,2146.597232,6513.812290
214.570959,3677.258390,3182.885551,5847.626942
214.571267,3907.087040,3849.070898,5477.523971
214.571575,3600.648841,4293.194464,5403.503377
214.571883,2987.772442,3256.906145,6143.709319
214.572191,2451.505594,2294.638420,7476.080014
214.572499,1225.752797,666.185348,9252.574275
214.572807,-766.095498,-1628.453072,11029.068536
214.573115,-2681.334243,-3108.864956,12879.583391
214.573423,-3447.429741,-4367.215058,14656.077652
214.573730,-3983.696590,-4367.215058,14508.036463
214.574038,-3524.039291,-3997.112087,14434.015869
214.574346,-2145.067394,-3256.906145,13397.727550
214.574654,0.000000,-1924.535449,11843.295072
214.574962,536.266849,-444.123565,9844.739029
214.575270,3140.991542,1036.288319,8438.347739
214.575578,3600.648841,1998.556043,7402.059420
214.575886,4060.306139,2960.823768,6661.853478
214.576194,4060.306139,3923.091493,6069.688724
214.576502,3907.087040,4367.215058,6069.688724
214.576810,3370.820191,4145.153275,6365.771101
214.577118,2528.115143,3849.070898,6957.935855
214.577426,1225.752797,2516.700203,8290.306550
214.577734,306.438199,1628.453072,9252.574275
214.578042,-1378.971896,296.082377,10807.006753
214.578350,-2145.067394,-1480.411884,12213.398043
214.578657,-3294.210641,-2516.700203,13027.624579
214.578965,-3370.820191,-3034.844362,13323.706956
214.579273,-2911.162892,-3182.885551,13323.706956
214.579581,-2681.334243,-2960.823768,13619.789333
214.579889,-1915.238745,-2516.700203,12435.459826
214.580197,0.000000,-1184.329507,11695.253884
214.580505,536.266849,-1036.288319,9696.697840
214.580813,1149.143247,-444.123565,8364.327145
214.581121,1838.629195,444.123565,7920.203579
214.581429,2145.067394,1110.308913,7550.100608
214.581737,3217.601092,1850.514855,7031.956449
214.582045,3294.210641,3034.844362,6587.832884
214.582353,3294.210641,3849.070898,5403.503377
214.582661,3217.601092,4145.153275,5551.544565
214.582969,3140.991542,3775.050304,6217.729913
214.583277,2298.286494,2812.782580,7328.038826
214.583584,689.485948,888.247130,9030.512492
214.583892,-842.705048,-518.144159,10658.965565
214.584200,-1532.190996,-2812.782580,12657.521608
214.584508,-2987.772442,-4367.215058,14137.933492
214.584816,-3753.867940,-4293.194464,14656.077652
214.585124,-3217.601092,-4219.173869,14211.954086
214.585432,-1991.848295,-3182.885551,13175.665768
214.585740,-459.657299,-2368.659014,12287.418637
214.586048,919.314598,-962.267725,10732.986159
214.586356,2221.676944,-0.000000,8956.491898
214.586664,3370.820191,1554.432478,7772.162391
214.586972,4136.915689,2738.761985,6809.894666
214.587280,4213.525239,3701.029710,6069.688724
214.587588,4290.134789,4737.318029,5847.626942
214.587896,3983.696590,4663.297435,5773.606348
214.588204,2911.162892,4441.235652,6217.729913
214.588511,1915.238745,3478.967927,7105.977043
214.588819,842.705048,1998.556043,8808.450710
214.589127,-689.485948,-0.000000,10955.047942
214.589435,-2374.896044,-1702.473667,11621.233289
214.589743,-2987.772442,-3404.947333,13471.748144
214.590051,-3524.039291,-4145.153275,14063.912898
214.590359,-3524.039291,-4145.153275,13841.851115
214.590667,-2681.334243,-3849.070898,13915.871710
214.590975,-1685.410096,-2738.761985,12953.603985
214.591283,-229.828649,-1776.494261,11695.253884
214.591591,766.095498,-666.185348,9696.697840
214.591899,2221.676944,740.205942,8142.265362
214.592207,2987.772442,1776.494261,7179.997637
214.592515,3830.477490,1850.514855,6587.832884
214.592823,3370.820191,2812.782580,6439.791695
214.593131,3140.991542,3330.926739,6143.709319
214.593438,3294.210641,3775.050304,5625.565159
214.593746,2834.553343,3701.029710,5403.503377
214.594054,2451.505594,3330.926739,6513.812290
214.594362,1991.848295,2220.617826,8216.285956
214.594670,459.657299,444.123565,9622.677246
214.594978,-536.266849,-1184.329507,11103.089130
214.595286,-2221.676944,-2738.761985,12583.501014
214.595594,-3064.381992,-3923.091493,13841.851115
214.595902,-2834.553343,-4219.173869,14211.954086
214.596210,-2451.505594,-3627.009116,13693.809927
214.596517,-1072.533697,-2664.741391,13249.686362
214.596825,0.000000,-1628.453072,11547.212695
214.597133,1608.800546,-370.102971,9918.759623
214.597441,2681.334243,296.082377,8956.491898
214.597749,3370.820191,1406.391290,7698.141797
214.598057,3753.867940,2294.638420,7476.080014
214.598365,3907.087040,2960.823768,7105.977043
214.598673,3447.429741,3330.926739,6957.935855
214.598980,2987.772442,3997.112087,6735.874072
214.599288,3064.381992,4367.215058,6883.915261
214.599596,1991.848295,3330.926739,7624.121203
214.599904,536.266849,2220.617826,8808.450710
214.600212,-383.047749,592.164754,10288.862594
214.600520,-1608.800546,-888.247130,11547.212695
214.600828,-2834.553343,-2368.659014,12583.501014
214.601136,-2834.553343,-2812.782580,13545.768739
214.601444,-2528.115143,-3182.885551,13471.748144
214.601751,-2145.067394,-2886.803174,13471.748144
214.602059,-1378.971896,-2960.823768,12139.377449
214.602367,-612.876398,-2368.659014,11843.295072
214.602675,383.047749,-1480.411884,10140.821405
214.602983,1302.362347,-740.205942,8808.450710
214.603291,2451.505594,370.102971,8068.244768
214.603599,3217.601092,1184.329507,7105.977043
214.603907,2911.162892,1924.535449,6735.874072
214.604214,3447.429741,3478.967927,5847.626942
214.604522,3753.867940,4737.318029,5255.462188
214.604830,2987.772442,4885.359217,5477.523971
214.605138,2604.724693,4589.276840,5847.626942
214.605446,2145.067394,2960.823768,7254.018232
214.605754,612.876398,1258.350101,8734.430116
214.606062,-842.705048,-296.082377,10584.944971
214.606370,-1915.238745,-2812.782580,12213.398043
214.606678,-2987.772442,-4071.132681,14063.912898
214.606985,-3983.696590,-4441.235652,14508.036463
214.607293,-2528.115143,-4589.276840,14582.057057
214.607601,-2374.896044,-3701.029710,12879.583391
214.607909,-689.485948,-2812.782580,11917.315666
214.608217,995.924147,-1480.411884,10807.006753
214.608525,2451.505594,296.082377,8956.491898
214.608833,3830.477490,518.144159,7994.224174
214.609141,3983.696590,2738.761985,6957.935855
214.609448,4060.306139,3108.864956,7031.956449
214.609756,3677.258390,4219.173869,5995.668130
214.610064,3370.820191,4737.318029,6291.750507
214.610372,2451.505594,4293.194464,7105.977043
214.610680,1225.752797,3256.906145,7550.100608
214.610988,0.000000,1924.535449,9326.594869
214.611296,-1149.143247,-0.000000,10658.965565
214.611604,-2451.505594,-1184.329507,12065.356855
214.611912,-2987.772442,-2812.782580,12879.583391
214.612219,-3677.258390,-3404.947333,13767.830521
214.612527,-3294.210641,-3552.988522,13915.871710
214.612835,-2451.505594,-3256.906145,13249.686362
214.613143,-1378.971896,-2664.741391,12731.542202
214.613451,0.000000,-2220.617826,11547.212695
214.613759,1225.752797,-1406.391290,10362.883188
214.614067,2451.505594,-0.000000,8734.430116
214.614375,3140.991542,814.226536,7772.162391
214.614682,3217.601092,1998.556043,7031.956449
214.614990,3140.991542,2738.761985,6513.812290
214.615298,3677.258390,3404.947333,5921.647536
214.615606,3447.429741,4293.194464,5625.565159
214.615914,3370.820191,4589.276840,5477.523971
214.616222,2451.505594,3997.112087,5995.668130
214.616530,2298.286494,2516.700203,7328.038826
214.616838,612.876398,1110.308913,8882.471304
214.617146,-1072.533697,-592.164754,10584.944971
214.617453,-2528.115143,-2516.700203,12361.439231
214.617761,-3294.210641,-3627.009116,13693.809927
214.618069,-3140.991542,-4293.194464,14137.933492
214.618377,-2528.115143,-4663.297435,14211.954086
214.618685,-1608.800546,-3849.070898,13175.665768
214.618993,-459.657299,-2368.659014,11843.295072
214.619301,1532.190996,-2072.576638,11251.130318
214.619609,2757.943793,-296.082377,8882.471304
214.619916,3677.258390,962.267725,7550.100608
214.620224,4290.134789,1628.453072,7105.977043
214.620532,4060.306139,2738.761985,6513.812290
214.620840,4136.915689,3627.009116,6809.894666
214.621148,3140.991542,3849.070898,6069.688724
214.621456,1838.629195,4071.132681,6439.791695
214.621764,2145.067394,3478.967927,7254.018232
214.622072,766.095498,2664.741391,8290.306550
214.622380,-306.438199,1406.391290,9696.697840
214.622687,-1532.190996,-74.020594,10881.027347
214.622995,-2451.505594,-1554.432478,12361.439231
214.623303,-3447.429741,-3108.864956,13397.727550
214.623611,-2987.772442,-3552.988522,13915.871710
214.623919,-3064.381992,-3997.112087,13915.871710
214.624227,-1762.019645,-3775.050304,12731.542202
214.624535,-842.705048,-2664.741391,12213.398043
214.624843,383.047749,-1924.535449,10288.862594
214.625150,1838.629195,-444.123565,9030.512492
214.625458,2681.334243,222.061783,8068.244768
214.625766,3830.477490,1036.288319,7179.997637
214.626074,3677.258390,2368.659014,6513.812290
214.626382,3830.477490,3552.988522,5995.668130
214.626690,4060.306139,4367.215058,5329.482782
214.626998,3753.867940,5255.462188,5107.421000
214.627306,2911.162892,4959.379811,5773.606348
214.627614,2068.457845,3923.091493,7105.977043
214.627921,229.828649,2294.638420,8364.327145
214.628229,-995.924147,-370.102971,11029.068536
214.628537,-2604.724693,-2368.659014,12657.521608
214.628845,-3140.991542,-3701.029710,13989.892304
214.629153,-4060.306139,-4293.194464,14285.974681
214.629461,-3370.820191,-4441.235652,14434.015869
214.629769,-2298.286494,-3775.050304,13545.768739
214.630077,-459.657299,-2664.741391,12435.459826
214.630384,1378.971896,-1628.453072,11029.068536
214.630692,2451.505594,296.082377,9030.512492
214.631000,3600.648841,888.247130,7846.182985
214.631308,4366.744339,1702.473667,7031.956449
214.631616,4366.744339,2738.761985,6883.915261
214.631924,4213.525239,3330.926739,6439.791695
214.632232,3677.258390,3775.050304,6143.709319
214.632540,2681.334243,4071.132681,6513.812290
214.632848,1838.629195,3404.947333,7179.997637
214.633155,459.657299,3034.844362,8142.265362
214.633463,0.000000,1184.329507,9326.594869
214.633771,-1838.629195,-592.164754,10658.965565
214.634079,-2681.334243,-2220.617826,12213.398043
214.634387,-3294.210641,-3034.844362,13323.706956
214.634695,-3600.648841,-3627.009116,13915.871710
214.635003,-3140.991542,-3775.050304,14063.912898
214.635311,-2451.505594,-3404.947333,13101.645173
214.635618,-1225.752797,-2590.720797,12509.480420
214.635926,306.438199,-2516.700203,11103.089130
214.636234,1225.752797,-370.102971,8956.491898
214.636542,2145.067394,-222.061783,7550.100608
214.636850,3140.991542,1184.329507,7031.956449
214.637158,3600.648841,2442.679609,6587.832884
214.637466,3907.087040,3552.988522,5773.606348
214.637774,3753.867940,4219.173869,5107.421000
214.638082,3294.210641,4885.359217,5477.523971
214.638389,3064.381992,4737.318029,5477.523971
214.638697,1838.629195,3404.947333,7254.018232
214.639005,0.000000,1628.453072,8438.347739
214.639313,-1072.533697,-0.000000,10658.965565
214.639621,-2604.724693,-1554.432478,12139.377449
214.639929,-3600.648841,-3256.906145,13471.748144
214.640237,-3677.258390,-3997.112087,14211.954086
214.640545,-3294.210641,-3997.112087,13767.830521
214.640852,-2451.505594,-3552.988522,13323.706956
214.641160,-306.438199,-3034.844362,12435.459826
214.641468,919.314598,-1702.473667,10881.027347
214.641776,2298.286494,-592.164754,9030.512492
214.642084,3600.648841,222.061783,7994.224174
214.642392,4136.915689,1480.411884,7254.018232
214.642700,4366.744339,2220.617826,7402.059420
214.643008,3907.087040,2738.761985,6661.853478
214.643316,3677.258390,3478.967927,6365.771101
214.643623,3064.381992,3701.029710,6809.894666
214.643931,2451.505594,3701.029710,7328.038826
214.644239,1302.362347,2960.823768,8068.244768
214.644547,0.000000,1554.432478,9326.594869
214.644855,-766.095498,296.082377,11029.068536
214.645163,-1762.019645,-1406.391290,12065.356855
214.645471,-2757.943793,-2738.761985,13323.706956
214.645779,-3753.867940,-3256.906145,13915.871710
214.646086,-2834.553343,-4293.194464,13915.871710
214.646394,-2374.896044,-3478.967927,13323.706956
214.646702,-1149.143247,-2738.761985,12509.480420
214.647010,306.438199,-1924.535449,10955.047942
214.647318,1608.800546,-592.164754,9252.574275
214.647626,2987.772442,666.185348,8290.306550
214.647934,3753.867940,1332.370696,7105.977043
214.648242,4366.744339,2664.741391,6217.729913
214.648550,4749.792088,3701.029710,5699.585753
214.648857,4213.525239,4589.276840,5329.482782
214.649165,3600.648841,5255.462188,5033.400406
214.649473,3140.991542,4737.318029,5847.626942
214.649781,2068.457845,3775.050304,7179.997637
214.650089,306.438199,2294.638420,8734.430116
214.650397,-842.705048,370.102971,10436.903782
214.650705,-2145.067394,-1850.514855,12361.439231
214.651013,-2987.772442,-3034.844362,13841.851115
214.651320,-3907.087040,-4071.132681,14211.954086
214.651628,-3217.601092,-3775.050304,13915.871710
214.651936,-2068.457845,-3701.029710,13249.686362
214.652244,-612.876398,-2738.761985,12139.377449
214.652552,689.485948,-1554.432478,11103.089130
214.652860,2221.676944,-888.247130,9474.636058
214.653168,3064.381992,-222.061783,8586.388927
214.653476,3600.648841,1036.288319,7772.162391
214.653784,4060.306139,1850.514855,7105.977043
214.654091,3753.867940,2960.823768,6513.812290
214.654399,3753.867940,3701.029710,6365.771101
214.654707,2834.553343,4145.153275,6069.688724
214.655015,2374.896044,4071.132681,6735.874072
214.655323,1838.629195,2590.720797,7772.162391
214.655631,842.705048,1998.556043,9178.553681
214.655939,-536.266849,-296.082377,10362.883188
214.656247,-2298.286494,-1258.350101,11917.315666
214.656554,-3140.991542,-3256.906145,13619.789333
214.656862,-3677.258390,-3701.029710,14063.912898
214.657170,-3600.648841,-4145.153275,14137.933492
214.657478,-2604.724693,-3997.112087,13323.706956
214.657786,-1685.410096,-3034.844362,12435.459826
214.658094,383.047749,-2368.659014,11103.089130
214.658402,1608.800546,-1110.308913,8512.368333
214.658710,2604.724693,-0.000000,7994.224174
214.659018,2987.772442,1184.329507,7105.977043
214.659325,3753.867940,2368.659014,6365.771101
214.659633,3983.696590,3552.988522,5625.565159
214.659941,4136.915689,4515.256246,5033.400406
214.660249,3907.087040,4885.359217,5255.462188
214.660557,2987.772442,4515.256246,5625.565159
214.660865,2221.676944,3775.050304,7328.038826
214.661173,766.095498,1998.556043,8438.347739
214.661481,-689.485948,444.123565,10214.842000
214.661788,-1991.848295,-1406.391290,11843.295072
214.662096,-3217.601092,-2812.782580,12879.583391
214.662404,-3370.820191,-3775.050304,14137.933492
214.662712,-3370.820191,-4071.132681,13915.871710
214.663020,-2374.896044,-3849.070898,13693.809927
214.663328,-1302.362347,-2664.741391,12731.542202
214.663636,459.657299,-2146.597232,11695.253884
214.663944,1532.190996,-888.247130,9770.718434
214.664252,2374.896044,-0.000000,9030.512492
214.664559,3140.991542,1110.308913,7994.224174
214.664867,3370.820191,2294.638420,7476.080014
214.665175,3447.429741,3108.864956,7179.997637
214.665483,3907.087040,4293.194464,6291.750507
214.665791,2834.553343,4367.215058,6069.688724
214.666099,2604.724693,4219.173869,6735.874072
214.666407,1838.629195,3478.967927,7476.080014
214.666715,459.657299,1702.473667,9400.615463
214.667022,-1072.533697,-0.000000,10584.944971
214.667330,-2604.724693,-1924.535449,12583.501014
214.667638,-3217.601092,-3034.844362,13545.768739
214.667946,-3600.648841,-3849.070898,14359.995275
214.668254,-3370.820191,-4293.194464,14137.933492
214.668562,-2604.724693,-3478.967927,13471.748144
214.668870,-1608.800546,-2886.803174,12583.501014
214.669178,153.219100,-2294.638420,11103.089130
214.669486,1149.143247,-1184.329507,9178.553681
214.669793,2221.676944,370.102971,8438.347739
214.670101,2834.553343,962.267725,7254.018232
214.670409,3140.991542,2442.679609,6365.771101
214.670717,4519.963438,3627.009116,5921.647536
214.671025,4060.306139,4959.379811,5033.400406
214.671333,4213.525239,5329.482782,4885.359217
214.671641,4060.306139,4885.359217,5033.400406
214.671949,2681.334243,3997.112087,6439.791695
214.672256,1685.410096,1628.453072,8216.285956
214.672564,229.828649,-0.000000,9918.759623
214.672872,-1838.629195,-1628.453072,12139.377449
214.673180,-2834.553343,-3108.864956,13397.727550
214.673488,-3294.210641,-3923.091493,13989.892304
214.673796,-3217.601092,-3775.050304,13915.871710
214.674104,-2374.896044,-3849.070898,13767.830521
214.674412,-1072.533697,-3404.947333,13101.645173
214.674720,76.609550,-2738.761985,12139.377449
214.675027,1302.362347,-1924.535449,10214.842000
214.675335,2298.286494,-0.000000,8882.471304
214.675643,2681.334243,1036.288319,8290.306550
214.675951,3830.477490,2294.638420,7254.018232
214.676259,3600.648841,3478.967927,6439.791695
214.676567,3830.477490,4367.215058,5995.668130
214.676875,3677.258390,4515.256246,5847.626942
214.677183,3064.381992,4515.256246,6587.832884
214.677490,1991.848295,3256.906145,7402.059420
214.677798,459.657299,1702.473667,8734.430116
214.678106,-383.047749,370.102971,10288.862594
214.678414,-1838.629195,-1628.453072,11695.253884
214.678722,-2681.334243,-2886.803174,12953.603985
214.679030,-3524.039291,-3701.029710,13767.830521
214.679338,-3217.601092,-4071.132681,13693.809927
214.679646,-2681.334243,-3849.070898,13175.665768
214.679953,-1532.190996,-2664.741391,12731.542202
214.680261,-306.438199,-2442.679609,11621.233289
214.680569,1302.362347,-1036.288319,9548.656652
214.680877,2451.505594,222.061783,8142.265362
214.681185,2834.553343,1406.391290,7328.038826
214.681493,3677.258390,2220.617826,6735.874072
214.681801,4366.744339,3849.070898,6069.688724
214.682109,3447.429741,4367.215058,5551.544565
214.682417,3753.867940,4589.276840,5329.482782
214.682724,3524.039291,4219.173869,5995.668130
214.683032,1991.848295,3775.050304,7031.956449
214.683340,1225.752797,2368.659014,7994.224174
214.683648,0.000000,888.247130,9696.697840
214.683956,-1225.752797,-814.226536,11547.212695
214.684264,-2068.457845,-2738.761985,12805.562797
214.684572,-3217.601092,-3404.947333,13693.809927
214.684880,-2834.553343,-4293.194464,13841.851115
214.685187,-2451.505594,-4293.194464,13619.789333
214.685495,-1302.362347,-3108.864956,12657.521608
214.685803,306.438199,-2516.700203,11769.274478
214.686111,1455.581446,-962.267725,9992.780217
214.686419,2298.286494,-148.041188,8882.471304
214.686727,3140.991542,518.144159,7994.224174
214.687035,4060.306139,2368.659014,7328.038826
214.687343,4366.744339,3256.906145,6735.874072
214.687651,3600.648841,4441.235652,5847.626942
214.687958,3447.429741,4737.318029,6217.729913
214.688266,2528.115143,4441.235652,6291.750507
214.688574,1762.019645,3330.926739,7772.162391
214.688882,306.438199,1776.494261,8734.430116
214.689190,-612.876398,-0.000000,10214.842000
214.689498,-2221.676944,-1924.535449,12509.480420
214.689806,-4060.306139,-3849.070898,13471.748144
214.690114,-4213.525239,-3997.112087,14211.954086
214.690421,-3753.867940,-4441.235652,14137.933492
214.690729,-2681.334243,-3701.029710,13249.686362
214.691037,-1608.800546,-3182.885551,12213.398043
214.691345,0.000000,-2442.679609,11029.068536
214.691653,1685.410096,-962.267725,9474.636058
214.691961,2145.067394,370.102971,7772.162391
214.692269,2757.943793,1332.370696,7254.018232
214.692577,3830.477490,2516.700203,6587.832884
214.692885,4060.306139,3923.091493,5699.585753
214.693193,3753.867940,4737.318029,5181.441594
214.693501,3447.429741,4811.338623,5255.462188
214.693808,2757.943793,4589.276840,5921.647536
214.694116,2145.067394,3404.947333,7402.059420
214.694424,766.095498,2146.597232,8586.388927
214.694732,-459.657299,-0.000000,10362.883188
214.695040,-2528.115143,-1184.329507,12287.418637
214.695348,-2987.772442,-2812.782580,13323.706956
214.695656,-3217.601092,-3627.009116,14211.954086
214.695964,-3140.991542,-3701.029710,13989.892304
214.696272,-2374.896044,-3701.029710,13545.768739
214.696580,-1072.533697,-2886.803174,12731.542202
214.696888,612.876398,-2146.597232,11769.274478
214.697196,1838.629195,-888.247130,10140.821405
214.697504,2451.505594,-0.000000,8660.409521
214.697812,3370.820191,888.247130,7624.121203
214.698120,3830.477490,2072.576638,7105.977043
214.698428,3983.696590,3256.906145,6587.832884
214.698736,4366.744339,4071.132681,6143.709319
214.699044,4060.306139,4663.297435,5329.482782
214.699351,2987.772442,3923.091493,6365.771101
214.699659,2374.896044,2960.823768,7476.080014
214.699967,995.924147,2368.659014,8660.409521
214.700275,-306.438199,444.123565,10140.821405
214.700583,-1608.800546,-1406.391290,11843.295072
214.700891,-3140.991542,-2960.823768,13397.727550
214.701199,-3677.258390,-3849.070898,14063.912898
214.701507,-3140.991542,-4219.173869,14211.954086
214.701815,-3140.991542,-4441.235652,13989.892304
214.702123,-2145.067394,-3552.988522,12879.583391
214.702431,-842.705048,-3108.864956,11621.233289
214.702739,919.314598,-1036.288319,9770.718434
214.703047,2374.896044,592.164754,8068.244768
214.703355,3524.039291,1702.473667,7105.977043
214.703663,4366.744339,2664.741391,6439.791695
214.703971,4519.963438,3701.029710,5847.626942
214.704279,4290.134789,4589.276840,5107.421000
214.704587,3830.477490,4367.215058,5107.421000
214.704894,3064.381992,4441.235652,5625.565159
214.705202,2451.505594,3849.070898,6809.894666
214.705510,1072.533697,2442.679609,8216.285956
214.705818,-306.438199,666.185348,9696.697840
214.706126,-1532.190996,-962.267725,11473.192101
214.706434,-2374.896044,-2590.720797,12879.583391
214.706742,-3294.210641,-3478.967927,13989.892304
214.707050,-3217.601092,-4071.132681,13767.830521
214.707358,-2834.553343,-3923.091493,13841.851115
214.707666,-1915.238745,-3478.967927,13027.624579
214.707974,0.000000,-2516.700203,11917.315666
214.708282,995.924147,-1406.391290,10584.944971
214.708590,2374.896044,-296.082377,9178.553681
214.708898,3907.087040,888.247130,7994.224174
214.709206,3600.648841,1924.535449,7328.038826
214.709514,4366.744339,3330.926739,6809.894666
214.709822,3753.867940,4367.215058,5329.482782
214.710130,3753.867940,4441.235652,6735.874072
214.710437,3294.210641,3775.050304,6735.874072
214.710745,1072.533697,4071.132681,6661.853478
214.711053,1149.143247,1628.453072,9474.636058
214.711361,-1149.143247,444.123565,10140.821405
214.711669,-2451.505594,-1628.453072,12361.439231
214.711977,-3524.039291,-3034.844362,13545.768739
214.712285,-3830.477490,-3997.112087,14359.995275
214.712593,-3753.867940,-4219.173869,14211.954086
214.712901,-3064.381992,-3478.967927,13471.748144
214.713209,-1762.019645,-3256.906145,12879.583391
214.713517,-306.438199,-2294.638420,11103.089130
214.713825,919.314598,-740.205942,9696.697840
214.714133,3217.601092,888.247130,7698.141797
214.714441,3600.648841,1628.453072,6809.894666
214.714749,4136.915689,2368.659014,5773.606348
214.715057,4136.915689,3627.009116,5995.668130
214.715365,4213.525239,3775.050304,5847.626942
214.715673,3140.991542,4441.235652,5329.482782
214.715981,3370.820191,4737.318029,5995.668130
214.716288,2145.067394,3330.926739,7105.977043
214.716596,842.705048,2294.638420,8364.327145
214.716904,-229.828649,888.247130,9770.718434
214.717212,-1532.190996,-740.205942,11251.130318
214.717520,-2374.896044,-2442.679609,12731.542202
214.717828,-3140.991542,-3256.906145,13619.789333
214.718136,-2757.943793,-3775.050304,14211.954086
214.718444,-2681.334243,-4071.132681,13619.789333
214.718752,-1685.410096,-3478.967927,13249.686362
214.719060,-995.924147,-3034.844362,12065.356855
214.719368,612.876398,-1480.411884,11103.089130
214.719676,2145.067394,-74.020594,9326.594869
214.719984,3294.210641,1184.329507,7846.182985
214.720292,4213.525239,2220.617826,6735.874072
214.720600,4136.915689,3552.988522,5921.647536
214.720908,4213.525239,4441.235652,5403.503377
214.721216,3983.696590,4737.318029,5551.544565
214.721524,2451.505594,4071.132681,5995.668130
214.721831,2068.457845,2960.823768,7476.080014
214.722139,229.828649,1702.473667,8734.430116
214.722447,-1302.362347,-0.000000,10732.986159
214.722755,-2757.943793,-1850.514855,12583.501014
214.723063,-4060.306139,-3256.906145,13841.851115
214.723371,-4596.572988,-4145.153275,14434.015869
214.723679,-4213.525239,-4515.256246,14508.036463
214.723987,-2834.553343,-3997.112087,13545.768739
214.724295,-1149.143247,-3182.885551,12583.501014
214.724603,-153.219100,-1998.556043,11177.109724
214.724911,1532.190996,-444.123565,9030.512492
214.725219,2911.162892,888.247130,7624.121203
214.725527,3677.258390,1628.453072,6809.894666
214.725835,3447.429741,2738.761985,5921.647536
214.726143,4366.744339,3182.885551,6143.709319
214.726451,3830.477490,3849.070898,5403.503377
214.726759,3830.477490,4367.215058,5477.523971
214.727067,3294.210641,3923.091493,6365.771101
214.727374,2221.676944,3701.029710,7105.977043
214.727682,1532.190996,2442.679609,8290.306550
214.727990,153.219100,1258.350101,9474.636058
214.728298,0.000000,-444.123565,11177.109724
214.728606,-2221.676944,-2220.617826,12435.459826
214.728914,-2911.162892,-2516.700203,13767.830521
214.729222,-2911.162892,-3923.091493,13989.892304
214.729530,-2451.505594,-3775.050304,14063.912898
214.729838,-1991.848295,-3478.967927,13767.830521
214.730146,-919.314598,-2738.761985,12657.521608
214.730454,229.828649,-1702.473667,11103.089130
214.730762,1532.190996,-888.247130,9622.677246
214.731070,2911.162892,444.123565,8438.347739
214.731378,3370.820191,2220.617826,7328.038826
214.731686,4136.915689,3404.947333,6809.894666
214.731994,4136.915689,4293.194464,5625.565159
214.732302,3983.696590,4589.276840,5551.544565
214.732610,3370.820191,4367.215058,6143.709319
214.732918,2374.896044,3627.009116,7105.977043
214.733225,689.485948,2368.659014,8290.306550
214.733533,-995.924147,592.164754,9844.739029
214.733841,-2757.943793,-1332.370696,12065.356855
214.734149,-3600.648841,-3627.009116,13693.809927
214.734457,-4596.572988,-4145.153275,14508.036463
214.734765,-3753.867940,-4663.297435,14285.974681
214.735073,-3524.039291,-3923.091493,13397.727550
214.735381,-1838.629195,-3404.947333,12731.542202
214.735689,459.657299,-2738.761985,11695.253884
214.735997,995.924147,-888.247130,8660.409521
214.736305,2911.162892,148.041188,7772.162391
214.736613,3983.696590,1480.411884,7031.956449
214.736921,4213.525239,2442.679609,6069.688724
214.737229,4366.744339,2960.823768,5921.647536
214.737537,4136.915689,3849.070898,5255.462188
214.737845,3447.429741,4145.153275,5699.585753
214.738153,3064.381992,3923.091493,5773.606348
214.738461,2374.896044,3478.967927,7179.997637
214.738768,995.924147,2146.597232,8808.450710
214.739076,536.266849,1184.329507,9548.656652
214.739384,-995.924147,-444.123565,10881.027347
214.739692,-2145.067394,-1850.514855,12435.459826
214.740000,-2221.676944,-2812.782580,13397.727550
214.740308,-2451.505594,-3256.906145,13767.830521
214.740616,-1762.019645,-3627.009116,13841.851115
214.740924,-1149.143247,-3330.926739,12509.480420
214.741232,0.000000,-2664.741391,12065.356855
214.741540,1991.848295,-1184.329507,10955.047942
214.741848,2528.115143,-148.041188,9178.553681
214.742156,3447.429741,1184.329507,8216.285956
214.742464,3830.477490,2146.597232,7105.977043
214.742772,3983.696590,2812.782580,6439.791695
214.743080,4060.306139,3923.091493,6143.709319
214.743388,3370.820191,4293.194464,6513.812290
214.743696,3140.991542,3997.112087,6735.874072
214.744004,2451.505594,3108.864956,7328.038826
214.744311,229.828649,1776.494261,8882.471304
214.744619,-995.924147,370.102971,10140.821405
214.744927,-2528.115143,-1184.329507,12213.398043
214.745235,-3447.429741,-2442.679609,13249.686362
214.745543,-3983.696590,-3256.906145,13989.892304
214.745851,-3447.429741,-3701.029710,13767.830521
214.746159,-2374.896044,-3552.988522,13323.706956
214.746467,-1838.629195,-2960.823768,11991.336260
214.746775,-459.657299,-1702.473667,11103.089130
214.747083,1149.143247,-1036.288319,9696.697840
214.747391,2374.896044,-0.000000,8142.265362
214.747699,2681.334243,1110.308913,7254.018232
214.748007,3217.601092,1702.473667,6957.935855
214.748315,2757.943793,2516.700203,6365.771101
214.748623,3677.258390,2960.823768,5995.668130
214.748931,3524.039291,3997.112087,5625.565159
214.749239,2757.943793,4071.132681,5699.585753
214.749547,2451.505594,3849.070898,6661.853478
214.749854,1149.143247,2664.741391,7476.080014
214.750162,229.828649,1332.370696,9326.594869
214.750470,-1302.362347,-296.082377,11177.109724
214.750778,-2221.676944,-2072.576638,12879.583391
214.751086,-2987.772442,-3034.844362,13841.851115
214.751394,-3217.601092,-3775.050304,13767.830521
214.751702,-2528.115143,-3478.967927,13989.892304
214.752010,-1915.238745,-3627.009116,13323.706956
214.752318,-689.485948,-2960.823768,12361.439231
214.752626,1225.752797,-2146.597232,11177.109724
214.752934,2145.067394,-666.185348,9326.594869
214.753242,3217.601092,296.082377,8660.409521
214.753550,3600.648841,1480.411884,7254.018232
214.753858,4136.915689,2812.782580,6587.832884
214.754166,4596.572988,4071.132681,5921.647536
214.754474,4060.306139,4663.297435,5477.523971
214.754782,3294.210641,4441.235652,6069.688724
214.755090,2528.115143,3997.112087,7031.956449
214.755398,1302.362347,2812.782580,8586.388927
214.755705,-766.095498,518.144159,9696.697840
214.756013,-1915.238745,-888.247130,11621.233289
214.756321,-3600.648841,-2442.679609,13619.789333
214.756629,-3983.696590,-3478.967927,14211.954086
214.756937,-3830.477490,-3701.029710,13767.830521
214.757245,-3064.381992,-3627.009116,13693.809927
214.757553,-2068.457845,-3034.844362,12509.480420
214.757861,0.000000,-1998.556043,11473.192101
214.758169,1685.410096,-1110.308913,9770.718434
214.758477,1991.848295,-0.000000,8364.327145
214.758785,2604.724693,814.226536,7402.059420
214.759093,3524.039291,1850.514855,7031.956449
214.759401,3677.258390,2442.679609,6365.771101
214.759709,3370.820191,3256.906145,5995.668130
214.760017,3217.601092,3701.029710,5847.626942
214.760325,2987.772442,3849.070898,5995.668130
214.760633,2451.505594,3701.029710,6957.935855
214.760941,1838.629195,3034.844362,7846.182985
214.761248,766.095498,1702.473667,8808.450710
214.761556,-459.657299,296.082377,10436.903782
214.761864,-1225.752797,-962.267725,11621.233289
214.762172,-2145.067394,-2442.679609,12583.501014
214.762480,-2681.334243,-3256.906145,13693.809927
214.762788,-2451.505594,-3775.050304,13619.789333
214.763096,-2221.676944,-4071.132681,13915.871710
214.763404,-1225.752797,-3701.029710,12583.501014
214.763712,0.000000,-2072.576638,11547.212695
214.764020,1532.190996,-888.247130,9918.759623
214.764328,2528.115143,370.102971,8660.409521
214.764636,3524.039291,1702.473667,7698.141797
214.764944,3753.867940,2664.741391,6809.894666
214.765252,4136.915689,4219.173869,5847.626942
214.765560,3753.867940,4515.256246,5847.626942
214.765868,2681.334243,4145.153275,6069.688724
214.766176,2068.457845,3627.009116,6883.915261
214.766484,919.314598,2368.659014,8216.285956
214.766791,-766.095498,740.205942,9844.739029
214.767099,-2374.896044,-814.226536,11621.233289
214.767407,-3830.477490,-2590.720797,13249.686362
214.767715,-3830.477490,-3775.050304,13767.830521
214.768023,-3600.648841,-4515.256246,13915.871710
214.768331,-2451.505594,-3923.091493,13027.624579
214.768639,-1302.362347,-3108.864956,12435.459826
214.768947,-76.609550,-2516.700203,11177.109724
214.769255,1302.362347,-1332.370696,9474.636058
214.769563,2528.115143,-148.041188,8290.306550
214.769871,3524.039291,444.123565,7105.977043
214.770179,4213.525239,1850.514855,6735.874072
214.770487,3294.210641,2590.720797,6587.832884
214.770795,4060.306139,3256.906145,5847.626942
214.771103,3140.991542,3775.050304,5847.626942
214.771411,3294.210641,3849.070898,6217.729913
214.771719,2374.896044,3775.050304,6809.894666
214.772027,1685.410096,2590.720797,7402.059420
214.772334,1378.971896,1406.391290,9104.533087
214.772642,-995.924147,222.061783,10658.965565
214.772950,-1532.190996,-1924.535449,12435.459826
214.773258,-2681.334243,-2664.741391,13397.727550
214.773566,-2834.553343,-3478.967927,13915.871710
214.773874,-2757.943793,-3775.050304,14211.954086
214.774182,-2221.676944,-3627.009116,13767.830521
214.774490,-919.314598,-2960.823768,12583.501014
214.774798,536.266849,-1998.556043,11029.068536
214.775106,1685.410096,-740.205942,9474.636058
214.775414,2987.772442,444.123565,8660.409521
214.775722,3677.258390,1776.494261,7254.018232
214.776030,4060.306139,3034.844362,6735.874072
214.776338,4596.572988,4293.194464,6069.688724
214.776646,4060.306139,4737.318029,5699.585753
214.776954,3217.601092,4515.256246,6069.688724
214.777262,2451.505594,3849.070898,7179.997637
214.777570,1378.971896,2294.638420,7994.224174
214.777878,-612.876398,962.267725,10066.800811
214.778185,-2068.457845,-888.247130,11695.253884
214.778493,-3140.991542,-1924.535449,13323.706956
214.778801,-3830.477490,-3330.926739,13767.830521
214.779109,-3830.477490,-3478.967927,13841.851115
214.779417,-2911.162892,-3404.947333,13693.809927
214.779725,-2145.067394,-3034.844362,12879.583391
214.780033,-1532.190996,-2590.720797,11917.315666
214.780341,919.314598,-1554.432478,10658.965565
214.780649,1991.848295,-666.185348,8808.450710
214.780957,2374.896044,-0.000000,8068.244768
214.781265,2834.553343,888.247130,7698.141797
214.781573,3064.381992,1850.514855,7031.956449
214.781881,3217.601092,2516.700203,6365.771101
214.782189,3140.991542,3478.967927,6069.688724
214.782497,2911.162892,4219.173869,5995.668130
214.782805,3294.210641,4515.256246,6513.812290
214.783113,2681.334243,3404.947333,6883.915261
214.783421,1455.581446,2516.700203,8290.306550
214.783728,306.438199,1184.329507,9474.636058
214.784036,-995.924147,-370.102971,11251.130318
214.784344,-2221.676944,-2294.638420,12805.562797
214.784652,-3294.210641,-3775.050304,14137.933492
214.784960,-3064.381992,-3849.070898,14730.098246
214.785268,-2987.772442,-4441.235652,14211.954086
214.785576,-1685.410096,-3627.009116,13323.706956
214.785884,-306.438199,-2368.659014,11843.295072
214.786192,1225.752797,-1036.288319,10288.862594
214.786500,2528.115143,-0.000000,8660.409521
214.786808,3447.429741,1406.391290,7846.182985
214.787116,4366.744339,2590.720797,6883.915261
214.787424,3753.867940,3923.091493,6143.709319
214.787732,4290.134789,4515.256246,6143.709319
214.788040,3600.648841,4515.256246,6513.812290
214.788348,2528.115143,4219.173869,6883.915261
214.788656,995.924147,2812.782580,8142.265362
214.788964,-536.266849,1258.350101,9770.718434
214.789271,-1608.800546,-444.123565,11251.130318
214.789579,-3064.381992,-2442.679609,12361.439231
214.789887,-3830.477490,-3256.906145,13545.768739
214.790195,-3370.820191,-3849.070898,13397.727550
214.790503,-2681.334243,-3775.050304,13323.706956
214.790811,-1915.238745,-2960.823768,12213.398043
214.791119,-919.314598,-2738.761985,11547.212695
214.791427,459.657299,-1850.514855,10066.800811
214.791735,1532.190996,-444.123565,8660.409521
214.792043,2681.334243,518.144159,7624.121203
214.792351,2987.772442,962.267725,7105.977043
214.792659,3217.601092,1776.494261,6735.874072
214.792967,3447.429741,2294.638420,6143.709319
214.793275,3294.210641,3627.009116,5773.606348
214.793583,2757.943793,3923.091493,5773.606348
214.793891,2604.724693,3923.091493,6513.812290
214.794199,1838.629195,3034.844362,7328.038826
214.794507,919.314598,1924.535449,8734.430116
214.794814,-383.047749,-0.000000,10066.800811
214.795122,-995.924147,-1036.288319,11695.253884
214.795430,-2987.772442,-2886.803174,12731.542202
214.795738,-3064.381992,-3997.112087,14285.974681
214.796046,-2834.553343,-4219.173869,14137.933492
214.796354,-2298.286494,-4293.194464,13619.789333
214.796662,-1149.143247,-3404.947333,12731.542202
214.796970,153.219100,-2220.617826,11399.171507
214.797278,1532.190996,-814.226536,9696.697840
214.797586,2757.943793,740.205942,8438.347739
214.797894,4443.353888,2146.597232,7179.997637
214.798202,4596.572988,3330.926739,6365.771101
214.798510,4903.011187,4367.215058,5847.626942
214.798818,4290.134789,4737.318029,5403.503377
214.799126,3830.477490,4663.297435,6365.771101
214.799434,2681.334243,3552.988522,7254.018232
214.799742,1149.143247,2960.823768,8364.327145
214.800050,-842.705048,1258.350101,9696.697840
214.800358,-1838.629195,-222.061783,10955.047942
214.800667,-2757.943793,-1628.453072,12953.603985
214.800975,-3600.648841,-2738.761985,13767.830521
214.801283,-3447.429741,-3404.947333,13693.809927
214.801591,-2911.162892,-3330.926739,13249.686362
214.801899,-1991.848295,-3182.885551,12361.439231
214.802207,-689.485948,-2368.659014,11621.233289
214.802515,536.266849,-2072.576638,10362.883188
214.802823,1455.581446,-1110.308913,9104.533087
214.803131,2068.457845,-296.082377,8068.244768
214.803439,2528.115143,518.144159,7550.100608
214.803747,2681.334243,1702.473667,7179.997637
214.804055,2987.772442,2738.761985,6809.894666
214.804363,3064.381992,3627.009116,6365.771101
214.804671,2987.772442,4219.173869,5847.626942
214.804979,3600.648841,4219.173869,6217.729913
214.805287,2604.724693,3775.050304,7105.977043
214.805595,1532.190996,2812.782580,7920.203579
214.805903,459.657299,888.247130,9474.636058
214.806211,-1149.143247,-814.226536,11251.130318
214.806519,-2451.505594,-2516.700203,13027.624579
214.806827,-3294.210641,-3478.967927,14285.974681
214.807135,-3294.210641,-4737.318029,14508.036463
214.807443,-2604.724693,-4515.256246,13915.871710
214.807752,-1302.362347,-3478.967927,13027.624579
214.808060,-229.828649,-2886.803174,11843.295072
214.808368,1149.143247,-1332.370696,10288.862594
214.808676,2451.505594,-0.000000,8882.471304
214.808984,3753.867940,1480.411884,7698.141797
214.809292,4443.353888,3034.844362,7031.956449
214.809600,4596.572988,3849.070898,5847.626942
214.809908,4443.353888,4959.379811,5329.482782
214.810216,3524.039291,5329.482782,6217.729913
214.810524,2451.505594,4293.194464,6809.894666
214.810832,1762.019645,3034.844362,7994.224174
214.811140,0.000000,1480.411884,9400.615463
214.811448,-1608.800546,-148.041188,11177.109724
214.811756,-2834.553343,-2146.597232,12657.521608
214.812064,-3677.258390,-2886.803174,13619.789333
214.812372,-3600.648841,-3627.009116,13841.851115
214.812680,-3677.258390,-3627.009116,13693.809927
214.812988,-2298.286494,-3034.844362,13027.624579
214.813296,-995.924147,-2368.659014,11843.295072
214.813604,383.047749,-1924.535449,10881.027347
214.813912,1072.533697,-1036.288319,9178.553681
214.814220,1915.238745,-370.102971,8142.265362
214.814528,2528.115143,888.247130,8068.244768
214.814836,2911.162892,1776.494261,7179.997637
214.815145,2681.334243,2812.782580,6661.853478
214.815453,2987.772442,3923.091493,5773.606348
214.815761,3677.258390,4737.318029,5921.647536
214.816069,3140.991542,4515.256246,5995.668130
214.816377,2145.067394,3849.070898,6365.771101
214.816685,1915.238745,2072.576638,8290.306550
214.816993,306.438199,592.164754,9622.677246
214.817301,-1302.362347,-1184.329507,11547.212695
214.817609,-2757.943793,-2886.803174,13101.645173
214.817917,-3140.991542,-3627.009116,13915.871710
214.818225,-3217.601092,-4219.173869,14211.954086
214.818533,-2604.724693,-4219.173869,13471.748144
214.818841,-1685.410096,-3701.029710,13175.665768
214.819149,-536.266849,-3108.864956,12139.377449
214.819457,1149.143247,-1184.329507,10510.924376
214.819765,2145.067394,-222.061783,8882.471304
214.820073,3217.601092,1036.288319,7846.182985
214.820381,3830.477490,2960.823768,6809.894666
214.820689,4519.963438,4367.215058,5847.626942
214.820997,4519.963438,5033.400406,5625.565159
214.821305,3600.648841,5033.400406,5699.585753
214.821613,2528.115143,4367.215058,6883.915261
214.821921,1608.800546,3182.885551,8290.306550
214.822230,229.828649,1702.473667,9400.615463
214.822538,-1532.190996,-148.041188,11029.068536
214.822846,-2911.162892,-1480.411884,12139.377449
214.823154,-3677.258390,-2590.720797,13101.645173
214.823462,-3753.867940,-3182.885551,13841.851115
214.823770,-3217.601092,-3330.926739,13619.789333
214.824078,-2221.676944,-3256.906145,13101.645173
214.824386,-1685.410096,-2516.700203,12361.439231
214.824694,-306.438199,-2442.679609,10881.027347
214.825002,1532.190996,-1258.350101,9474.636058
214.825310,2221.676944,-74.020594,8068.244768
214.825618,2834.553343,1110.308913,7624.121203
214.825926,3447.429741,2220.617826,6735.874072
214.826234,3983.696590,2886.803174,5847.626942
214.826542,4060.306139,4071.132681,5477.523971
214.826850,3983.696590,4885.359217,5107.421000
214.827158,3600.648841,4367.215058,5403.503377
214.827466,2681.334243,3404.947333,6439.791695
214.827774,1608.800546,2442.679609,7698.141797
214.828082,0.000000,962.267725,9548.656652
214.828390,-1302.362347,-1110.308913,11473.192101
214.828698,-2221.676944,-2812.782580,13027.624579
214.829006,-3217.601092,-3849.070898,14063.912898
214.829315,-3140.991542,-4441.235652,14285.974681
214.829623,-2451.505594,-4737.318029,13841.851115
214.829931,-1685.410096,-4145.153275,13471.748144
214.830239,0.000000,-2812.782580,11843.295072
214.830547,1608.800546,-1184.329507,10362.883188
214.830855,2757.943793,370.102971,8512.368333
214.831163,3524.039291,1258.350101,7476.080014
214.831471,4673.182538,2442.679609,6143.709319
214.831779,4290.134789,4367.215058,6069.688724
214.832087,4366.744339,4293.194464,5995.668130
214.832395,3294.210641,4589.276840,6069.688724
214.832703,2604.724693,4219.173869,7179.997637
214.833011,1455.581446,3256.906145,7846.182985
214.833319,-306.438199,1776.494261,9474.636058
214.833627,-1455.581446,-148.041188,11547.212695
214.833935,-2681.334243,-1332.370696,12731.542202
214.834243,-3370.820191,-2368.659014,13323.706956
214.834551,-3370.820191,-3034.844362,13693.809927
214.834859,-2987.772442,-3034.844362,13249.686362
214.835167,-2298.286494,-2886.803174,12953.603985
214.835475,-995.924147,-2516.700203,11843.295072
214.835783,229.828649,-1998.556043,10881.027347
214.836091,995.924147,-1184.329507,9622.677246
214.836399,2374.896044,-0.000000,8734.430116
214.836708,2681.334243,888.247130,7698.141797
214.837016,2757.943793,1702.473667,7031.956449
214.837324,3370.820191,2516.700203,6291.750507
214.837632,3907.087040,3849.070898,5699.585753
214.837940,4060.306139,4367.215058,5477.523971
214.838248,3294.210641,4367.215058,5625.565159
214.838556,2911.162892,3775.050304,6661.853478
214.838864,1225.752797,2368.659014,8068.244768
214.839172,306.438199,148.041188,9918.759623
214.839480,-1225.752797,-1258.350101,11325.150913
214.839788,-2757.943793,-2664.741391,13027.624579
214.840096,-2987.772442,-4071.132681,14211.954086
214.840404,-3447.429741,-4515.256246,14582.057057
214.840712,-2834.553343,-4663.297435,14137.933492
214.841020,-2374.896044,-3923.091493,13397.727550
214.841328,0.000000,-2516.700203,12139.377449
214.841636,1762.019645,-1702.473667,10066.800811
214.841944,2834.553343,592.164754,8660.409521
214.842252,4136.915689,1776.494261,7105.977043
214.842560,4596.572988,3478.967927,6217.729913
214.842868,4673.182538,4367.215058,5699.585753
214.843176,4596.572988,4885.359217,5625.565159
214.843484,3370.820191,4737.318029,5921.647536
214.843793,2298.286494,3997.112087,6587.832884
214.844101,1072.533697,3034.844362,8290.306550
214.844409,76.609550,1406.391290,9696.697840
214.844717,-1915.238745,-0.000000,10955.047942
214.845025,-2987.772442,-1406.391290,12361.439231
214.845333,-3447.429741,-2442.679609,13397.727550
214.845641,-3447.429741,-3182.885551,13693.809927
214.845949,-2987.772442,-3404.947333,13471.748144
214.846257,-2681.334243,-3404.947333,12879.583391
214.846565,-689.485948,-3256.906145,11769.274478
214.846873,0.000000,-2294.638420,11103.089130
214.847181,1378.971896,-1480.411884,9474.636058
214.847489,1838.629195,-0.000000,8068.244768
214.847797,2604.724693,814.226536,7328.038826
214.848105,3140.991542,1924.535449,6735.874072
214.848413,3907.087040,2664.741391,6365.771101
214.848721,4213.525239,3330.926739,5625.565159
214.849029,3447.429741,3997.112087,5255.462188
214.849337,3600.648841,3404.947333,5921.647536
214.849645,2374.896044,3256.906145,6661.853478
214.849953,1378.971896,2072.576638,8364.327145
214.850261,-153.219100,296.082377,9622.677246
214.850569,-1302.362347,-1184.329507,11473.192101
214.850878,-2451.505594,-3256.906145,13027.624579
214.851186,-3677.258390,-3849.070898,14063.912898
214.851494,-2911.162892,-4515.256246,14359.995275
214.851802,-2451.505594,-4441.235652,13915.871710
214.852110,-1225.752797,-3478.967927,13101.645173
214.852418,0.000000,-2368.659014,11843.295072
214.852726,1838.629195,-888.247130,10066.800811
214.853034,3140.991542,444.123565,8290.306550
214.853342,3983.696590,1850.514855,7254.018232
214.853650,4673.182538,2664.741391,6735.874072
214.853958,4136.915689,3775.050304,6069.688724
214.854266,3907.087040,3775.050304,5995.668130
214.854574,3217.601092,4367.215058,6513.812290
214.854882,1991.848295,4219.173869,7105.977043
214.855190,1149.143247,3108.864956,8142.265362
214.855498,0.000000,2294.638420,9326.594869
214.855806,-1455.581446,222.061783,11251.130318
214.856114,-2298.286494,-814.226536,12509.480420
214.856422,-3217.601092,-2368.659014,13249.686362
214.856730,-3140.991542,-2960.823768,13841.851115
214.857038,-3064.381992,-3182.885551,13397.727550
214.857346,-2298.286494,-3034.844362,13027.624579
214.857654,-1532.190996,-2886.803174,12361.439231
214.857962,0.000000,-2294.638420,11695.253884
214.858271,842.705048,-1480.411884,9474.636058
214.858579,1149.143247,-370.102971,8364.327145
214.858887,3217.601092,222.061783,7846.182985
214.859195,2911.162892,1850.514855,6809.894666
214.859503,3447.429741,2664.741391,6069.688724
214.859811,3677.258390,3849.070898,5699.585753
214.860119,3907.087040,4663.297435,5329.482782
214.860427,2757.943793,4737.318029,5477.523971
214.860735,2604.724693,3701.029710,6439.791695
214.861043,1302.362347,2368.659014,7846.182985
214.861351,0.000000,296.082377,9918.759623
214.861659,-2145.067394,-1258.350101,11103.089130
214.861967,-2834.553343,-2886.803174,12953.603985
214.862275,-3753.867940,-3997.112087,14285.974681
214.862583,-3524.039291,-4737.318029,14211.954086
214.862891,-2834.553343,-4663.297435,13915.871710
214.863199,-1762.019645,-3627.009116,13323.706956
214.863507,-383.047749,-2812.782580,11695.253884
214.863815,1455.581446,-1554.432478,10288.862594
214.864123,3064.381992,222.061783,8882.471304
214.864431,3907.087040,1406.391290,7550.100608
214.864739,4366.744339,2590.720797,6439.791695
214.865047,4366.744339,3923.091493,6069.688724
214.865356,4290.134789,4219.173869,6069.688724
214.865664,3753.867940,4663.297435,6291.750507
214.865972,2451.505594,3923.091493,7105.977043
214.866280,1378.971896,3849.070898,7920.203579
214.866588,612.876398,2516.700203,9030.512492
214.866896,-766.095498,814.226536,10362.883188
214.867204,-1762.019645,-962.267725,11695.253884
214.867512,-2834.553343,-1998.556043,12953.603985
214.867820,-3140.991542,-2738.761985,13471.748144
214.868128,-3064.381992,-3182.885551,13619.789333
214.868436,-1838.629195,-2812.782580,13027.624579
214.868744,-995.924147,-3108.864956,12435.459826
214.869052,0.000000,-2146.597232,11621.233289
214.869360,766.095498,-1776.494261,9992.780217
214.869668,1685.410096,-296.082377,8660.409521
214.869976,2451.505594,518.144159,8142.265362
214.870284,3064.381992,1184.329507,7476.080014
214.870592,3447.429741,2442.679609,6513.812290
214.870900,3983.696590,3256.906145,5921.647536
214.871208,3524.039291,3997.112087,5255.462188
214.871516,3294.210641,4663.297435,5625.565159
214.871824,2528.115143,3923.091493,6365.771101
214.872132,1608.800546,2590.720797,7624.121203
214.872440,0.000000,740.205942,9326.594869
214.872749,-1072.533697,-1184.329507,11399.171507
214.873057,-2451.505594,-2886.803174,12731.542202
214.873365,-2834.553343,-4293.194464,13619.789333
214.873673,-3753.867940,-4367.215058,14211.954086
214.873981,-2757.943793,-4367.215058,13693.809927
214.874289,-1685.410096,-3701.029710,13027.624579
214.874597,76.609550,-2590.720797,11843.295072
214.874905,1532.190996,-1554.432478,9992.780217
214.875213,2757.943793,-0.000000,9104.533087
214.875521,3217.601092,814.226536,7624.121203
214.875829,3753.867940,2368.659014,6883.915261
214.876137,4290.134789,3478.967927,6661.853478
214.876445,3830.477490,4145.153275,6069.688724
214.876753,3140.991542,4367.215058,6365.771101
214.877061,2451.505594,4219.173869,6957.935855
214.877369,1455.581446,3404.947333,7624.121203
214.877677,459.657299,2294.638420,9326.594869
214.877985,-1685.410096,666.185348,10584.944971
214.878293,-2298.286494,-888.247130,12065.356855
214.878601,-3140.991542,-2072.576638,12879.583391
214.878909,-3524.039291,-2738.761985,13471.748144
214.879217,-2834.553343,-3034.844362,13323.706956
214.879525,-2374.896044,-2960.823768,13101.645173
214.879834,-1455.581446,-2664.741391,12509.480420
214.880142,0.000000,-2590.720797,11251.130318
214.880450,1072.533697,-1480.411884,10362.883188
214.880758,2374.896044,-814.226536,8660.409521
214.881066,2221.676944,962.267725,7328.038826
214.881374,3524.039291,1628.453072,7550.100608
214.881682,3524.039291,2960.823768,6291.750507
214.881990,3524.039291,3849.070898,5921.647536
214.882298,3677.258390,4737.318029,5255.462188
214.882606,2987.772442,4959.379811,5625.565159
214.882914,2221.676944,3552.988522,6661.853478
214.883222,1685.410096,2516.700203,7698.141797
214.883530,0.000000,592.164754,9622.677246
214.883838,-2068.457845,-1332.370696,11325.150913
214.884146,-2834.553343,-2960.823768,13397.727550
214.884454,-3447.429741,-3923.091493,14285.974681
214.884762,-3447.429741,-4441.235652,14211.954086
214.885070,-2604.724693,-4293.194464,13767.830521
214.885378,-2221.676944,-3552.988522,12583.501014
214.885686,536.266849,-2516.700203,11843.295072
214.885994,1991.848295,-1406.391290,10140.821405
214.886302,3217.601092,222.061783,8216.285956
214.886610,3677.258390,1110.308913,7328.038826
214.886919,4060.306139,2146.597232,7105.977043
214.887227,3983.696590,3256.906145,6735.874072
214.887535,4136.915689,4071.132681,6217.729913
214.887843,2987.772442,4071.132681,6069.688724
214.888151,2528.115143,4145.153275,6883.915261
214.888459,1532.190996,3849.070898,7994.224174
214.888767,0.000000,2368.659014,9030.512492
214.889075,-1072.533697,1110.308913,10362.883188
214.889383,-2145.067394,-148.041188,11769.274478
214.889691,-2834.553343,-1554.432478,13175.665768
214.889999,-3370.820191,-2590.720797,13915.871710
214.890307,-2757.943793,-2812.782580,13471.748144
214.890615,-2834.553343,-3034.844362,12805.562797
214.890923,-1608.800546,-2886.803174,12731.542202
214.891231,-459.657299,-2516.700203,11843.295072
214.891539,766.095498,-1628.453072,10584.944971
214.891847,1915.238745,-592.164754,8882.471304
214.892155,2834.553343,518.144159,8068.244768
214.892463,2834.553343,1628.453072,7328.038826
214.892771,3907.087040,2368.659014,6587.832884
214.893079,4443.353888,3701.029710,5551.544565
214.893387,3983.696590,4737.318029,5181.441594
214.893695,3677.258390,4885.359217,5403.503377
214.894003,2757.943793,4293.194464,6439.791695
214.894312,1762.019645,2960.823768,7624.121203
214.894620,612.876398,888.247130,9252.574275
214.894928,-995.924147,-814.226536,11103.089130
214.895236,-2757.943793,-2368.659014,12435.459826
214.895544,-3524.039291,-3552.988522,13693.809927
214.895852,-3983.696590,-4441.235652,14359.995275
214.896160,-2604.724693,-4441.235652,14063.912898
214.896468,-1762.019645,-3923.091493,13101.645173
214.896776,-536.266849,-3256.906145,11917.315666
214.897084,1378.971896,-1702.473667,10510.924376
214.897392,2451.505594,-222.061783,8586.388927
214.897700,3830.477490,1110.308913,6957.935855
214.898008,3753.867940,2220.617826,6735.874072
214.898316,4443.353888,3552.988522,6291.750507
214.898624,3983.696590,3923.091493,5847.626942
214.898932,3447.429741,4293.194464,6439.791695
214.899228,2374.896044,4293.194464,6809.894666
214.899535,1149.143247,3330.926739,7846.182985
214.899843,0.000000,2220.617826,9030.512492
214.900151,-1149.143247,370.102971,10140.821405
214.900459,-2298.286494,-592.164754,11695.253884
214.900767,-3140.991542,-1554.432478,12213.398043
214.901075,-2604.724693,-2738.761985,12953.603985
214.901383,-2911.162892,-3034.844362,13027.624579
214.901691,-2145.067394,-3256.906145,12805.562797
214.901999,-1685.410096,-2886.803174,12435.459826
214.902307,-383.047749,-2812.782580,11325.150913
214.902615,0.000000,-2220.617826,9622.677246
214.902923,1072.533697,-666.185348,9178.553681
214.903231,2451.505594,-296.082377,8290.306550
214.903539,2757.943793,1406.391290,7031.956449
214.903847,3217.601092,2442.679609,6513.812290
214.904155,3677.258390,3627.009116,5773.606348
214.904463,3447.429741,4293.194464,5329.482782
214.904771,3217.601092,4219.173869,5551.544565
214.905079,3064.381992,3775.050304,6439.791695
214.905387,1302.362347,2664.741391,7105.977043
214.905695,153.219100,1110.308913,9178.553681
214.906003,-1455.581446,-592.164754,11029.068536
214.906311,-2451.505594,-2220.617826,12583.501014
214.906618,-2987.772442,-3404.947333,13619.789333
214.906926,-3064.381992,-3849.070898,13841.851115
214.907234,-2757.943793,-4293.194464,13619.789333
214.907542,-1455.581446,-3627.009116,13101.645173
214.907850,76.609550,-2590.720797,11917.315666
214.908158,1685.410096,-1184.329507,10510.924376
214.908466,3140.991542,-0.000000,8734.430116
214.908774,4060.306139,1332.370696,7772.162391
214.909082,4136.915689,2294.638420,6957.935855
214.909390,4136.915689,3034.844362,6883.915261
214.909698,3983.696590,3701.029710,6809.894666
214.910006,3447.429741,4293.194464,6587.832884
214.910314,2528.115143,4293.194464,6883.915261
214.910622,1532.190996,3552.988522,7624.121203
214.910930,459.657299,2516.700203,8586.388927
214.911238,-459.657299,1776.494261,10066.800811
214.911546,-1455.581446,-0.000000,11399.171507
214.911854,-2451.505594,-1332.370696,12583.501014
214.912162,-3217.601092,-2960.823768,13397.727550
214.912470,-2757.943793,-3552.988522,14359.995275
214.912778,-2757.943793,-3849.070898,13989.892304
214.913086,-2451.505594,-3701.029710,13101.645173
214.913393,-1378.971896,-2960.823768,12509.480420
214.913701,0.000000,-1998.556043,11251.130318
214.914009,1072.533697,-740.205942,9400.615463
214.914317,2681.334243,444.123565,8142.265362
214.914625,3524.039291,1850.514855,7105.977043
214.914933,3907.087040,2738.761985,5995.668130
214.915241,4290.134789,3701.029710,5773.606348
214.915549,4213.525239,4811.338623,5033.400406
214.915857,3524.039291,4737.318029,5181.441594
214.916165,2528.115143,4071.132681,6143.709319
214.916473,1532.190996,2886.803174,7402.059420
214.916781,76.609550,962.267725,9030.512492
214.917089,-1302.362347,-518.144159,11029.068536
214.917397,-2298.286494,-2072.576638,12509.480420
214.917705,-2604.724693,-3701.029710,13175.665768
214.918013,-3064.381992,-3923.091493,13619.789333
214.918321,-2451.505594,-4219.173869,13619.789333
214.918629,-1378.971896,-3404.947333,12953.603985
214.918937,0.000000,-2590.720797,11547.212695
214.919245,1378.971896,-1850.514855,10066.800811
214.919553,2604.724693,-518.144159,9030.512492
214.919861,3524.039291,592.164754,7550.100608
214.920169,3600.648841,1850.514855,7402.059420
214.920476,3907.087040,2516.700203,7402.059420
214.920784,3064.381992,3478.967927,6217.729913
214.921092,2834.553343,3627.009116,6587.832884
214.921400,2374.896044,3997.112087,6957.935855
214.921708,1608.800546,3701.029710,7105.977043
214.922016,995.924147,2442.679609,8438.347739
214.922324,0.000000,1628.453072,9178.553681
214.922632,-919.314598,-148.041188,11251.130318
214.922940,-2221.676944,-1850.514855,12065.356855
214.923248,-2834.553343,-2516.700203,13249.686362
214.923556,-3217.601092,-3627.009116,13619.789333
214.923864,-2834.553343,-3997.112087,13619.789333
214.924172,-2451.505594,-4071.132681,13101.645173
214.924480,-229.828649,-3478.967927,12287.418637
214.924788,0.000000,-2368.659014,10584.944971
214.925096,1685.410096,-814.226536,9030.512492
214.925404,2604.724693,296.082377,7772.162391
214.925712,3294.210641,1554.432478,6957.935855
214.926020,3600.648841,2516.700203,6217.729913
214.926328,3600.648841,4071.132681,5551.544565
214.926636,4060.306139,4663.297435,5551.544565
214.926944,3753.867940,4811.338623,5033.400406
214.927251,2987.772442,4737.318029,6587.832884
214.927559,1455.581446,3330.926739,7624.121203
214.927867,0.000000,1924.535449,9178.553681
214.928175,-1455.581446,-0.000000,11029.068536
214.928483,-2528.115143,-1850.514855,12509.480420
214.928791,-3600.648841,-3256.906145,13545.768739
214.929099,-3447.429741,-4367.215058,15026.180623
214.929407,-2911.162892,-4441.235652,13619.789333
214.929715,-2068.457845,-3701.029710,13175.665768
214.930023,-383.047749,-3256.906145,12287.418637
214.930331,1072.533697,-2072.576638,10584.944971
214.930639,2451.505594,-296.082377,9400.615463
214.930947,3524.039291,444.123565,7994.224174
214.931255,3983.696590,1702.473667,6957.935855
214.931563,4213.525239,2590.720797,6735.874072
214.931871,4290.134789,3330.926739,6365.771101
214.932179,3370.820191,4293.194464,6365.771101
214.932487,3370.820191,4441.235652,6513.812290
214.932795,2298.286494,4293.194464,7105.977043
214.933103,1149.143247,3256.906145,8290.306550
214.933411,0.000000,1702.473667,9548.656652
214.933719,-1225.752797,-222.061783,11473.192101
214.934027,-2374.896044,-1924.535449,12361.439231
214.934334,-3140.991542,-3256.906145,13619.789333
214.934642,-3907.087040,-4145.153275,14434.015869
214.934950,-2681.334243,-4293.194464,14211.954086
214.935258,-2374.896044,-3923.091493,13323.706956
214.935566,-995.924147,-2812.782580,12287.418637
214.935874,766.095498,-2072.576638,10436.903782
214.936182,2145.067394,-814.226536,8882.471304
214.936490,2451.505594,518.144159,7698.141797
214.936798,3907.087040,1110.308913,7105.977043
214.937106,4060.306139,2516.700203,5995.668130
214.937414,2987.772442,3627.009116,5921.647536
214.937722,4060.306139,4367.215058,5625.565159
214.938030,3370.820191,5255.462188,4589.276840
214.938338,2834.553343,4441.235652,5921.647536
214.938646,1915.238745,3404.947333,6809.894666
214.938954,919.314598,1776.494261,9030.512492
214.939262,-536.266849,-0.000000,10140.821405
214.939570,-1838.629195,-1776.494261,11473.192101
214.939878,-2681.334243,-3108.864956,12731.542202
214.940186,-3294.210641,-4219.173869,13841.851115
214.940494,-2987.772442,-3775.050304,13767.830521
214.940802,-2068.457845,-3627.009116,12731.542202
214.941109,-766.095498,-3182.885551,12139.377449
214.941417,459.657299,-2738.761985,11547.212695
214.941725,1302.362347,-1776.494261,9918.759623
214.942033,2681.334243,-888.247130,9030.512492
214.942341,2987.772442,740.205942,7994.224174
214.942649,2987.772442,1850.514855,7476.080014
214.942957,3370.820191,3034.844362,7031.956449
214.943265,3140.991542,4367.215058,6439.791695
214.943573,2911.162892,4737.318029,6217.729913
214.943881,2834.553343,4515.256246,6735.874072
214.944189,2068.457845,3108.864956,7846.182985
214.944497,306.438199,2368.659014,9252.574275
214.944805,-1149.143247,962.267725,10881.027347
214.945113,-2221.676944,-888.247130,12213.398043
214.945421,-3294.210641,-2442.679609,13841.851115
214.945729,-3600.648841,-3478.967927,14211.954086
214.946037,-3370.820191,-3997.112087,14137.933492
214.946345,-2451.505594,-3923.091493,13989.892304
214.946653,-1302.362347,-3330.926739,13175.665768
214.946961,153.219100,-2220.617826,11917.315666
214.947269,1072.533697,-1036.288319,10066.800811
214.947577,2681.334243,740.205942,8068.244768
214.947885,3524.039291,2294.638420,6957.935855
214.948192,4443.353888,3478.967927,6439.791695
214.948500,4673.182538,4737.318029,5255.462188
214.948808,4366.744339,5329.482782,4885.359217
214.949116,4673.182538,5625.565159,5107.421000
214.949424,2834.553343,4515.256246,6291.750507
214.949732,1608.800546,3108.864956,7772.162391
214.950040,0.000000,1628.453072,9622.677246
214.950348,-1915.238745,-444.123565,11103.089130
214.950656,-2911.162892,-2072.576638,12657.521608
214.950964,-3447.429741,-3552.988522,13989.892304
214.951272,-2987.772442,-3627.009116,14211.954086
214.951580,-2834.553343,-3997.112087,13175.665768
214.951888,-459.657299,-3849.070898,12805.562797
214.952196,0.000000,-2886.803174,11843.295072
214.952504,1532.190996,-1776.494261,10584.944971
214.952812,2451.505594,-888.247130,8882.471304
214.953120,3294.210641,222.061783,7920.203579
214.953428,3830.477490,1480.411884,7698.141797
214.953736,3524.039291,2220.617826,7105.977043
214.954044,3677.258390,3256.906145,7105.977043
214.954352,3524.039291,3478.967927,6439.791695
214.954660,3064.381992,3701.029710,6365.771101
214.954967,1991.848295,3330.926739,6809.894666
214.955275,919.314598,2368.659014,7772.162391
214.955583,0.000000,1406.391290,9400.615463
214.955891,-229.828649,-148.041188,10807.006753
214.956199,-1991.848295,-1332.370696,11695.253884
214.956507,-2374.896044,-2886.803174,12583.501014
214.956815,-2757.943793,-3775.050304,13027.624579
214.957123,-2604.724693,-3849.070898,13471.748144
214.957431,-2451.505594,-3775.050304,12731.542202
214.957739,-1302.362347,-3478.967927,12065.356855
214.958047,0.000000,-2516.700203,10362.883188
214.958355,1072.533697,-1776.494261,9252.574275
214.958663,2145.067394,-74.020594,8290.306550
214.958971,3294.210641,1110.308913,7105.977043
214.959279,4136.915689,2442.679609,6365.771101
214.959587,3830.477490,3849.070898,5403.503377
214.959895,3983.696590,4145.153275,5107.421000
214.960203,3677.258390,5181.441594,5255.462188
214.960511,2911.162892,4737.318029,5773.606348
214.960819,2068.457845,3330.926739,7105.977043
214.961127,766.095498,1924.535449,8882.471304
214.961435,-1225.752797,-0.000000,10732.986159
214.961743,-2451.505594,-1554.432478,11991.336260
214.962050,-3524.039291,-2960.823768,13767.830521
214.962358,-3983.696590,-3997.112087,14434.015869
214.962666,-3447.429741,-4219.173869,14434.015869
214.962974,-2374.896044,-4145.153275,13767.830521
214.963282,-689.485948,-3478.967927,12879.583391
214.963590,612.876398,-2368.659014,11547.212695
214.963898,2298.286494,-1258.350101,9474.636058
214.964206,2757.943793,222.061783,8068.244768
214.964514,3830.477490,1924.535449,7476.080014
214.964822,4290.134789,3034.844362,6883.915261
214.965130,4136.915689,4515.256246,6291.750507
214.965438,3907.087040,4959.379811,6143.709319
214.965746,3753.867940,4885.359217,6365.771101
214.966054,2451.505594,4589.276840,6957.935855
214.966362,2068.457845,2886.803174,8290.306550
214.966670,153.219100,1628.453072,9696.697840
214.966978,-1762.019645,-0.000000,11473.192101
214.967286,-2757.943793,-1924.535449,13249.686362
214.967594,-3907.087040,-3478.967927,14359.995275
214.967902,-4213.525239,-4515.256246,14656.077652
214.968210,-3447.429741,-4589.276840,14359.995275
214.968518,-2681.334243,-4515.256246,13767.830521
214.968825,-995.924147,-3182.885551,12435.459826
214.969133,383.047749,-2294.638420,11251.130318
214.969441,1685.410096,-74.020594,8808.450710
214.969749,3447.429741,888.247130,7476.080014
214.970057,4213.525239,2368.659014,6217.729913
214.970365,4519.963438,3478.967927,5847.626942
214.970673,4213.525239,4145.153275,5773.606348
214.970981,4519.963438,4441.235652,5329.482782
214.971289,3370.820191,4515.256246,5477.523971
214.971597,2145.067394,3849.070898,6513.812290
214.971905,1378.971896,2886.803174,7624.121203
214.972213,306.438199,1258.350101,8882.471304
214.972521,-919.314598,-296.082377,10214.842000
214.972829,-1991.848295,-1332.370696,11621.233289
214.973137,-2451.505594,-2664.741391,13249.686362
214.973445,-2528.115143,-3108.864956,13545.768739
214.973753,-2451.505594,-3923.091493,12953.603985
214.974061,-1455.581446,-3478.967927,12953.603985
214.974369,-689.485948,-2886.803174,12139.377449
214.974677,306.438199,-2368.659014,11103.089130
214.974985,1762.019645,-1332.370696,9474.636058
214.975293,2374.896044,-444.123565,8512.368333
214.975601,3140.991542,444.123565,8290.306550
214.975908,3524.039291,1554.432478,7920.203579
214.976216,3447.429741,3108.864956,6957.935855
214.976524,3600.648841,3775.050304,6291.750507
214.976832,3294.210641,4367.215058,6143.709319
214.977140,2757.943793,4515.256246,6513.812290
214.977448,2145.067394,3627.009116,7476.080014
214.977756,1072.533697,2368.659014,8216.285956
214.978064,-383.047749,444.123565,9844.739029
214.978372,-2528.115143,-740.205942,12139.377449
214.978680,-2681.334243,-2664.741391,13841.851115
214.978988,-3600.648841,-4071.132681,14285.974681
214.979296,-3753.867940,-4367.215058,14137.933492
214.979604,-2757.943793,-4071.132681,13397.727550
214.979912,-1915.238745,-3478.967927,12879.583391
214.980220,-229.828649,-2590.720797,11473.192101
214.980528,1532.190996,-1110.308913,9622.677246
214.980836,2528.115143,370.102971,8068.244768
214.981144,3447.429741,1332.370696,6439.791695
214.981452,4213.525239,2886.803174,6143.709319
214.981760,4366.744339,3923.091493,5477.523971
214.982068,3983.696590,4663.297435,5403.503377
214.982376,3983.696590,5033.400406,5329.482782
214.982683,2528.115143,4663.297435,6439.791695
214.982991,1838.629195,3108.864956,7624.121203
214.983299,536.266849,1702.473667,9104.533087
214.983607,-1608.800546,-0.000000,10807.006753
214.983915,-2068.457845,-1776.494261,12065.356855
214.984223,-2681.334243,-2664.741391,13175.665768
214.984531,-3447.429741,-3627.009116,14063.912898
214.984839,-3064.381992,-3923.091493,13915.871710
214.985147,-2068.457845,-3478.967927,13471.748144
214.985455,-1072.533697,-2738.761985,12953.603985
214.985763,842.705048,-2220.617826,11695.253884
214.986071,2145.067394,-666.185348,9474.636058
214.986379,2757.943793,518.144159,8660.409521
214.986687,3370.820191,1406.391290,7698.141797
214.986995,3907.087040,2590.720797,7179.997637
214.987303,3677.258390,3552.988522,6587.832884
214.987611,3524.039291,3701.029710,6143.709319
214.987919,2987.772442,3923.091493,6439.791695
214.988227,2451.505594,3997.112087,7179.997637
214.988535,1532.190996,3034.844362,7698.141797
214.988843,383.047749,2146.597232,9252.574275
214.989151,-612.876398,296.082377,10955.047942
214.989459,-2068.457845,-1332.370696,12065.356855
214.989766,-2757.943793,-2738.761985,13471.748144
214.990074,-3753.867940,-3701.029710,14211.954086
214.990382,-3294.210641,-4293.194464,14211.954086
214.990690,-2451.505594,-4293.194464,13471.748144
214.990998,-1225.752797,-3775.050304,12509.480420
214.991306,153.219100,-2590.720797,11029.068536
214.991614,1608.800546,-1110.308913,9326.594869
214.991922,2681.334243,-0.000000,7994.224174
214.992230,3600.648841,1406.391290,6587.832884
214.992538,3830.477490,1998.556043,6513.812290
214.992846,4596.572988,3256.906145,6217.729913
214.993154,4136.915689,3701.029710,5699.585753
214.993462,3064.381992,4515.256246,5625.565159
214.993770,2757.943793,4441.235652,5995.668130
214.994078,1991.848295,3627.009116,7031.956449
214.994386,1072.533697,2368.659014,8364.327145
214.994694,-229.828649,666.185348,9918.759623
214.995002,-1608.800546,-814.226536,11177.109724
214.995310,-2145.067394,-2220.617826,12213.398043
214.995618,-2834.553343,-3552.988522,13471.748144
214.995926,-2681.334243,-3849.070898,13989.892304
214.996234,-2451.505594,-4071.132681,12953.603985
214.996541,-1302.362347,-3330.926739,12805.562797
214.996849,0.000000,-2516.700203,11251.130318
214.997157,1072.533697,-1332.370696,9696.697840
214.997465,2681.334243,-444.123565,8882.471304
214.997773,3064.381992,666.185348,7476.080014
214.998081,3600.648841,1554.432478,7624.121203
214.998389,3447.429741,2886.803174,6587.832884
214.998697,3524.039291,3849.070898,6217.729913
214.999006,2987.772442,4293.194464,6365.771101
214.999314,2528.115143,4219.173869,6957.935855
214.999622,1762.019645,3627.009116,7624.121203
214.999930,612.876398,1776.494261,9104.533087
215.000238,-229.828649,518.144159,10584.944971
215.000546,-2221.676944,-1184.329507,11991.336260
215.000854,-2987.772442,-2960.823768,12879.583391
215.001162,-3677.258390,-3775.050304,14063.912898
215.001470,-3447.429741,-3997.112087,14211.954086
215.001778,-2528.115143,-3701.029710,13619.789333
215.002086,-1532.190996,-3182.885551,12213.398043
215.002394,0.000000,-2442.679609,11695.253884
215.002702,1608.800546,-1332.370696,9696.697840
215.003010,2911.162892,-296.082377,7550.100608
215.003318,3217.601092,1406.391290,7402.059420
215.003626,3064.381992,2368.659014,7179.997637
215.003934,3294.210641,3478.967927,6291.750507
215.004242,3677.258390,4219.173869,5847.626942
215.004550,3600.648841,4737.318029,5329.482782
215.004858,3217.601092,4737.318029,5995.668130
215.005166,2528.115143,3997.112087,6883.915261
215.005474,1225.752797,2664.741391,7994.224174
215.005782,76.609550,1184.329507,9548.656652
215.006090,-1225.752797,-74.020594,11103.089130
215.006398,-2451.505594,-1628.453072,12435.459826
215.006706,-2911.162892,-2886.803174,13545.768739
215.007014,-2834.553343,-3478.967927,14285.974681
215.007322,-2528.115143,-3849.070898,14211.954086
215.007631,-1991.848295,-3552.988522,13101.645173
215.007939,-612.876398,-3404.947333,11917.315666
215.008247,1225.752797,-1628.453072,11029.068536
215.008555,1991.848295,-666.185348,9104.533087
215.008863,3140.991542,518.144159,8068.244768
215.009171,3753.867940,2368.659014,7402.059420
215.009479,4060.306139,3552.988522,6439.791695
215.009787,4136.915689,4737.318029,6439.791695
215.010095,3830.477490,4811.338623,6143.709319
215.010403,2987.772442,4441.235652,6365.771101
215.010711,2298.286494,3701.029710,7550.100608
215.011019,229.828649,1776.494261,8808.450710
215.011327,-1072.533697,-0.000000,10807.006753
215.011635,-2528.115143,-1406.391290,12065.356855
215.011943,-3447.429741,-3034.844362,13471.748144
215.012251,-3907.087040,-4293.194464,13915.871710
215.012559,-4290.134789,-4293.194464,13841.851115
215.012867,-2528.115143,-3997.112087,13323.706956
215.013175,-842.705048,-3330.926739,12139.377449
215.013483,229.828649,-2368.659014,10436.903782
215.013791,1532.190996,-1258.350101,9400.615463
215.014099,2834.553343,-0.000000,7994.224174
215.014407,4213.525239,1184.329507,7031.956449
215.014715,3600.648841,2220.617826,5329.482782
215.015023,4366.744339,2738.761985,6291.750507
215.015331,4596.572988,3404.947333,5773.606348
215.015639,2604.724693,3552.988522,5847.626942
215.015947,2374.896044,3478.967927,6291.750507
215.016255,1608.800546,2738.761985,6883.915261
215.016564,766.095498,1628.453072,8512.368333
215.016872,-536.266849,740.205942,9474.636058
215.017180,-995.924147,-444.123565,10881.027347
215.017488,-2068.457845,-1776.494261,11991.336260
215.017796,-1991.848295,-3034.844362,13027.624579
215.018104,-2451.505594,-2886.803174,13101.645173
215.018412,-2068.457845,-3552.988522,13323.706956
215.018720,-995.924147,-2812.782580,12731.542202
215.019028,306.438199,-2368.659014,11843.295072
215.019336,1302.362347,-1184.329507,10510.924376
215.019644,2374.896044,-444.123565,9474.636058
215.019952,2681.334243,1110.308913,8216.285956
215.020260,3294.210641,1702.473667,8142.265362
215.020568,3447.429741,3034.844362,7328.038826
215.020876,3294.210641,3923.091493,6957.935855
215.021184,3217.601092,4737.318029,6365.771101
215.021492,2374.896044,4737.318029,7328.038826
215.021800,1762.019645,4071.132681,8364.327145
215.022108,0.000000,2812.782580,9844.739029
215.022416,-1532.190996,592.164754,11621.233289
215.022724,-3447.429741,-962.267725,12805.562797
215.023032,-4366.744339,-2368.659014,14063.912898
215.023340,-4673.182538,-3034.844362,14656.077652
215.023648,-3753.867940,-3849.070898,14434.015869
215.023956,-2681.334243,-3404.947333,13471.748144
215.024264,-1838.629195,-2738.761985,12287.418637
215.024572,612.876398,-2590.720797,11325.150913
215.024880,1915.238745,-1406.391290,8882.471304
215.025189,3294.210641,296.082377,7994.224174
215.025497,3907.087040,814.226536,6809.894666
215.025805,3983.696590,1998.556043,6143.709319
215.026113,4443.353888,3034.844362,5699.585753
215.026421,4443.353888,4293.194464,5033.400406
215.026729,3447.429741,4515.256246,5033.400406
215.027037,2911.162892,4367.215058,5699.585753
215.027345,2374.896044,3404.947333,7105.977043
215.027653,842.705048,2072.576638,8364.327145
215.027961,-306.438199,740.205942,9474.636058
215.028269,-1532.190996,-888.247130,11029.068536
215.028577,-2987.772442,-2590.720797,12435.459826
215.028885,-3217.601092,-3849.070898,13323.706956
215.029193,-3447.429741,-4515.256246,13989.892304
215.029501,-2528.115143,-4959.379811,13545.768739
215.029809,-1149.143247,-4145.153275,12287.418637
215.030117,842.705048,-3701.029710,11547.212695
215.030425,995.924147,-2146.597232,10214.842000
215.030733,2604.724693,-592.164754,8216.285956
215.031041,3830.477490,740.205942,7402.059420
215.031349,4290.134789,1776.494261,6587.832884
215.031657,4366.744339,2960.823768,5773.606348
215.031965,4443.353888,4515.256246,5403.503377
215.032273,4290.134789,4737.318029,5181.441594
215.032581,3217.601092,4219.173869,5625.565159
215.032889,1685.410096,3478.967927,6883.915261
215.033197,459.657299,2146.597232,8586.388927
215.033505,-1225.752797,444.123565,10214.842000
215.033813,-2681.334243,-1110.308913,11991.336260
215.034122,-3830.477490,-2664.741391,13323.706956
215.034430,-3677.258390,-3997.112087,14434.015869
215.034738,-4290.134789,-4293.194464,14285.974681
215.035046,-2987.772442,-3997.112087,13693.809927
215.035354,-2145.067394,-3478.967927,12879.583391
215.035662,-383.047749,-2368.659014,11621.233289
215.035970,1072.533697,-1332.370696,10288.862594
215.036278,2451.505594,-0.000000,8586.388927
215.036586,3677.258390,1258.350101,7179.997637
215.036894,4060.306139,2220.617826,6883.915261
215.037202,4443.353888,3108.864956,6587.832884
215.037510,4136.915689,4071.132681,6069.688724
215.037818,3524.039291,4441.235652,5699.585753
215.038126,2681.334243,4663.297435,6217.729913
215.038434,2068.457845,3997.112087,7105.977043
215.038742,842.705048,3182.885551,8512.368333
215.039050,-383.047749,1924.535449,9548.656652
215.039358,-1072.533697,592.164754,11399.171507
215.039666,-2145.067394,-740.205942,12953.603985
215.039974,-2298.286494,-2368.659014,13175.665768
215.040282,-2604.724693,-3034.844362,14137.933492
215.040590,-2451.505594,-3701.029710,14211.954086
215.040898,-1532.190996,-3256.906145,13619.789333
215.041206,-383.047749,-2960.823768,12879.583391
215.041514,766.095498,-2146.597232,11325.150913
215.041822,2145.067394,-814.226536,9770.718434
215.042130,3677.258390,1110.308913,9400.615463
215.042438,3830.477490,1702.473667,8142.265362
215.042746,3753.867940,2812.782580,6809.894666
215.043055,3753.867940,4219.173869,6291.750507
215.043363,3600.648841,4663.297435,6217.729913
215.043671,2834.553343,4367.215058,6439.791695
215.043979,2298.286494,3849.070898,7550.100608
215.044287,459.657299,2368.659014,8216.285956
215.044595,-995.924147,962.267725,9844.739029
215.044903,-2298.286494,-888.247130,11547.212695
215.045211,-3140.991542,-2368.659014,13175.665768
215.045519,-3753.867940,-3108.864956,13471.748144
215.045827,-3294.210641,-3923.091493,13323.706956
215.046135,-2451.505594,-3701.029710,12879.583391
215.046443,-1378.971896,-3478.967927,12139.377449
215.046751,153.219100,-3108.864956,10881.027347
215.047059,1608.800546,-1998.556043,9770.718434
215.047367,2834.553343,-1110.308913,8438.347739
215.047675,3140.991542,-148.041188,6957.935855
215.047983,3600.648841,592.164754,6809.894666
215.048291,3677.258390,1776.494261,6365.771101
215.048599,3753.867940,2960.823768,5847.626942
215.048907,3753.867940,3108.864956,5625.565159
215.049215,2757.943793,3775.050304,5551.544565
215.049523,2757.943793,3330.926739,7031.956449
215.049831,1762.019645,2960.823768,7328.038826
215.050139,76.609550,1554.432478,8882.471304
215.050447,-995.924147,-0.000000,10362.883188
215.050755,-1915.238745,-1702.473667,11695.253884
215.051063,-3064.381992,-3108.864956,13027.624579
215.051371,-3677.258390,-4293.194464,13841.851115
215.051680,-3064.381992,-4589.276840,14063.912898
215.051988,-1838.629195,-3923.091493,13619.789333
215.052296,-536.266849,-3701.029710,12361.439231
215.052604,612.876398,-1924.535449,10807.006753
215.052912,2221.676944,-740.205942,9178.553681
215.053220,3447.429741,962.267725,7550.100608
215.053528,4136.915689,2294.638420,6513.812290
215.053836,5056.230287,3404.947333,6143.709319
215.054144,4519.963438,4515.256246,5403.503377
215.054452,5132.839837,5107.421000,5625.565159
215.054760,3140.991542,4959.379811,6513.812290
215.055068,1685.410096,4145.153275,7254.018232
215.055376,-229.828649,2368.659014,9030.512492
215.055684,-1838.629195,962.267725,11029.068536
215.055992,-3217.601092,-1036.288319,12805.562797
215.056300,-3907.087040,-2442.679609,14063.912898
215.056608,-4826.401637,-3849.070898,14359.995275
215.056916,-4136.915689,-3701.029710,14434.015869
215.057224,-2834.553343,-3478.967927,13545.768739
215.057532,-1532.190996,-2812.782580,12583.501014
215.057840,76.609550,-2072.576638,11473.192101
215.058148,1762.019645,-1184.329507,10288.862594
215.058456,2451.505594,-0.000000,8734.430116
215.058764,2987.772442,814.226536,7772.162391
215.059072,3524.039291,1406.391290,7179.997637
215.059380,3524.039291,2072.576638,6883.915261
215.059688,3370.820191,3108.864956,6587.832884
215.059996,2911.162892,4071.132681,5995.668130
215.060304,2604.724693,4219.173869,6365.771101
215.060613,2451.505594,4367.215058,6883.915261
215.060921,1685.410096,3701.029710,7550.100608
215.061229,1149.143247,2294.638420,8734.430116
215.061537,0.000000,1184.329507,10214.842000
215.061845,-1072.533697,-888.247130,11103.089130
215.062153,-2374.896044,-2072.576638,13249.686362
215.062461,-2757.943793,-3330.926739,13767.830521
215.062769,-2374.896044,-3997.112087,14359.995275
215.063077,-1762.019645,-3997.112087,13471.748144
215.063385,-1072.533697,-3330.926739,12583.501014
215.063693,459.657299,-3108.864956,11843.295072
215.064001,1302.362347,-1850.514855,9992.780217
215.064309,2757.943793,-740.205942,8882.471304
215.064617,3524.039291,1184.329507,7402.059420
215.064925,3907.087040,2146.597232,7476.080014
215.065233,4060.306139,3997.112087,5847.626942
215.065541,3907.087040,4737.318029,5181.441594
215.065849,3677.258390,4959.379811,6069.688724
215.066157,2681.334243,4071.132681,6883.915261
215.066465,995.924147,3182.885551,7772.162391
215.066773,-383.047749,1332.370696,9326.594869
215.067081,-2068.457845,-666.185348,11769.274478
215.067389,-3217.601092,-1998.556043,12805.562797
215.067697,-3983.696590,-3256.906145,13915.871710
215.068005,-3677.258390,-3997.112087,13471.748144
215.068313,-3064.381992,-3923.091493,12879.583391
215.068621,-1762.019645,-3701.029710,11991.336260
215.068929,0.000000,-3108.864956,11251.130318
215.069238,1225.752797,-2368.659014,10362.883188
215.069546,2145.067394,-740.205942,8290.306550
215.069854,3064.381992,-0.000000,7328.038826
215.070162,3600.648841,814.226536,6957.935855
215.070470,3370.820191,2072.576638,6957.935855
215.070778,3753.867940,3108.864956,6143.709319
215.071086,2987.772442,3923.091493,5625.565159
215.071394,2604.724693,3701.029710,6143.709319
215.071702,2221.676944,3923.091493,6217.729913
215.072010,1378.971896,2664.741391,7846.182985
215.072318,306.438199,1924.535449,8586.388927
215.072626,-689.485948,370.102971,9918.759623
215.072934,-1991.848295,-1036.288319,11843.295072
215.073242,-2757.943793,-2738.761985,13323.706956
215.073550,-2834.553343,-3552.988522,14063.912898
215.073858,-1838.629195,-3997.112087,13767.830521
215.074166,-612.876398,-3849.070898,13249.686362
215.074474,76.609550,-3627.009116,11621.233289
215.074782,995.924147,-1776.494261,11029.068536
215.075090,2604.724693,-592.164754,9474.636058
215.075398,3524.039291,888.247130,7846.182985
215.075706,3830.477490,1850.514855,7328.038826
215.076014,4290.134789,2812.782580,7105.977043
215.076322,4519.963438,3923.091493,6291.750507
215.076630,3830.477490,4589.276840,5921.647536
215.076938,3064.381992,4737.318029,6735.874072
215.077246,1608.800546,4145.153275,7846.182985
215.077554,76.609550,3108.864956,8882.471304
215.077862,-1225.752797,1850.514855,10288.862594
215.078171,-2145.067394,74.020594,11547.212695
215.078479,-2911.162892,-1480.411884,12953.603985
215.078787,-4136.915689,-2812.782580,13545.768739
215.079095,-3370.820191,-3182.885551,13693.809927
215.079403,-2757.943793,-3552.988522,13767.830521
215.079711,-2221.676944,-3182.885551,12805.562797
215.080019,-766.095498,-2664.741391,12065.356855
215.080327,612.876398,-2146.597232,10362.883188
215.080635,1838.629195,-888.247130,8808.450710
215.080943,2298.286494,-222.061783,7994.224174
215.081251,3140.991542,1110.308913,7698.141797
215.081559,3600.648841,1702.473667,7402.059420
215.081867,3447.429741,2886.803174,6217.729913
215.082175,3600.648841,3775.050304,5551.544565
215.082483,3294.210641,4737.318029,5477.523971
215.082791,2681.334243,4737.318029,5995.668130
215.083099,2068.457845,3849.070898,6883.915261
215.083407,1149.143247,2664.741391,7772.162391
215.083715,0.000000,666.185348,9770.718434
215.084023,-1838.629195,-1110.308913,11547.212695
215.084331,-3140.991542,-2664.741391,13175.665768
215.084639,-3600.648841,-4367.215058,14137.933492
215.084947,-2911.162892,-4737.318029,14582.057057
215.085255,-2221.676944,-4663.297435,13989.892304
215.085563,-1302.362347,-4367.215058,12805.562797
215.085871,0.000000,-2960.823768,11547.212695
215.086179,1915.238745,-1406.391290,9770.718434
215.086487,3830.477490,-592.164754,7920.203579
215.086795,3830.477490,1332.370696,6957.935855
215.087104,4826.401637,3034.844362,6217.729913
215.087412,4826.401637,4367.215058,5699.585753
215.087720,4596.572988,5329.482782,5329.482782
215.088028,3294.210641,4885.359217,5699.585753
215.088336,2757.943793,4737.318029,7105.977043
215.088644,1225.752797,3182.885551,8216.285956
215.088952,-306.438199,1628.453072,9770.718434
215.089260,-2451.505594,-222.061783,11843.295072
215.089568,-3294.210641,-1776.494261,12879.583391
215.089876,-4136.915689,-2960.823768,13841.851115
215.090184,-4060.306139,-3701.029710,13915.871710
215.090492,-3370.820191,-3256.906145,13397.727550
215.090800,-2374.896044,-3256.906145,12583.501014
215.091108,0.000000,-3034.844362,11917.315666
215.091416,1149.143247,-2368.659014,10510.924376
215.091724,2068.457845,-962.267725,9030.512492
215.092032,3140.991542,-74.020594,7846.182985
215.092340,3600.648841,592.164754,7402.059420
215.092648,3217.601092,1850.514855,6809.894666
215.092956,3677.258390,2738.761985,6587.832884
215.093264,3830.477490,3923.091493,5995.668130
215.093572,3370.820191,4219.173869,5477.523971
215.093880,2757.943793,4663.297435,6365.771101
215.094188,2145.067394,3849.070898,7254.018232
215.094496,689.485948,2960.823768,8216.285956
215.094804,-612.876398,1332.370696,9474.636058
215.095112,-1532.190996,-740.205942,11547.212695
215.095420,-2987.772442,-2146.597232,12805.562797
215.095729,-3140.991542,-3627.009116,13915.871710
215.096037,-2834.553343,-4811.338623,14804.118840
215.096345,-2374.896044,-4515.256246,14137.933492
215.096653,-1302.362347,-3701.029710,13175.665768
215.096961,383.047749,-2590.720797,11843.295072
215.097269,2068.457845,-962.267725,9844.739029
215.097577,3447.429741,296.082377,8586.388927
215.097885,4443.353888,1702.473667,7254.018232
215.098193,4979.620737,2590.720797,6587.832884
215.098501,5056.230287,4663.297435,5625.565159
215.098809,4596.572988,4737.318029,5181.441594
215.099117,3600.648841,4811.338623,6439.791695
215.099425,2528.115143,4441.235652,7031.956449
215.099733,689.485948,3108.864956,8068.244768
215.100041,-1072.533697,1554.432478,9918.759623
215.100349,-1991.848295,296.082377,11325.150913
215.100657,-3217.601092,-1406.391290,12805.562797
215.100965,-3600.648841,-2590.720797,13767.830521
215.101273,-3830.477490,-3404.947333,13841.851115
215.101581,-3064.381992,-3256.906145,13915.871710
215.101889,-1838.629195,-3108.864956,13249.686362
215.102197,-459.657299,-2442.679609,11917.315666
215.102505,919.314598,-2220.617826,10881.027347
215.102813,2068.457845,-1480.411884,9474.636058
215.103121,2681.334243,-296.082377,8660.409521
215.103429,2834.553343,740.205942,7846.182985
215.103737,3217.601092,1332.370696,6883.915261
215.104045,3830.477490,2516.700203,6513.812290
215.104353,3830.477490,3775.050304,5477.523971
215.104662,3753.867940,4441.235652,5329.482782
215.104970,3217.601092,4737.318029,5181.441594
215.105278,2604.724693,3849.070898,6365.771101
215.105586,1532.190996,2886.803174,7624.121203
215.105894,-383.047749,1184.329507,9400.615463
215.106202,-1685.410096,-1036.288319,11177.109724
215.106510,-2757.943793,-2590.720797,12879.583391
215.106818,-3753.867940,-4071.132681,14137.933492
215.107126,-3600.648841,-4663.297435,14285.974681
215.107434,-2757.943793,-4811.338623,13989.892304
215.107742,-1608.800546,-4367.215058,12953.603985
215.108050,306.438199,-3478.967927,12065.356855
215.108358,1455.581446,-1998.556043,9918.759623
215.108666,2911.162892,-296.082377,8290.306550
215.108974,3983.696590,1480.411884,7476.080014
215.109282,4136.915689,2516.700203,6587.832884
215.109590,4519.963438,3849.070898,6143.709319
215.109898,3983.696590,4885.359217,5625.565159
215.110206,2834.553343,4885.359217,6217.729913
215.110514,1685.410096,3997.112087,7179.997637
215.110822,612.876398,3108.864956,8290.306550
215.111130,-1225.752797,1850.514855,9918.759623
215.111438,-2987.772442,148.041188,11547.212695
215.111746,-3600.648841,-1110.308913,12657.521608
215.112054,-4213.525239,-2220.617826,13693.809927
215.112362,-3830.477490,-2812.782580,14211.954086
215.112670,-2987.772442,-3108.864956,13619.789333
215.112978,-2068.457845,-2886.803174,13101.645173
215.113286,-536.266849,-2738.761985,11991.336260
215.113594,1302.362347,-2294.638420,11177.109724
215.113903,1455.581446,-962.267725,9474.636058
215.114211,2911.162892,-222.061783,7698.141797
215.114519,3677.258390,1184.329507,7254.018232
215.114827,3830.477490,2294.638420,6513.812290
215.115135,4290.134789,3034.844362,6143.709319
215.115443,3983.696590,3849.070898,5477.523971
215.115751,3294.210641,4441.235652,5403.503377
215.116059,2528.115143,3997.112087,6217.729913
215.116367,1685.410096,3627.009116,7179.997637
215.116675,536.266849,2294.638420,8586.388927
215.116983,-1072.533697,592.164754,10214.842000
215.117291,-2374.896044,-1258.350101,11991.336260
215.117599,-2604.724693,-3775.050304,13619.789333
215.117907,-3447.429741,-4293.194464,14508.036463
215.118215,-3677.258390,-4959.379811,14211.954086
215.118523,-1838.629195,-4885.359217,13767.830521
215.118831,-842.705048,-3849.070898,12879.583391
215.119139,919.314598,-2590.720797,11251.130318
215.119447,2681.334243,-962.267725,9178.553681
215.119755,4136.915689,814.226536,7476.080014
215.120063,5439.278036,2294.638420,6143.709319
215.120371,5669.106685,3627.009116,5921.647536
215.120679,5745.716235,4145.153275,5107.421000
215.120987,4366.744339,4811.338623,5847.626942
215.121295,3447.429741,4441.235652,6365.771101
215.121603,1838.629195,4367.215058,7105.977043
215.121911,153.219100,2738.761985,8438.347739
215.122219,-1378.971896,1702.473667,10140.821405
215.122527,-2451.505594,-0.000000,11843.295072
215.122836,-3447.429741,-1628.453072,12657.521608
215.123144,-3983.696590,-2738.761985,13693.809927
215.123452,-4290.134789,-3552.988522,14211.954086
215.123760,-3447.429741,-3997.112087,13693.809927
215.124068,-2374.896044,-3256.906145,12879.583391
215.124376,-536.266849,-2886.803174,11991.336260
215.124684,612.876398,-2220.617826,10658.965565
215.124992,1991.848295,-1332.370696,8882.471304
215.125300,3140.991542,-444.123565,7994.224174
215.125608,3524.039291,888.247130,7254.018232
215.125916,4136.915689,1702.473667,6735.874072
215.126224,3983.696590,3256.906145,5995.668130
215.126532,4136.915689,4071.132681,5107.421000
215.126840,4136.915689,4737.318029,4959.379811
215.127148,3140.991542,4885.359217,5551.544565
215.127456,1915.238745,4071.132681,7031.956449
215.127764,995.924147,2146.597232,7994.224174
215.128072,-612.876398,1036.288319,10066.800811
215.128380,-2298.286494,-1184.329507,11991.336260
215.128688,-3064.381992,-3256.906145,13175.665768
215.128996,-3907.087040,-4663.297435,14582.057057
215.129304,-4136.915689,-5033.400406,14730.098246
215.129612,-2834.553343,-4959.379811,14211.954086
