#time,accel_x,accel_y,accel_z
252.032332,2451.505594,-0.000000,9844.739029
252.032640,2451.505594,-148.041188,9770.718434
252.032948,2604.724693,-296.082377,9992.780217
252.033257,2757.943793,-592.164754,10066.800811
252.033565,2987.772442,-0.000000,9622.677246
252.033873,2757.943793,370.102971,9400.615463
252.034181,3600.648841,296.082377,9696.697840
252.034489,3524.039291,666.185348,9548.656652
252.034798,3524.039291,666.185348,9178.553681
252.035106,3753.867940,1036.288319,8882.471304
252.035414,3677.258390,1258.350101,8660.409521
252.035722,4136.915689,1258.350101,9252.574275
252.036031,3600.648841,1480.411884,9326.594869
252.036339,3524.039291,1258.350101,9474.636058
252.036647,2911.162892,444.123565,9548.656652
252.036955,2451.505594,-0.000000,9770.718434
252.037264,2451.505594,-296.082377,10436.903782
252.037572,1991.848295,-740.205942,10955.047942
252.037880,1915.238745,-1036.288319,11103.089130
252.038188,1608.800546,-1258.350101,10955.047942
252.038497,2528.115143,-962.267725,11103.089130
252.038805,2757.943793,-592.164754,10510.924376
252.039113,3677.258390,-222.061783,10140.821405
252.039421,3677.258390,-148.041188,9474.636058
252.039730,3983.696590,-0.000000,9474.636058
252.040038,4366.744339,-74.020594,9400.615463
252.040346,4136.915689,-148.041188,9326.594869
252.040654,3830.477490,-74.020594,9326.594869
252.040963,3983.696590,-0.000000,8512.368333
252.041271,4213.525239,-222.061783,8734.430116
252.041579,4060.306139,-0.000000,9030.512492
252.041887,4596.572988,370.102971,8882.471304
252.042196,4673.182538,296.082377,8808.450710
252.042504,4979.620737,444.123565,8882.471304
252.042812,4596.572988,666.185348,8734.430116
252.043120,5515.887586,962.267725,8660.409521
252.043429,5515.887586,962.267725,8808.450710
252.043737,5515.887586,666.185348,8512.368333
252.044045,5132.839837,962.267725,8734.430116
252.044353,5132.839837,1258.350101,8808.450710
252.044662,5209.449386,1554.432478,8660.409521
252.044970,4903.011187,1554.432478,8882.471304
252.045278,4903.011187,1332.370696,9326.594869
252.045586,4136.915689,1258.350101,9252.574275
252.045894,3983.696590,888.247130,9770.718434
252.046203,3830.477490,740.205942,10732.986159
252.046511,3294.210641,222.061783,10214.842000
252.046819,2604.724693,222.061783,10510.924376
252.047127,2681.334243,-0.000000,11547.212695
252.047436,2298.286494,-222.061783,11473.192101
252.047744,2604.724693,-666.185348,11547.212695
252.048052,2757.943793,-592.164754,11251.130318
252.048360,2834.553343,-740.205942,10288.862594
252.048669,3064.381992,-148.041188,10881.027347
252.048977,3830.477490,-444.123565,9992.780217
252.049285,3830.477490,-296.082377,9992.780217
252.049593,4136.915689,-74.020594,9400.615463
252.049902,4673.182538,-296.082377,9474.636058
252.050210,4673.182538,-74.020594,9252.574275
252.050518,4519.963438,-296.082377,9030.512492
252.050826,5132.839837,-296.082377,9474.636058
252.051135,4903.011187,-740.205942,9474.636058
252.051443,4826.401637,-148.041188,8882.471304
252.051751,5132.839837,-0.000000,9252.574275
252.052059,4903.011187,-74.020594,9326.594869
252.052368,4903.011187,-74.020594,9252.574275
252.052676,5132.839837,592.164754,8660.409521
252.052984,4979.620737,666.185348,8882.471304
252.053292,4749.792088,148.041188,9030.512492
252.053601,4519.963438,1110.308913,8216.285956
252.053909,4673.182538,1924.535449,8068.244768
252.054217,4443.353888,2368.659014,7476.080014
252.054525,4290.134789,2960.823768,7254.018232
252.054834,4136.915689,3330.926739,7624.121203
252.055142,4136.915689,3256.906145,8290.306550
252.055450,3140.991542,1702.473667,9696.697840
252.055758,2451.505594,296.082377,10362.883188
252.056067,995.924147,-814.226536,11547.212695
252.056375,0.000000,-2368.659014,12657.521608
252.056683,-306.438199,-3552.988522,13989.892304
252.056991,-689.485948,-4145.153275,14508.036463
252.057299,-459.657299,-4071.132681,13767.830521
252.057608,1225.752797,-3552.988522,12879.583391
252.057916,2681.334243,-2442.679609,11251.130318
252.058224,4290.134789,-592.164754,9474.636058
252.058532,5975.544884,962.267725,7698.141797
252.058841,6665.030833,2368.659014,6365.771101
252.059149,7354.516781,3330.926739,5921.647536
252.059457,7201.297681,4293.194464,4811.338623
252.059765,6281.983084,4737.318029,4811.338623
252.060074,5209.449386,3923.091493,5921.647536
252.060382,3370.820191,4071.132681,6513.812290
252.060690,2681.334243,3552.988522,7846.182985
252.060998,995.924147,2294.638420,8290.306550
252.061307,383.047749,814.226536,9918.759623
252.061615,-459.657299,-888.247130,10807.006753
252.061923,-1915.238745,-1776.494261,11473.192101
252.062231,-1685.410096,-3034.844362,14137.933492
252.062540,-2298.286494,-4219.173869,15100.201217
252.062848,-2911.162892,-4589.276840,14952.160028
252.063156,-1762.019645,-4515.256246,13767.830521
252.063464,-383.047749,-3997.112087,13915.871710
252.063773,153.219100,-3330.926739,12287.418637
252.064081,1378.971896,-2442.679609,10732.986159
252.064389,2834.553343,-1554.432478,9622.677246
252.064697,2681.334243,-148.041188,8068.244768
252.065006,3907.087040,1332.370696,7624.121203
252.065314,4519.963438,2516.700203,6365.771101
252.065621,3600.648841,4219.173869,5329.482782
252.065929,4749.792088,4737.318029,4811.338623
252.066237,4749.792088,4663.297435,4959.379811
252.066545,3753.867940,3775.050304,6143.709319
252.066853,2451.505594,2368.659014,7031.956449
252.067161,1072.533697,666.185348,9326.594869
252.067469,0.000000,-1628.453072,11621.233289
252.067777,-1685.410096,-2442.679609,12731.542202
252.068085,-1838.629195,-3034.844362,13619.789333
252.068393,-1685.410096,-3330.926739,13545.768739
252.068701,-842.705048,-2368.659014,12509.480420
252.069009,536.266849,-1036.288319,11103.089130
252.069316,1685.410096,-0.000000,9400.615463
252.069624,2604.724693,1554.432478,7846.182985
252.069932,3294.210641,3182.885551,6957.935855
252.070240,4213.525239,3997.112087,6217.729913
252.070548,4519.963438,4737.318029,5847.626942
252.070856,3370.820191,4589.276840,7105.977043
252.071164,1915.238745,2368.659014,8290.306550
252.071472,0.000000,444.123565,10066.800811
252.071780,-1762.019645,-1702.473667,12361.439231
252.072088,-3370.820191,-4663.297435,14285.974681
252.072396,-3753.867940,-5181.441594,14952.160028
252.072704,-2911.162892,-4885.359217,14656.077652
252.073012,-1838.629195,-4589.276840,13619.789333
252.073319,459.657299,-2738.761985,11473.192101
252.073627,2528.115143,-148.041188,8068.244768
252.073935,4060.306139,1924.535449,6365.771101
252.074243,5132.839837,3256.906145,5551.544565
252.074551,6128.763984,5329.482782,4145.153275
252.074859,6052.154434,6291.750507,2590.720797
252.075167,5056.230287,5477.523971,3552.988522
252.075475,3830.477490,3182.885551,6069.688724
252.075783,1072.533697,-0.000000,9178.553681
252.076091,-1685.410096,-3330.926739,12435.459826
252.076399,-4290.134789,-6439.791695,14952.160028
252.076707,-5209.449386,-7476.080014,16358.551318
252.077015,-5056.230287,-8142.265362,17024.736666
252.077322,-2911.162892,-5921.647536,15026.180623
252.077630,0.000000,-3552.988522,12213.398043
252.077938,2451.505594,518.144159,8438.347739
252.078246,4903.011187,4071.132681,5329.482782
252.078554,7048.078582,6587.832884,4441.235652
252.078862,8120.612279,8364.327145,3108.864956
252.079170,7967.393179,9178.553681,2220.617826
252.079478,6971.469032,8290.306550,2886.803174
252.079786,4596.572988,4737.318029,5847.626942
252.080094,1455.581446,814.226536,10140.821405
252.080402,-1608.800546,-3404.947333,13619.789333
252.080710,-4903.011187,-5625.565159,15618.345376
252.081018,-6281.983084,-7994.224174,17394.839637
252.081325,-5669.106685,-8142.265362,18505.148550
252.081633,-3140.991542,-5551.544565,16358.551318
252.081941,-689.485948,-2664.741391,12879.583391
252.082249,2221.676944,962.267725,8586.388927
252.082557,4213.525239,4515.256246,5699.585753
252.082865,5822.325785,7328.038826,4959.379811
252.083173,7124.688131,8956.491898,3997.112087
252.083481,7354.516781,9992.780217,1776.494261
252.083789,5975.544884,8438.347739,2738.761985
252.084097,3524.039291,4515.256246,6587.832884
252.084405,-153.219100,-666.185348,10807.006753
252.084713,-4366.744339,-5255.462188,15100.201217
252.085021,-7201.297681,-8364.327145,17098.757260
252.085328,-8350.440928,-10955.047942,18209.066173
252.085636,-6741.640382,-9474.636058,18061.024985
252.085944,-2604.724693,-5403.503377,14952.160028
252.086252,842.705048,-2072.576638,10066.800811
252.086560,4136.915689,2146.597232,5255.462188
252.086868,6435.202183,6291.750507,2516.700203
252.087176,7967.393179,8956.491898,2516.700203
252.087484,8733.488677,9400.615463,2368.659014
252.087792,7277.907231,10066.800811,1628.453072
252.088100,4136.915689,7105.977043,3627.009116
252.088408,1302.362347,1406.391290,9326.594869
252.088716,-3140.991542,-3775.050304,14434.015869
252.089024,-8350.440928,-7624.121203,17394.839637
252.089331,-10572.117872,-11917.315666,20503.704593
252.089639,-11184.994271,-13323.706956,21243.910535
252.089947,-7967.393179,-10288.862594,19023.292709
252.090255,-3830.477490,-5773.606348,13693.809927
252.090563,383.047749,-1036.288319,7772.162391
252.090871,3677.258390,3627.009116,4663.297435
252.091179,6511.811733,8364.327145,2516.700203
252.091487,9039.926876,10510.924376,1702.473667
252.091795,8886.707777,11621.233289,592.164754
252.092103,7354.516781,11177.109724,-444.123565
252.092411,5209.449386,7846.182985,2220.617826
252.092719,1685.410096,962.267725,9400.615463
252.093027,-3370.820191,-4663.297435,15248.242405
252.093334,-7431.126331,-8734.430116,18283.086767
252.093642,-10495.508323,-10362.883188,18431.127956
252.093950,-9499.584175,-11325.150913,18801.230927
252.094258,-5362.668486,-7994.224174,16506.592507
252.094566,-995.924147,-2738.761985,11177.109724
252.094874,2911.162892,1702.473667,6291.750507
252.095182,7660.954980,6069.688724,2516.700203
252.095490,8963.317327,10066.800811,2294.638420
252.095798,9576.193725,10436.903782,1998.556043
252.096106,8273.831378,10362.883188,-222.061783
252.096414,5209.449386,8438.347739,2368.659014
252.096722,1302.362347,2294.638420,8956.491898
252.097029,-1915.238745,-3034.844362,14804.118840
252.097337,-5056.230287,-7698.141797,18801.230927
252.097645,-9346.365076,-11103.089130,19467.416275
252.097953,-11108.384721,-14285.974681,20429.683999
252.098261,-9806.022374,-12953.603985,21021.848753
252.098569,-4443.353888,-7254.018232,16802.674883
252.098877,536.266849,-1184.329507,9326.594869
252.099185,4596.572988,3404.947333,3330.926739
252.099493,8656.879127,7698.141797,814.226536
252.099801,11874.480219,10658.965565,444.123565
252.100109,11261.603821,11547.212695,-1184.329507
252.100417,9422.974625,11621.233289,-1406.391290
252.100725,7737.564530,8808.450710,2146.597232
252.101032,2604.724693,2442.679609,6587.832884
252.101340,-1915.238745,-3923.091493,13767.830521
252.101648,-5898.935335,-7772.162391,17542.880825
252.101956,-9729.412825,-10510.924376,18579.169144
252.102264,-10112.460574,-12287.418637,20133.601622
252.102572,-6971.469032,-9696.697840,18875.251521
252.102880,-1915.238745,-4071.132681,14211.954086
252.103188,2681.334243,1184.329507,7031.956449
252.103496,6971.469032,5773.606348,2590.720797
252.103804,9882.631924,10214.842000,1850.514855
252.104112,10955.165621,10658.965565,2738.761985
252.104420,9806.022374,11473.192101,222.061783
252.104728,6665.030833,10140.821405,1702.473667
252.105035,2145.067394,3775.050304,7402.059420
252.105343,-1225.752797,-2368.659014,14063.912898
252.105651,-4903.011187,-6809.894666,19097.313304
252.105959,-8273.831378,-9696.697840,20059.581028
252.106267,-10878.556072,-12287.418637,19837.519246
252.106575,-10189.070123,-12805.562797,20799.786970
252.106883,-5669.106685,-8216.285956,18209.066173
252.107191,-306.438199,-2294.638420,11843.295072
252.107499,4826.401637,3404.947333,4441.235652
252.107807,7967.393179,8956.491898,962.267725
252.108115,11414.822920,11769.274478,518.144159
252.108423,12027.699319,12657.521608,-888.247130
252.108731,9652.803275,12213.398043,-2072.576638
252.109038,6818.249932,10066.800811,1184.329507
252.109346,2987.772442,3256.906145,7179.997637
252.109654,-1455.581446,-3701.029710,14137.933492
252.109962,-5669.106685,-7698.141797,17542.880825
252.110270,-9422.974625,-10066.800811,17764.942608
252.110578,-10189.070123,-13027.624579,19911.539840
252.110886,-8963.317327,-11547.212695,20207.622217
252.111194,-4443.353888,-6735.874072,16136.489536
252.111502,536.266849,-1110.308913,9770.718434
252.111810,4979.620737,4515.256246,4145.153275
252.112118,8350.440928,9474.636058,0.000000
252.112426,10955.165621,10288.862594,2368.659014
252.112734,9882.631924,11621.233289,666.185348
252.113041,7048.078582,10436.903782,-592.164754
252.113349,3447.429741,5995.668130,5477.523971
252.113657,-536.266849,-1776.494261,12731.542202
252.113965,-4903.011187,-6513.812290,17912.983796
252.114273,-7507.735880,-9696.697840,18505.148550
252.114581,-10801.946522,-12731.542202,18653.189738
252.114889,-9959.241474,-13175.665768,20799.786970
252.115197,-6971.469032,-9770.718434,18949.272115
252.115505,-1378.971896,-3034.844362,12065.356855
252.115813,3677.258390,3627.009116,4737.318029
252.116121,8120.612279,8438.347739,1110.308913
252.116429,10878.556072,9400.615463,1184.329507
252.116737,11261.603821,12065.356855,-2072.576638
252.117044,9882.631924,12583.501014,-1776.494261
252.117352,6818.249932,8734.430116,1924.535449
252.117660,3217.601092,3923.091493,6513.812290
252.117968,-1838.629195,-2294.638420,13101.645173
252.118276,-5056.230287,-6439.791695,17468.860231
252.118584,-9882.631924,-10214.842000,17320.819043
252.118892,-11031.775171,-11917.315666,19319.375086
252.119200,-8197.221829,-10362.883188,19985.560434
252.119508,-4979.620737,-6587.832884,16358.551318
252.119816,383.047749,-962.267725,10584.944971
252.120124,4903.011187,4145.153275,4441.235652
252.120432,7507.735880,8364.327145,148.041188
252.120740,10189.070123,9474.636058,2220.617826
252.121047,9729.412825,11325.150913,1406.391290
252.121355,7354.516781,9696.697840,962.267725
252.121663,3447.429741,5625.565159,5033.400406
252.121971,-842.705048,-666.185348,11695.253884
252.122279,-3907.087040,-5847.626942,17024.736666
252.122587,-7507.735880,-8956.491898,18505.148550
252.122895,-9422.974625,-11399.171507,18505.148550
252.123203,-9193.145976,-11843.295072,19689.478057
252.123511,-7201.297681,-9400.615463,18727.210333
252.123819,-2145.067394,-3923.091493,13175.665768
252.124127,2987.772442,3034.844362,6217.729913
252.124435,6665.030833,7105.977043,1406.391290
252.124743,9729.412825,10362.883188,148.041188
252.125050,11338.213370,10881.027347,740.205942
252.125358,9576.193725,11251.130318,-1406.391290
252.125666,7277.907231,10140.821405,148.041188
252.125974,3907.087040,4885.359217,5921.647536
252.126282,-459.657299,-1554.432478,11325.150913
252.126590,-4596.572988,-5995.668130,17320.819043
252.126898,-7814.174080,-8364.327145,17690.922014
252.127206,-9499.584175,-10510.924376,19023.292709
252.127514,-8886.707777,-11029.068536,20503.704593
252.127822,-5209.449386,-6365.771101,16580.613101
252.128130,-229.828649,-1776.494261,11843.295072
252.128438,3983.696590,3478.967927,6365.771101
252.128745,7048.078582,7920.203579,2664.741391
252.129053,9729.412825,8438.347739,2886.803174
252.129361,9806.022374,10214.842000,1036.288319
252.129669,7507.735880,10584.944971,222.061783
252.129977,4519.963438,6809.894666,4367.215058
252.130285,1225.752797,962.267725,9696.697840
252.130593,-2681.334243,-4737.318029,15988.448347
252.130901,-5669.106685,-7772.162391,18949.272115
252.131209,-9269.755526,-10881.027347,18727.210333
252.131517,-9576.193725,-11991.336260,19541.436869
252.131825,-7737.564530,-9548.656652,18357.107362
252.132133,-4060.306139,-5477.523971,14211.954086
252.132441,3294.210641,1332.370696,9326.594869
252.132748,5439.278036,7179.997637,666.185348
252.133056,8427.050478,9844.739029,592.164754
252.133364,11261.603821,9252.574275,2146.597232
252.133672,9806.022374,11621.233289,-1776.494261
252.133980,7814.174080,9400.615463,0.000000
252.134288,5286.058936,4811.338623,4885.359217
252.134596,76.609550,-814.226536,9696.697840
252.134904,-3983.696590,-5699.585753,16358.551318
252.135212,-7354.516781,-8808.450710,17172.777854
252.135520,-9193.145976,-10362.883188,18357.107362
252.135828,-8350.440928,-11103.089130,19837.519246
252.136136,-5209.449386,-6661.853478,16580.613101
252.136444,76.609550,-1850.514855,11917.315666
252.136751,4213.525239,2664.741391,6661.853478
252.137059,7584.345430,7698.141797,962.267725
252.137367,9422.974625,8660.409521,2220.617826
252.137675,10342.289223,11103.089130,1184.329507
252.137983,7660.954980,10510.924376,222.061783
252.138291,5209.449386,7105.977043,4441.235652
252.138599,1225.752797,814.226536,9696.697840
252.138907,-2911.162892,-3923.091493,15322.262999
252.139215,-5439.278036,-7994.224174,19911.539840
252.139523,-9422.974625,-10510.924376,18801.230927
252.139831,-9959.241474,-11843.295072,19615.457463
252.140139,-8273.831378,-9474.636058,19467.416275
252.140447,-3524.039291,-5329.482782,15396.283594
252.140754,1915.238745,1332.370696,8956.491898
252.141062,5669.106685,6513.812290,2442.679609
252.141370,8197.221829,9104.533087,1406.391290
252.141678,10572.117872,9696.697840,1998.556043
252.141986,9729.412825,11103.089130,-518.144159
252.142294,7507.735880,10362.883188,-592.164754
252.142602,4903.011187,5921.647536,5107.421000
252.142910,689.485948,296.082377,9400.615463
252.143218,-3294.210641,-5033.400406,15544.324782
252.143526,-6511.811733,-8068.244768,17690.922014
252.143834,-9269.755526,-10066.800811,17764.942608
252.144142,-7890.783629,-10510.924376,19467.416275
252.144450,-5745.716235,-6587.832884,16432.571912
252.144757,-1149.143247,-2516.700203,12657.521608
252.145065,2604.724693,2368.659014,7105.977043
252.145373,6665.030833,7105.977043,1850.514855
252.145681,8580.269578,8142.265362,2294.638420
252.145989,9806.022374,10436.903782,2368.659014
252.146297,7737.564530,9474.636058,1258.350101
252.146605,4673.182538,6513.812290,3627.009116
252.146913,1225.752797,888.247130,9770.718434
252.147221,-3064.381992,-4589.276840,15914.427753
252.147529,-6358.592633,-7698.141797,18801.230927
252.147837,-9576.193725,-10584.944971,18653.189738
252.148145,-9346.365076,-11843.295072,19541.436869
252.148453,-7890.783629,-9844.739029,18949.272115
252.148760,-4213.525239,-5699.585753,15100.201217
252.149068,919.314598,444.123565,8660.409521
252.149376,5132.839837,6587.832884,2072.576638
252.149684,7660.954980,8068.244768,2072.576638
252.149992,9806.022374,10881.027347,1554.432478
252.150300,9269.755526,11251.130318,-1702.473667
252.150608,7124.688131,9252.574275,0.000000
252.150916,4213.525239,5181.441594,5181.441594
252.151224,383.047749,962.267725,9400.615463
252.151532,-2681.334243,-4663.297435,15396.283594
252.151840,-6205.373534,-7772.162391,16728.654289
252.152148,-9269.755526,-9844.739029,16654.633695
252.152456,-8963.317327,-10584.944971,19245.354492
252.152763,-6358.592633,-7920.203579,17320.819043
252.153071,-1378.971896,-2516.700203,12731.542202
252.153379,2221.676944,1480.411884,7031.956449
252.153687,6971.469032,6513.812290,3775.050304
252.153995,7354.516781,7920.203579,1332.370696
252.154303,9039.926876,9474.636058,1110.308913
252.154611,7890.783629,9474.636058,1258.350101
252.154919,4519.963438,6587.832884,3552.988522
252.155227,1685.410096,1110.308913,10140.821405
252.155535,-2604.724693,-4737.318029,15396.283594
252.155843,-5286.058936,-7772.162391,18875.251521
252.156151,-9269.755526,-10732.986159,18579.169144
252.156458,-9116.536426,-11621.233289,18801.230927
252.156766,-7660.954980,-9326.594869,18357.107362
252.157074,-3524.039291,-5255.462188,14952.160028
252.157382,2298.286494,1184.329507,8586.388927
252.157690,5669.106685,6883.915261,1628.453072
252.157998,8656.879127,7550.100608,2146.597232
252.158306,10418.898773,10881.027347,148.041188
252.158614,10418.898773,11399.171507,-1406.391290
252.158922,8120.612279,9474.636058,1036.288319
252.159230,5132.839837,5329.482782,4885.359217
252.159538,919.314598,444.123565,9918.759623
252.159846,-2681.334243,-4219.173869,14952.160028
252.160154,-6665.030833,-8068.244768,16950.716072
252.160461,-8503.660028,-9770.718434,17246.798449
252.160769,-8273.831378,-9622.677246,19023.292709
252.161077,-6205.373534,-6883.915261,17542.880825
252.161385,-1378.971896,-3627.009116,13323.706956
252.161693,2681.334243,2294.638420,7402.059420
252.162001,6052.154434,6735.874072,3108.864956
252.162309,8044.002729,7105.977043,3034.844362
252.162617,9346.365076,9696.697840,1776.494261
252.162925,7354.516781,9844.739029,1184.329507
252.163233,6205.373534,6957.935855,4219.173869
252.163541,1762.019645,1258.350101,9104.533087
252.163849,-2298.286494,-3849.070898,15396.283594
252.164157,-4673.182538,-6957.935855,18949.272115
252.164464,-7890.783629,-9622.677246,17987.004391
252.164772,-8733.488677,-11251.130318,18579.169144
252.165080,-6818.249932,-9252.574275,18653.189738
252.165388,-3830.477490,-5995.668130,15100.201217
252.165696,1608.800546,148.041188,8882.471304
252.166004,5745.716235,6291.750507,3108.864956
252.166312,8273.831378,7179.997637,3034.844362
252.166620,9499.584175,10732.986159,74.020594
252.166928,9116.536426,11769.274478,-1332.370696
252.167236,7660.954980,9548.656652,1850.514855
252.167544,4136.915689,5995.668130,5033.400406
252.167852,1378.971896,1480.411884,10288.862594
252.168160,-2374.896044,-3182.885551,15988.448347
252.168468,-6894.859482,-7328.038826,17394.839637
252.168776,-8886.707777,-9474.636058,17764.942608
252.169084,-8580.269578,-9844.739029,19615.457463
252.169392,-6818.249932,-7476.080014,17616.901420
252.169700,-2374.896044,-3849.070898,13767.830521
252.170008,2451.505594,3182.885551,7254.018232
252.170316,6052.154434,6365.771101,3108.864956
252.170624,8427.050478,7328.038826,3478.967927
252.170933,9499.584175,9844.739029,814.226536
252.171241,8120.612279,10436.903782,-74.020594
252.171549,5745.716235,6587.832884,4293.194464
252.171857,2145.067394,2294.638420,8512.368333
252.172165,-1762.019645,-3404.947333,14508.036463
252.172473,-5669.106685,-7254.018232,17616.901420
252.172781,-7890.783629,-10955.047942,18431.127956
252.173089,-9499.584175,-11621.233289,18875.251521
252.173397,-7660.954980,-9770.718434,18061.024985
252.173705,-4213.525239,-6365.771101,15100.201217
252.174013,1149.143247,370.102971,9104.533087
252.174321,4903.011187,5551.544565,1998.556043
252.174629,7507.735880,6661.853478,1628.453072
252.174937,10112.460574,10214.842000,1110.308913
252.175245,10495.508323,10955.047942,-1480.411884
252.175553,8197.221829,9326.594869,0.000000
252.175861,5362.668486,5329.482782,4589.276840
252.176169,1302.362347,962.267725,9030.512492
252.176477,-2374.896044,-3775.050304,14359.995275
252.176785,-7048.078582,-8216.285956,16580.613101
252.177093,-8886.707777,-10362.883188,17616.901420
252.177401,-9039.926876,-9992.780217,19689.478057
252.177709,-7277.907231,-7846.182985,16950.716072
252.178017,-2068.457845,-4145.153275,13249.686362
252.178326,2451.505594,2738.761985,6735.874072
252.178634,5822.325785,6513.812290,2590.720797
252.178942,8886.707777,7920.203579,2738.761985
252.179250,10265.679673,10510.924376,518.144159
252.179558,8580.269578,11029.068536,-740.205942
252.179866,6128.763984,7105.977043,3552.988522
252.180174,2451.505594,2590.720797,8734.430116
252.180482,-2221.676944,-3330.926739,14878.139434
252.180790,-5592.497135,-7328.038826,18135.045579
252.181098,-8656.879127,-10436.903782,18653.189738
252.181406,-9576.193725,-11769.274478,19615.457463
252.181714,-8197.221829,-9548.656652,19097.313304
252.182022,-4519.963438,-6587.832884,16210.510130
252.182330,536.266849,-370.102971,10066.800811
252.182638,5362.668486,5181.441594,3997.112087
252.182946,7967.393179,6291.750507,2368.659014
252.183254,9882.631924,9992.780217,296.082377
252.183562,10189.070123,11547.212695,-1110.308913
252.183870,8580.269578,10362.883188,444.123565
252.184178,5362.668486,6291.750507,4071.132681
252.184486,1762.019645,1628.453072,9252.574275
252.184794,-1915.238745,-3182.885551,14804.118840
252.185102,-6205.373534,-7772.162391,16580.613101
252.185410,-8810.098227,-10140.821405,17690.922014
252.185719,-9576.193725,-10584.944971,19985.560434
252.186027,-7584.345430,-7920.203579,17987.004391
252.186335,-2757.943793,-4441.235652,14211.954086
252.186643,1915.238745,2886.803174,7698.141797
252.186951,5745.716235,6069.688724,2960.823768
252.187259,8656.879127,7846.182985,2590.720797
252.187567,9729.412825,10510.924376,666.185348
252.187875,8656.879127,11103.089130,-222.061783
252.188183,6205.373534,7254.018232,3849.070898
252.188491,2451.505594,2516.700203,8808.450710
252.188799,-1532.190996,-2886.803174,14508.036463
252.189107,-5515.887586,-7254.018232,17912.983796
252.189415,-8427.050478,-10214.842000,19097.313304
252.189723,-9729.412825,-11769.274478,19689.478057
252.190031,-8656.879127,-9918.759623,19245.354492
252.190339,-4903.011187,-7476.080014,16654.633695
252.190647,536.266849,518.144159,9252.574275
252.190955,4903.011187,4589.276840,4219.173869
252.191263,8197.221829,8068.244768,1776.494261
252.191571,10112.460574,10140.821405,-148.041188
252.191879,10418.898773,11843.295072,-1924.535449
252.192187,8886.707777,10288.862594,518.144159
252.192495,5515.887586,6661.853478,4663.297435
252.192803,1838.629195,2072.576638,8216.285956
252.193112,-2451.505594,-3552.988522,13693.809927
252.193420,-5592.497135,-6735.874072,16876.695478
252.193728,-9039.926876,-10288.862594,18209.066173
252.194036,-9959.241474,-10658.965565,19911.539840
252.194344,-7737.564530,-8586.388927,18061.024985
252.194652,-2681.334243,-4441.235652,14508.036463
252.194960,1838.629195,1924.535449,7550.100608
252.195268,5515.887586,5107.421000,2220.617826
252.195576,8886.707777,7994.224174,1998.556043
252.195884,9806.022374,10288.862594,444.123565
252.196192,8580.269578,10066.800811,518.144159
252.196500,6358.592633,7402.059420,3478.967927
252.196808,2451.505594,2664.741391,8216.285956
252.197116,-1378.971896,-2812.782580,13841.851115
252.197424,-5898.935335,-7254.018232,16580.613101
252.197732,-8427.050478,-10066.800811,19319.375086
252.198040,-10112.460574,-11325.150913,19245.354492
252.198348,-8733.488677,-10288.862594,19097.313304
252.198656,-4826.401637,-7328.038826,16284.530724
252.198964,536.266849,-148.041188,9178.553681
252.199272,5592.497135,4737.318029,2886.803174
252.199580,7660.954980,6513.812290,1628.453072
252.199888,10418.898773,9030.512492,74.020594
252.200196,10572.117872,11547.212695,-1924.535449
252.200505,8580.269578,10658.965565,444.123565
252.200813,6052.154434,6883.915261,3849.070898
252.201121,1608.800546,2368.659014,8364.327145
252.201429,-1915.238745,-2812.782580,14211.954086
252.201737,-6205.373534,-7179.997637,17024.736666
252.202045,-9959.241474,-10214.842000,18949.272115
252.202353,-10112.460574,-11177.109724,20133.601622
252.202661,-7201.297681,-8660.409521,18875.251521
252.202969,-2681.334243,-4737.318029,14434.015869
252.203277,2068.457845,1924.535449,7698.141797
252.203585,6358.592633,6439.791695,2442.679609
252.203893,8733.488677,7994.224174,1480.411884
252.204201,10418.898773,10658.965565,814.226536
252.204509,9193.145976,10584.944971,370.102971
252.204817,5898.935335,7624.121203,3034.844362
252.205125,2221.676944,1924.535449,8734.430116
252.205433,-2757.943793,-3404.947333,14656.077652
252.205741,-5822.325785,-6661.853478,18357.107362
252.206049,-9269.755526,-10140.821405,18875.251521
252.206357,-9806.022374,-11251.130318,19985.560434
252.206665,-8810.098227,-10436.903782,19097.313304
252.206973,-3830.477490,-7105.977043,16432.571912
252.207281,1608.800546,-370.102971,9252.574275
252.207589,4979.620737,5477.523971,2886.803174
252.207898,8733.488677,7698.141797,1850.514855
252.208206,10342.289223,10288.862594,888.247130
252.208514,10572.117872,11177.109724,-444.123565
252.208822,7814.174080,10807.006753,-814.226536
252.209130,6128.763984,6735.874072,3997.112087
252.209438,1532.190996,1628.453072,9178.553681
252.209746,-2145.067394,-3701.029710,13693.809927
252.210054,-5822.325785,-7254.018232,17024.736666
252.210362,-9346.365076,-9992.780217,17912.983796
252.210670,-9346.365076,-11251.130318,21021.848753
252.210978,-6971.469032,-8512.368333,18061.024985
252.211286,-2145.067394,-3775.050304,13841.851115
252.211594,2451.505594,1776.494261,6883.915261
252.211902,7124.688131,6143.709319,2294.638420
252.212210,8733.488677,8068.244768,2146.597232
252.212518,10495.508323,9622.677246,1110.308913
252.212826,8427.050478,10510.924376,962.267725
252.213134,5056.230287,7476.080014,3849.070898
252.213442,1455.581446,2294.638420,9104.533087
252.213750,-2528.115143,-3256.906145,15026.180623
252.214058,-5209.449386,-7105.977043,18209.066173
252.214366,-9576.193725,-10362.883188,18801.230927
252.214674,-9346.365076,-11991.336260,19837.519246
252.214983,-8350.440928,-10436.903782,19837.519246
252.215291,-4060.306139,-7476.080014,15988.448347
252.215599,1302.362347,-0.000000,9252.574275
252.215907,5439.278036,5107.421000,2664.741391
252.216215,8350.440928,7105.977043,1628.453072
252.216523,10342.289223,10066.800811,444.123565
252.216831,10189.070123,12139.377449,-1554.432478
252.217139,9499.584175,10288.862594,148.041188
252.217447,7048.078582,7105.977043,3256.906145
252.217755,1685.410096,2220.617826,8364.327145
252.218063,-1685.410096,-2738.761985,13471.748144
252.218371,-5898.935335,-6661.853478,16506.592507
252.218679,-9193.145976,-9918.759623,17764.942608
252.218987,-8886.707777,-11251.130318,20059.581028
252.219295,-7507.735880,-8586.388927,17912.983796
252.219603,-2987.772442,-3997.112087,13989.892304
252.219911,2451.505594,666.185348,7550.100608
252.220219,6588.421283,6365.771101,2368.659014
252.220527,8580.269578,7994.224174,2072.576638
252.220835,10189.070123,10288.862594,1406.391290
252.221143,8503.660028,10288.862594,1332.370696
252.221451,5439.278036,7179.997637,3627.009116
252.221759,1608.800546,2368.659014,8808.450710
252.222067,-2221.676944,-3256.906145,15248.242405
252.222376,-5439.278036,-6809.894666,18653.189738
252.222684,-9116.536426,-9992.780217,18431.127956
252.222992,-9652.803275,-11473.192101,19689.478057
252.223300,-8427.050478,-10510.924376,19467.416275
252.223608,-4443.353888,-6957.935855,16062.468941
252.223916,842.705048,-296.082377,9770.718434
252.224224,5286.058936,4367.215058,3627.009116
252.224532,8503.660028,7920.203579,1554.432478
252.224840,10342.289223,9178.553681,888.247130
252.225148,10572.117872,10881.027347,-592.164754
252.225456,8120.612279,10658.965565,-370.102971
252.225764,5898.935335,6957.935855,3552.988522
252.226072,1532.190996,1998.556043,7994.224174
252.226380,-2068.457845,-2738.761985,13841.851115
252.226688,-5745.716235,-6883.915261,16358.551318
252.226996,-9422.974625,-9474.636058,17838.963202
252.227304,-8963.317327,-10214.842000,19837.519246
252.227612,-6971.469032,-8068.244768,18135.045579
252.227920,-2374.896044,-4071.132681,14211.954086
252.228228,2681.334243,2146.597232,7328.038826
252.228536,5592.497135,5625.565159,2738.761985
252.228844,8350.440928,7698.141797,2960.823768
252.229152,8886.707777,9696.697840,1628.453072
252.229460,7277.907231,10584.944971,1480.411884
252.229769,5515.887586,7402.059420,4071.132681
252.230077,1455.581446,2294.638420,8438.347739
252.230385,-2298.286494,-2738.761985,14434.015869
252.230693,-5286.058936,-6735.874072,17838.963202
252.231001,-8656.879127,-9474.636058,18801.230927
252.231309,-9729.412825,-11029.068536,19541.436869
252.231617,-8120.612279,-10288.862594,19541.436869
252.231925,-4290.134789,-7031.956449,17024.736666
252.232233,383.047749,-1258.350101,9548.656652
252.232541,5592.497135,4293.194464,4145.153275
252.232849,7814.174080,5847.626942,1998.556043
252.233157,9959.241474,9844.739029,0.000000
252.233465,10112.460574,11621.233289,-888.247130
252.233773,9576.193725,10436.903782,222.061783
252.234081,6281.983084,6957.935855,3034.844362
252.234389,1838.629195,2812.782580,7846.182985
252.234697,-1149.143247,-2072.576638,13693.809927
252.235005,-5745.716235,-6587.832884,16432.571912
252.235313,-8886.707777,-9474.636058,17320.819043
252.235621,-9806.022374,-10732.986159,19837.519246
252.235929,-7584.345430,-8956.491898,18653.189738
252.236237,-2911.162892,-4959.379811,14582.057057
252.236545,1991.848295,962.267725,8586.388927
252.236853,5822.325785,5107.421000,2738.761985
252.237162,8427.050478,7179.997637,2072.576638
252.237470,9806.022374,10066.800811,1110.308913
252.237778,8580.269578,10807.006753,148.041188
252.238086,6205.373534,8142.265362,3108.864956
252.238394,2145.067394,2442.679609,7772.162391
252.238702,-1838.629195,-2590.720797,14063.912898
252.239010,-5056.230287,-5921.647536,17690.922014
252.239318,-8044.002729,-9622.677246,17838.963202
252.239626,-9576.193725,-11251.130318,19097.313304
252.239934,-8656.879127,-10362.883188,19245.354492
252.240242,-4903.011187,-7772.162391,16876.695478
252.240550,383.047749,-1332.370696,10510.924376
252.240858,4596.572988,4367.215058,3182.885551
252.241166,7967.393179,5847.626942,2294.638420
252.241474,9806.022374,9918.759623,444.123565
252.241782,11108.384721,11473.192101,-1258.350101
252.242090,9346.365076,10436.903782,-518.144159
252.242398,6741.640382,7624.121203,2590.720797
252.242706,2528.115143,2960.823768,7105.977043
252.243014,-1072.533697,-2664.741391,12879.583391
252.243322,-5592.497135,-6957.935855,16358.551318
252.243630,-9346.365076,-10140.821405,17912.983796
252.243938,-9806.022374,-11251.130318,20725.766376
252.244246,-8350.440928,-9030.512492,19023.292709
252.244555,-3524.039291,-5477.523971,15322.262999
252.244863,1455.581446,518.144159,9104.533087
252.245171,5975.544884,5329.482782,3552.988522
252.245479,7967.393179,7179.997637,1702.473667
252.245787,9959.241474,10214.842000,888.247130
252.246095,9116.536426,9844.739029,740.205942
252.246403,6052.154434,8142.265362,2442.679609
252.246711,3294.210641,3404.947333,7328.038826
252.247019,-1455.581446,-2368.659014,13767.830521
252.247327,-4903.011187,-5329.482782,17172.777854
252.247635,-8273.831378,-9474.636058,18283.086767
252.247943,-10035.851024,-10955.047942,19097.313304
252.248251,-8503.660028,-10732.986159,19837.519246
252.248559,-5286.058936,-7920.203579,17024.736666
252.248867,0.000000,-1776.494261,11473.192101
252.249175,4596.572988,4219.173869,4145.153275
252.249483,7354.516781,6217.729913,2072.576638
252.249791,9806.022374,10436.903782,740.205942
252.250099,11108.384721,11621.233289,-814.226536
252.250407,9729.412825,10807.006753,-592.164754
252.250715,7048.078582,7920.203579,2516.700203
252.251023,2987.772442,3182.885551,7031.956449
252.251331,-536.266849,-2368.659014,13323.706956
252.251639,-5439.278036,-6957.935855,16802.674883
252.251948,-8656.879127,-9622.677246,17912.983796
252.252256,-9806.022374,-10807.006753,19985.560434
252.252564,-7737.564530,-8734.430116,18949.272115
252.252872,-3524.039291,-5255.462188,14952.160028
252.253180,2145.067394,1702.473667,8216.285956
252.253488,5286.058936,4293.194464,4367.215058
252.253796,8120.612279,8364.327145,1924.535449
252.254104,9193.145976,9992.780217,1258.350101
252.254412,9039.926876,9844.739029,1554.432478
252.254720,5975.544884,8290.306550,2442.679609
252.255028,2604.724693,4145.153275,7624.121203
252.255336,-919.314598,-1184.329507,12879.583391
252.255644,-5056.230287,-6069.688724,16876.695478
252.255952,-7967.393179,-9104.533087,18579.169144
252.256260,-10265.679673,-10955.047942,19689.478057
252.256568,-10035.851024,-10436.903782,20429.683999
252.256876,-6358.592633,-8882.471304,18209.066173
252.257184,-1072.533697,-3108.864956,11991.336260
252.257492,3677.258390,3701.029710,4071.132681
252.257800,7277.907231,5921.647536,2220.617826
252.258108,8886.707777,9178.553681,1554.432478
252.258416,11108.384721,11103.089130,-666.185348
252.258724,9806.022374,10955.047942,-1332.370696
252.259032,7660.954980,8068.244768,1554.432478
252.259341,3600.648841,3701.029710,5551.544565
252.259649,-229.828649,-1924.535449,11917.315666
252.259957,-4519.963438,-6291.750507,16358.551318
252.260265,-8197.221829,-9252.574275,16876.695478
252.260573,-9806.022374,-11473.192101,19837.519246
252.260881,-8427.050478,-9918.759623,19467.416275
252.261189,-4519.963438,-6439.791695,15322.262999
252.261497,0.000000,592.164754,9622.677246
252.261805,5439.278036,4663.297435,3997.112087
252.262113,7124.688131,6957.935855,1554.432478
252.262421,9116.536426,9844.739029,1332.370696
252.262729,9422.974625,10436.903782,444.123565
252.263037,7201.297681,8882.471304,1776.494261
252.263345,3524.039291,4293.194464,6661.853478
252.263653,-919.314598,-1406.391290,12435.459826
252.263961,-4596.572988,-5625.565159,16654.633695
252.264269,-8427.050478,-8956.491898,18653.189738
252.264577,-10035.851024,-11399.171507,19837.519246
252.264885,-9576.193725,-11029.068536,20281.642811
252.265193,-6818.249932,-9548.656652,18357.107362
252.265501,-1685.410096,-3849.070898,12731.542202
252.265810,3447.429741,2590.720797,5255.462188
252.266118,7354.516781,6217.729913,1998.556043
252.266426,9116.536426,8660.409521,962.267725
252.266734,11568.042020,11325.150913,-666.185348
252.267042,9806.022374,11547.212695,-1850.514855
252.267350,8120.612279,8882.471304,814.226536
252.267658,4060.306139,4515.256246,5329.482782
252.267966,-459.657299,-1554.432478,12213.398043
252.268274,-4903.011187,-5921.647536,16802.674883
252.268582,-8350.440928,-9548.656652,17394.839637
252.268891,-9806.022374,-11695.253884,19763.498651
252.269199,-8120.612279,-9770.718434,19467.416275
252.269507,-4749.792088,-6513.812290,15248.242405
252.269815,306.438199,-148.041188,10140.821405
252.270123,4519.963438,4515.256246,4071.132681
252.270431,7354.516781,7328.038826,3478.967927
252.270739,9269.755526,10510.924376,1628.453072
252.271047,8503.660028,11103.089130,962.267725
252.271355,7431.126331,8586.388927,2368.659014
252.271663,3677.258390,5477.523971,6069.688724
252.271972,-536.266849,-1036.288319,12953.603985
252.272280,-4213.525239,-4959.379811,16654.633695
252.272588,-8120.612279,-8290.306550,18653.189738
252.272896,-9499.584175,-11029.068536,19837.519246
252.273204,-9193.145976,-11399.171507,19837.519246
252.273512,-6741.640382,-9400.615463,18653.189738
252.273820,-1532.190996,-3997.112087,12435.459826
252.274128,2911.162892,2516.700203,5847.626942
252.274436,7201.297681,6513.812290,2812.782580
252.274745,9269.755526,8216.285956,1036.288319
252.275053,11261.603821,10807.006753,-370.102971
252.275361,9729.412825,11547.212695,-1628.453072
252.275669,8273.831378,9030.512492,1258.350101
252.275977,4136.915689,4441.235652,5551.544565
252.276285,229.828649,-1406.391290,12287.418637
252.276593,-3753.867940,-4737.318029,16506.592507
252.276901,-7584.345430,-8290.306550,16950.716072
252.277209,-9193.145976,-11473.192101,19615.457463
252.277517,-8963.317327,-9770.718434,19245.354492
252.277826,-5286.058936,-7105.977043,15840.407159
252.278134,153.219100,-1184.329507,10732.986159
252.278442,4673.182538,4515.256246,4959.379811
252.278750,7124.688131,5995.668130,3552.988522
252.279058,8810.098227,9474.636058,1258.350101
252.279366,9269.755526,10436.903782,666.185348
252.279674,7048.078582,9030.512492,1924.535449
252.279982,4519.963438,5551.544565,5255.462188
252.280290,383.047749,-148.041188,11917.315666
252.280598,-3753.867940,-4071.132681,15988.448347
252.280907,-7048.078582,-8734.430116,17764.942608
252.281215,-9422.974625,-11029.068536,19097.313304
252.281523,-9346.365076,-10955.047942,19319.375086
252.281831,-6665.030833,-9178.553681,17912.983796
252.282139,-1838.629195,-3701.029710,12657.521608
252.282447,2604.724693,2738.761985,6217.729913
252.282755,6588.421283,5699.585753,3182.885551
252.283063,8503.660028,7698.141797,740.205942
252.283371,10955.165621,10436.903782,-592.164754
252.283679,9806.022374,11399.171507,-2072.576638
252.283988,7967.393179,8882.471304,888.247130
252.284296,4290.134789,4811.338623,5255.462188
252.284604,153.219100,-1184.329507,11843.295072
252.284912,-4136.915689,-5107.421000,16432.571912
252.285220,-8273.831378,-9400.615463,17024.736666
252.285528,-9422.974625,-11547.212695,19541.436869
252.285836,-8350.440928,-9918.759623,18949.272115
252.286144,-4903.011187,-6809.894666,15840.407159
252.286452,0.000000,-666.185348,10807.006753
252.286761,4443.353888,3997.112087,5255.462188
252.287069,6588.421283,5995.668130,2886.803174
252.287377,9346.365076,8808.450710,1184.329507
252.287685,9729.412825,10658.965565,444.123565
252.287993,7507.735880,8512.368333,2072.576638
252.288301,4060.306139,5329.482782,5625.565159
252.288609,-612.876398,-296.082377,12213.398043
252.288917,-4213.525239,-4293.194464,16654.633695
252.289225,-7737.564530,-8142.265362,18357.107362
252.289533,-9499.584175,-10584.944971,19541.436869
252.289842,-9576.193725,-11177.109724,19393.395680
252.290150,-6971.469032,-9326.594869,18061.024985
252.290458,-2298.286494,-4219.173869,13101.645173
252.290766,2451.505594,2738.761985,6587.832884
252.291074,6205.373534,4885.359217,3923.091493
252.291382,8503.660028,9104.533087,222.061783
252.291690,10648.727422,11473.192101,-740.205942
252.291998,9806.022374,10955.047942,-814.226536
252.292306,8197.221829,9400.615463,1702.473667
252.292614,4443.353888,4663.297435,6069.688724
252.292923,229.828649,-592.164754,11621.233289
252.293231,-4213.525239,-5329.482782,16284.530724
252.293539,-7507.735880,-9326.594869,17764.942608
252.293847,-9499.584175,-10436.903782,19023.292709
252.294155,-8350.440928,-9696.697840,19097.313304
252.294463,-4519.963438,-6439.791695,15988.448347
252.294771,536.266849,-0.000000,11621.233289
252.295079,4290.134789,3034.844362,5921.647536
252.295387,7124.688131,6809.894666,2220.617826
252.295696,9346.365076,9548.656652,1480.411884
252.296004,9806.022374,10732.986159,814.226536
252.296312,7507.735880,8808.450710,1776.494261
252.296620,4060.306139,5847.626942,6291.750507
252.296928,306.438199,222.061783,11769.274478
252.297236,-4290.134789,-4589.276840,16358.551318
252.297544,-7507.735880,-8364.327145,18949.272115
252.297852,-10418.898773,-11547.212695,20355.663405
252.298160,-10035.851024,-11621.233289,20207.622217
252.298468,-7201.297681,-9844.739029,18727.210333
252.298777,-2681.334243,-3108.864956,12879.583391
252.299085,2221.676944,2368.659014,6809.894666
252.299393,6588.421283,4219.173869,3923.091493
252.299701,8503.660028,8808.450710,0.000000
252.300009,11568.042020,11843.295072,-1850.514855
252.300317,10648.727422,11029.068536,-1406.391290
252.300625,8656.879127,8808.450710,370.102971
252.300933,4596.572988,4737.318029,4811.338623
252.301241,612.876398,-370.102971,10881.027347
252.301549,-3600.648841,-5625.565159,15322.262999
252.301858,-7431.126331,-8956.491898,17024.736666
252.302166,-9039.926876,-10881.027347,18727.210333
252.302474,-8197.221829,-10362.883188,18653.189738
252.302782,-5669.106685,-5921.647536,15322.262999
252.303090,-536.266849,-962.267725,11547.212695
252.303398,4213.525239,2960.823768,6291.750507
252.303706,6741.640382,6883.915261,1850.514855
252.304014,8886.707777,9622.677246,518.144159
252.304322,10035.851024,9918.759623,814.226536
252.304630,7584.345430,9400.615463,1406.391290
252.304939,5056.230287,5773.606348,5699.585753
252.305247,76.609550,592.164754,10362.883188
252.305555,-4060.306139,-4441.235652,15544.324782
252.305863,-7354.516781,-8956.491898,18949.272115
252.306171,-10418.898773,-11473.192101,19689.478057
252.306479,-10342.289223,-11917.315666,20207.622217
252.306787,-7660.954980,-9992.780217,19023.292709
252.307095,-3140.991542,-3552.988522,13693.809927
252.307403,1991.848295,1628.453072,7550.100608
252.307712,5822.325785,4589.276840,3182.885551
252.308020,8427.050478,9104.533087,-222.061783
252.308328,11414.822920,11029.068536,-814.226536
252.308636,11031.775171,11177.109724,-1184.329507
252.308944,8580.269578,9474.636058,592.164754
252.309252,5592.497135,5255.462188,5181.441594
252.309560,612.876398,-222.061783,10658.965565
252.309868,-3983.696590,-5181.441594,15248.242405
252.310176,-7967.393179,-9326.594869,18209.066173
252.310484,-10112.460574,-11325.150913,19245.354492
252.310793,-9193.145976,-9992.780217,18949.272115
252.311101,-5515.887586,-6661.853478,16802.674883
252.311409,-383.047749,-1332.370696,11547.212695
252.311717,3753.867940,3034.844362,5625.565159
252.312025,6741.640382,6439.791695,2516.700203
252.312333,9729.412825,9770.718434,962.267725
252.312641,10955.165621,10362.883188,518.144159
252.312949,8120.612279,9844.739029,1998.556043
252.313257,5056.230287,6661.853478,4959.379811
252.313565,306.438199,814.226536,10288.862594
252.313874,-3753.867940,-4145.153275,15988.448347
252.314182,-7048.078582,-8586.388927,19319.375086
252.314490,-9806.022374,-11177.109724,20059.581028
252.314798,-10112.460574,-11547.212695,20503.704593
252.315106,-7660.954980,-9696.697840,19097.313304
252.315414,-3294.210641,-4145.153275,14211.954086
252.315722,1991.848295,1480.411884,7846.182985
252.316030,6205.373534,5921.647536,2812.782580
252.316338,9499.584175,9474.636058,222.061783
252.316647,11414.822920,11177.109724,-814.226536
252.316955,10878.556072,11399.171507,-1036.288319
252.317263,8963.317327,9548.656652,814.226536
252.317571,5056.230287,5403.503377,4885.359217
252.317879,306.438199,-148.041188,10955.047942
252.318187,-3907.087040,-5477.523971,16284.530724
252.318495,-7431.126331,-9400.615463,17912.983796
252.318803,-9806.022374,-10881.027347,19245.354492
252.319111,-9499.584175,-10140.821405,19911.539840
252.319419,-6052.154434,-6883.915261,17172.777854
252.319728,-689.485948,-1776.494261,12065.356855
252.320036,3983.696590,3108.864956,6217.729913
252.320344,7354.516781,6809.894666,2294.638420
252.320652,9806.022374,9696.697840,518.144159
252.320960,10418.898773,10436.903782,222.061783
252.321268,8503.660028,9622.677246,1702.473667
252.321576,5439.278036,6291.750507,4515.256246
252.321884,689.485948,962.267725,9622.677246
252.322192,-2451.505594,-4589.276840,15248.242405
252.322500,-6894.859482,-8956.491898,18801.230927
252.322809,-9576.193725,-11177.109724,19023.292709
252.323117,-10189.070123,-11473.192101,19763.498651
252.323425,-7967.393179,-9622.677246,18653.189738
252.323733,-3600.648841,-4441.235652,14137.933492
252.324041,1532.190996,1406.391290,9030.512492
252.324349,5898.935335,4885.359217,2960.823768
252.324657,8810.098227,9770.718434,-148.041188
252.324965,11414.822920,10955.047942,-370.102971
252.325273,11108.384721,11325.150913,-1406.391290
252.325581,8810.098227,10288.862594,74.020594
252.325890,5209.449386,5551.544565,4589.276840
252.326198,536.266849,-0.000000,9992.780217
252.326506,-3753.867940,-5477.523971,15322.262999
252.326814,-7890.783629,-9770.718434,18653.189738
252.327122,-11031.775171,-11769.274478,19245.354492
252.327430,-9652.803275,-10807.006753,20503.704593
252.327738,-7048.078582,-7254.018232,17764.942608
252.328046,-1685.410096,-2220.617826,12805.562797
252.328354,2374.896044,2072.576638,6957.935855
252.328663,7201.297681,6439.791695,2590.720797
252.328971,9882.631924,9178.553681,370.102971
252.329279,10112.460574,11251.130318,296.082377
252.329587,8886.707777,10214.842000,888.247130
252.329895,5669.106685,7476.080014,3404.947333
252.330203,1608.800546,2072.576638,9252.574275
252.330511,-2757.943793,-3701.029710,15026.180623
252.330819,-6665.030833,-8364.327145,18135.045579
252.331127,-9116.536426,-10807.006753,19763.498651
252.331435,-10418.898773,-11843.295072,20207.622217
252.331744,-9039.926876,-10140.821405,19393.395680
252.332052,-5056.230287,-5033.400406,15840.407159
252.332360,536.266849,222.061783,9844.739029
252.332668,5132.839837,4885.359217,3552.988522
252.332976,8733.488677,8660.409521,666.185348
252.333284,11031.775171,11325.150913,-962.267725
252.333592,11797.870669,11399.171507,-814.226536
252.333900,9193.145976,10362.883188,444.123565
252.334208,5362.668486,6217.729913,3775.050304
252.334516,1072.533697,370.102971,9992.780217
252.334825,-3524.039291,-4885.359217,15618.345376
252.335133,-7277.907231,-9178.553681,17764.942608
252.335441,-9576.193725,-10658.965565,18949.272115
252.335749,-9499.584175,-10140.821405,19985.560434
252.336057,-6588.421283,-7328.038826,17764.942608
252.336365,-1762.019645,-2590.720797,13471.748144
252.336673,2604.724693,1924.535449,7402.059420
252.336981,7048.078582,5995.668130,2960.823768
252.337289,10189.070123,8956.491898,888.247130
252.337598,10648.727422,10658.965565,148.041188
252.337906,9269.755526,10362.883188,814.226536
252.338214,6281.983084,7846.182985,3552.988522
252.338522,2145.067394,2442.679609,8142.265362
252.338830,-1915.238745,-3108.864956,14211.954086
252.339138,-5822.325785,-7624.121203,18431.127956
252.339446,-8886.707777,-10955.047942,19689.478057
252.339754,-10878.556072,-11621.233289,20281.642811
252.340062,-9193.145976,-9918.759623,19763.498651
252.340370,-5132.839837,-5477.523971,15766.386565
252.340679,536.266849,-296.082377,10288.862594
252.340987,5209.449386,4367.215058,4589.276840
252.341295,8886.707777,8660.409521,148.041188
252.341603,11184.994271,10510.924376,-444.123565
252.341911,11414.822920,11177.109724,-592.164754
252.342219,8656.879127,10436.903782,0.000000
252.342527,5745.716235,6735.874072,3034.844362
252.342835,1915.238745,1258.350101,8586.388927
252.343143,-2604.724693,-4293.194464,14137.933492
252.343451,-6435.202183,-7550.100608,17172.777854
252.343760,-9039.926876,-10436.903782,18283.086767
252.344068,-9499.584175,-10658.965565,19985.560434
252.344376,-6971.469032,-8216.285956,17468.860231
252.344684,-2451.505594,-3330.926739,13619.789333
252.344992,2068.457845,1258.350101,8364.327145
252.345300,6894.859482,5625.565159,2368.659014
252.345608,9193.145976,9474.636058,518.144159
252.345916,10725.336972,9844.739029,740.205942
252.346224,9116.536426,9696.697840,740.205942
252.346532,5822.325785,7846.182985,3775.050304
252.346841,2834.553343,3108.864956,7698.141797
252.347149,-1685.410096,-2960.823768,12953.603985
252.347457,-6128.763984,-7772.162391,18135.045579
252.347765,-9882.631924,-10658.965565,19393.395680
252.348073,-11491.432470,-11917.315666,20577.725188
252.348381,-10035.851024,-10807.006753,20503.704593
252.348689,-5669.106685,-6587.832884,16358.551318
252.348997,-459.657299,-1036.288319,11177.109724
252.349305,4213.525239,3849.070898,4663.297435
252.349614,7814.174080,7402.059420,0.000000
252.349922,10418.898773,10362.883188,-814.226536
252.350230,11184.994271,10881.027347,-740.205942
252.350538,9116.536426,10362.883188,0.000000
252.350846,6665.030833,7624.121203,2516.700203
252.351154,2604.724693,1776.494261,8068.244768
252.351462,-1838.629195,-3627.009116,13027.624579
252.351770,-6128.763984,-7772.162391,16210.510130
252.352078,-9116.536426,-9548.656652,17764.942608
252.352386,-9652.803275,-10140.821405,19689.478057
252.352695,-7660.954980,-7476.080014,18653.189738
252.353003,-2911.162892,-3849.070898,14137.933492
252.353311,1302.362347,814.226536,8956.491898
252.353619,6052.154434,4737.318029,3256.906145
252.353927,9422.974625,8438.347739,1628.453072
252.354235,9882.631924,10584.944971,592.164754
252.354543,9652.803275,9548.656652,1776.494261
252.354851,6205.373534,7624.121203,3478.967927
252.355159,2374.896044,3256.906145,7772.162391
252.355467,-1838.629195,-3256.906145,13989.892304
252.355776,-5592.497135,-7550.100608,18061.024985
252.356084,-8886.707777,-9918.759623,19245.354492
252.356392,-10648.727422,-11843.295072,20133.601622
252.356700,-9346.365076,-10732.986159,21169.889941
252.357008,-5592.497135,-6069.688724,16580.613101
252.357316,0.000000,-1110.308913,11473.192101
252.357624,5209.449386,4219.173869,4071.132681
252.357932,8580.269578,8216.285956,-148.041188
252.358240,11338.213370,9844.739029,-444.123565
252.358548,12027.699319,11399.171507,-740.205942
252.358857,9422.974625,10436.903782,148.041188
252.359165,6205.373534,7179.997637,2886.803174
252.359473,2374.896044,2368.659014,7698.141797
252.359781,-1302.362347,-3330.926739,13545.768739
252.360089,-5745.716235,-7105.977043,16506.592507
252.360397,-8886.707777,-9400.615463,17838.963202
252.360705,-10189.070123,-10658.965565,19541.436869
252.361013,-7737.564530,-7624.121203,18949.272115
252.361321,-2604.724693,-3849.070898,15174.221811
252.361630,1608.800546,1110.308913,9030.512492
252.361938,5822.325785,5107.421000,2516.700203
252.362246,8810.098227,8364.327145,370.102971
252.362554,9959.241474,9696.697840,1258.350101
252.362862,9422.974625,9474.636058,1850.514855
252.363170,5975.544884,7476.080014,3108.864956
252.363478,2221.676944,3034.844362,7550.100608
252.363786,-1608.800546,-2664.741391,12953.603985
252.364094,-5286.058936,-7476.080014,17468.860231
252.364402,-8503.660028,-10214.842000,19319.375086
252.364711,-10495.508323,-11103.089130,19467.416275
252.365019,-9576.193725,-11103.089130,20281.642811
252.365327,-5745.716235,-6883.915261,17024.736666
252.365635,0.000000,-2072.576638,11695.253884
252.365943,4366.744339,3552.988522,4367.215058
252.366251,8197.221829,7254.018232,296.082377
252.366559,10878.556072,10066.800811,-962.267725
252.366867,11568.042020,11103.089130,-296.082377
252.367175,9806.022374,10807.006753,-592.164754
252.367483,7124.688131,8364.327145,1850.514855
252.367791,3370.820191,2516.700203,7254.018232
252.368099,-612.876398,-2812.782580,12065.356855
252.368407,-5209.449386,-7031.956449,16654.633695
252.368716,-9269.755526,-9474.636058,17912.983796
252.369024,-10648.727422,-10362.883188,19171.333898
252.369332,-8044.002729,-7920.203579,19541.436869
252.369640,-3983.696590,-4219.173869,15100.201217
252.369948,919.314598,370.102971,9622.677246
252.370256,4903.011187,4589.276840,3404.947333
252.370564,7967.393179,7402.059420,1628.453072
252.370872,8810.098227,8956.491898,1924.535449
252.371180,8580.269578,9178.553681,2220.617826
252.371488,6128.763984,8068.244768,3701.029710
252.371796,2451.505594,3478.967927,7254.018232
252.372104,-1455.581446,-1998.556043,12805.562797
252.372412,-5056.230287,-6661.853478,17320.819043
252.372720,-8273.831378,-9178.553681,19097.313304
252.373028,-9806.022374,-11103.089130,19245.354492
252.373336,-9116.536426,-10214.842000,19245.354492
252.373644,-5056.230287,-7105.977043,17246.798449
252.373952,-306.438199,-2442.679609,10955.047942
252.374260,4826.401637,3552.988522,4441.235652
252.374568,8656.879127,7105.977043,740.205942
252.374876,10189.070123,10140.821405,-222.061783
252.375184,11338.213370,10807.006753,0.000000
252.375492,9882.631924,11103.089130,-518.144159
252.375801,7048.078582,8512.368333,2220.617826
252.376109,3294.210641,2590.720797,7254.018232
252.376417,-1149.143247,-2220.617826,12657.521608
252.376725,-5362.668486,-6439.791695,16580.613101
252.377033,-9039.926876,-9548.656652,18283.086767
252.377341,-10112.460574,-10362.883188,20651.745782
252.377649,-8580.269578,-9030.512492,19763.498651
252.377957,-4979.620737,-5773.606348,15618.345376
252.378265,842.705048,-666.185348,10436.903782
252.378573,4826.401637,3849.070898,3923.091493
252.378881,7890.783629,7920.203579,1406.391290
252.379189,9422.974625,9622.677246,1702.473667
252.379497,9806.022374,9770.718434,1628.453072
252.379805,7048.078582,8438.347739,2368.659014
252.380113,3907.087040,4219.173869,6069.688724
252.380421,76.609550,-1480.411884,11695.253884
252.380729,-4673.182538,-5847.626942,16506.592507
252.381037,-7201.297681,-9326.594869,19615.457463
252.381345,-10189.070123,-10807.006753,19467.416275
252.381653,-9806.022374,-10066.800811,19319.375086
252.381961,-6205.373534,-7846.182985,17987.004391
252.382269,-1072.533697,-2220.617826,12065.356855
252.382577,3830.477490,2738.761985,6069.688724
252.382886,7660.954980,6809.894666,1258.350101
252.383194,10035.851024,9474.636058,-518.144159
252.383502,10955.165621,11103.089130,0.000000
252.383810,9882.631924,10436.903782,-444.123565
252.384118,7354.516781,8660.409521,1184.329507
252.384426,3677.258390,3256.906145,6513.812290
252.384734,-612.876398,-1850.514855,11843.295072
252.385042,-4979.620737,-5551.544565,15840.407159
252.385350,-8733.488677,-9400.615463,18431.127956
252.385658,-10189.070123,-10362.883188,19763.498651
252.385966,-8886.707777,-9400.615463,19393.395680
252.386274,-4903.011187,-5995.668130,16210.510130
252.386582,153.219100,-740.205942,10658.965565
252.386890,4519.963438,4071.132681,4219.173869
252.387198,7431.126331,7105.977043,2294.638420
252.387506,9729.412825,9770.718434,1998.556043
252.387814,9652.803275,9918.759623,1406.391290
252.388122,6971.469032,8438.347739,2220.617826
252.388430,4366.744339,4663.297435,5255.462188
252.388738,-229.828649,-814.226536,10881.027347
252.389046,-3983.696590,-5625.565159,16506.592507
252.389354,-7584.345430,-9178.553681,18357.107362
252.389662,-9882.631924,-10732.986159,19541.436869
252.389971,-9193.145976,-11325.150913,19911.539840
252.390279,-6511.811733,-7994.224174,17616.901420
252.390587,-1455.581446,-3404.947333,13249.686362
252.390895,3064.381992,2368.659014,6143.709319
252.391203,7354.516781,6513.812290,1702.473667
252.391511,9729.412825,9474.636058,222.061783
252.391819,10801.946522,10955.047942,-222.061783
252.392127,10418.898773,10362.883188,74.020594
252.392435,7431.126331,8364.327145,1258.350101
252.392743,3370.820191,4145.153275,5699.585753
252.393051,-306.438199,-1702.473667,11769.274478
252.393359,-4519.963438,-5329.482782,16136.489536
252.393667,-8733.488677,-9178.553681,18283.086767
252.393975,-10189.070123,-10140.821405,19689.478057
252.394283,-8733.488677,-9326.594869,19541.436869
252.394591,-5209.449386,-5995.668130,15840.407159
252.394899,76.609550,-888.247130,11177.109724
252.395207,4596.572988,3552.988522,4959.379811
252.395515,7814.174080,6957.935855,2516.700203
252.395823,9729.412825,9770.718434,1480.411884
252.396131,9806.022374,10362.883188,1258.350101
252.396439,7967.393179,9030.512492,2072.576638
252.396747,4826.401637,5551.544565,4959.379811
252.397056,536.266849,-222.061783,10584.944971
252.397364,-3217.601092,-4959.379811,16580.613101
252.397672,-6818.249932,-8586.388927,18801.230927
252.397980,-9729.412825,-10066.800811,19615.457463
252.398288,-8733.488677,-11177.109724,20207.622217
252.398596,-7124.688131,-8216.285956,17838.963202
252.398904,-2451.505594,-3849.070898,13397.727550
252.399212,2681.334243,2294.638420,6809.894666
252.399520,6818.249932,6217.729913,2590.720797
252.399828,9576.193725,9326.594869,1554.432478
252.400136,10418.898773,11029.068536,0.000000
252.400444,9806.022374,9770.718434,296.082377
252.400752,7814.174080,9030.512492,1110.308913
252.401060,4290.134789,4515.256246,5403.503377
252.401368,153.219100,-1258.350101,11399.171507
252.401676,-4060.306139,-5403.503377,15618.345376
252.401984,-8120.612279,-8882.471304,17616.901420
252.402292,-9806.022374,-11029.068536,19763.498651
252.402600,-8963.317327,-9622.677246,19245.354492
252.402908,-5439.278036,-7031.956449,16210.510130
252.403216,1225.752797,-1480.411884,11325.150913
252.403524,4136.915689,4515.256246,3849.070898
252.403832,8044.002729,7994.224174,1702.473667
252.404141,9959.241474,10510.924376,962.267725
252.404449,9806.022374,10436.903782,814.226536
252.404757,8197.221829,8586.388927,2220.617826
252.405065,4826.401637,5181.441594,4959.379811
252.405373,689.485948,-592.164754,10732.986159
252.405681,-4519.963438,-5403.503377,16506.592507
252.405989,-8350.440928,-9252.574275,18949.272115
252.406297,-10878.556072,-11473.192101,20503.704593
252.406605,-10189.070123,-11769.274478,20799.786970
252.406913,-6971.469032,-8512.368333,17468.860231
252.407221,-1685.410096,-3923.091493,13323.706956
252.407529,3140.991542,2220.617826,6513.812290
252.407837,7277.907231,6217.729913,1776.494261
252.408145,9959.241474,9696.697840,0.000000
252.408453,11338.213370,11621.233289,-1036.288319
252.408761,10648.727422,11177.109724,-296.082377
252.409069,7584.345430,9992.780217,814.226536
252.409377,3830.477490,4663.297435,5551.544565
252.409685,-1149.143247,-1258.350101,11917.315666
252.409993,-5056.230287,-5699.585753,16580.613101
252.410301,-9039.926876,-9992.780217,18875.251521
252.410609,-10572.117872,-10807.006753,20059.581028
252.410917,-9269.755526,-9326.594869,19763.498651
252.411226,-5515.887586,-6291.750507,16506.592507
252.411534,0.000000,-814.226536,10955.047942
252.411842,4136.915689,3849.070898,5255.462188
252.412150,7584.345430,7476.080014,2146.597232
252.412458,10265.679673,9992.780217,1258.350101
252.412766,10495.508323,9992.780217,814.226536
252.413074,7584.345430,8808.450710,2368.659014
252.413382,4443.353888,5329.482782,5255.462188
252.413690,0.000000,-518.144159,10807.006753
252.413998,-4443.353888,-5773.606348,16654.633695
252.414306,-8197.221829,-8882.471304,18357.107362
252.414614,-9729.412825,-11029.068536,20133.601622
252.414922,-9193.145976,-10955.047942,19689.478057
252.415230,-6435.202183,-8586.388927,17172.777854
252.415538,-1532.190996,-3701.029710,12361.439231
252.415846,2987.772442,2072.576638,5625.565159
252.416154,7660.954980,5625.565159,2368.659014
252.416462,9652.803275,9474.636058,-592.164754
252.416770,11261.603821,10584.944971,-592.164754
252.417078,10648.727422,10214.842000,-444.123565
252.417386,7431.126331,8216.285956,296.082377
252.417694,4060.306139,3997.112087,5255.462188
252.418002,-689.485948,-1554.432478,11399.171507
252.418311,-5132.839837,-5699.585753,15988.448347
252.418619,-8810.098227,-9178.553681,18357.107362
252.418927,-10035.851024,-10584.944971,20133.601622
252.419235,-8503.660028,-9770.718434,19763.498651
252.419543,-4903.011187,-6661.853478,15544.324782
252.419851,306.438199,-1332.370696,10214.842000
252.420159,4136.915689,3256.906145,4737.318029
252.420467,7507.735880,7254.018232,2368.659014
252.420775,9499.584175,10584.944971,1332.370696
252.421083,9882.631924,10584.944971,740.205942
252.421391,7890.783629,9326.594869,1998.556043
252.421699,4826.401637,5921.647536,4885.359217
252.422007,0.000000,-222.061783,11177.109724
252.422315,-4596.572988,-5329.482782,16432.571912
252.422623,-8963.317327,-9104.533087,18875.251521
252.422931,-11261.603821,-11029.068536,20799.786970
252.423239,-9806.022374,-11251.130318,20651.745782
252.423547,-6741.640382,-8586.388927,17987.004391
252.423855,-1378.971896,-3701.029710,12879.583391
252.424163,3217.601092,2146.597232,6143.709319
252.424471,6894.859482,6439.791695,2886.803174
252.424779,10418.898773,9548.656652,518.144159
252.425087,12104.308868,11695.253884,-592.164754
252.425396,11338.213370,10955.047942,-592.164754
252.425704,8273.831378,9770.718434,148.041188
252.426012,4519.963438,4515.256246,5107.421000
252.426320,-229.828649,-666.185348,11399.171507
252.426628,-4749.792088,-5403.503377,16210.510130
252.426936,-9346.365076,-9548.656652,18801.230927
252.427244,-10878.556072,-11251.130318,20429.683999
252.427552,-8350.440928,-10214.842000,20059.581028
252.427860,-5132.839837,-6365.771101,16210.510130
252.428168,0.000000,-1480.411884,11399.171507
252.428476,3907.087040,3627.009116,5847.626942
252.428784,7737.564530,7328.038826,2516.700203
252.429092,9652.803275,10140.821405,1036.288319
252.429400,10572.117872,10732.986159,148.041188
252.429708,8197.221829,9400.615463,1406.391290
252.430016,4903.011187,6365.771101,4589.276840
252.430324,306.438199,370.102971,10658.965565
252.430632,-4519.963438,-4737.318029,16062.468941
252.430940,-8120.612279,-8586.388927,18949.272115
252.431248,-10572.117872,-11029.068536,20059.581028
252.431556,-9806.022374,-11399.171507,20281.642811
252.431864,-6818.249932,-8882.471304,18283.086767
252.432172,-1991.848295,-4589.276840,12583.501014
252.432481,2987.772442,1480.411884,7179.997637
252.432789,7354.516781,5477.523971,2960.823768
252.433097,9116.536426,8956.491898,222.061783
252.433405,10878.556072,10732.986159,-444.123565
252.433713,10955.165621,10807.006753,-370.102971
252.434021,7737.564530,9326.594869,222.061783
252.434329,4290.134789,4515.256246,4737.318029
252.434637,0.000000,-666.185348,10881.027347
252.434945,-4903.011187,-5255.462188,15248.242405
252.435253,-8733.488677,-9030.512492,18357.107362
252.435561,-9959.241474,-11177.109724,19911.539840
252.435869,-9346.365076,-10288.862594,19689.478057
252.436177,-6052.154434,-7328.038826,16432.571912
252.436485,-766.095498,-1776.494261,12065.356855
252.436793,3677.258390,2812.782580,6439.791695
252.437101,7277.907231,7328.038826,2294.638420
252.437409,8810.098227,10066.800811,518.144159
252.437717,10265.679673,10436.903782,296.082377
252.438025,8197.221829,9400.615463,888.247130
252.438333,4749.792088,6365.771101,4515.256246
252.438641,383.047749,444.123565,10066.800811
252.438949,-4366.744339,-4663.297435,15766.386565
252.439257,-8503.660028,-8142.265362,18579.169144
252.439565,-10265.679673,-11251.130318,20133.601622
252.439874,-10112.460574,-11695.253884,20281.642811
252.440182,-7814.174080,-9326.594869,18357.107362
252.440490,-2911.162892,-5181.441594,14063.912898
252.440798,1762.019645,888.247130,8734.430116
252.441106,5822.325785,5033.400406,3997.112087
252.441414,8810.098227,8290.306550,1184.329507
252.441722,10878.556072,10881.027347,-666.185348
252.442030,11644.651570,10732.986159,0.000000
252.442338,8427.050478,9844.739029,222.061783
252.442646,5132.839837,5921.647536,4071.132681
252.442954,842.705048,296.082377,10140.821405
252.443262,-3524.039291,-3849.070898,14656.077652
252.443570,-7814.174080,-8290.306550,17764.942608
252.443878,-9422.974625,-11029.068536,19615.457463
252.444186,-8580.269578,-10140.821405,18727.210333
252.444494,-5822.325785,-7328.038826,16580.613101
252.444802,-306.438199,-3108.864956,12657.521608
252.445110,2987.772442,2738.761985,7402.059420
252.445418,6665.030833,6291.750507,3552.988522
252.445726,9346.365076,9474.636058,1184.329507
252.446034,10878.556072,10510.924376,296.082377
252.446342,9116.536426,9548.656652,888.247130
252.446650,5439.278036,6957.935855,3997.112087
252.446959,1532.190996,1924.535449,9474.636058
252.447267,-2374.896044,-3552.988522,14730.098246
252.447575,-6894.859482,-7105.977043,18135.045579
252.447883,-9422.974625,-10066.800811,19393.395680
252.448191,-9346.365076,-11029.068536,19763.498651
252.448499,-7737.564530,-9474.636058,18283.086767
252.448807,-3983.696590,-5551.544565,14656.077652
252.449115,1685.410096,-0.000000,9326.594869
252.449423,5822.325785,4071.132681,4367.215058
252.449731,8886.707777,7772.162391,1258.350101
252.450039,11031.775171,10436.903782,-888.247130
252.450347,11338.213370,10881.027347,-814.226536
252.450655,8886.707777,9696.697840,222.061783
252.450963,5669.106685,6069.688724,3627.009116
252.451271,1762.019645,962.267725,9622.677246
252.451579,-3294.210641,-4145.153275,14508.036463
252.451887,-7124.688131,-8586.388927,17098.757260
252.452195,-9652.803275,-10881.027347,19467.416275
252.452503,-9346.365076,-10362.883188,19689.478057
252.452811,-7431.126331,-7550.100608,16950.716072
252.453119,-1915.238745,-2886.803174,13619.789333
252.453427,2834.553343,2368.659014,8290.306550
252.453735,6281.983084,6217.729913,2368.659014
252.454044,9346.365076,8438.347739,1850.514855
252.454352,10189.070123,9548.656652,592.164754
252.454660,8350.440928,8512.368333,1332.370696
252.454968,4903.011187,6439.791695,4663.297435
252.455276,995.924147,2146.597232,9326.594869
252.455584,-3217.601092,-3330.926739,13915.871710
252.455892,-6818.249932,-6883.915261,17394.839637
252.456200,-9576.193725,-9992.780217,19245.354492
252.456508,-9729.412825,-11029.068536,19541.436869
252.456816,-7431.126331,-9326.594869,18579.169144
252.457124,-4443.353888,-5551.544565,15174.221811
252.457432,995.924147,-148.041188,10066.800811
252.457740,4979.620737,4367.215058,4737.318029
252.458048,7890.783629,7846.182985,1036.288319
252.458356,10648.727422,10362.883188,-444.123565
252.458664,11108.384721,10584.944971,-1332.370696
252.458972,9039.926876,9622.677246,222.061783
252.459280,5362.668486,6661.853478,3775.050304
252.459588,995.924147,1332.370696,9474.636058
252.459896,-2987.772442,-3256.906145,13841.851115
252.460204,-6894.859482,-7920.203579,17468.860231
252.460512,-9116.536426,-10658.965565,19023.292709
252.460820,-9269.755526,-9844.739029,19023.292709
252.461129,-6205.373534,-7328.038826,17394.839637
252.461437,-1915.238745,-2590.720797,13323.706956
252.461745,2681.334243,2220.617826,8512.368333
252.462053,6741.640382,5477.523971,3552.988522
252.462361,8810.098227,8956.491898,962.267725
252.462669,9959.241474,9548.656652,740.205942
252.462977,8580.269578,9030.512492,1406.391290
252.463285,5515.887586,6809.894666,4515.256246
252.463593,1685.410096,2146.597232,9400.615463
252.463901,-3294.210641,-2960.823768,13915.871710
252.464209,-6358.592633,-6809.894666,17616.901420
252.464517,-9116.536426,-10066.800811,18875.251521
252.464825,-9882.631924,-10955.047942,19985.560434
252.465133,-8197.221829,-9400.615463,18801.230927
252.465441,-4903.011187,-6143.709319,15618.345376
252.465749,459.657299,-814.226536,10584.944971
252.466057,4443.353888,3478.967927,5033.400406
252.466365,8273.831378,7105.977043,2220.617826
252.466673,10342.289223,9622.677246,-1036.288319
252.466981,11491.432470,10881.027347,-666.185348
252.467289,9116.536426,10066.800811,518.144159
252.467597,6128.763984,7254.018232,3182.885551
252.467905,1762.019645,1850.514855,8734.430116
252.468214,-2451.505594,-3330.926739,13545.768739
252.468522,-6128.763984,-8216.285956,16580.613101
252.468830,-8656.879127,-10288.862594,18357.107362
252.469138,-8503.660028,-10140.821405,19245.354492
252.469446,-6665.030833,-7550.100608,17394.839637
252.469754,-1915.238745,-2886.803174,13249.686362
252.470062,1915.238745,1776.494261,8216.285956
252.470370,6358.592633,5551.544565,3701.029710
252.470678,9193.145976,8808.450710,1332.370696
252.470986,10955.165621,10140.821405,148.041188
252.471294,9576.193725,9030.512492,666.185348
252.471602,5822.325785,7402.059420,3701.029710
252.471910,1762.019645,2516.700203,8808.450710
252.472218,-2451.505594,-2368.659014,13767.830521
252.472526,-6358.592633,-6735.874072,17320.819043
252.472834,-9576.193725,-10140.821405,18875.251521
252.473142,-10189.070123,-11917.315666,20281.642811
252.473450,-8963.317327,-9844.739029,19171.333898
252.473759,-5209.449386,-6365.771101,15914.427753
252.474067,306.438199,-1036.288319,10510.924376
252.474375,4443.353888,3775.050304,4737.318029
252.474683,7967.393179,6809.894666,1628.453072
252.474991,10342.289223,10066.800811,-962.267725
252.475299,10878.556072,10658.965565,-592.164754
252.475607,9116.536426,9770.718434,222.061783
252.475915,6128.763984,6883.915261,3034.844362
252.476223,1915.238745,1924.535449,8216.285956
252.476531,-2528.115143,-3404.947333,13249.686362
252.476839,-6052.154434,-8142.265362,16580.613101
252.477147,-9269.755526,-10510.924376,18357.107362
252.477455,-9193.145976,-10436.903782,18949.272115
252.477763,-6741.640382,-7328.038826,17098.757260
252.478072,-2068.457845,-2960.823768,13175.665768
252.478380,2528.115143,1850.514855,8438.347739
252.478688,6588.421283,5699.585753,3478.967927
252.478996,8656.879127,8660.409521,1406.391290
252.479304,10342.289223,9770.718434,888.247130
252.479612,8427.050478,9622.677246,888.247130
252.479920,5515.887586,7624.121203,4589.276840
252.480228,1838.629195,3182.885551,8586.388927
252.480536,-2451.505594,-1850.514855,13693.809927
252.480844,-6052.154434,-6735.874072,17764.942608
252.481152,-9193.145976,-9696.697840,19023.292709
252.481460,-9959.241474,-11251.130318,20429.683999
252.481768,-8963.317327,-9770.718434,20059.581028
252.482077,-5209.449386,-6661.853478,16580.613101
252.482385,-383.047749,-1110.308913,11251.130318
252.482693,4366.744339,3330.926739,5625.565159
252.483001,8273.831378,6957.935855,1924.535449
252.483309,10035.851024,10510.924376,-370.102971
252.483617,10725.336972,10881.027347,-740.205942
252.483925,9576.193725,9992.780217,0.000000
252.484233,6128.763984,7550.100608,3182.885551
252.484541,2451.505594,2294.638420,7846.182985
252.484849,-1838.629195,-2812.782580,12657.521608
252.485157,-6128.763984,-7031.956449,16580.613101
252.485465,-9422.974625,-10658.965565,19097.313304
252.485773,-9499.584175,-10066.800811,19763.498651
252.486081,-6971.469032,-7402.059420,18209.066173
252.486390,-2451.505594,-3404.947333,13767.830521
252.486698,1915.238745,1332.370696,8512.368333
252.487006,6511.811733,4885.359217,4293.194464
252.487314,8427.050478,7920.203579,1110.308913
252.487622,10189.070123,9548.656652,592.164754
252.487930,9269.755526,9474.636058,740.205942
252.488238,6281.983084,7105.977043,3256.906145
252.488546,2374.896044,3404.947333,7698.141797
252.488854,-1685.410096,-2368.659014,12583.501014
252.489162,-5286.058936,-6957.935855,16876.695478
252.489470,-8810.098227,-9622.677246,18209.066173
252.489778,-9806.022374,-11695.253884,20059.581028
252.490086,-8963.317327,-10066.800811,19541.436869
252.490394,-6052.154434,-6735.874072,15988.448347
252.490703,0.000000,-1998.556043,10807.006753
252.491011,4290.134789,3034.844362,5403.503377
252.491319,8120.612279,6587.832884,1406.391290
252.491627,10035.851024,9622.677246,-888.247130
252.491935,11491.432470,11103.089130,-1184.329507
252.492243,9729.412825,10436.903782,-444.123565
252.492551,6665.030833,7994.224174,2368.659014
252.492859,3217.601092,2590.720797,7846.182985
252.493167,-1608.800546,-2812.782580,12139.377449
252.493475,-6205.373534,-7254.018232,16728.654289
252.493783,-9499.584175,-11251.130318,19023.292709
252.494091,-9959.241474,-10658.965565,20281.642811
252.494399,-7890.783629,-7624.121203,18061.024985
252.494708,-3294.210641,-3701.029710,13989.892304
252.495016,2145.067394,1332.370696,9992.780217
252.495324,5822.325785,5033.400406,3627.009116
252.495632,8733.488677,8216.285956,1776.494261
252.495940,10648.727422,9992.780217,888.247130
252.496248,8810.098227,9918.759623,666.185348
252.496556,6588.421283,7698.141797,3849.070898
252.496864,3140.991542,3849.070898,7624.121203
252.497172,-1608.800546,-1776.494261,12361.439231
252.497480,-5439.278036,-6291.750507,16802.674883
252.497788,-8963.317327,-9252.574275,18727.210333
252.498096,-10342.289223,-11473.192101,20799.786970
252.498404,-9576.193725,-10288.862594,20059.581028
252.498712,-5669.106685,-7031.956449,16506.592507
252.499021,-766.095498,-1406.391290,10881.027347
252.499329,3983.696590,3478.967927,5403.503377
252.499637,8044.002729,7105.977043,1998.556043
252.499945,10189.070123,10362.883188,-888.247130
252.500253,11797.870669,11399.171507,-1036.288319
252.500561,9499.584175,10288.862594,-222.061783
252.500869,6511.811733,7624.121203,3108.864956
252.501177,3064.381992,1776.494261,8290.306550
252.501485,-1838.629195,-2886.803174,12583.501014
252.501793,-5745.716235,-7105.977043,16432.571912
252.502101,-9576.193725,-10584.944971,18653.189738
252.502409,-9652.803275,-10584.944971,19911.539840
252.502717,-6511.811733,-8364.327145,18653.189738
252.503026,-3600.648841,-4663.297435,13471.748144
252.503334,2298.286494,592.164754,8734.430116
252.503642,5822.325785,5107.421000,3775.050304
252.503950,8733.488677,8068.244768,1628.453072
252.504258,10342.289223,10066.800811,666.185348
252.504566,9576.193725,10214.842000,444.123565
252.504874,6435.202183,7994.224174,3330.926739
252.505182,3140.991542,3849.070898,7624.121203
252.505490,-919.314598,-1554.432478,12583.501014
252.505798,-4749.792088,-6439.791695,17024.736666
252.506106,-9346.365076,-9992.780217,18949.272115
252.506414,-11184.994271,-11695.253884,20725.766376
252.506722,-10112.460574,-10510.924376,20503.704593
252.507030,-6588.421283,-7550.100608,16876.695478
252.507339,-1149.143247,-2220.617826,11399.171507
252.507647,3983.696590,3478.967927,5181.441594
252.507955,7584.345430,7031.956449,2146.597232
252.508263,9882.631924,10362.883188,-518.144159
252.508571,12257.527968,11029.068536,-1110.308913
252.508879,10112.460574,10881.027347,-1332.370696
252.509187,7354.516781,8364.327145,1776.494261
252.509495,3447.429741,2146.597232,8290.306550
252.509803,-1762.019645,-2664.741391,12361.439231
252.510111,-5745.716235,-7476.080014,16654.633695
252.510419,-10112.460574,-10732.986159,19171.333898
252.510727,-10342.289223,-11029.068536,20133.601622
252.511035,-7967.393179,-8068.244768,18283.086767
252.511344,-3140.991542,-4367.215058,14434.015869
252.511652,2145.067394,1406.391290,8956.491898
252.511960,6588.421283,5625.565159,3404.947333
252.512268,9269.755526,8512.368333,1332.370696
252.512576,11108.384721,10436.903782,444.123565
252.512884,10648.727422,10214.842000,222.061783
252.513192,7431.126331,8142.265362,2886.803174
252.513500,2911.162892,3701.029710,7476.080014
252.513808,-1532.190996,-2368.659014,12805.562797
252.514116,-6052.154434,-7402.059420,17764.942608
252.514424,-9959.241474,-10658.965565,19467.416275
252.514732,-11568.042020,-12435.459826,21243.910535
252.515040,-10265.679673,-11029.068536,20577.725188
252.515348,-7124.688131,-7846.182985,16876.695478
252.515657,-995.924147,-1776.494261,12065.356855
252.515965,3983.696590,3552.988522,4885.359217
252.516273,8197.221829,7846.182985,888.247130
252.516581,10725.336972,11029.068536,-1110.308913
252.516889,11491.432470,11843.295072,-1554.432478
252.517197,10648.727422,11177.109724,-962.267725
252.517505,7431.126331,8068.244768,1776.494261
252.517813,2528.115143,2738.761985,7624.121203
252.518121,-2068.457845,-3256.906145,12731.542202
252.518429,-6894.859482,-7328.038826,17098.757260
252.518737,-10955.165621,-11103.089130,19541.436869
252.519045,-10342.289223,-11325.150913,20577.725188
252.519353,-8273.831378,-8364.327145,18283.086767
252.519662,-3447.429741,-4737.318029,14285.974681
252.519970,1149.143247,962.267725,8512.368333
252.520278,6588.421283,5625.565159,3849.070898
252.520586,8733.488677,8586.388927,1406.391290
252.520894,11184.994271,10955.047942,0.000000
252.521202,10495.508323,10732.986159,0.000000
252.521510,7737.564530,8660.409521,2294.638420
252.521818,3677.258390,3627.009116,6957.935855
252.522126,-995.924147,-1924.535449,12805.562797
252.522434,-6358.592633,-6957.935855,17764.942608
252.522742,-9959.241474,-10658.965565,19689.478057
252.523050,-11414.822920,-12213.398043,21317.931130
252.523358,-9806.022374,-10807.006753,20725.766376
252.523666,-6971.469032,-7698.141797,16506.592507
252.523975,-1072.533697,-1998.556043,11917.315666
252.524283,3524.039291,3701.029710,5773.606348
252.524591,7814.174080,6883.915261,2146.597232
252.524899,9806.022374,10362.883188,-444.123565
252.525207,11261.603821,11621.233289,-1850.514855
252.525515,10725.336972,11177.109724,-814.226536
252.525823,7354.516781,8216.285956,2220.617826
252.526131,2834.553343,2442.679609,7994.224174
252.526439,-1838.629195,-2664.741391,12953.603985
252.526747,-6818.249932,-6661.853478,16432.571912
252.527055,-9576.193725,-10881.027347,19689.478057
252.527363,-9729.412825,-11473.192101,20725.766376
252.527671,-8886.707777,-8734.430116,18357.107362
252.527979,-4519.963438,-5255.462188,14952.160028
252.528288,1532.190996,296.082377,9696.697840
252.528596,6052.154434,5181.441594,3330.926739
252.528904,8886.707777,8512.368333,1480.411884
252.529212,10955.165621,10658.965565,0.000000
252.529520,10878.556072,10658.965565,-296.082377
252.529828,8350.440928,8734.430116,1924.535449
252.530136,4673.182538,4071.132681,6587.832884
252.530444,-689.485948,-2072.576638,11991.336260
252.530752,-5362.668486,-6439.791695,16728.654289
252.531060,-9499.584175,-10066.800811,19689.478057
252.531368,-11568.042020,-12509.480420,21317.931130
252.531676,-10495.508323,-11399.171507,21095.869347
252.531984,-7124.688131,-7698.141797,16876.695478
252.532293,-995.924147,-2368.659014,11695.253884
252.532601,4213.525239,3923.091493,5773.606348
252.532909,8733.488677,7698.141797,1406.391290
252.533217,10801.946522,10436.903782,-518.144159
252.533525,12487.356617,11399.171507,-1480.411884
252.533833,11031.775171,11177.109724,-1406.391290
252.534141,7890.783629,8290.306550,1628.453072
252.534449,4136.915689,1924.535449,8142.265362
252.534757,-1608.800546,-3034.844362,12953.603985
252.535065,-6435.202183,-7550.100608,16654.633695
252.535373,-10189.070123,-11473.192101,19985.560434
252.535681,-10801.946522,-11695.253884,20503.704593
252.535989,-8427.050478,-8512.368333,18875.251521
252.536297,-3830.477490,-4811.338623,14285.974681
252.536606,1608.800546,814.226536,9326.594869
252.536914,6358.592633,5403.503377,4145.153275
252.537222,8963.317327,8364.327145,1110.308913
252.537530,11338.213370,9844.739029,444.123565
252.537838,10418.898773,10214.842000,0.000000
252.538146,7660.954980,8808.450710,2294.638420
252.538454,3907.087040,4145.153275,6735.874072
252.538762,-995.924147,-1480.411884,12287.418637
252.539070,-5209.449386,-6439.791695,17098.757260
252.539378,-8810.098227,-9918.759623,19097.313304
252.539686,-10801.946522,-11843.295072,20577.725188
252.539994,-9806.022374,-11325.150913,20429.683999
252.540302,-6511.811733,-8142.265362,17320.819043
252.540611,-995.924147,-1480.411884,11695.253884
252.540919,4060.306139,3701.029710,5551.544565
252.541227,7890.783629,7179.997637,1406.391290
252.541535,10265.679673,10436.903782,-296.082377
252.541843,11491.432470,11547.212695,-1258.350101
252.542151,10572.117872,10584.944971,-592.164754
252.542459,6741.640382,8216.285956,2220.617826
252.542767,2298.286494,1850.514855,8290.306550
252.543075,-2221.676944,-2738.761985,13545.768739
252.543383,-6741.640382,-6661.853478,16876.695478
252.543691,-10265.679673,-10510.924376,19171.333898
252.543999,-10495.508323,-10881.027347,20429.683999
252.544307,-8273.831378,-8290.306550,18801.230927
252.544615,-2757.943793,-4811.338623,14359.995275
252.544924,1915.238745,444.123565,9992.780217
252.545232,5286.058936,4663.297435,4441.235652
252.545540,8120.612279,7402.059420,1406.391290
252.545848,9882.631924,9770.718434,370.102971
252.546156,10112.460574,9992.780217,74.020594
252.546464,8427.050478,8734.430116,2294.638420
252.546772,3983.696590,4515.256246,6291.750507
252.547080,-766.095498,-1480.411884,12657.521608
252.547388,-5056.230287,-5699.585753,17172.777854
252.547696,-9269.755526,-9622.677246,19245.354492
252.548004,-10648.727422,-11473.192101,20799.786970
252.548312,-9959.241474,-10658.965565,19985.560434
252.548620,-6894.859482,-7476.080014,16950.716072
252.548929,-995.924147,-1480.411884,11917.315666
252.549237,3677.258390,3627.009116,6439.791695
252.549545,7814.174080,6587.832884,2072.576638
252.549853,9882.631924,10066.800811,-1702.473667
252.550161,10955.165621,11177.109724,-1184.329507
252.550469,10189.070123,10140.821405,0.000000
252.550777,7048.078582,8364.327145,1924.535449
252.551085,2528.115143,2664.741391,8142.265362
252.551393,-2451.505594,-3034.844362,12731.542202
252.551701,-6281.983084,-6883.915261,16654.633695
252.552009,-9346.365076,-10436.903782,19319.375086
252.552317,-10112.460574,-10881.027347,19985.560434
252.552625,-7660.954980,-8586.388927,18505.148550
252.552933,-3524.039291,-4515.256246,14063.912898
252.553242,1149.143247,740.205942,9400.615463
252.553550,5975.544884,4737.318029,4367.215058
252.553858,9422.974625,7772.162391,1628.453072
252.554166,10265.679673,10066.800811,-518.144159
252.554474,10725.336972,9844.739029,296.082377
252.554782,9116.536426,9030.512492,1998.556043
252.555090,4290.134789,4663.297435,6291.750507
252.555398,-919.314598,-1036.288319,12509.480420
252.555706,-4826.401637,-5995.668130,16580.613101
252.556014,-8580.269578,-9474.636058,19171.333898
252.556322,-10955.165621,-12287.418637,20577.725188
252.556630,-9882.631924,-11103.089130,19837.519246
252.556938,-7124.688131,-7994.224174,16654.633695
252.557246,-919.314598,-2294.638420,11843.295072
252.557555,3600.648841,2664.741391,5551.544565
252.557863,7660.954980,5921.647536,1850.514855
252.558171,9576.193725,9844.739029,-962.267725
252.558479,10801.946522,9992.780217,-666.185348
252.558787,10265.679673,9918.759623,296.082377
252.559095,7048.078582,7698.141797,2220.617826
252.559403,2604.724693,2812.782580,7476.080014
252.559711,-2298.286494,-2442.679609,12953.603985
252.560019,-5822.325785,-6291.750507,16580.613101
252.560327,-9576.193725,-9474.636058,18801.230927
252.560635,-10189.070123,-10140.821405,19393.395680
252.560943,-7737.564530,-8068.244768,17987.004391
252.561251,-3447.429741,-4441.235652,14211.954086
252.561560,1608.800546,444.123565,9696.697840
252.561868,5898.935335,4441.235652,4219.173869
252.562176,9346.365076,7920.203579,1776.494261
252.562484,10035.851024,9622.677246,592.164754
252.562792,10035.851024,9696.697840,666.185348
252.563100,8197.221829,8438.347739,2886.803174
252.563408,4213.525239,4885.359217,6069.688724
252.563716,-306.438199,-962.267725,12509.480420
252.564024,-5056.230287,-5699.585753,16802.674883
252.564332,-8656.879127,-9326.594869,19541.436869
252.564640,-11031.775171,-11399.171507,21095.869347
252.564948,-10112.460574,-10214.842000,19911.539840
252.565256,-7048.078582,-7402.059420,17394.839637
252.565564,-919.314598,-1924.535449,12435.459826
252.565873,3600.648841,3256.906145,5773.606348
252.566181,7660.954980,6069.688724,2368.659014
252.566489,9806.022374,9548.656652,518.144159
252.566797,10495.508323,11177.109724,-518.144159
252.567105,9806.022374,9992.780217,814.226536
252.567413,6971.469032,8142.265362,2590.720797
252.567721,2068.457845,3627.009116,7328.038826
252.568029,-2221.676944,-1998.556043,13545.768739
252.568337,-5822.325785,-5699.585753,16654.633695
252.568645,-9499.584175,-8216.285956,18949.272115
252.568953,-10035.851024,-10066.800811,19985.560434
252.569261,-7737.564530,-8142.265362,17838.963202
252.569569,-4060.306139,-4589.276840,13841.851115
252.569878,1532.190996,148.041188,9696.697840
252.570186,5898.935335,4515.256246,3552.988522
252.570494,8503.660028,6883.915261,1776.494261
252.570802,9959.241474,8660.409521,444.123565
252.571110,10112.460574,8882.471304,74.020594
252.571418,8273.831378,7328.038826,2812.782580
252.571726,4136.915689,4663.297435,5477.523971
252.572034,-153.219100,-1110.308913,12435.459826
252.572342,-5056.230287,-5551.544565,16876.695478
252.572650,-8044.002729,-9474.636058,19245.354492
252.572958,-10801.946522,-11917.315666,20725.766376
252.573266,-9882.631924,-11103.089130,19393.395680
252.573574,-6588.421283,-8512.368333,16358.551318
252.573882,-1149.143247,-2738.761985,11547.212695
252.574190,3983.696590,2442.679609,5921.647536
252.574498,7431.126331,5403.503377,2294.638420
252.574806,9499.584175,8660.409521,0.000000
252.575114,11184.994271,10140.821405,-666.185348
252.575422,9959.241474,9992.780217,-592.164754
252.575730,7431.126331,8586.388927,1702.473667
252.576038,3447.429741,3627.009116,7031.956449
252.576346,-1225.752797,-1184.329507,12213.398043
252.576654,-5515.887586,-4885.359217,15766.386565
252.576962,-9193.145976,-8956.491898,18801.230927
252.577270,-10572.117872,-10214.842000,19541.436869
252.577578,-9039.926876,-7920.203579,18283.086767
252.577886,-4903.011187,-4885.359217,14508.036463
252.578194,459.657299,148.041188,9474.636058
252.578502,4903.011187,4145.153275,4219.173869
252.578810,8044.002729,6291.750507,2072.576638
252.579118,10189.070123,8660.409521,222.061783
252.579426,9959.241474,9104.533087,962.267725
252.579734,8580.269578,7476.080014,2738.761985
252.580042,4290.134789,4811.338623,5255.462188
252.580350,-689.485948,-592.164754,12065.356855
252.580657,-4596.572988,-5255.462188,16950.716072
252.580965,-7660.954980,-8660.409521,18949.272115
252.581273,-9882.631924,-11029.068536,20873.807564
252.581581,-9422.974625,-10955.047942,19245.354492
252.581889,-6588.421283,-7624.121203,16802.674883
252.582197,-1149.143247,-2664.741391,12361.439231
252.582505,3140.991542,2960.823768,6069.688724
252.582813,7354.516781,5477.523971,2812.782580
252.583121,9346.365076,8734.430116,148.041188
252.583429,9882.631924,9844.739029,-444.123565
252.583737,9806.022374,9474.636058,444.123565
252.584045,7354.516781,8142.265362,2368.659014
252.584353,2911.162892,4071.132681,7105.977043
252.584661,-1455.581446,-1110.308913,12657.521608
252.584969,-5056.230287,-4663.297435,16580.613101
252.585277,-9576.193725,-8216.285956,19319.375086
252.585585,-10035.851024,-9696.697840,20429.683999
252.585893,-7814.174080,-7846.182985,18283.086767
252.586201,-4673.182538,-4515.256246,14211.954086
252.586509,689.485948,222.061783,10140.821405
252.586817,5056.230287,3849.070898,5033.400406
252.587125,7507.735880,6439.791695,2886.803174
252.587433,9422.974625,8734.430116,1702.473667
252.587741,9806.022374,9252.574275,666.185348
252.588049,8350.440928,8216.285956,2812.782580
252.588357,4596.572988,5107.421000,5625.565159
252.588665,459.657299,-0.000000,11695.253884
252.588973,-3983.696590,-4367.215058,16580.613101
252.589281,-7584.345430,-8142.265362,18949.272115
252.589588,-10112.460574,-11029.068536,20503.704593
252.589896,-9882.631924,-10214.842000,19541.436869
252.590204,-6741.640382,-7772.162391,16580.613101
252.590512,-1072.533697,-2886.803174,12065.356855
252.590820,3907.087040,1998.556043,6809.894666
252.591128,7124.688131,4663.297435,3034.844362
252.591436,9499.584175,8364.327145,370.102971
252.591744,10725.336972,9400.615463,-518.144159
252.592052,10035.851024,9400.615463,0.000000
252.592360,7354.516781,8068.244768,1776.494261
252.592668,3524.039291,3701.029710,6809.894666
252.592976,-1378.971896,-1110.308913,11917.315666
252.593284,-4903.011187,-4589.276840,15692.365970
252.593592,-8197.221829,-7994.224174,18283.086767
252.593900,-10265.679673,-10288.862594,20207.622217
252.594208,-8733.488677,-8364.327145,18061.024985
252.594516,-4826.401637,-4811.338623,13989.892304
252.594824,459.657299,-0.000000,9326.594869
252.595132,5286.058936,3775.050304,4663.297435
252.595440,7431.126331,6217.729913,1924.535449
252.595748,9729.412825,7994.224174,962.267725
252.596056,10725.336972,8956.491898,1036.288319
252.596364,8656.879127,8290.306550,1998.556043
252.596672,4979.620737,4737.318029,5181.441594
252.596980,766.095498,592.164754,10510.924376
252.597288,-3064.381992,-4293.194464,15618.345376
252.597596,-7048.078582,-7402.059420,17838.963202
252.597904,-9652.803275,-10881.027347,19837.519246
252.598211,-9729.412825,-11177.109724,19689.478057
252.598519,-7354.516781,-8438.347739,17024.736666
252.598827,-1915.238745,-4219.173869,13101.645173
252.599135,2757.943793,1776.494261,6809.894666
252.599443,6205.373534,4367.215058,3256.906145
252.599751,8273.831378,7550.100608,1776.494261
252.600059,9422.974625,9030.512492,296.082377
252.600367,8963.317327,9400.615463,1332.370696
252.600675,6818.249932,7550.100608,3108.864956
252.600983,2604.724693,4811.338623,6883.915261
252.601291,-1455.581446,-518.144159,12657.521608
252.601599,-4903.011187,-3849.070898,15618.345376
252.601907,-8350.440928,-7105.977043,18579.169144
252.602215,-10189.070123,-9104.533087,19689.478057
252.602523,-9039.926876,-7476.080014,18283.086767
252.602831,-4903.011187,-4589.276840,14508.036463
252.603139,0.000000,296.082377,9844.739029
252.603447,3907.087040,4071.132681,6069.688724
252.603755,7507.735880,6439.791695,3108.864956
252.604063,9039.926876,8808.450710,1110.308913
252.604371,10035.851024,9104.533087,1184.329507
252.604679,8886.707777,8438.347739,2072.576638
252.604987,5209.449386,5625.565159,5625.565159
252.605295,1608.800546,592.164754,11325.150913
252.605603,-3064.381992,-3701.029710,15544.324782
252.605911,-6588.421283,-7402.059420,18653.189738
252.606219,-8810.098227,-10214.842000,20133.601622
252.606527,-9346.365076,-10436.903782,19467.416275
252.606835,-6588.421283,-7846.182985,16802.674883
252.607142,-1838.629195,-3775.050304,12213.398043
252.607450,2451.505594,1406.391290,7105.977043
252.607758,6588.421283,3478.967927,4071.132681
252.608066,8197.221829,7105.977043,1406.391290
252.608374,9422.974625,7920.203579,148.041188
252.608682,9882.631924,8290.306550,1332.370696
252.608990,6818.249932,7402.059420,1924.535449
252.609298,3294.210641,4145.153275,6365.771101
252.609606,-536.266849,-962.267725,11917.315666
252.609914,-4290.134789,-4071.132681,15174.221811
252.610222,-7890.783629,-7402.059420,17542.880825
252.610530,-9346.365076,-9326.594869,19319.375086
252.610838,-7814.174080,-8142.265362,17838.963202
252.611146,-4903.011187,-4071.132681,13027.624579
252.611454,689.485948,444.123565,9696.697840
252.611762,4596.572988,3552.988522,5033.400406
252.612070,7277.907231,6069.688724,2146.597232
252.612378,9116.536426,8586.388927,1406.391290
252.612686,9959.241474,8660.409521,296.082377
252.612994,7890.783629,8142.265362,1554.432478
252.613302,6052.154434,5181.441594,6291.750507
252.613610,1225.752797,666.185348,10732.986159
252.613918,-3447.429741,-3775.050304,14952.160028
252.614226,-6511.811733,-7624.121203,18653.189738
252.614534,-9499.584175,-10881.027347,20133.601622
252.614842,-9959.241474,-10732.986159,19541.436869
252.615150,-6205.373534,-7698.141797,16876.695478
252.615458,-1532.190996,-3256.906145,12065.356855
252.615765,2528.115143,1628.453072,6587.832884
252.616073,6665.030833,3849.070898,4071.132681
252.616381,8273.831378,7476.080014,1480.411884
252.616689,9422.974625,8956.491898,370.102971
252.616997,9882.631924,9030.512492,962.267725
252.617305,7124.688131,8512.368333,1998.556043
252.617613,2987.772442,4811.338623,6809.894666
252.617921,-995.924147,-666.185348,12213.398043
252.618229,-4519.963438,-3478.967927,15100.201217
252.618537,-8197.221829,-7920.203579,18283.086767
252.618845,-10265.679673,-9696.697840,19615.457463
252.619153,-9039.926876,-7846.182985,18283.086767
252.619461,-5132.839837,-4589.276840,14359.995275
252.619769,229.828649,592.164754,9030.512492
252.620077,4366.744339,3552.988522,5477.523971
252.620385,7354.516781,5551.544565,3034.844362
252.620693,8886.707777,8808.450710,666.185348
252.621001,10112.460574,8808.450710,1406.391290
252.621309,8503.660028,7920.203579,2072.576638
252.621617,4673.182538,5181.441594,5477.523971
252.621925,1072.533697,-74.020594,11547.212695
252.622233,-3677.258390,-3627.009116,15322.262999
252.622541,-6971.469032,-7105.977043,18801.230927
252.622849,-9652.803275,-10881.027347,20651.745782
252.623157,-9652.803275,-10584.944971,19023.292709
252.623465,-7048.078582,-8364.327145,16580.613101
252.623773,-1991.848295,-3849.070898,12139.377449
252.624081,2298.286494,370.102971,7698.141797
252.624389,5439.278036,3404.947333,4145.153275
252.624696,8197.221829,6957.935855,1850.514855
252.625004,9729.412825,8364.327145,444.123565
252.625312,10418.898773,8438.347739,740.205942
252.625620,7584.345430,8586.388927,2146.597232
252.625928,4136.915689,4885.359217,5773.606348
252.626236,76.609550,-148.041188,11473.192101
252.626544,-3753.867940,-2886.803174,14211.954086
252.626852,-6894.859482,-6587.832884,17764.942608
252.627160,-9346.365076,-8660.409521,19245.354492
252.627468,-7967.393179,-7476.080014,17542.880825
252.627776,-4673.182538,-4293.194464,13915.871710
252.628084,76.609550,370.102971,8808.450710
252.628392,4290.134789,3256.906145,5551.544565
252.628700,6665.030833,5921.647536,3478.967927
252.629008,8120.612279,7994.224174,1850.514855
252.629316,9346.365076,7994.224174,1924.535449
252.629624,7584.345430,7476.080014,3256.906145
252.629932,4366.744339,4663.297435,5773.606348
252.630240,612.876398,-74.020594,11103.089130
252.630548,-2834.553343,-2960.823768,14878.139434
252.630856,-6588.421283,-6661.853478,17542.880825
252.631164,-8350.440928,-10140.821405,19689.478057
252.631472,-9193.145976,-9622.677246,18579.169144
252.631780,-6511.811733,-7920.203579,16654.633695
252.632088,-2221.676944,-3775.050304,12287.418637
252.632396,2451.505594,592.164754,7476.080014
252.632704,5975.544884,3108.864956,4885.359217
252.633012,7967.393179,5773.606348,1776.494261
252.633320,9269.755526,7994.224174,1332.370696
252.633627,9806.022374,7994.224174,1332.370696
252.633935,7277.907231,7624.121203,2220.617826
252.634243,3753.867940,4219.173869,6069.688724
252.634551,153.219100,-222.061783,10658.965565
252.634859,-3677.258390,-2886.803174,13989.892304
252.635167,-6511.811733,-6513.812290,17246.798449
252.635475,-8810.098227,-8808.450710,19171.333898
252.635783,-8197.221829,-7254.018232,17172.777854
252.636091,-4749.792088,-4219.173869,13841.851115
252.636399,76.609550,444.123565,9104.533087
252.636707,3677.258390,3775.050304,5625.565159
252.637015,6588.421283,5403.503377,3923.091493
252.637323,7507.735880,7920.203579,1998.556043
252.637631,8580.269578,8142.265362,1998.556043
252.637939,8044.002729,7105.977043,3182.885551
252.638247,4519.963438,5033.400406,5625.565159
252.638555,612.876398,444.123565,10732.986159
252.638863,-2834.553343,-3108.864956,14434.015869
252.639171,-6511.811733,-6587.832884,17468.860231
252.639479,-8810.098227,-9696.697840,19615.457463
252.639787,-9039.926876,-9770.718434,18727.210333
252.640095,-7354.516781,-8142.265362,16654.633695
252.640403,-1991.848295,-4071.132681,12361.439231
252.640711,1532.190996,296.082377,7328.038826
252.641019,4979.620737,2960.823768,4441.235652
252.641327,7354.516781,5773.606348,2738.761985
252.641635,8427.050478,7254.018232,1702.473667
252.641943,8656.879127,8142.265362,1628.453072
252.642250,7048.078582,7254.018232,2886.803174
252.642558,3064.381992,4515.256246,5995.668130
252.642866,536.266849,370.102971,11103.089130
252.643174,-3140.991542,-2812.782580,13767.830521
252.643482,-7124.688131,-5773.606348,16432.571912
252.643790,-8044.002729,-8216.285956,18505.148550
252.644098,-7967.393179,-6883.915261,16802.674883
252.644406,-4979.620737,-3775.050304,13841.851115
252.644714,0.000000,-518.144159,10066.800811
252.645022,2987.772442,2442.679609,5773.606348
252.645330,5286.058936,4811.338623,3849.070898
252.645638,7890.783629,6809.894666,3849.070898
252.645946,8580.269578,7550.100608,2072.576638
252.646254,7507.735880,6957.935855,2812.782580
252.646562,5132.839837,4885.359217,5995.668130
252.646870,1378.971896,592.164754,10066.800811
252.647178,-2374.896044,-2368.659014,14359.995275
252.647486,-4826.401637,-5625.565159,16136.489536
252.647794,-6511.811733,-8808.450710,18505.148550
252.648102,-8044.002729,-8290.306550,18431.127956
252.648410,-6128.763984,-6883.915261,16802.674883
252.648718,-2451.505594,-3552.988522,12731.542202
252.649026,1455.581446,-0.000000,8364.327145
252.649334,4443.353888,2368.659014,5403.503377
252.649642,6818.249932,4885.359217,3923.091493
252.649950,7431.126331,6883.915261,2812.782580
252.650258,8503.660028,7624.121203,2664.741391
252.650566,7737.564530,7031.956449,2590.720797
252.650874,4136.915689,4959.379811,5699.585753
252.651181,766.095498,518.144159,10510.924376
252.651489,-2911.162892,-2220.617826,13323.706956
252.651797,-5745.716235,-5033.400406,16062.468941
252.652105,-7354.516781,-7105.977043,18061.024985
252.652413,-7814.174080,-6735.874072,17024.736666
252.652721,-4290.134789,-4441.235652,14582.057057
252.653029,-306.438199,-0.000000,9622.677246
252.653337,3064.381992,3182.885551,6291.750507
252.653645,5362.668486,4885.359217,4663.297435
252.653953,7354.516781,7105.977043,3034.844362
252.654261,8273.831378,7550.100608,2220.617826
252.654569,7967.393179,6883.915261,2368.659014
252.654877,4673.182538,4885.359217,5551.544565
252.655185,2068.457845,444.123565,9770.718434
252.655493,-1685.410096,-2960.823768,13397.727550
252.655801,-5056.230287,-5255.462188,15692.365970
252.656109,-7048.078582,-8290.306550,18283.086767
252.656417,-8197.221829,-8734.430116,18653.189738
252.656725,-5975.544884,-7476.080014,16358.551318
252.657033,-2145.067394,-4367.215058,12139.377449
252.657341,1532.190996,148.041188,7698.141797
252.657649,4903.011187,1776.494261,5255.462188
252.657957,6741.640382,4367.215058,3997.112087
252.658265,8044.002729,6587.832884,2368.659014
252.658573,8197.221829,7402.059420,1998.556043
252.658881,7354.516781,6735.874072,2886.803174
252.659189,3983.696590,4071.132681,5773.606348
252.659497,612.876398,-74.020594,10288.862594
252.659804,-3140.991542,-3108.864956,13767.830521
252.660112,-6205.373534,-5329.482782,15988.448347
252.660420,-7890.783629,-7550.100608,17912.983796
252.660728,-7584.345430,-6809.894666,16876.695478
252.661036,-4903.011187,-4367.215058,14434.015869
252.661344,-612.876398,-0.000000,9770.718434
252.661652,2757.943793,2738.761985,6217.729913
252.661960,4979.620737,5107.421000,4737.318029
252.662268,6665.030833,6809.894666,3478.967927
252.662576,8044.002729,7476.080014,2664.741391
252.662884,7201.297681,7254.018232,2886.803174
252.663192,4519.963438,5107.421000,5551.544565
252.663500,919.314598,740.205942,9918.759623
252.663808,-2451.505594,-2812.782580,13989.892304
252.664116,-5056.230287,-5107.421000,16580.613101
252.664424,-7201.297681,-7920.203579,18431.127956
252.664732,-7584.345430,-8586.388927,18209.066173
252.665040,-5975.544884,-6809.894666,16580.613101
252.665348,-1608.800546,-3775.050304,12435.459826
252.665656,1915.238745,444.123565,7476.080014
252.665964,4596.572988,2590.720797,5403.503377
252.666272,6741.640382,4885.359217,3701.029710
252.666580,8197.221829,6883.915261,2516.700203
252.666888,8120.612279,7254.018232,2294.638420
252.667196,7124.688131,6735.874072,3478.967927
252.667504,3983.696590,3701.029710,6143.709319
252.667812,459.657299,-0.000000,10066.800811
252.668120,-2911.162892,-3256.906145,13989.892304
252.668428,-6205.373534,-5847.626942,16432.571912
252.668735,-7814.174080,-7476.080014,18135.045579
252.669043,-7201.297681,-6365.771101,17098.757260
252.669351,-3983.696590,-4589.276840,14582.057057
252.669659,0.000000,-0.000000,9326.594869
252.669967,3600.648841,2738.761985,6143.709319
252.670275,5362.668486,5181.441594,4293.194464
252.670583,7048.078582,7105.977043,2738.761985
252.670891,7431.126331,7994.224174,2664.741391
252.671199,7354.516781,7328.038826,3404.947333
252.671507,4443.353888,5181.441594,5773.606348
252.671815,1072.533697,296.082377,10066.800811
252.672123,-1762.019645,-2886.803174,13619.789333
252.672431,-5132.839837,-5329.482782,15840.407159
252.672739,-7048.078582,-8586.388927,18801.230927
252.673047,-7431.126331,-8586.388927,18431.127956
252.673355,-5745.716235,-6883.915261,16432.571912
252.673663,-1378.971896,-3775.050304,12361.439231
252.673971,2451.505594,518.144159,7179.997637
252.674279,5439.278036,2812.782580,4959.379811
252.674587,6818.249932,4959.379811,3256.906145
252.674895,8044.002729,6291.750507,2220.617826
252.675203,8580.269578,7402.059420,2294.638420
252.675511,7277.907231,6513.812290,3552.988522
252.675819,3600.648841,4071.132681,5847.626942
252.676127,229.828649,-740.205942,11029.068536
252.676435,-3140.991542,-3330.926739,14137.933492
252.676743,-6358.592633,-6069.688724,16284.530724
252.677051,-7737.564530,-8216.285956,18579.169144
252.677359,-7277.907231,-6883.915261,16876.695478
252.677666,-4290.134789,-3849.070898,14211.954086
252.677974,612.876398,222.061783,9252.574275
252.678282,3677.258390,3478.967927,5033.400406
252.678590,5515.887586,4885.359217,4145.153275
252.678898,7354.516781,7179.997637,3108.864956
252.679206,7814.174080,8586.388927,2590.720797
252.679514,6588.421283,7772.162391,3034.844362
252.679822,4290.134789,5181.441594,6069.688724
252.680130,612.876398,1110.308913,9844.739029
252.680438,-3064.381992,-2516.700203,13767.830521
252.680746,-5362.668486,-5847.626942,16580.613101
252.681054,-8350.440928,-8512.368333,18357.107362
252.681362,-8273.831378,-9178.553681,19097.313304
252.681670,-5669.106685,-6883.915261,16432.571912
252.681978,-1608.800546,-3923.091493,12657.521608
252.682286,2451.505594,-0.000000,7402.059420
252.682594,5132.839837,3256.906145,4071.132681
252.682902,6894.859482,4811.338623,3182.885551
252.683210,7660.954980,6809.894666,1998.556043
252.683518,7967.393179,7624.121203,2220.617826
252.683826,6435.202183,6883.915261,3552.988522
252.684134,2834.553343,3552.988522,6365.771101
252.684442,-842.705048,-1628.453072,10881.027347
252.684750,-3830.477490,-3923.091493,14211.954086
252.685058,-7354.516781,-6735.874072,16802.674883
252.685366,-8580.269578,-8364.327145,18579.169144
252.685674,-7890.783629,-7031.956449,16876.695478
252.685982,-3140.991542,-4441.235652,14063.912898
252.686289,383.047749,148.041188,9104.533087
252.686597,4826.401637,3404.947333,5477.523971
252.686905,5975.544884,4885.359217,3552.988522
252.687213,7431.126331,7179.997637,2294.638420
252.687521,8427.050478,8512.368333,2072.576638
252.687829,7354.516781,7698.141797,2960.823768
252.688137,4519.963438,5477.523971,5921.647536
252.688445,536.266849,814.226536,10288.862594
252.688753,-2681.334243,-3034.844362,14063.912898
252.689061,-5822.325785,-5847.626942,17098.757260
252.689369,-8044.002729,-8586.388927,19541.436869
252.689677,-8044.002729,-9104.533087,18949.272115
252.689985,-6358.592633,-6957.935855,16506.592507
252.690293,-1455.581446,-3775.050304,12731.542202
252.690601,2757.943793,1184.329507,6957.935855
252.690909,5975.544884,3849.070898,3997.112087
252.691217,7431.126331,5699.585753,2812.782580
252.691525,8886.707777,7772.162391,1554.432478
252.691833,8810.098227,8290.306550,1554.432478
252.692141,7277.907231,7254.018232,3256.906145
252.692449,3294.210641,4293.194464,5921.647536
252.692757,-536.266849,-1036.288319,11843.295072
252.693065,-3907.087040,-4367.215058,15100.201217
252.693373,-7354.516781,-7105.977043,17394.839637
252.693681,-9422.974625,-9400.615463,19763.498651
252.693989,-7354.516781,-7846.182985,17616.901420
252.694297,-4136.915689,-4737.318029,14878.139434
252.694605,612.876398,444.123565,10288.862594
252.694913,4519.963438,3701.029710,4811.338623
252.695220,6894.859482,5699.585753,3034.844362
252.695528,8427.050478,7994.224174,1776.494261
252.695836,9806.022374,9400.615463,1184.329507
252.696144,8350.440928,8586.388927,2738.761985
252.696452,5745.716235,6291.750507,5477.523971
252.696760,1302.362347,1258.350101,10436.903782
252.697068,-2911.162892,-3182.885551,14434.015869
252.697376,-6435.202183,-5921.647536,17246.798449
252.697684,-8886.707777,-9770.718434,19985.560434
252.697992,-8656.879127,-9696.697840,19763.498651
252.698300,-6435.202183,-7402.059420,16358.551318
252.698608,-1915.238745,-4071.132681,12879.583391
252.698916,3447.429741,814.226536,7254.018232
252.699224,6435.202183,3997.112087,3256.906145
252.699532,8044.002729,6143.709319,2072.576638
252.699840,9346.365076,8586.388927,370.102971
252.700148,9422.974625,8956.491898,666.185348
252.700456,7814.174080,7698.141797,2590.720797
252.700764,3830.477490,4663.297435,5699.585753
252.701072,0.000000,-1258.350101,11991.336260
252.701380,-4673.182538,-4737.318029,15322.262999
252.701688,-7890.783629,-7846.182985,17987.004391
252.701996,-10189.070123,-10732.986159,20651.745782
252.702304,-9116.536426,-8290.306550,18653.189738
252.702612,-5209.449386,-4959.379811,14730.098246
252.702920,459.657299,-222.061783,10140.821405
252.703228,4826.401637,3775.050304,4885.359217
252.703536,7354.516781,5625.565159,2516.700203
252.703843,8886.707777,7920.203579,1406.391290
252.704151,10342.289223,9844.739029,666.185348
252.704459,7890.783629,8660.409521,1998.556043
252.704767,5056.230287,6439.791695,4959.379811
252.705075,612.876398,1554.432478,9474.636058
252.705383,-3524.039291,-2960.823768,14582.057057
252.705691,-7048.078582,-6513.812290,17764.942608
252.705999,-9652.803275,-10362.883188,20947.828159
252.706307,-9729.412825,-11029.068536,20355.663405
252.706615,-8197.221829,-8216.285956,17098.757260
252.706923,-2757.943793,-4959.379811,13915.871710
252.707231,2068.457845,296.082377,7328.038826
252.707539,6128.763984,3849.070898,3330.926739
252.707847,8044.002729,6143.709319,1998.556043
252.708155,9806.022374,9030.512492,-222.061783
252.708463,11184.994271,9400.615463,0.000000
252.708771,8810.098227,9104.533087,2220.617826
252.709079,4596.572988,5107.421000,5033.400406
252.709387,153.219100,-296.082377,11103.089130
252.709695,-4213.525239,-4367.215058,15396.283594
252.710003,-8350.440928,-8290.306550,18431.127956
252.710311,-10265.679673,-11177.109724,21021.848753
252.710619,-10112.460574,-8882.471304,19319.375086
252.710927,-6281.983084,-6069.688724,15914.427753
252.711235,306.438199,-1406.391290,11621.233289
252.711543,4366.744339,3330.926739,4885.359217
252.711851,7354.516781,5329.482782,2738.761985
252.712159,9193.145976,8068.244768,1850.514855
252.712467,10112.460574,10140.821405,0.000000
252.712774,8580.269578,9622.677246,1628.453072
252.713082,6205.373534,7254.018232,5107.421000
252.713390,919.314598,2442.679609,9252.574275
252.713698,-3294.210641,-2294.638420,15174.221811
252.714006,-6511.811733,-6143.709319,18505.148550
252.714314,-10112.460574,-9770.718434,21095.869347
252.714622,-10572.117872,-10436.903782,21021.848753
252.714930,-8350.440928,-8142.265362,17542.880825
252.715238,-3677.258390,-4737.318029,14211.954086
252.715546,2681.334243,592.164754,8290.306550
252.715854,6358.592633,4589.276840,2738.761985
252.716162,9039.926876,7105.977043,1628.453072
252.716470,11184.994271,9474.636058,-518.144159
252.716778,11338.213370,10510.924376,-962.267725
252.717086,8886.707777,9474.636058,666.185348
252.717394,5975.544884,5625.565159,4885.359217
252.717702,612.876398,222.061783,10436.903782
252.718010,-3677.258390,-4367.215058,15322.262999
252.718318,-7584.345430,-8512.368333,18579.169144
252.718626,-10189.070123,-11695.253884,21243.910535
252.718934,-9882.631924,-10436.903782,20059.581028
252.719242,-6665.030833,-7179.997637,15840.407159
252.719550,-689.485948,-2294.638420,11843.295072
252.719858,3907.087040,2368.659014,5921.647536
252.720166,7201.297681,5181.441594,2368.659014
252.720474,9269.755526,7624.121203,1554.432478
252.720782,10572.117872,9696.697840,-518.144159
252.721090,9729.412825,9474.636058,296.082377
252.721397,7048.078582,7772.162391,3849.070898
252.721705,2298.286494,2812.782580,8290.306550
252.722013,-2834.553343,-2516.700203,13841.851115
252.722321,-6894.859482,-6143.709319,17098.757260
252.722629,-9882.631924,-10584.944971,20799.786970
252.722937,-10418.898773,-11769.274478,21317.931130
252.723245,-9269.755526,-9326.594869,18209.066173
252.723553,-4366.744339,-6069.688724,14730.098246
252.723861,1225.752797,-0.000000,8290.306550
252.724169,6128.763984,3849.070898,3182.885551
252.724477,8810.098227,7105.977043,1258.350101
252.724785,10342.289223,9548.656652,-1258.350101
252.725093,11338.213370,10732.986159,-1258.350101
252.725401,9806.022374,9622.677246,74.020594
252.725709,5898.935335,6735.874072,3701.029710
252.726017,1225.752797,592.164754,9104.533087
252.726325,-3677.258390,-3330.926739,14359.995275
252.726633,-8044.002729,-7698.141797,18357.107362
252.726941,-10878.556072,-11473.192101,21465.972318
252.727249,-10955.165621,-10510.924376,20429.683999
252.727557,-7507.735880,-7550.100608,17172.777854
252.727865,-1991.848295,-3330.926739,12361.439231
252.728173,2911.162892,2590.720797,7031.956449
252.728481,7201.297681,4663.297435,3627.009116
252.728789,9039.926876,7772.162391,1702.473667
252.729097,10189.070123,9844.739029,-148.041188
252.729405,9959.241474,9622.677246,1036.288319
252.729713,6971.469032,7846.182985,3923.091493
252.730021,2681.334243,3330.926739,8364.327145
252.730328,-2221.676944,-1998.556043,14137.933492
252.730636,-6281.983084,-5847.626942,17912.983796
252.730944,-9959.241474,-10362.883188,21095.869347
252.731252,-11108.384721,-11547.212695,21614.013506
252.731560,-9806.022374,-9474.636058,18875.251521
252.731868,-5132.839837,-5773.606348,15026.180623
252.732176,1838.629195,222.061783,8882.471304
252.732484,5592.497135,4737.318029,3552.988522
252.732792,8886.707777,6883.915261,1258.350101
252.733100,11184.994271,9548.656652,-888.247130
252.733408,12257.527968,10881.027347,-1184.329507
252.733716,9959.241474,9622.677246,222.061783
252.734024,6281.983084,7105.977043,3108.864956
252.734332,1762.019645,1184.329507,9622.677246
252.734640,-3294.210641,-3552.988522,14582.057057
252.734948,-7354.516781,-7179.997637,17987.004391
252.735256,-10725.336972,-11399.171507,21021.848753
252.735564,-10418.898773,-10584.944971,20429.683999
252.735872,-7354.516781,-7920.203579,17246.798449
252.736180,-1838.629195,-2886.803174,13027.624579
252.736488,3447.429741,2072.576638,7328.038826
252.736796,6894.859482,4737.318029,3330.926739
252.737104,9039.926876,7402.059420,2072.576638
252.737412,10725.336972,9104.533087,962.267725
252.737720,9576.193725,9326.594869,1110.308913
252.738028,7507.735880,7550.100608,4071.132681
252.738336,2834.553343,3330.926739,7920.203579
252.738644,-1915.238745,-1702.473667,13619.789333
252.738952,-6435.202183,-5329.482782,17320.819043
252.739259,-9269.755526,-9622.677246,20429.683999
252.739567,-10955.165621,-11029.068536,20873.807564
252.739875,-9346.365076,-9474.636058,18653.189738
252.740183,-4903.011187,-5773.606348,15470.304188
252.740491,766.095498,-296.082377,9252.574275
252.740799,5515.887586,3701.029710,4145.153275
252.741107,7967.393179,6439.791695,1776.494261
252.741415,10189.070123,9474.636058,-888.247130
252.741723,11414.822920,10584.944971,-888.247130
252.742031,10265.679673,9844.739029,-148.041188
252.742339,7048.078582,8068.244768,2886.803174
252.742647,1915.238745,2294.638420,8882.471304
252.742955,-2451.505594,-2590.720797,13471.748144
252.743263,-7354.516781,-6439.791695,17172.777854
252.743571,-10112.460574,-10140.821405,20207.622217
252.743879,-10572.117872,-10362.883188,19541.436869
252.744187,-8197.221829,-7772.162391,17394.839637
252.744495,-2528.115143,-4293.194464,13693.809927
252.744803,2298.286494,1332.370696,8068.244768
252.745111,5745.716235,3701.029710,3997.112087
252.745419,8503.660028,5921.647536,2886.803174
252.745727,9499.584175,8660.409521,1702.473667
252.746035,9039.926876,8882.471304,740.205942
252.746343,6818.249932,6957.935855,4071.132681
252.746651,2757.943793,3108.864956,7402.059420
252.746959,-1915.238745,-2294.638420,12805.562797
252.747267,-6358.592633,-5329.482782,17320.819043
252.747575,-9576.193725,-9474.636058,19689.478057
252.747882,-10572.117872,-11473.192101,21095.869347
252.748190,-9576.193725,-8956.491898,19245.354492
252.748498,-5286.058936,-6217.729913,14952.160028
252.748806,689.485948,-0.000000,9696.697840
252.749114,4826.401637,4145.153275,4219.173869
252.749422,7814.174080,6513.812290,1924.535449
252.749730,9806.022374,9400.615463,0.000000
252.750038,10572.117872,10288.862594,-888.247130
252.750346,9729.412825,9696.697840,74.020594
252.750654,7354.516781,7994.224174,2664.741391
252.750962,2451.505594,2516.700203,7846.182985
252.751270,-2221.676944,-2220.617826,12879.583391
252.751578,-6358.592633,-5921.647536,16284.530724
252.751886,-9806.022374,-9696.697840,19911.539840
252.752194,-9269.755526,-10288.862594,20281.642811
252.752502,-7890.783629,-7846.182985,17838.963202
252.752810,-2604.724693,-4737.318029,13989.892304
252.753118,2451.505594,222.061783,8068.244768
252.753426,5362.668486,3849.070898,4811.338623
252.753734,7737.564530,5847.626942,3552.988522
252.754042,9346.365076,8438.347739,1480.411884
252.754350,9576.193725,9400.615463,1036.288319
252.754658,7507.735880,7624.121203,3701.029710
252.754966,3524.039291,4367.215058,7550.100608
252.755274,-1455.581446,-740.205942,12213.398043
252.755582,-4826.401637,-4959.379811,16580.613101
252.755890,-8656.879127,-8512.368333,18875.251521
252.756198,-10342.289223,-11103.089130,21317.931130
252.756506,-9729.412825,-9400.615463,19393.395680
252.756813,-5822.325785,-6365.771101,16358.551318
252.757121,842.705048,-1406.391290,10658.965565
252.757429,4749.792088,3701.029710,4441.235652
252.757737,7890.783629,5773.606348,2368.659014
252.758045,9652.803275,8586.388927,444.123565
252.758353,11031.775171,10436.903782,-962.267725
252.758661,10265.679673,9918.759623,0.000000
252.758969,7354.516781,7994.224174,2516.700203
252.759277,2757.943793,3256.906145,7105.977043
252.759585,-1302.362347,-2146.597232,12879.583391
252.759893,-5592.497135,-5625.565159,15914.427753
252.760201,-9116.536426,-9474.636058,19245.354492
252.760509,-9499.584175,-10436.903782,20355.663405
252.760817,-8120.612279,-7994.224174,17690.922014
252.761125,-2681.334243,-4811.338623,14211.954086
252.761433,2221.676944,296.082377,8364.327145
252.761741,5056.230287,3627.009116,4367.215058
252.762049,8350.440928,5403.503377,3701.029710
252.762357,9346.365076,7994.224174,1628.453072
252.762665,9193.145976,9326.594869,1036.288319
252.762973,8120.612279,7476.080014,3404.947333
252.763281,4443.353888,4737.318029,6365.771101
252.763589,-536.266849,-296.082377,11547.212695
252.763897,-4443.353888,-4589.276840,15470.304188
252.764205,-8120.612279,-7920.203579,18431.127956
252.764513,-10035.851024,-11029.068536,20725.766376
252.764821,-9729.412825,-9770.718434,19319.375086
252.765129,-6205.373534,-7402.059420,16802.674883
252.765436,-612.876398,-2738.761985,11769.274478
252.765744,3217.601092,2886.803174,5107.421000
252.766052,6588.421283,5403.503377,2738.761985
252.766360,8427.050478,7698.141797,962.267725
252.766668,9806.022374,9844.739029,-1110.308913
252.766976,9576.193725,9474.636058,444.123565
252.767284,6971.469032,7698.141797,2738.761985
252.767592,2451.505594,3478.967927,6069.688724
252.767900,-1838.629195,-1332.370696,12657.521608
252.768208,-5592.497135,-4589.276840,15248.242405
252.768516,-8733.488677,-8290.306550,18505.148550
252.768824,-9576.193725,-10288.862594,20059.581028
252.769132,-8427.050478,-7920.203579,17394.839637
252.769440,-3830.477490,-5403.503377,14211.954086
252.769748,1378.971896,-296.082377,9104.533087
252.770056,5132.839837,3330.926739,4737.318029
252.770364,7048.078582,5255.462188,2664.741391
252.770672,10035.851024,7772.162391,2294.638420
252.770980,9193.145976,9474.636058,0.000000
252.771288,7584.345430,8068.244768,2738.761985
252.771596,4826.401637,4145.153275,7105.977043
252.771904,-689.485948,-0.000000,10140.821405
252.772212,-4826.401637,-4885.359217,16580.613101
252.772520,-7737.564530,-8068.244768,18283.086767
252.772828,-10265.679673,-11473.192101,21095.869347
252.773136,-10265.679673,-10214.842000,20281.642811
252.773444,-6588.421283,-7179.997637,17024.736666
252.773752,-1072.533697,-2442.679609,12213.398043
252.774060,3447.429741,2812.782580,5551.544565
252.774367,7354.516781,5181.441594,3627.009116
252.774675,8580.269578,7846.182985,444.123565
252.774983,10035.851024,9474.636058,-592.164754
252.775291,9882.631924,9918.759623,148.041188
252.775599,7048.078582,8808.450710,2072.576638
252.775907,3677.258390,4145.153275,6809.894666
252.776215,-1532.190996,-518.144159,11029.068536
252.776523,-5056.230287,-4145.153275,16210.510130
252.776831,-9039.926876,-8882.471304,19319.375086
252.777139,-10801.946522,-9918.759623,19763.498651
252.777447,-8120.612279,-8660.409521,19023.292709
252.777755,-4443.353888,-5329.482782,14211.954086
252.778063,1378.971896,-222.061783,9474.636058
252.778371,5132.839837,3775.050304,4737.318029
252.778679,7737.564530,5403.503377,2960.823768
252.778987,9499.584175,8364.327145,1406.391290
252.779295,10572.117872,9696.697840,-148.041188
252.779603,9193.145976,8364.327145,2368.659014
252.779911,4903.011187,5699.585753,5033.400406
252.780219,766.095498,370.102971,10881.027347
252.780527,-3600.648841,-3849.070898,15470.304188
252.780835,-7584.345430,-7994.224174,17987.004391
252.781143,-10035.851024,-11325.150913,21095.869347
252.781451,-9882.631924,-10881.027347,19393.395680
252.781759,-6818.249932,-8438.347739,17468.860231
252.782067,-1532.190996,-3775.050304,12287.418637
252.782375,3294.210641,2294.638420,5477.523971
252.782683,6894.859482,4663.297435,2812.782580
252.782991,8886.707777,7402.059420,740.205942
252.783298,10725.336972,9918.759623,-962.267725
252.783606,10418.898773,9992.780217,-148.041188
252.783914,7660.954980,8364.327145,1998.556043
252.784222,3294.210641,4219.173869,5551.544565
252.784530,-1455.581446,-1258.350101,12139.377449
252.784838,-5056.230287,-4441.235652,16062.468941
252.785146,-9422.974625,-7994.224174,18949.272115
252.785454,-10648.727422,-10214.842000,20947.828159
252.785762,-9652.803275,-8512.368333,18653.189738
252.786070,-5515.887586,-5625.565159,15322.262999
252.786378,76.609550,-444.123565,10140.821405
252.786686,4596.572988,3701.029710,4737.318029
252.786994,7354.516781,4959.379811,2812.782580
252.787302,9346.365076,8512.368333,1406.391290
252.787610,10189.070123,9696.697840,148.041188
252.787918,8733.488677,8734.430116,1480.411884
252.788226,5056.230287,6143.709319,4737.318029
252.788534,536.266849,666.185348,10658.965565
252.788842,-4366.744339,-4145.153275,15322.262999
252.789150,-7967.393179,-7328.038826,18357.107362
252.789458,-10035.851024,-10955.047942,20281.642811
252.789766,-9346.365076,-10881.027347,20355.663405
252.790074,-7660.954980,-8216.285956,17246.798449
252.790382,-1991.848295,-4145.153275,13323.706956
252.790690,3524.039291,1924.535449,6069.688724
252.790998,6741.640382,4885.359217,2664.741391
252.791306,8733.488677,7105.977043,1110.308913
252.791614,10801.946522,9474.636058,-1184.329507
252.791921,10878.556072,9770.718434,444.123565
252.792229,8350.440928,8586.388927,2072.576638
252.792537,3677.258390,4885.359217,5477.523971
252.792845,-689.485948,-814.226536,11695.253884
252.793153,-4903.011187,-4441.235652,15470.304188
252.793461,-8733.488677,-7624.121203,18801.230927
252.793769,-9806.022374,-10140.821405,21169.889941
252.794077,-9269.755526,-9252.574275,18727.210333
252.794385,-5132.839837,-6365.771101,15692.365970
252.794693,229.828649,-1110.308913,10140.821405
252.795001,4519.963438,3923.091493,4885.359217
252.795309,7507.735880,5773.606348,3108.864956
