#time,accel_x,accel_y,accel_z
75.936976,0.000000,-962.267725,9844.739029
75.937285,306.438199,-1258.350101,10066.800811
75.937593,766.095498,-1332.370696,9992.780217
75.937901,689.485948,-1184.329507,9696.697840
75.938209,1072.533697,-888.247130,9696.697840
75.938517,1608.800546,-592.164754,9326.594869
75.938825,2221.676944,-518.144159,9400.615463
75.939133,2374.896044,-296.082377,9400.615463
75.939441,2451.505594,-444.123565,9104.533087
75.939749,2987.772442,-148.041188,8956.491898
75.940057,2681.334243,-222.061783,9104.533087
75.940365,3140.991542,-74.020594,9400.615463
75.940673,2757.943793,-74.020594,9400.615463
75.940981,2604.724693,-74.020594,9252.574275
75.941289,2451.505594,222.061783,9326.594869
75.941597,2451.505594,296.082377,9326.594869
75.941905,2834.553343,740.205942,9326.594869
75.942213,2681.334243,814.226536,9326.594869
75.942521,2987.772442,1332.370696,9326.594869
75.942829,2911.162892,740.205942,9474.636058
75.943137,2834.553343,962.267725,9474.636058
75.943445,2221.676944,814.226536,9844.739029
75.943753,1915.238745,592.164754,10140.821405
75.944061,1991.848295,740.205942,10288.862594
75.944369,1225.752797,888.247130,9844.739029
75.944677,1608.800546,666.185348,9918.759623
75.944985,2221.676944,888.247130,9696.697840
75.945293,1608.800546,1406.391290,9474.636058
75.945601,2221.676944,1332.370696,9548.656652
75.945909,2374.896044,1480.411884,9400.615463
75.946217,1915.238745,1332.370696,9400.615463
75.946525,1915.238745,1184.329507,9400.615463
75.946833,1915.238745,592.164754,9474.636058
75.947141,1685.410096,370.102971,9622.677246
75.947449,1225.752797,-0.000000,9622.677246
75.947757,842.705048,222.061783,9918.759623
75.948065,459.657299,296.082377,10066.800811
75.948373,153.219100,-148.041188,10066.800811
75.948681,229.828649,-74.020594,9992.780217
75.948989,229.828649,-74.020594,9844.739029
75.949297,689.485948,-370.102971,9992.780217
75.949605,459.657299,-444.123565,10288.862594
75.949913,306.438199,-1036.288319,10214.842000
75.950221,-383.047749,-1258.350101,10436.903782
75.950529,-536.266849,-1110.308913,10362.883188
75.950837,-153.219100,-1036.288319,10214.842000
75.951145,0.000000,-740.205942,10140.821405
75.951453,383.047749,-592.164754,9622.677246
75.951761,1302.362347,-0.000000,9326.594869
75.952069,1149.143247,-0.000000,8660.409521
75.952377,2221.676944,444.123565,8290.306550
75.952685,1991.848295,-0.000000,8734.430116
75.952993,1378.971896,370.102971,8586.388927
75.953301,1225.752797,148.041188,8512.368333
75.953609,1072.533697,-0.000000,8882.471304
75.953917,536.266849,-0.000000,9474.636058
75.954225,612.876398,-222.061783,9770.718434
75.954534,919.314598,148.041188,9844.739029
75.954842,842.705048,-296.082377,9918.759623
75.955150,995.924147,-518.144159,9992.780217
75.955458,383.047749,-74.020594,10288.862594
75.955766,536.266849,-370.102971,9992.780217
75.956074,689.485948,-74.020594,9844.739029
75.956382,612.876398,-0.000000,9992.780217
75.956690,1225.752797,-444.123565,9918.759623
75.956998,612.876398,-148.041188,9918.759623
75.957306,995.924147,370.102971,9622.677246
75.957614,689.485948,370.102971,9622.677246
75.957922,766.095498,222.061783,9622.677246
75.958230,1149.143247,222.061783,9474.636058
75.958538,919.314598,592.164754,9400.615463
75.958846,1378.971896,740.205942,9030.512492
75.959154,1225.752797,370.102971,9622.677246
75.959462,1455.581446,370.102971,9178.553681
75.959770,1532.190996,148.041188,9178.553681
75.960078,1225.752797,666.185348,9474.636058
75.960386,995.924147,740.205942,9326.594869
75.960694,919.314598,740.205942,9326.594869
75.961002,995.924147,592.164754,9178.553681
75.961310,1072.533697,518.144159,9474.636058
75.961618,919.314598,518.144159,9696.697840
75.961926,1072.533697,370.102971,9992.780217
75.962234,536.266849,222.061783,9548.656652
75.962542,766.095498,296.082377,10140.821405
75.962850,536.266849,-0.000000,10288.862594
75.963158,383.047749,-148.041188,10140.821405
75.963466,383.047749,222.061783,10214.842000
75.963774,536.266849,370.102971,10066.800811
75.964082,612.876398,-0.000000,9992.780217
75.964390,1455.581446,-0.000000,9918.759623
75.964698,1225.752797,370.102971,9770.718434
75.965006,1302.362347,296.082377,9326.594869
75.965314,1225.752797,592.164754,9326.594869
75.965622,1378.971896,740.205942,9474.636058
75.965930,1225.752797,592.164754,9252.574275
75.966238,1225.752797,592.164754,9326.594869
75.966546,995.924147,444.123565,9252.574275
75.966854,1072.533697,444.123565,9548.656652
75.967162,612.876398,444.123565,9770.718434
75.967470,536.266849,222.061783,9844.739029
75.967778,306.438199,-0.000000,9770.718434
75.968086,0.000000,-0.000000,9696.697840
75.968394,0.000000,-222.061783,9992.780217
75.968702,306.438199,-0.000000,9622.677246
75.969010,0.000000,-0.000000,9548.656652
75.969318,229.828649,-74.020594,9918.759623
75.969626,0.000000,-0.000000,9622.677246
75.969934,-383.047749,-148.041188,9622.677246
75.970242,229.828649,-0.000000,9770.718434
75.970550,153.219100,-222.061783,9474.636058
75.970858,0.000000,-74.020594,9696.697840
75.971166,0.000000,-0.000000,9696.697840
75.971475,153.219100,-518.144159,9622.677246
75.971783,153.219100,-0.000000,9992.780217
75.972091,153.219100,-0.000000,9400.615463
75.972399,766.095498,444.123565,9474.636058
75.972707,612.876398,296.082377,9104.533087
75.973015,459.657299,296.082377,9104.533087
75.973323,459.657299,370.102971,9030.512492
75.973631,459.657299,370.102971,9252.574275
75.973939,306.438199,-74.020594,9178.553681
75.974247,383.047749,296.082377,9696.697840
75.974555,306.438199,-0.000000,9696.697840
75.974863,76.609550,-296.082377,9622.677246
75.975171,-153.219100,-222.061783,9696.697840
75.975479,76.609550,-222.061783,9992.780217
75.975787,76.609550,-222.061783,10140.821405
75.976095,76.609550,-74.020594,9844.739029
75.976403,153.219100,-222.061783,9696.697840
75.976712,612.876398,222.061783,10140.821405
75.977020,842.705048,-0.000000,9696.697840
75.977328,766.095498,148.041188,9770.718434
75.977636,766.095498,370.102971,9622.677246
75.977944,689.485948,370.102971,9400.615463
75.978252,766.095498,592.164754,9400.615463
75.978560,842.705048,592.164754,9474.636058
75.978868,919.314598,-222.061783,9400.615463
75.979176,1072.533697,222.061783,9622.677246
75.979484,612.876398,370.102971,9548.656652
75.979792,1072.533697,-0.000000,9548.656652
75.980100,1072.533697,222.061783,9548.656652
75.980408,1072.533697,222.061783,9548.656652
75.980716,1302.362347,518.144159,9548.656652
75.981024,1225.752797,222.061783,9548.656652
75.981332,1685.410096,370.102971,9474.636058
75.981641,995.924147,296.082377,9474.636058
75.981949,919.314598,370.102971,9696.697840
75.982257,1455.581446,370.102971,9992.780217
75.982565,842.705048,222.061783,9622.677246
75.982873,995.924147,296.082377,9770.718434
75.983181,995.924147,148.041188,9622.677246
75.983489,842.705048,296.082377,9770.718434
75.983797,995.924147,148.041188,10436.903782
75.984105,1302.362347,370.102971,10066.800811
75.984413,1072.533697,370.102971,9548.656652
75.984721,1302.362347,444.123565,9844.739029
75.985029,1225.752797,592.164754,9770.718434
75.985337,1149.143247,592.164754,9770.718434
75.985645,1302.362347,518.144159,9474.636058
75.985953,919.314598,592.164754,9548.656652
75.986261,1072.533697,370.102971,9992.780217
75.986569,229.828649,370.102971,9474.636058
75.986878,842.705048,592.164754,9770.718434
75.987186,919.314598,296.082377,9696.697840
75.987494,766.095498,444.123565,9770.718434
75.987802,612.876398,370.102971,9548.656652
75.988110,459.657299,296.082377,9696.697840
75.988418,229.828649,-0.000000,9770.718434
75.988726,689.485948,296.082377,9548.656652
75.989034,229.828649,592.164754,9844.739029
75.989342,153.219100,-0.000000,9548.656652
75.989650,153.219100,-148.041188,9548.656652
75.989958,153.219100,74.020594,9770.718434
75.990266,306.438199,-0.000000,9474.636058
75.990574,153.219100,148.041188,9474.636058
75.990882,0.000000,74.020594,9548.656652
75.991190,0.000000,-0.000000,9474.636058
75.991498,536.266849,-0.000000,9326.594869
75.991806,76.609550,444.123565,9622.677246
75.992115,153.219100,-148.041188,9622.677246
75.992423,0.000000,-148.041188,9474.636058
75.992731,0.000000,-0.000000,9622.677246
75.993039,0.000000,-0.000000,9474.636058
75.993347,0.000000,-0.000000,9400.615463
75.993655,459.657299,-222.061783,9326.594869
75.993963,612.876398,148.041188,9326.594869
75.994271,459.657299,-0.000000,9400.615463
75.994579,0.000000,-148.041188,9400.615463
75.994887,383.047749,-0.000000,9548.656652
75.995195,76.609550,-74.020594,9770.718434
75.995503,0.000000,-74.020594,9622.677246
75.995811,459.657299,-0.000000,9548.656652
75.996119,689.485948,-370.102971,9844.739029
75.996427,0.000000,-74.020594,9844.739029
75.996735,153.219100,-0.000000,9474.636058
75.997043,383.047749,-0.000000,9400.615463
75.997352,459.657299,148.041188,9548.656652
75.997660,459.657299,296.082377,9548.656652
75.997968,536.266849,296.082377,9622.677246
75.998276,536.266849,148.041188,9474.636058
75.998584,842.705048,444.123565,9400.615463
75.998892,919.314598,444.123565,9770.718434
75.999200,919.314598,370.102971,9770.718434
75.999508,612.876398,296.082377,9548.656652
75.999816,842.705048,370.102971,9474.636058
76.000124,766.095498,296.082377,9548.656652
76.000432,612.876398,296.082377,9548.656652
76.000740,842.705048,148.041188,9696.697840
76.001048,766.095498,-0.000000,9548.656652
76.001356,766.095498,-0.000000,9918.759623
76.001664,536.266849,148.041188,9770.718434
76.001972,995.924147,74.020594,9770.718434
76.002281,919.314598,222.061783,9474.636058
76.002589,1149.143247,222.061783,9844.739029
76.002897,995.924147,148.041188,9696.697840
76.003205,1455.581446,222.061783,9474.636058
76.003513,1225.752797,370.102971,9696.697840
76.003821,919.314598,-0.000000,9696.697840
76.004129,1149.143247,-74.020594,9696.697840
76.004437,919.314598,148.041188,9548.656652
76.004745,995.924147,370.102971,9548.656652
76.005053,1149.143247,370.102971,9622.677246
76.005361,1072.533697,296.082377,9474.636058
76.005669,1455.581446,814.226536,9548.656652
76.005977,1608.800546,444.123565,9548.656652
76.006285,2068.457845,-0.000000,9474.636058
76.006593,1378.971896,518.144159,9622.677246
76.006901,612.876398,370.102971,9622.677246
76.007209,919.314598,370.102971,9474.636058
76.007518,1149.143247,370.102971,9696.697840
76.007826,842.705048,-0.000000,9696.697840
76.008134,919.314598,370.102971,9992.780217
76.008442,995.924147,-0.000000,9622.677246
76.008750,1072.533697,-148.041188,9844.739029
76.009058,1149.143247,-0.000000,9474.636058
76.009366,842.705048,148.041188,9622.677246
76.009674,842.705048,296.082377,9326.594869
76.009982,766.095498,296.082377,9622.677246
76.010290,689.485948,-0.000000,9400.615463
76.010598,689.485948,-0.000000,9474.636058
76.010906,919.314598,-0.000000,9844.739029
76.011214,229.828649,296.082377,9844.739029
76.011522,306.438199,-296.082377,9696.697840
76.011830,459.657299,-0.000000,9474.636058
76.012138,459.657299,-0.000000,9474.636058
76.012446,459.657299,-0.000000,9548.656652
76.012755,459.657299,-0.000000,9474.636058
76.013063,383.047749,296.082377,9770.718434
76.013371,766.095498,-0.000000,9992.780217
76.013679,842.705048,-0.000000,9770.718434
76.013987,612.876398,222.061783,9474.636058
76.014295,459.657299,296.082377,9474.636058
76.014603,919.314598,296.082377,9622.677246
76.014911,459.657299,296.082377,9474.636058
76.015219,383.047749,296.082377,9474.636058
76.015527,459.657299,-0.000000,9770.718434
76.015835,383.047749,-0.000000,9844.739029
76.016143,689.485948,-296.082377,9548.656652
76.016451,-459.657299,-296.082377,9622.677246
76.016759,459.657299,-0.000000,9622.677246
76.017067,229.828649,296.082377,9622.677246
76.017375,536.266849,222.061783,9474.636058
76.017683,306.438199,296.082377,9400.615463
76.017992,306.438199,222.061783,9696.697840
76.018300,995.924147,222.061783,9770.718434
76.018608,383.047749,222.061783,9474.636058
76.018916,766.095498,-0.000000,9844.739029
76.019224,536.266849,370.102971,9696.697840
76.019532,459.657299,148.041188,9696.697840
76.019840,383.047749,148.041188,9918.759623
76.020148,229.828649,222.061783,9622.677246
76.020456,229.828649,222.061783,9770.718434
76.020764,766.095498,296.082377,9696.697840
76.021072,229.828649,296.082377,9474.636058
76.021380,536.266849,148.041188,9326.594869
76.021688,383.047749,296.082377,9548.656652
76.021996,689.485948,-0.000000,9770.718434
76.022304,383.047749,222.061783,9770.718434
76.022612,536.266849,148.041188,9622.677246
76.022921,1072.533697,-0.000000,9474.636058
76.023229,536.266849,222.061783,9400.615463
76.023537,766.095498,-0.000000,9918.759623
76.023845,919.314598,-0.000000,9622.677246
76.024153,995.924147,296.082377,9474.636058
76.024461,995.924147,444.123565,9474.636058
76.024769,995.924147,666.185348,9474.636058
76.025077,919.314598,444.123565,9474.636058
76.025385,919.314598,296.082377,9474.636058
76.025693,842.705048,74.020594,9548.656652
76.026001,612.876398,296.082377,9548.656652
76.026309,536.266849,-0.000000,9844.739029
76.026617,459.657299,-0.000000,9844.739029
76.026925,612.876398,222.061783,9696.697840
76.027233,689.485948,-0.000000,9548.656652
76.027541,1225.752797,296.082377,9548.656652
76.027849,536.266849,-0.000000,9548.656652
76.028158,1072.533697,148.041188,9844.739029
76.028466,536.266849,148.041188,9548.656652
76.028774,689.485948,-148.041188,9252.574275
76.029082,842.705048,-0.000000,9548.656652
76.029390,689.485948,-0.000000,9474.636058
76.029698,612.876398,296.082377,9548.656652
76.030006,1149.143247,-0.000000,9400.615463
76.030314,689.485948,296.082377,9326.594869
76.030622,1149.143247,222.061783,9252.574275
76.030930,1225.752797,-0.000000,9326.594869
76.031238,919.314598,74.020594,9326.594869
76.031546,766.095498,74.020594,9400.615463
76.031854,459.657299,-74.020594,9474.636058
76.032162,612.876398,-0.000000,9548.656652
76.032470,689.485948,222.061783,9548.656652
76.032778,842.705048,-74.020594,9622.677246
76.033086,612.876398,-74.020594,9474.636058
76.033395,1072.533697,-0.000000,9622.677246
76.033703,536.266849,296.082377,9770.718434
76.034011,459.657299,222.061783,9696.697840
76.034319,612.876398,-0.000000,9548.656652
76.034627,536.266849,148.041188,9696.697840
76.034935,536.266849,148.041188,9474.636058
76.035243,689.485948,222.061783,9918.759623
76.035551,612.876398,-0.000000,9696.697840
76.035859,229.828649,-0.000000,9696.697840
76.036167,459.657299,-0.000000,9844.739029
76.036475,612.876398,-0.000000,9622.677246
76.036783,536.266849,-0.000000,9622.677246
76.037091,383.047749,222.061783,9770.718434
76.037399,536.266849,222.061783,9844.739029
76.037707,689.485948,-0.000000,9918.759623
76.038015,1149.143247,444.123565,9844.739029
76.038323,459.657299,148.041188,9400.615463
76.038632,612.876398,222.061783,9326.594869
76.038940,919.314598,518.144159,9474.636058
76.039248,689.485948,444.123565,9400.615463
76.039556,536.266849,370.102971,9400.615463
76.039864,919.314598,296.082377,9770.718434
76.040172,536.266849,-0.000000,9400.615463
76.040480,306.438199,-0.000000,9474.636058
76.040788,766.095498,-0.000000,9992.780217
76.041096,612.876398,148.041188,9770.718434
76.041404,459.657299,370.102971,9696.697840
76.041712,842.705048,296.082377,9770.718434
76.042020,536.266849,296.082377,9696.697840
76.042328,536.266849,-0.000000,9474.636058
76.042636,229.828649,444.123565,9696.697840
76.042944,842.705048,370.102971,10214.842000
76.043252,766.095498,-0.000000,9770.718434
76.043561,459.657299,-0.000000,9844.739029
76.043869,383.047749,-0.000000,9696.697840
76.044177,459.657299,-0.000000,9622.677246
76.044485,536.266849,222.061783,9770.718434
76.044793,919.314598,-222.061783,9474.636058
76.045101,1072.533697,-0.000000,9474.636058
76.045409,919.314598,148.041188,9548.656652
76.045717,766.095498,148.041188,9622.677246
76.046025,536.266849,296.082377,9252.574275
76.046333,536.266849,296.082377,9474.636058
76.046641,842.705048,296.082377,9474.636058
76.046949,766.095498,-0.000000,9548.656652
76.047257,459.657299,444.123565,9252.574275
76.047565,842.705048,296.082377,9252.574275
76.047873,842.705048,222.061783,9548.656652
76.048181,612.876398,-0.000000,9474.636058
76.048489,306.438199,-0.000000,9770.718434
76.048798,306.438199,148.041188,9622.677246
76.049106,383.047749,296.082377,9474.636058
76.049414,536.266849,296.082377,9622.677246
76.049722,612.876398,296.082377,9770.718434
76.050030,383.047749,518.144159,9844.739029
76.050338,536.266849,296.082377,9918.759623
76.050646,612.876398,-0.000000,9622.677246
76.050954,306.438199,370.102971,9770.718434
76.051262,229.828649,370.102971,9622.677246
76.051570,766.095498,222.061783,9400.615463
76.051878,536.266849,222.061783,9474.636058
76.052186,459.657299,370.102971,9548.656652
76.052494,612.876398,148.041188,10214.842000
76.052802,383.047749,-296.082377,9844.739029
76.053110,229.828649,-0.000000,9770.718434
76.053418,76.609550,-0.000000,9548.656652
76.053726,76.609550,222.061783,9622.677246
76.054035,612.876398,296.082377,9474.636058
76.054343,612.876398,444.123565,9474.636058
76.054651,459.657299,518.144159,9474.636058
76.054959,383.047749,148.041188,9622.677246
76.055267,919.314598,-0.000000,9622.677246
76.055575,612.876398,296.082377,9548.656652
76.055883,153.219100,148.041188,9696.697840
76.056191,459.657299,-0.000000,9474.636058
76.056499,153.219100,148.041188,9622.677246
76.056807,459.657299,-0.000000,9696.697840
76.057115,689.485948,222.061783,9622.677246
76.057423,612.876398,148.041188,9696.697840
76.057731,153.219100,148.041188,9622.677246
76.058039,459.657299,-0.000000,9770.718434
76.058347,306.438199,-0.000000,9548.656652
76.058655,383.047749,296.082377,9548.656652
76.058964,383.047749,-0.000000,9770.718434
76.059272,459.657299,-0.000000,9696.697840
76.059580,1225.752797,-0.000000,9696.697840
76.059888,995.924147,148.041188,9548.656652
76.060196,1149.143247,444.123565,9548.656652
76.060504,1225.752797,-0.000000,9622.677246
76.060812,842.705048,370.102971,9474.636058
76.061120,919.314598,296.082377,9474.636058
76.061428,1072.533697,444.123565,9622.677246
76.061736,919.314598,370.102971,9474.636058
76.062044,689.485948,-0.000000,9548.656652
76.062352,919.314598,-0.000000,9474.636058
76.062660,536.266849,-148.041188,9400.615463
76.062968,766.095498,-148.041188,9770.718434
76.063276,689.485948,-0.000000,9918.759623
76.063584,612.876398,148.041188,9696.697840
76.063892,919.314598,148.041188,9696.697840
76.064201,995.924147,148.041188,9548.656652
76.064509,1302.362347,-0.000000,9622.677246
76.064817,995.924147,222.061783,9622.677246
76.065125,1302.362347,-0.000000,9252.574275
76.065433,842.705048,-0.000000,9474.636058
76.065741,612.876398,222.061783,9548.656652
76.066049,919.314598,370.102971,9622.677246
76.066357,612.876398,370.102971,9622.677246
76.066665,1072.533697,296.082377,9696.697840
76.066973,919.314598,-0.000000,9474.636058
76.067281,919.314598,296.082377,9548.656652
76.067589,1225.752797,-0.000000,9696.697840
76.067897,842.705048,148.041188,9474.636058
76.068205,842.705048,370.102971,9548.656652
76.068513,766.095498,296.082377,9474.636058
76.068821,842.705048,518.144159,9474.636058
76.069129,842.705048,296.082377,9474.636058
76.069438,842.705048,-74.020594,9696.697840
76.069746,612.876398,-0.000000,9696.697840
76.070054,612.876398,296.082377,9696.697840
76.070362,0.000000,296.082377,10066.800811
76.070670,459.657299,-0.000000,9696.697840
76.070978,459.657299,-0.000000,9696.697840
76.071286,766.095498,-0.000000,9770.718434
76.071594,383.047749,-0.000000,9548.656652
76.071902,919.314598,-222.061783,9696.697840
76.072210,1532.190996,222.061783,9696.697840
76.072518,1225.752797,296.082377,9474.636058
76.072826,612.876398,444.123565,9252.574275
76.073134,689.485948,444.123565,9474.636058
76.073442,459.657299,370.102971,9474.636058
76.073750,612.876398,444.123565,9548.656652
76.074058,536.266849,222.061783,9622.677246
76.074366,842.705048,222.061783,9844.739029
76.074673,689.485948,148.041188,9918.759623
76.074981,689.485948,-296.082377,9918.759623
76.075289,459.657299,222.061783,9918.759623
76.075597,383.047749,-0.000000,9844.739029
76.075905,536.266849,74.020594,9548.656652
76.076213,536.266849,-0.000000,9474.636058
76.076521,689.485948,296.082377,9548.656652
76.076829,919.314598,666.185348,9400.615463
76.077136,919.314598,-0.000000,9548.656652
76.077444,229.828649,-444.123565,9548.656652
76.077752,306.438199,-0.000000,9696.697840
76.078060,383.047749,296.082377,9770.718434
76.078368,229.828649,444.123565,9770.718434
76.078676,459.657299,-0.000000,9696.697840
76.078984,459.657299,-0.000000,9770.718434
76.079292,459.657299,-0.000000,9770.718434
76.079599,766.095498,-0.000000,9622.677246
76.079907,689.485948,-296.082377,9696.697840
76.080215,536.266849,-0.000000,9918.759623
76.080523,1072.533697,148.041188,9696.697840
76.080831,842.705048,296.082377,9252.574275
76.081139,842.705048,666.185348,9252.574275
76.081447,919.314598,296.082377,9400.615463
76.081755,995.924147,-0.000000,9696.697840
76.082062,919.314598,222.061783,9696.697840
76.082370,766.095498,-74.020594,9548.656652
76.082678,842.705048,-74.020594,9548.656652
76.082986,612.876398,-0.000000,9474.636058
76.083294,612.876398,370.102971,9474.636058
76.083602,919.314598,222.061783,9400.615463
76.083910,536.266849,370.102971,9474.636058
76.084218,536.266849,-0.000000,9474.636058
76.084525,766.095498,-0.000000,9622.677246
76.084833,995.924147,370.102971,9696.697840
76.085141,612.876398,-0.000000,9918.759623
76.085449,536.266849,-0.000000,9548.656652
76.085757,612.876398,148.041188,9696.697840
76.086065,383.047749,-0.000000,9696.697840
76.086373,612.876398,148.041188,9696.697840
76.086681,689.485948,-0.000000,9622.677246
76.086988,536.266849,-0.000000,9770.718434
76.087296,689.485948,-0.000000,9622.677246
76.087604,1302.362347,-0.000000,9474.636058
76.087912,612.876398,444.123565,9400.615463
76.088220,1072.533697,592.164754,9326.594869
76.088528,1072.533697,370.102971,9400.615463
76.088836,919.314598,370.102971,9474.636058
76.089144,766.095498,222.061783,9474.636058
76.089452,1455.581446,-0.000000,9400.615463
76.089759,459.657299,296.082377,9548.656652
76.090067,306.438199,-0.000000,10140.821405
76.090375,383.047749,-0.000000,9622.677246
76.090683,536.266849,-0.000000,9770.718434
76.090991,459.657299,-0.000000,9622.677246
76.091299,536.266849,148.041188,9770.718434
76.091607,766.095498,296.082377,9770.718434
76.091915,689.485948,296.082377,9622.677246
76.092222,1149.143247,-74.020594,9252.574275
76.092530,689.485948,444.123565,9252.574275
76.092838,842.705048,370.102971,9548.656652
76.093146,689.485948,444.123565,9622.677246
76.093454,536.266849,592.164754,9548.656652
76.093762,689.485948,370.102971,9474.636058
76.094070,766.095498,296.082377,9770.718434
76.094378,612.876398,-0.000000,9622.677246
76.094685,1072.533697,-0.000000,9474.636058
76.094993,766.095498,148.041188,9696.697840
76.095301,689.485948,-0.000000,9474.636058
76.095609,306.438199,-0.000000,9622.677246
76.095917,459.657299,-0.000000,9548.656652
76.096225,306.438199,-0.000000,9696.697840
76.096533,612.876398,-0.000000,9696.697840
76.096841,229.828649,296.082377,9770.718434
76.097148,459.657299,-0.000000,9992.780217
76.097456,689.485948,-0.000000,9918.759623
76.097764,612.876398,148.041188,9696.697840
76.098072,536.266849,296.082377,9548.656652
76.098380,766.095498,296.082377,9548.656652
76.098688,1302.362347,-0.000000,9474.636058
76.098996,766.095498,296.082377,9696.697840
76.099304,842.705048,148.041188,9474.636058
76.099611,0.000000,592.164754,9844.739029
76.099919,612.876398,-0.000000,9548.656652
76.100227,766.095498,296.082377,9474.636058
76.100535,612.876398,296.082377,9400.615463
76.100843,459.657299,148.041188,9548.656652
76.101151,689.485948,-0.000000,9400.615463
76.101459,383.047749,-0.000000,9622.677246
76.101767,383.047749,370.102971,9622.677246
76.102074,306.438199,-148.041188,9992.780217
76.102382,76.609550,370.102971,9844.739029
76.102690,612.876398,370.102971,9770.718434
76.102998,919.314598,222.061783,9696.697840
76.103306,536.266849,518.144159,9548.656652
76.103614,383.047749,-0.000000,9548.656652
76.103922,459.657299,-148.041188,9844.739029
76.104230,919.314598,-74.020594,9918.759623
76.104537,689.485948,-222.061783,9696.697840
76.104845,536.266849,444.123565,9770.718434
76.105153,689.485948,222.061783,9400.615463
76.105461,842.705048,148.041188,9474.636058
76.105769,689.485948,222.061783,9252.574275
76.106077,995.924147,74.020594,9474.636058
76.106385,689.485948,-0.000000,9622.677246
76.106693,842.705048,-0.000000,9548.656652
76.107000,995.924147,444.123565,9400.615463
76.107308,919.314598,518.144159,9252.574275
76.107616,1072.533697,592.164754,9178.553681
76.107924,842.705048,370.102971,9400.615463
76.108232,766.095498,222.061783,9474.636058
76.108540,919.314598,148.041188,9474.636058
76.108848,383.047749,-0.000000,9992.780217
76.109156,536.266849,-0.000000,9474.636058
76.109463,766.095498,-148.041188,9622.677246
76.109771,306.438199,-0.000000,9844.739029
76.110079,306.438199,222.061783,9622.677246
76.110387,536.266849,148.041188,9844.739029
76.110695,459.657299,148.041188,10066.800811
76.111003,689.485948,296.082377,9844.739029
76.111311,919.314598,-0.000000,9770.718434
76.111619,919.314598,370.102971,9474.636058
76.111926,689.485948,222.061783,9252.574275
76.112234,919.314598,148.041188,9474.636058
76.112542,536.266849,222.061783,9474.636058
76.112850,229.828649,-0.000000,9622.677246
76.113158,459.657299,222.061783,9622.677246
76.113466,842.705048,-0.000000,9770.718434
76.113774,459.657299,296.082377,9696.697840
76.114082,459.657299,-0.000000,9548.656652
76.114389,0.000000,370.102971,9696.697840
76.114697,766.095498,222.061783,9474.636058
76.115005,383.047749,148.041188,9770.718434
76.115313,536.266849,222.061783,9622.677246
76.115621,459.657299,-0.000000,9696.697840
76.115929,0.000000,-222.061783,9548.656652
76.116237,383.047749,-0.000000,9770.718434
76.116545,612.876398,222.061783,9992.780217
76.116852,459.657299,-74.020594,9696.697840
76.117160,306.438199,222.061783,9770.718434
76.117468,612.876398,-0.000000,9696.697840
76.117776,459.657299,296.082377,9622.677246
76.118084,536.266849,222.061783,9474.636058
76.118392,766.095498,296.082377,9326.594869
76.118700,1072.533697,296.082377,9474.636058
76.119008,383.047749,-148.041188,9474.636058
76.119315,459.657299,-148.041188,9696.697840
76.119623,459.657299,-0.000000,9474.636058
76.119931,536.266849,-0.000000,9474.636058
76.120239,612.876398,222.061783,9770.718434
76.120547,229.828649,-74.020594,9548.656652
76.120855,689.485948,-0.000000,9770.718434
76.121163,536.266849,148.041188,9696.697840
76.121471,1455.581446,-0.000000,9622.677246
76.121779,612.876398,-0.000000,9844.739029
76.122086,766.095498,370.102971,9548.656652
76.122394,842.705048,296.082377,9548.656652
76.122702,536.266849,444.123565,9474.636058
76.123010,766.095498,444.123565,9696.697840
76.123318,919.314598,740.205942,9770.718434
76.123626,842.705048,444.123565,9622.677246
76.123934,383.047749,-0.000000,9474.636058
76.124242,995.924147,-0.000000,9548.656652
76.124549,459.657299,222.061783,9770.718434
76.124857,689.485948,-0.000000,9474.636058
76.125165,612.876398,-0.000000,9696.697840
76.125473,536.266849,296.082377,9844.739029
76.125781,536.266849,370.102971,9992.780217
76.126089,1072.533697,-0.000000,9474.636058
76.126397,766.095498,370.102971,9770.718434
76.126705,995.924147,148.041188,9696.697840
76.127012,536.266849,370.102971,9400.615463
76.127320,689.485948,592.164754,9474.636058
76.127628,766.095498,444.123565,9474.636058
76.127936,459.657299,444.123565,9622.677246
76.128244,766.095498,222.061783,9918.759623
76.128552,383.047749,-148.041188,10066.800811
76.128860,153.219100,-296.082377,9918.759623
76.129168,842.705048,-0.000000,9918.759623
76.129475,383.047749,222.061783,9696.697840
76.129783,689.485948,-0.000000,9696.697840
76.130091,612.876398,-0.000000,9548.656652
76.130399,536.266849,370.102971,9696.697840
76.130707,919.314598,222.061783,9474.636058
76.131015,1532.190996,-0.000000,9918.759623
76.131323,689.485948,444.123565,9622.677246
76.131631,612.876398,148.041188,9548.656652
76.131938,842.705048,444.123565,9548.656652
76.132246,689.485948,296.082377,9474.636058
76.132554,689.485948,148.041188,9548.656652
76.132862,842.705048,148.041188,9474.636058
76.133170,766.095498,-0.000000,9696.697840
76.133478,536.266849,-0.000000,9918.759623
76.133786,842.705048,296.082377,9844.739029
76.134094,766.095498,-74.020594,9918.759623
76.134401,536.266849,296.082377,9696.697840
76.134709,612.876398,222.061783,9548.656652
76.135017,766.095498,222.061783,9474.636058
76.135325,766.095498,444.123565,9474.636058
76.135633,689.485948,592.164754,9696.697840
76.135941,919.314598,370.102971,9696.697840
76.136249,995.924147,222.061783,9474.636058
76.136557,536.266849,-0.000000,9992.780217
76.136864,536.266849,-0.000000,9696.697840
76.137172,536.266849,-0.000000,9696.697840
76.137480,459.657299,-74.020594,9696.697840
76.137788,766.095498,-0.000000,9696.697840
76.138096,995.924147,-0.000000,9770.718434
76.138404,919.314598,-74.020594,9622.677246
76.138712,536.266849,444.123565,9770.718434
76.139020,689.485948,222.061783,9326.594869
76.139327,919.314598,444.123565,9252.574275
76.139635,1072.533697,296.082377,9400.615463
76.139943,995.924147,296.082377,9400.615463
76.140251,766.095498,222.061783,9474.636058
76.140559,612.876398,444.123565,9400.615463
76.140867,459.657299,296.082377,9844.739029
76.141175,766.095498,296.082377,9696.697840
76.141483,459.657299,-0.000000,9696.697840
76.141790,766.095498,-0.000000,9696.697840
76.142098,459.657299,222.061783,9844.739029
76.142406,383.047749,296.082377,9696.697840
76.142714,689.485948,-0.000000,9696.697840
76.143022,1149.143247,370.102971,9622.677246
76.143330,1072.533697,-0.000000,10066.800811
76.143638,766.095498,-0.000000,9400.615463
76.143946,536.266849,222.061783,9622.677246
76.144253,612.876398,222.061783,9622.677246
76.144561,459.657299,148.041188,9696.697840
76.144869,842.705048,296.082377,9770.718434
76.145177,766.095498,370.102971,9918.759623
76.145485,1072.533697,-0.000000,9400.615463
76.145793,919.314598,222.061783,9622.677246
76.146101,1302.362347,148.041188,9548.656652
76.146409,919.314598,148.041188,9696.697840
76.146716,842.705048,296.082377,9474.636058
76.147024,919.314598,-0.000000,9622.677246
76.147332,766.095498,222.061783,9696.697840
76.147640,306.438199,296.082377,9400.615463
76.147948,612.876398,-0.000000,9400.615463
76.148256,766.095498,-0.000000,9548.656652
76.148564,766.095498,-74.020594,9548.656652
76.148872,766.095498,-74.020594,9696.697840
76.149179,689.485948,222.061783,9474.636058
76.149487,842.705048,222.061783,9770.718434
76.149795,536.266849,222.061783,9548.656652
76.150103,536.266849,-74.020594,9474.636058
76.150411,919.314598,296.082377,9474.636058
76.150719,383.047749,-0.000000,9474.636058
76.151027,919.314598,370.102971,9400.615463
76.151335,842.705048,74.020594,9548.656652
76.151643,536.266849,444.123565,9622.677246
76.151950,459.657299,148.041188,9474.636058
76.152258,459.657299,222.061783,9548.656652
76.152566,689.485948,-222.061783,9622.677246
76.152874,383.047749,296.082377,9844.739029
76.153182,-229.828649,-0.000000,9844.739029
76.153490,383.047749,-0.000000,9474.636058
76.153798,766.095498,296.082377,9696.697840
76.154106,459.657299,296.082377,9696.697840
76.154413,766.095498,222.061783,9474.636058
76.154721,536.266849,296.082377,9474.636058
76.155029,766.095498,-0.000000,9622.677246
76.155337,919.314598,222.061783,9844.739029
76.155645,766.095498,-0.000000,9474.636058
76.155953,536.266849,148.041188,9548.656652
76.156261,689.485948,-0.000000,9400.615463
76.156569,306.438199,-0.000000,9696.697840
76.156876,383.047749,-0.000000,9696.697840
76.157184,383.047749,-0.000000,9474.636058
76.157492,612.876398,-74.020594,9474.636058
76.157800,612.876398,-0.000000,9622.677246
76.158108,995.924147,-0.000000,9622.677246
76.158416,919.314598,-0.000000,9252.574275
76.158724,689.485948,444.123565,9104.533087
76.159032,459.657299,148.041188,9474.636058
76.159339,383.047749,148.041188,9622.677246
76.159647,459.657299,148.041188,9474.636058
76.159955,766.095498,148.041188,9770.718434
76.160263,919.314598,-74.020594,9696.697840
76.160571,995.924147,296.082377,9696.697840
76.160879,919.314598,296.082377,9696.697840
76.161187,766.095498,148.041188,9622.677246
76.161495,459.657299,296.082377,9696.697840
76.161802,459.657299,-0.000000,9622.677246
76.162110,459.657299,-0.000000,9696.697840
76.162418,612.876398,-74.020594,9696.697840
76.162726,612.876398,-0.000000,9992.780217
76.163034,459.657299,222.061783,9696.697840
76.163342,842.705048,296.082377,9696.697840
76.163650,536.266849,222.061783,9622.677246
76.163958,766.095498,148.041188,9474.636058
76.164265,995.924147,444.123565,9474.636058
76.164573,842.705048,370.102971,9548.656652
76.164881,689.485948,148.041188,9326.594869
76.165189,1455.581446,74.020594,9474.636058
76.165497,459.657299,222.061783,9474.636058
76.165805,612.876398,444.123565,9770.718434
76.166113,612.876398,296.082377,9474.636058
76.166421,612.876398,296.082377,9474.636058
76.166728,919.314598,222.061783,9474.636058
76.167036,689.485948,222.061783,9548.656652
76.167344,612.876398,-0.000000,9918.759623
76.167652,842.705048,148.041188,9844.739029
76.167960,766.095498,-0.000000,9992.780217
76.168268,612.876398,148.041188,9770.718434
76.168576,842.705048,-0.000000,9696.697840
76.168884,919.314598,296.082377,9696.697840
76.169191,612.876398,-0.000000,9548.656652
76.169499,766.095498,222.061783,9696.697840
76.169807,306.438199,-0.000000,9770.718434
76.170115,995.924147,-0.000000,9696.697840
76.170423,919.314598,-0.000000,9474.636058
76.170731,842.705048,222.061783,9474.636058
76.171039,689.485948,370.102971,9474.636058
76.171347,766.095498,296.082377,9474.636058
76.171654,842.705048,296.082377,9548.656652
76.171962,689.485948,296.082377,9474.636058
76.172270,612.876398,222.061783,9770.718434
76.172578,766.095498,444.123565,9474.636058
76.172886,1149.143247,-0.000000,9474.636058
76.173194,919.314598,-0.000000,9770.718434
76.173502,536.266849,222.061783,9548.656652
76.173810,459.657299,148.041188,9474.636058
76.174117,459.657299,296.082377,9622.677246
76.174425,536.266849,-0.000000,9474.636058
76.174733,459.657299,-0.000000,9622.677246
76.175041,995.924147,222.061783,9622.677246
76.175349,689.485948,-0.000000,9400.615463
76.175657,459.657299,-74.020594,9474.636058
76.175965,689.485948,148.041188,9844.739029
76.176272,536.266849,222.061783,9474.636058
76.176580,306.438199,-0.000000,9474.636058
76.176888,689.485948,222.061783,9696.697840
76.177196,459.657299,-148.041188,9622.677246
76.177504,306.438199,148.041188,9474.636058
76.177812,306.438199,-0.000000,9918.759623
76.178120,306.438199,222.061783,9918.759623
76.178427,306.438199,222.061783,9474.636058
76.178735,383.047749,-0.000000,9548.656652
76.179043,459.657299,-0.000000,9474.636058
76.179351,689.485948,370.102971,9474.636058
76.179659,459.657299,592.164754,9326.594869
76.179967,919.314598,-0.000000,9770.718434
76.180275,536.266849,518.144159,9696.697840
76.180582,536.266849,740.205942,9474.636058
76.180890,612.876398,370.102971,9474.636058
76.181198,612.876398,148.041188,9474.636058
76.181506,383.047749,222.061783,9548.656652
76.181814,459.657299,-0.000000,9622.677246
76.182122,612.876398,-0.000000,9474.636058
76.182430,1072.533697,-222.061783,10140.821405
76.182737,459.657299,-74.020594,9696.697840
76.183045,383.047749,-148.041188,9696.697840
76.183353,306.438199,222.061783,9696.697840
76.183661,229.828649,222.061783,9770.718434
76.183969,383.047749,370.102971,9696.697840
76.184277,842.705048,296.082377,9474.636058
76.184585,766.095498,370.102971,9252.574275
76.184892,459.657299,296.082377,9474.636058
76.185200,536.266849,370.102971,9696.697840
76.185508,689.485948,-0.000000,9548.656652
76.185816,689.485948,296.082377,9548.656652
76.186124,383.047749,222.061783,9622.677246
76.186432,459.657299,222.061783,9622.677246
76.186740,229.828649,370.102971,9474.636058
76.187047,612.876398,-0.000000,9326.594869
76.187355,153.219100,296.082377,9622.677246
76.187663,612.876398,370.102971,9770.718434
76.187971,536.266849,-0.000000,9548.656652
76.188279,383.047749,370.102971,9548.656652
76.188587,689.485948,-0.000000,9696.697840
76.188895,766.095498,222.061783,9474.636058
76.189202,536.266849,370.102971,9622.677246
76.189510,536.266849,-0.000000,9326.594869
76.189818,1225.752797,222.061783,9622.677246
76.190126,919.314598,-0.000000,9770.718434
76.190434,536.266849,-74.020594,9400.615463
76.190742,536.266849,444.123565,9474.636058
76.191050,689.485948,296.082377,9474.636058
76.191357,612.876398,370.102971,9548.656652
76.191665,919.314598,148.041188,9474.636058
76.191973,842.705048,370.102971,9326.594869
76.192281,612.876398,-296.082377,9844.739029
76.192589,383.047749,370.102971,10066.800811
76.192897,612.876398,-0.000000,9326.594869
76.193204,536.266849,-0.000000,9474.636058
76.193512,612.876398,222.061783,9474.636058
76.193820,612.876398,444.123565,9474.636058
76.194128,612.876398,370.102971,9474.636058
76.194436,766.095498,-0.000000,9400.615463
76.194744,612.876398,-0.000000,9252.574275
76.195052,153.219100,-0.000000,9844.739029
76.195359,459.657299,-0.000000,9622.677246
76.195667,459.657299,-0.000000,9696.697840
76.195975,153.219100,222.061783,9770.718434
76.196283,383.047749,222.061783,9770.718434
76.196591,383.047749,296.082377,9770.718434
76.196899,689.485948,-0.000000,9548.656652
76.197207,1072.533697,-0.000000,9474.636058
76.197514,766.095498,444.123565,9474.636058
76.197822,842.705048,-0.000000,9104.533087
76.198130,459.657299,-0.000000,9548.656652
76.198438,612.876398,444.123565,9622.677246
76.198746,536.266849,148.041188,9474.636058
76.199054,459.657299,222.061783,9474.636058
76.199362,459.657299,-0.000000,9548.656652
76.199669,766.095498,-0.000000,9844.739029
76.199977,842.705048,-0.000000,9548.656652
76.200285,383.047749,-148.041188,9770.718434
76.200593,536.266849,148.041188,9622.677246
76.200901,689.485948,222.061783,9770.718434
76.201209,689.485948,-0.000000,9696.697840
76.201517,1072.533697,296.082377,9474.636058
76.201824,919.314598,148.041188,9326.594869
76.202132,1532.190996,370.102971,9770.718434
76.202440,1149.143247,592.164754,9474.636058
76.202748,689.485948,148.041188,9770.718434
76.203056,612.876398,370.102971,9696.697840
76.203364,536.266849,222.061783,9548.656652
76.203672,689.485948,-0.000000,9474.636058
76.203979,1225.752797,-0.000000,9474.636058
76.204287,842.705048,-0.000000,9770.718434
76.204595,766.095498,-0.000000,9918.759623
76.204903,842.705048,-74.020594,9696.697840
76.205211,689.485948,222.061783,9548.656652
76.205519,612.876398,-0.000000,9548.656652
76.205827,689.485948,370.102971,9474.636058
76.206134,842.705048,296.082377,9400.615463
76.206442,612.876398,148.041188,9474.636058
76.206750,1685.410096,-0.000000,9548.656652
76.207058,995.924147,222.061783,9622.677246
76.207366,536.266849,222.061783,9474.636058
76.207674,766.095498,370.102971,9696.697840
76.207982,612.876398,222.061783,9622.677246
76.208289,689.485948,296.082377,9622.677246
76.208597,612.876398,296.082377,9696.697840
76.208905,612.876398,222.061783,9696.697840
76.209213,689.485948,518.144159,10066.800811
76.209521,536.266849,-148.041188,9474.636058
76.209829,766.095498,370.102971,9622.677246
76.210137,612.876398,222.061783,9548.656652
76.210444,766.095498,296.082377,9474.636058
76.210752,383.047749,148.041188,9622.677246
76.211060,459.657299,-0.000000,9696.697840
76.211368,919.314598,444.123565,9844.739029
76.211676,995.924147,444.123565,9844.739029
76.211984,766.095498,-0.000000,9622.677246
76.212291,536.266849,-0.000000,9474.636058
76.212599,612.876398,-0.000000,9622.677246
76.212907,536.266849,148.041188,9622.677246
76.213215,612.876398,-0.000000,9622.677246
76.213523,459.657299,148.041188,9548.656652
76.213831,1302.362347,-148.041188,9474.636058
76.214139,612.876398,-0.000000,9474.636058
76.214446,766.095498,296.082377,9844.739029
76.214754,612.876398,296.082377,9548.656652
76.215062,536.266849,370.102971,9474.636058
76.215370,689.485948,444.123565,9474.636058
76.215678,612.876398,222.061783,9474.636058
76.215986,612.876398,222.061783,9474.636058
76.216294,612.876398,-0.000000,9548.656652
76.216601,1302.362347,-0.000000,9844.739029
76.216909,-153.219100,222.061783,9844.739029
76.217217,459.657299,-74.020594,9844.739029
76.217525,306.438199,-0.000000,9770.718434
76.217833,306.438199,-0.000000,9696.697840
76.218141,306.438199,-0.000000,9844.739029
76.218449,612.876398,222.061783,9770.718434
76.218756,383.047749,222.061783,9474.636058
76.219064,229.828649,-0.000000,9622.677246
76.219372,689.485948,148.041188,9844.739029
76.219680,306.438199,444.123565,9770.718434
76.219988,536.266849,296.082377,9326.594869
76.220296,919.314598,296.082377,9474.636058
76.220604,612.876398,296.082377,9474.636058
76.220911,1149.143247,296.082377,9326.594869
76.221219,842.705048,148.041188,9326.594869
76.221527,1149.143247,370.102971,9474.636058
76.221835,689.485948,222.061783,9696.697840
76.222143,1072.533697,-0.000000,9622.677246
76.222451,612.876398,148.041188,9474.636058
76.222759,612.876398,148.041188,9474.636058
76.223066,536.266849,148.041188,9844.739029
76.223374,306.438199,-0.000000,9770.718434
76.223682,536.266849,-0.000000,9548.656652
76.223990,459.657299,-0.000000,9770.718434
76.224298,995.924147,-0.000000,9844.739029
76.224606,536.266849,-0.000000,9474.636058
76.224914,766.095498,444.123565,9474.636058
76.225221,919.314598,370.102971,9474.636058
76.225529,919.314598,-0.000000,9326.594869
76.225837,919.314598,74.020594,9474.636058
76.226145,766.095498,-0.000000,9548.656652
76.226453,919.314598,148.041188,10066.800811
76.226761,995.924147,-0.000000,9474.636058
76.227069,842.705048,296.082377,9474.636058
76.227376,995.924147,518.144159,9548.656652
76.227684,842.705048,444.123565,9548.656652
76.227992,995.924147,518.144159,9474.636058
76.228300,842.705048,-0.000000,9400.615463
76.228608,689.485948,518.144159,9622.677246
76.228916,612.876398,222.061783,9400.615463
76.229224,689.485948,-0.000000,9622.677246
76.229531,459.657299,222.061783,9474.636058
76.229839,459.657299,-0.000000,9770.718434
76.230147,459.657299,-0.000000,9844.739029
76.230455,306.438199,-0.000000,9844.739029
76.230763,153.219100,222.061783,9918.759623
76.231071,536.266849,-74.020594,9992.780217
76.231379,1225.752797,296.082377,9770.718434
76.231686,612.876398,-0.000000,9474.636058
76.231994,842.705048,370.102971,9548.656652
76.232302,766.095498,444.123565,9474.636058
76.232610,842.705048,518.144159,9252.574275
76.232918,995.924147,370.102971,9252.574275
76.233226,612.876398,-0.000000,9178.553681
76.233533,919.314598,296.082377,9474.636058
76.233841,153.219100,148.041188,9474.636058
76.234149,229.828649,444.123565,9474.636058
76.234457,383.047749,74.020594,9548.656652
76.234765,306.438199,-0.000000,9696.697840
76.235073,459.657299,-0.000000,9770.718434
76.235381,459.657299,-0.000000,9696.697840
76.235688,153.219100,-0.000000,9844.739029
76.235996,612.876398,-222.061783,9770.718434
76.236304,689.485948,-0.000000,9622.677246
76.236612,995.924147,-222.061783,9474.636058
76.236920,766.095498,222.061783,9474.636058
76.237228,842.705048,370.102971,9548.656652
76.237536,612.876398,-0.000000,9474.636058
76.237843,842.705048,-0.000000,9326.594869
76.238151,459.657299,-0.000000,9474.636058
76.238459,1225.752797,-0.000000,9548.656652
76.238767,842.705048,-148.041188,9400.615463
76.239075,842.705048,296.082377,9622.677246
76.239383,383.047749,370.102971,9696.697840
76.239691,383.047749,296.082377,9770.718434
76.239998,459.657299,296.082377,9622.677246
76.240306,612.876398,296.082377,9474.636058
76.240614,1149.143247,444.123565,9474.636058
76.240922,919.314598,296.082377,9548.656652
76.241230,1225.752797,592.164754,9696.697840
76.241538,919.314598,-0.000000,9178.553681
76.241846,536.266849,148.041188,9326.594869
76.242153,536.266849,-0.000000,9474.636058
76.242461,459.657299,-0.000000,9696.697840
76.242769,306.438199,-0.000000,9696.697840
76.243077,689.485948,-444.123565,9696.697840
76.243385,459.657299,-74.020594,9844.739029
76.243693,306.438199,-74.020594,9918.759623
76.244001,612.876398,-74.020594,9918.759623
76.244308,766.095498,222.061783,9918.759623
76.244616,689.485948,370.102971,9474.636058
76.244924,229.828649,370.102971,9400.615463
76.245232,766.095498,370.102971,9474.636058
76.245540,612.876398,222.061783,9548.656652
76.245848,459.657299,148.041188,9400.615463
76.246156,689.485948,222.061783,9622.677246
76.246463,689.485948,-0.000000,9474.636058
76.246771,383.047749,74.020594,9770.718434
76.247079,689.485948,-0.000000,9696.697840
76.247387,306.438199,296.082377,9696.697840
76.247695,306.438199,-0.000000,9622.677246
76.248003,995.924147,-0.000000,9696.697840
76.248311,1072.533697,592.164754,9770.718434
76.248618,919.314598,370.102971,9474.636058
76.248926,612.876398,592.164754,9696.697840
76.249234,612.876398,592.164754,9474.636058
76.249542,919.314598,592.164754,9474.636058
76.249850,536.266849,444.123565,9548.656652
76.250158,459.657299,-0.000000,9622.677246
76.250466,306.438199,-74.020594,9844.739029
76.250773,306.438199,-74.020594,9918.759623
76.251081,306.438199,-74.020594,10066.800811
76.251389,612.876398,-74.020594,9844.739029
76.251697,689.485948,222.061783,9696.697840
76.252005,612.876398,222.061783,9474.636058
76.252313,766.095498,222.061783,9548.656652
76.252620,689.485948,296.082377,9474.636058
76.252928,689.485948,148.041188,9474.636058
76.253236,459.657299,592.164754,9400.615463
76.253544,919.314598,444.123565,9696.697840
76.253852,536.266849,296.082377,9548.656652
76.254160,612.876398,296.082377,9474.636058
76.254468,306.438199,148.041188,9622.677246
76.254775,459.657299,-74.020594,9844.739029
76.255083,229.828649,-74.020594,9696.697840
76.255391,689.485948,-148.041188,9918.759623
76.255699,229.828649,-0.000000,9918.759623
76.256007,1302.362347,-0.000000,9770.718434
76.256315,689.485948,-74.020594,9622.677246
76.256623,612.876398,222.061783,9400.615463
76.256930,842.705048,148.041188,9474.636058
76.257238,536.266849,222.061783,9474.636058
76.257546,766.095498,444.123565,9400.615463
76.257854,306.438199,-0.000000,9548.656652
76.258162,1072.533697,-0.000000,9548.656652
76.258470,689.485948,-0.000000,9474.636058
76.258778,689.485948,-296.082377,9918.759623
76.259085,766.095498,-0.000000,9770.718434
76.259393,689.485948,-0.000000,9696.697840
76.259701,536.266849,222.061783,9548.656652
76.260009,842.705048,296.082377,9622.677246
76.260317,766.095498,-0.000000,9622.677246
76.260625,766.095498,666.185348,9992.780217
76.260933,612.876398,518.144159,9622.677246
76.261240,689.485948,-0.000000,9400.615463
76.261548,306.438199,222.061783,9474.636058
76.261856,536.266849,-0.000000,9622.677246
76.262164,536.266849,-0.000000,9474.636058
76.262472,689.485948,-0.000000,9696.697840
76.262780,766.095498,-0.000000,9770.718434
76.263088,612.876398,296.082377,10066.800811
76.263395,766.095498,222.061783,9918.759623
76.263703,842.705048,444.123565,9918.759623
76.264011,689.485948,370.102971,9400.615463
76.264319,536.266849,370.102971,9474.636058
76.264627,919.314598,518.144159,9474.636058
76.264935,612.876398,148.041188,9400.615463
76.265243,1149.143247,222.061783,9474.636058
76.265550,919.314598,444.123565,9622.677246
76.265858,919.314598,148.041188,9474.636058
76.266166,766.095498,-0.000000,9622.677246
76.266474,919.314598,-0.000000,9548.656652
76.266782,459.657299,-0.000000,9474.636058
76.267090,536.266849,-0.000000,9770.718434
76.267398,383.047749,-0.000000,9770.718434
76.267705,536.266849,-0.000000,9474.636058
76.268013,766.095498,222.061783,10066.800811
76.268321,1072.533697,-0.000000,9918.759623
76.268629,536.266849,-0.000000,9474.636058
76.268937,612.876398,444.123565,9844.739029
76.269245,842.705048,444.123565,9548.656652
76.269553,689.485948,444.123565,9548.656652
76.269860,766.095498,296.082377,9474.636058
76.270168,766.095498,-0.000000,9992.780217
76.270476,76.609550,-148.041188,9696.697840
76.270784,76.609550,-148.041188,9548.656652
76.271092,612.876398,-148.041188,9474.636058
76.271400,766.095498,-0.000000,9622.677246
76.271707,766.095498,-0.000000,9548.656652
76.272015,689.485948,296.082377,9622.677246
76.272323,919.314598,296.082377,9400.615463
76.272631,995.924147,296.082377,9104.533087
76.272939,995.924147,518.144159,9622.677246
76.273247,995.924147,370.102971,9918.759623
76.273555,459.657299,444.123565,9548.656652
76.273863,766.095498,296.082377,9474.636058
76.274171,689.485948,370.102971,9622.677246
76.274479,306.438199,148.041188,9696.697840
76.274787,383.047749,-148.041188,9696.697840
76.275095,689.485948,-0.000000,9844.739029
76.275403,383.047749,-0.000000,9548.656652
76.275711,689.485948,-0.000000,9474.636058
76.276019,153.219100,-0.000000,9474.636058
76.276327,689.485948,370.102971,9622.677246
76.276635,842.705048,222.061783,9548.656652
76.276943,766.095498,296.082377,9252.574275
76.277251,689.485948,370.102971,9770.718434
76.277559,995.924147,-0.000000,9474.636058
76.277867,612.876398,-74.020594,9474.636058
76.278175,689.485948,-0.000000,9474.636058
76.278483,766.095498,-0.000000,9548.656652
76.278791,459.657299,222.061783,9474.636058
76.279099,612.876398,-0.000000,9474.636058
76.279407,459.657299,-0.000000,9548.656652
76.279715,919.314598,-74.020594,9548.656652
76.280023,766.095498,-0.000000,9474.636058
76.280331,842.705048,-148.041188,9622.677246
76.280639,766.095498,518.144159,9696.697840
76.280947,459.657299,444.123565,9252.574275
76.281255,612.876398,370.102971,9474.636058
76.281563,689.485948,296.082377,9622.677246
76.281871,612.876398,148.041188,9918.759623
76.282179,536.266849,148.041188,9770.718434
76.282487,536.266849,-0.000000,9992.780217
76.282795,0.000000,-0.000000,9622.677246
76.283103,995.924147,222.061783,9770.718434
76.283411,689.485948,-0.000000,9548.656652
76.283719,612.876398,222.061783,9622.677246
76.284027,536.266849,222.061783,9474.636058
76.284335,842.705048,592.164754,9696.697840
76.284643,842.705048,370.102971,9400.615463
76.284951,919.314598,370.102971,9696.697840
76.285259,1225.752797,370.102971,9474.636058
76.285567,1149.143247,-0.000000,9696.697840
76.285875,459.657299,148.041188,9770.718434
76.286183,383.047749,148.041188,9770.718434
76.286491,459.657299,-0.000000,9622.677246
76.286799,612.876398,148.041188,9622.677246
76.287107,459.657299,148.041188,9696.697840
76.287415,842.705048,222.061783,9992.780217
76.287723,1072.533697,-0.000000,9844.739029
76.288031,689.485948,222.061783,9992.780217
76.288339,612.876398,148.041188,9474.636058
76.288647,612.876398,222.061783,9770.718434
76.288955,536.266849,222.061783,9696.697840
76.289263,536.266849,74.020594,9400.615463
76.289571,766.095498,222.061783,9548.656652
76.289879,536.266849,-0.000000,9548.656652
76.290187,766.095498,-0.000000,9548.656652
76.290495,1149.143247,-0.000000,9474.636058
76.290803,995.924147,222.061783,9548.656652
76.291111,689.485948,148.041188,9474.636058
76.291419,919.314598,296.082377,9400.615463
76.291727,919.314598,-0.000000,9400.615463
76.292035,612.876398,-0.000000,9474.636058
76.292343,766.095498,-222.061783,9696.697840
76.292651,536.266849,-148.041188,9622.677246
76.292959,689.485948,-0.000000,9770.718434
76.293267,612.876398,222.061783,9770.718434
76.293575,383.047749,-0.000000,9474.636058
76.293883,383.047749,222.061783,9918.759623
76.294191,459.657299,222.061783,9770.718434
76.294499,459.657299,370.102971,9696.697840
76.294807,612.876398,-0.000000,9992.780217
76.295115,1072.533697,-74.020594,9918.759623
76.295423,689.485948,-222.061783,9770.718434
76.295731,536.266849,-0.000000,9622.677246
76.296039,689.485948,-74.020594,9622.677246
76.296347,689.485948,-0.000000,9548.656652
76.296655,536.266849,-0.000000,9622.677246
76.296963,842.705048,-0.000000,9622.677246
76.297271,995.924147,592.164754,9326.594869
76.297579,842.705048,666.185348,9696.697840
76.297887,1149.143247,74.020594,9030.512492
76.298195,842.705048,444.123565,9400.615463
76.298503,612.876398,222.061783,9474.636058
76.298811,459.657299,148.041188,9474.636058
76.299119,383.047749,74.020594,9770.718434
76.299427,612.876398,296.082377,9918.759623
76.299735,459.657299,-0.000000,9548.656652
76.300044,919.314598,148.041188,9992.780217
76.300352,612.876398,-74.020594,9696.697840
76.300660,229.828649,-0.000000,9844.739029
76.300968,612.876398,148.041188,9844.739029
76.301276,536.266849,148.041188,9696.697840
76.301584,536.266849,370.102971,9474.636058
76.301892,612.876398,-0.000000,9474.636058
76.302200,-153.219100,444.123565,9918.759623
76.302508,842.705048,518.144159,9548.656652
76.302816,689.485948,-0.000000,9474.636058
76.303124,612.876398,370.102971,9548.656652
76.303432,766.095498,444.123565,9474.636058
76.303740,612.876398,-0.000000,9548.656652
76.304048,612.876398,222.061783,9696.697840
76.304356,459.657299,-0.000000,9770.718434
76.304664,229.828649,-74.020594,9474.636058
76.304972,536.266849,-0.000000,9474.636058
76.305280,1149.143247,222.061783,9696.697840
76.305588,766.095498,296.082377,9696.697840
76.305896,689.485948,444.123565,9474.636058
76.306204,612.876398,444.123565,9400.615463
76.306512,536.266849,222.061783,9696.697840
76.306820,536.266849,-0.000000,9548.656652
76.307128,153.219100,-0.000000,9474.636058
76.307436,229.828649,-0.000000,9992.780217
76.307744,919.314598,148.041188,9918.759623
76.308052,612.876398,-0.000000,9548.656652
76.308360,459.657299,-0.000000,9622.677246
76.308668,612.876398,148.041188,9548.656652
76.308976,689.485948,-0.000000,9770.718434
76.309284,766.095498,222.061783,9844.739029
76.309592,766.095498,-0.000000,9622.677246
76.309900,1072.533697,-0.000000,8956.491898
76.310208,536.266849,592.164754,9696.697840
76.310516,536.266849,518.144159,9252.574275
76.310824,842.705048,296.082377,9400.615463
76.311132,689.485948,370.102971,9548.656652
76.311440,229.828649,444.123565,9548.656652
76.311748,612.876398,592.164754,9770.718434
76.312056,689.485948,-148.041188,9696.697840
76.312364,153.219100,74.020594,9844.739029
76.312672,536.266849,-0.000000,9548.656652
76.312980,459.657299,-0.000000,9992.780217
76.313288,0.000000,-0.000000,9918.759623
76.313596,689.485948,-0.000000,9844.739029
76.313904,766.095498,-0.000000,9622.677246
76.314212,1302.362347,296.082377,9474.636058
76.314520,1378.971896,148.041188,9474.636058
76.314828,919.314598,74.020594,9474.636058
76.315136,536.266849,518.144159,9696.697840
76.315444,689.485948,444.123565,9252.574275
76.315752,919.314598,222.061783,9326.594869
76.316060,459.657299,148.041188,9474.636058
76.316368,612.876398,222.061783,9474.636058
76.316676,919.314598,-0.000000,9548.656652
76.316984,536.266849,-0.000000,9696.697840
76.317292,306.438199,296.082377,9696.697840
76.317600,536.266849,-0.000000,9252.574275
76.317908,612.876398,592.164754,9474.636058
76.318216,766.095498,370.102971,9400.615463
76.318524,536.266849,222.061783,9548.656652
76.318832,766.095498,518.144159,9696.697840
76.319140,612.876398,-0.000000,9696.697840
76.319448,842.705048,-0.000000,9696.697840
76.319756,689.485948,148.041188,9622.677246
76.320064,612.876398,518.144159,9696.697840
76.320372,536.266849,222.061783,9696.697840
76.320680,612.876398,222.061783,9622.677246
76.320988,766.095498,222.061783,9400.615463
76.321296,459.657299,-74.020594,9474.636058
76.321604,459.657299,-0.000000,9770.718434
76.321912,919.314598,-148.041188,9400.615463
76.322220,766.095498,222.061783,9622.677246
76.322528,536.266849,222.061783,9400.615463
76.322836,612.876398,370.102971,9548.656652
76.323144,612.876398,370.102971,9474.636058
76.323452,689.485948,444.123565,9548.656652
76.323760,1072.533697,370.102971,9548.656652
76.324068,1072.533697,-0.000000,9622.677246
76.324376,689.485948,222.061783,9696.697840
76.324684,1072.533697,-0.000000,9770.718434
76.324992,229.828649,-0.000000,9548.656652
76.325300,383.047749,296.082377,9696.697840
76.325608,76.609550,-0.000000,9770.718434
76.325916,459.657299,-0.000000,9770.718434
76.326224,0.000000,370.102971,9770.718434
76.326532,383.047749,-0.000000,9770.718434
76.326840,612.876398,-222.061783,9770.718434
76.327148,689.485948,-370.102971,9622.677246
76.327456,766.095498,296.082377,9400.615463
76.327764,689.485948,222.061783,9474.636058
76.328072,689.485948,444.123565,9622.677246
76.328380,536.266849,370.102971,9474.636058
76.328688,459.657299,-0.000000,9548.656652
76.328996,459.657299,148.041188,9770.718434
76.329304,76.609550,-222.061783,9696.697840
76.329612,536.266849,-0.000000,9770.718434
76.329920,536.266849,-0.000000,9622.677246
76.330228,459.657299,148.041188,9548.656652
76.330536,536.266849,222.061783,9474.636058
76.330844,536.266849,148.041188,9696.697840
76.331152,842.705048,222.061783,9252.574275
76.331460,1072.533697,-0.000000,9474.636058
76.331768,919.314598,-0.000000,9474.636058
76.332076,766.095498,296.082377,9474.636058
76.332384,536.266849,296.082377,9474.636058
76.332692,459.657299,444.123565,9548.656652
76.333000,612.876398,148.041188,9474.636058
76.333308,306.438199,-0.000000,9548.656652
76.333616,689.485948,-0.000000,10066.800811
76.333924,536.266849,-74.020594,9844.739029
76.334232,766.095498,-296.082377,9622.677246
76.334540,766.095498,-0.000000,9622.677246
76.334848,689.485948,296.082377,9548.656652
76.335156,919.314598,444.123565,9400.615463
76.335464,995.924147,444.123565,9400.615463
76.335772,766.095498,370.102971,9474.636058
76.336080,1149.143247,444.123565,9474.636058
76.336388,995.924147,-0.000000,9770.718434
76.336696,919.314598,-148.041188,9548.656652
76.337004,919.314598,-0.000000,10066.800811
76.337312,612.876398,-0.000000,9696.697840
76.337620,689.485948,-0.000000,9918.759623
76.337928,383.047749,-74.020594,9622.677246
76.338236,459.657299,-0.000000,9696.697840
76.338544,919.314598,296.082377,9696.697840
76.338852,229.828649,-0.000000,9696.697840
76.339160,1302.362347,-0.000000,9696.697840
76.339468,766.095498,518.144159,9548.656652
76.339776,689.485948,592.164754,9474.636058
76.340084,1072.533697,518.144159,9474.636058
76.340392,1072.533697,592.164754,9474.636058
76.340700,766.095498,222.061783,9474.636058
76.341008,766.095498,-0.000000,9696.697840
76.341316,153.219100,-0.000000,10140.821405
76.341624,612.876398,-370.102971,9918.759623
76.341932,306.438199,-74.020594,9770.718434
76.342240,612.876398,370.102971,9622.677246
76.342548,612.876398,296.082377,9548.656652
76.342856,842.705048,370.102971,9474.636058
76.343164,766.095498,296.082377,9474.636058
76.343472,842.705048,370.102971,9696.697840
76.343780,1072.533697,-0.000000,9474.636058
76.344088,459.657299,370.102971,9844.739029
76.344396,536.266849,-148.041188,9622.677246
76.344704,612.876398,370.102971,9696.697840
76.345012,536.266849,222.061783,9622.677246
76.345320,612.876398,-0.000000,9622.677246
76.345628,536.266849,222.061783,9622.677246
76.345936,459.657299,148.041188,9548.656652
76.346244,689.485948,-148.041188,9622.677246
76.346553,459.657299,-148.041188,9474.636058
76.346861,153.219100,-74.020594,9474.636058
76.347169,612.876398,-0.000000,9622.677246
76.347477,612.876398,444.123565,9474.636058
76.347785,919.314598,296.082377,9474.636058
76.348093,612.876398,370.102971,9696.697840
76.348401,536.266849,296.082377,9548.656652
76.348709,1149.143247,296.082377,9622.677246
76.349017,995.924147,666.185348,9548.656652
76.349325,995.924147,-0.000000,9178.553681
76.349633,536.266849,148.041188,9474.636058
76.349941,459.657299,-0.000000,9474.636058
76.350249,612.876398,-0.000000,9770.718434
76.350557,153.219100,-0.000000,9770.718434
76.350865,536.266849,-148.041188,10140.821405
76.351173,306.438199,-74.020594,9992.780217
76.351481,536.266849,-0.000000,9844.739029
76.351789,842.705048,-0.000000,9918.759623
76.352097,612.876398,222.061783,9474.636058
76.352405,919.314598,296.082377,9548.656652
76.352713,612.876398,148.041188,9548.656652
76.353021,612.876398,296.082377,9548.656652
76.353329,919.314598,-0.000000,9252.574275
76.353637,612.876398,-0.000000,9474.636058
76.353945,459.657299,370.102971,10066.800811
76.354253,536.266849,148.041188,9622.677246
76.354561,306.438199,296.082377,9474.636058
76.354869,383.047749,148.041188,9844.739029
76.355177,612.876398,222.061783,9844.739029
76.355485,612.876398,-0.000000,9548.656652
76.355793,612.876398,-0.000000,9474.636058
76.356101,1072.533697,222.061783,9474.636058
76.356409,766.095498,296.082377,9178.553681
76.356717,842.705048,296.082377,9844.739029
76.357025,842.705048,296.082377,9474.636058
76.357333,689.485948,444.123565,9622.677246
76.357641,766.095498,296.082377,9622.677246
76.357949,766.095498,444.123565,9622.677246
76.358257,689.485948,-0.000000,9696.697840
76.358565,689.485948,-0.000000,9474.636058
76.358873,995.924147,-0.000000,9252.574275
76.359181,689.485948,-0.000000,9474.636058
76.359489,612.876398,370.102971,9696.697840
76.359797,689.485948,592.164754,9548.656652
76.360105,919.314598,296.082377,9474.636058
76.360413,689.485948,444.123565,9474.636058
76.360721,995.924147,370.102971,9918.759623
76.361029,919.314598,-0.000000,9622.677246
76.361337,995.924147,-0.000000,9696.697840
76.361645,842.705048,-0.000000,9770.718434
76.361953,612.876398,-0.000000,9844.739029
76.362261,383.047749,222.061783,9548.656652
76.362569,459.657299,296.082377,9548.656652
76.362877,306.438199,-0.000000,9474.636058
76.363185,842.705048,-0.000000,9474.636058
76.363493,919.314598,444.123565,9696.697840
76.363801,766.095498,-74.020594,9622.677246
76.364109,919.314598,-0.000000,9696.697840
76.364417,383.047749,296.082377,9474.636058
76.364725,306.438199,148.041188,9696.697840
76.365033,689.485948,148.041188,9474.636058
76.365341,383.047749,370.102971,9474.636058
76.365649,612.876398,296.082377,10140.821405
76.365957,536.266849,-74.020594,9252.574275
76.366265,766.095498,-0.000000,9474.636058
76.366573,766.095498,-0.000000,9178.553681
76.366881,689.485948,-0.000000,9326.594869
76.367189,536.266849,-0.000000,9400.615463
76.367497,536.266849,-0.000000,9474.636058
76.367805,766.095498,-0.000000,9474.636058
76.368113,0.000000,-296.082377,9474.636058
76.368421,612.876398,-0.000000,9548.656652
76.368729,536.266849,148.041188,9474.636058
76.369037,229.828649,222.061783,9770.718434
76.369345,459.657299,222.061783,9770.718434
76.369653,612.876398,296.082377,9400.615463
76.369961,766.095498,370.102971,9474.636058
76.370269,842.705048,-0.000000,9400.615463
76.370577,459.657299,-74.020594,9474.636058
76.370885,153.219100,148.041188,9918.759623
76.371193,842.705048,-148.041188,9548.656652
76.371501,612.876398,222.061783,9696.697840
76.371809,306.438199,296.082377,9474.636058
76.372117,689.485948,370.102971,9474.636058
76.372425,612.876398,148.041188,9474.636058
76.372733,1149.143247,-0.000000,9622.677246
76.373041,842.705048,222.061783,9622.677246
76.373349,842.705048,148.041188,9622.677246
76.373657,612.876398,-0.000000,9918.759623
76.373965,689.485948,370.102971,9844.739029
76.374273,689.485948,370.102971,9622.677246
76.374581,612.876398,370.102971,9770.718434
76.374889,842.705048,222.061783,9622.677246
76.375197,766.095498,370.102971,9474.636058
76.375505,536.266849,-74.020594,9844.739029
76.375813,842.705048,444.123565,9696.697840
76.376121,612.876398,222.061783,9474.636058
76.376429,995.924147,296.082377,9696.697840
76.376737,459.657299,444.123565,9474.636058
76.377045,612.876398,222.061783,9474.636058
76.377353,536.266849,296.082377,9696.697840
76.377661,459.657299,-0.000000,9918.759623
76.377969,766.095498,222.061783,9696.697840
76.378277,306.438199,148.041188,10140.821405
76.378585,536.266849,296.082377,9918.759623
76.378893,383.047749,-0.000000,9844.739029
76.379201,383.047749,-0.000000,9696.697840
76.379509,536.266849,148.041188,9622.677246
76.379817,459.657299,296.082377,9622.677246
76.380125,766.095498,-0.000000,9696.697840
76.380433,919.314598,-74.020594,9326.594869
76.380741,536.266849,222.061783,9252.574275
76.381049,612.876398,-0.000000,9178.553681
76.381357,766.095498,148.041188,9326.594869
76.381665,459.657299,296.082377,9252.574275
76.381973,689.485948,370.102971,9474.636058
76.382281,536.266849,-0.000000,9548.656652
76.382589,229.828649,-0.000000,9918.759623
76.382897,0.000000,222.061783,9770.718434
76.383206,0.000000,-222.061783,9918.759623
76.383514,689.485948,-0.000000,9844.739029
76.383822,383.047749,-0.000000,9992.780217
76.384130,229.828649,148.041188,9992.780217
76.384438,612.876398,-0.000000,9622.677246
76.384746,612.876398,370.102971,9548.656652
76.385054,919.314598,-74.020594,9622.677246
76.385362,153.219100,-0.000000,9548.656652
76.385670,689.485948,-148.041188,9252.574275
76.385978,766.095498,-0.000000,9548.656652
76.386286,383.047749,-0.000000,9622.677246
76.386594,306.438199,222.061783,9548.656652
76.386902,459.657299,222.061783,9696.697840
76.387210,383.047749,296.082377,9474.636058
76.387518,383.047749,-0.000000,9474.636058
76.387826,1072.533697,-0.000000,9178.553681
76.388134,612.876398,-148.041188,9474.636058
76.388442,612.876398,148.041188,9770.718434
76.388750,459.657299,148.041188,9548.656652
76.389058,459.657299,296.082377,9474.636058
76.389366,766.095498,222.061783,9474.636058
76.389674,689.485948,296.082377,9622.677246
76.389982,536.266849,222.061783,9770.718434
76.390290,229.828649,-148.041188,9622.677246
76.390598,919.314598,222.061783,9622.677246
76.390906,689.485948,148.041188,9326.594869
76.391214,842.705048,296.082377,9696.697840
76.391523,612.876398,-0.000000,9548.656652
76.391831,766.095498,148.041188,9474.636058
76.392139,689.485948,222.061783,9696.697840
76.392447,459.657299,-0.000000,9844.739029
76.392755,229.828649,296.082377,9918.759623
76.393063,536.266849,222.061783,9696.697840
76.393371,919.314598,370.102971,9696.697840
76.393679,919.314598,370.102971,9474.636058
76.393987,842.705048,444.123565,9474.636058
76.394295,842.705048,444.123565,9474.636058
76.394603,1378.971896,-0.000000,9474.636058
76.394911,689.485948,296.082377,9474.636058
76.395219,919.314598,222.061783,9696.697840
76.395527,842.705048,222.061783,9844.739029
76.395835,612.876398,-0.000000,9696.697840
76.396143,919.314598,222.061783,9992.780217
76.396451,612.876398,-0.000000,9696.697840
76.396759,383.047749,370.102971,9770.718434
76.397067,612.876398,518.144159,9844.739029
76.397375,536.266849,222.061783,9474.636058
76.397683,536.266849,370.102971,9548.656652
76.397991,1149.143247,370.102971,9622.677246
76.398299,536.266849,-0.000000,9474.636058
76.398607,612.876398,444.123565,9474.636058
76.398915,536.266849,-0.000000,9400.615463
76.399223,612.876398,370.102971,9474.636058
76.399531,1072.533697,148.041188,9548.656652
76.399840,842.705048,148.041188,9770.718434
76.400148,612.876398,-148.041188,9770.718434
76.400456,536.266849,-74.020594,9770.718434
76.400764,459.657299,-74.020594,9696.697840
76.401072,536.266849,-0.000000,9622.677246
76.401380,536.266849,-0.000000,9548.656652
76.401688,536.266849,-0.000000,9548.656652
76.401996,612.876398,444.123565,9696.697840
76.402304,536.266849,-0.000000,9474.636058
76.402612,536.266849,-0.000000,9696.697840
76.402920,612.876398,-0.000000,9474.636058
76.403228,383.047749,148.041188,9400.615463
76.403536,383.047749,74.020594,9696.697840
76.403844,306.438199,-0.000000,9918.759623
76.404152,0.000000,-74.020594,9548.656652
76.404460,383.047749,-0.000000,9696.697840
76.404768,383.047749,-148.041188,9918.759623
76.405076,612.876398,-0.000000,9696.697840
76.405384,689.485948,148.041188,9696.697840
76.405692,919.314598,296.082377,9474.636058
76.406000,919.314598,296.082377,9104.533087
76.406308,1072.533697,148.041188,9252.574275
76.406616,766.095498,222.061783,9400.615463
76.406924,1378.971896,-0.000000,9696.697840
76.407232,842.705048,-0.000000,9548.656652
76.407540,536.266849,-0.000000,9696.697840
76.407848,766.095498,-148.041188,9844.739029
76.408157,689.485948,148.041188,9696.697840
76.408465,459.657299,-0.000000,9622.677246
76.408773,383.047749,222.061783,9770.718434
76.409081,612.876398,-0.000000,9844.739029
76.409389,1149.143247,296.082377,9844.739029
76.409697,842.705048,296.082377,9622.677246
76.410005,1072.533697,-0.000000,9474.636058
76.410313,1225.752797,74.020594,9178.553681
76.410621,689.485948,-0.000000,9474.636058
76.410929,612.876398,222.061783,9622.677246
76.411237,383.047749,222.061783,9548.656652
76.411545,766.095498,296.082377,9770.718434
76.411853,842.705048,370.102971,9918.759623
76.412161,766.095498,-0.000000,9622.677246
76.412469,1378.971896,-74.020594,9992.780217
76.412777,842.705048,222.061783,9548.656652
76.413085,995.924147,296.082377,9474.636058
76.413393,995.924147,222.061783,9622.677246
76.413701,766.095498,370.102971,9548.656652
76.414009,766.095498,370.102971,9400.615463
76.414317,842.705048,222.061783,9548.656652
76.414625,536.266849,148.041188,9474.636058
76.414933,766.095498,-0.000000,9474.636058
76.415241,459.657299,370.102971,10214.842000
76.415549,766.095498,-0.000000,9622.677246
76.415857,612.876398,148.041188,9696.697840
76.416165,536.266849,-0.000000,9622.677246
76.416474,689.485948,148.041188,9548.656652
76.416782,0.000000,-0.000000,9770.718434
76.417090,1072.533697,370.102971,9770.718434
76.417398,459.657299,-0.000000,9474.636058
76.417706,459.657299,-0.000000,9326.594869
76.418014,919.314598,444.123565,9622.677246
76.418322,842.705048,444.123565,9400.615463
76.418630,919.314598,518.144159,9400.615463
76.418938,766.095498,296.082377,9548.656652
76.419246,766.095498,222.061783,10066.800811
76.419554,229.828649,-0.000000,10140.821405
76.419862,459.657299,-74.020594,10140.821405
76.420170,459.657299,-370.102971,10066.800811
76.420478,612.876398,-74.020594,9696.697840
76.420786,459.657299,-0.000000,9474.636058
76.421094,689.485948,-0.000000,9548.656652
76.421402,536.266849,-0.000000,9400.615463
76.421710,383.047749,-74.020594,9326.594869
76.422018,919.314598,-148.041188,9622.677246
76.422326,612.876398,-0.000000,9474.636058
76.422634,383.047749,-222.061783,9400.615463
76.422942,536.266849,370.102971,9622.677246
76.423250,536.266849,-0.000000,9548.656652
76.423558,689.485948,-0.000000,9696.697840
76.423866,459.657299,-0.000000,9622.677246
76.424174,612.876398,-222.061783,9622.677246
76.424482,383.047749,296.082377,9696.697840
76.424791,536.266849,-148.041188,9918.759623
76.425099,536.266849,-0.000000,9548.656652
76.425407,766.095498,-0.000000,9326.594869
76.425715,536.266849,370.102971,9548.656652
76.426023,842.705048,370.102971,9548.656652
76.426331,536.266849,370.102971,9474.636058
76.426639,995.924147,444.123565,9548.656652
76.426947,612.876398,370.102971,9474.636058
76.427255,919.314598,222.061783,9770.718434
76.427563,612.876398,222.061783,9474.636058
76.427871,459.657299,370.102971,9548.656652
76.428179,612.876398,-0.000000,9548.656652
76.428487,612.876398,-0.000000,9622.677246
76.428795,536.266849,-0.000000,9548.656652
76.429103,536.266849,-0.000000,9548.656652
76.429411,229.828649,222.061783,9918.759623
76.429719,383.047749,-0.000000,9918.759623
76.430027,612.876398,148.041188,9474.636058
76.430335,766.095498,222.061783,9474.636058
76.430643,919.314598,296.082377,9474.636058
76.430951,919.314598,592.164754,9400.615463
76.431259,536.266849,296.082377,9326.594869
76.431567,842.705048,-0.000000,9474.636058
76.431875,612.876398,-0.000000,9252.574275
76.432183,76.609550,370.102971,9474.636058
76.432491,383.047749,148.041188,9548.656652
76.432799,689.485948,222.061783,9474.636058
76.433108,459.657299,222.061783,9474.636058
76.433416,689.485948,-0.000000,9844.739029
76.433724,229.828649,-0.000000,9844.739029
76.434032,229.828649,-0.000000,9770.718434
76.434340,229.828649,296.082377,9770.718434
76.434648,995.924147,148.041188,9770.718434
76.434956,766.095498,444.123565,9770.718434
76.435264,689.485948,296.082377,9474.636058
76.435572,842.705048,444.123565,9548.656652
76.435880,612.876398,370.102971,9622.677246
76.436188,1225.752797,296.082377,9474.636058
76.436496,766.095498,296.082377,9474.636058
76.436804,766.095498,148.041188,9252.574275
76.437112,995.924147,-0.000000,9918.759623
76.437420,459.657299,-0.000000,9696.697840
76.437728,536.266849,-0.000000,9844.739029
76.438036,689.485948,222.061783,9770.718434
76.438344,459.657299,296.082377,9548.656652
76.438652,1225.752797,222.061783,9622.677246
76.438960,995.924147,296.082377,9474.636058
76.439268,689.485948,-74.020594,9252.574275
76.439576,1072.533697,296.082377,9326.594869
76.439884,536.266849,148.041188,9326.594869
76.440192,612.876398,296.082377,9400.615463
76.440500,612.876398,222.061783,9474.636058
76.440808,689.485948,370.102971,9622.677246
76.441116,459.657299,148.041188,9696.697840
76.441425,1455.581446,148.041188,9474.636058
76.441733,612.876398,-0.000000,9918.759623
76.442041,536.266849,-0.000000,9696.697840
76.442349,229.828649,-0.000000,9844.739029
76.442657,383.047749,222.061783,9770.718434
76.442965,536.266849,-0.000000,9696.697840
76.443273,229.828649,148.041188,9622.677246
76.443581,689.485948,-0.000000,9474.636058
76.443889,536.266849,-222.061783,9474.636058
76.444197,612.876398,-0.000000,9696.697840
76.444505,766.095498,-0.000000,9474.636058
76.444813,766.095498,-74.020594,8956.491898
76.445121,612.876398,518.144159,9474.636058
76.445429,919.314598,370.102971,9400.615463
76.445737,842.705048,296.082377,9326.594869
76.446045,919.314598,222.061783,9474.636058
76.446353,766.095498,-0.000000,9770.718434
76.446661,459.657299,-0.000000,9918.759623
76.446969,766.095498,-0.000000,9918.759623
76.447277,383.047749,-0.000000,9622.677246
76.447585,153.219100,-0.000000,9548.656652
76.447893,459.657299,-74.020594,9474.636058
76.448201,612.876398,-0.000000,9548.656652
76.448509,1072.533697,-0.000000,9326.594869
76.448817,919.314598,-0.000000,9474.636058
76.449125,689.485948,148.041188,9474.636058
76.449433,919.314598,296.082377,9622.677246
76.449742,919.314598,222.061783,9400.615463
76.450050,689.485948,444.123565,9548.656652
76.450358,536.266849,296.082377,9770.718434
76.450666,536.266849,296.082377,9844.739029
76.450974,536.266849,-0.000000,9696.697840
76.451282,689.485948,-222.061783,9696.697840
76.451590,1072.533697,296.082377,9252.574275
76.451898,1149.143247,296.082377,9548.656652
76.452206,766.095498,148.041188,9918.759623
76.452514,536.266849,-0.000000,9622.677246
76.452822,459.657299,222.061783,9696.697840
76.453130,689.485948,296.082377,9918.759623
76.453438,536.266849,296.082377,9918.759623
76.453746,459.657299,370.102971,9844.739029
76.454054,536.266849,518.144159,9548.656652
76.454362,842.705048,518.144159,9622.677246
76.454670,536.266849,222.061783,9474.636058
76.454978,536.266849,444.123565,9622.677246
76.455286,459.657299,222.061783,9548.656652
76.455594,536.266849,148.041188,9474.636058
76.455902,612.876398,-0.000000,9474.636058
76.456210,689.485948,-148.041188,9400.615463
76.456518,612.876398,370.102971,9622.677246
76.456826,689.485948,-74.020594,9548.656652
76.457134,459.657299,148.041188,9474.636058
76.457442,459.657299,-0.000000,9548.656652
76.457750,612.876398,222.061783,9696.697840
76.458059,612.876398,296.082377,9696.697840
76.458367,842.705048,148.041188,9918.759623
76.458675,383.047749,-0.000000,9622.677246
76.458983,612.876398,-0.000000,9696.697840
76.459291,0.000000,148.041188,9696.697840
76.459599,306.438199,-0.000000,9474.636058
76.459907,383.047749,-0.000000,9474.636058
76.460215,536.266849,-0.000000,9548.656652
76.460523,612.876398,296.082377,9474.636058
76.460831,459.657299,-0.000000,9548.656652
76.461139,0.000000,-0.000000,9326.594869
76.461447,536.266849,518.144159,9622.677246
76.461755,383.047749,592.164754,9770.718434
76.462063,459.657299,444.123565,9622.677246
76.462371,536.266849,296.082377,9548.656652
76.462679,306.438199,-0.000000,9548.656652
76.462987,383.047749,-0.000000,9770.718434
76.463295,383.047749,-148.041188,9844.739029
76.463603,612.876398,296.082377,9474.636058
76.463911,612.876398,148.041188,9918.759623
76.464219,306.438199,370.102971,9770.718434
76.464527,306.438199,296.082377,9474.636058
76.464835,612.876398,222.061783,9326.594869
76.465143,612.876398,148.041188,9326.594869
76.465451,1149.143247,518.144159,9622.677246
76.465759,306.438199,222.061783,9400.615463
76.466067,612.876398,-0.000000,9474.636058
76.466376,612.876398,-148.041188,9474.636058
76.466684,536.266849,-0.000000,9548.656652
76.466992,689.485948,-0.000000,9696.697840
76.467300,536.266849,296.082377,9696.697840
76.467608,459.657299,-0.000000,9548.656652
76.467916,536.266849,-0.000000,9770.718434
76.468224,766.095498,-0.000000,9696.697840
76.468532,1225.752797,148.041188,9696.697840
76.468840,766.095498,592.164754,9696.697840
76.469148,536.266849,370.102971,9548.656652
76.469456,842.705048,296.082377,9548.656652
76.469764,536.266849,370.102971,9474.636058
76.470072,612.876398,296.082377,9844.739029
76.470380,306.438199,444.123565,9770.718434
76.470688,995.924147,-0.000000,9622.677246
76.470996,689.485948,-0.000000,9918.759623
76.471304,612.876398,-0.000000,9696.697840
76.471612,842.705048,-0.000000,9474.636058
76.471920,689.485948,222.061783,9622.677246
76.472228,842.705048,148.041188,9474.636058
76.472536,919.314598,370.102971,9474.636058
76.472844,842.705048,296.082377,9474.636058
76.473152,1149.143247,296.082377,9548.656652
76.473460,1302.362347,74.020594,9400.615463
76.473769,995.924147,222.061783,9474.636058
76.474077,842.705048,370.102971,9474.636058
76.474385,995.924147,-0.000000,9474.636058
76.474693,689.485948,148.041188,9622.677246
76.475001,612.876398,148.041188,9474.636058
76.475309,536.266849,-0.000000,9622.677246
76.475617,689.485948,-148.041188,9844.739029
76.475925,612.876398,-0.000000,9622.677246
76.476233,995.924147,222.061783,9696.697840
76.476541,689.485948,444.123565,9622.677246
76.476849,766.095498,444.123565,9326.594869
76.477158,612.876398,296.082377,9548.656652
76.477466,459.657299,296.082377,9622.677246
76.477774,306.438199,518.144159,10140.821405
76.478082,306.438199,222.061783,9918.759623
76.478390,383.047749,-74.020594,9918.759623
76.478698,1072.533697,-0.000000,9474.636058
76.479006,383.047749,-148.041188,9474.636058
76.479314,612.876398,222.061783,9696.697840
76.479622,766.095498,-0.000000,9548.656652
76.479930,612.876398,-0.000000,9696.697840
76.480238,1455.581446,-0.000000,9622.677246
76.480547,842.705048,-0.000000,9474.636058
76.480855,459.657299,-0.000000,9400.615463
76.481163,536.266849,-0.000000,9474.636058
76.481471,842.705048,222.061783,9474.636058
76.481779,536.266849,296.082377,9548.656652
76.482087,689.485948,296.082377,9622.677246
76.482395,536.266849,-0.000000,9548.656652
76.482703,612.876398,-0.000000,9548.656652
76.483011,1072.533697,148.041188,9548.656652
76.483319,842.705048,148.041188,9474.636058
76.483627,919.314598,-0.000000,9770.718434
76.483936,612.876398,148.041188,9474.636058
76.484244,612.876398,444.123565,9548.656652
76.484552,689.485948,148.041188,9622.677246
76.484860,536.266849,222.061783,9548.656652
76.485168,612.876398,222.061783,9474.636058
76.485476,766.095498,370.102971,9992.780217
76.485784,76.609550,222.061783,9770.718434
76.486092,0.000000,-148.041188,9622.677246
76.486400,919.314598,-0.000000,9474.636058
76.486708,383.047749,-0.000000,9622.677246
76.487017,459.657299,222.061783,9548.656652
76.487325,383.047749,222.061783,9992.780217
76.487633,919.314598,-0.000000,9548.656652
76.487941,612.876398,222.061783,9474.636058
76.488249,459.657299,-0.000000,9474.636058
76.488557,689.485948,-74.020594,9548.656652
76.488865,459.657299,148.041188,9696.697840
76.489173,536.266849,-0.000000,9548.656652
76.489481,612.876398,-0.000000,9474.636058
76.489789,766.095498,444.123565,9474.636058
76.490097,1149.143247,148.041188,9696.697840
76.490406,842.705048,-0.000000,9622.677246
76.490714,689.485948,296.082377,9548.656652
76.491022,612.876398,-0.000000,9770.718434
76.491330,842.705048,-0.000000,9696.697840
76.491638,919.314598,148.041188,9622.677246
76.491946,612.876398,-0.000000,9548.656652
76.492254,919.314598,222.061783,9622.677246
76.492562,1149.143247,-0.000000,9918.759623
76.492870,842.705048,-0.000000,9844.739029
76.493178,766.095498,222.061783,9548.656652
76.493486,766.095498,370.102971,9696.697840
76.493795,995.924147,296.082377,9326.594869
76.494103,689.485948,296.082377,9474.636058
76.494411,689.485948,222.061783,9474.636058
76.494719,612.876398,222.061783,9400.615463
76.495027,229.828649,-148.041188,9474.636058
76.495335,689.485948,-0.000000,9992.780217
76.495643,919.314598,222.061783,9918.759623
76.495951,229.828649,-222.061783,9992.780217
76.496259,459.657299,222.061783,9696.697840
76.496567,766.095498,222.061783,9622.677246
76.496876,459.657299,-0.000000,9622.677246
76.497184,842.705048,-0.000000,9770.718434
76.497492,536.266849,222.061783,9622.677246
76.497800,536.266849,296.082377,9696.697840
76.498108,919.314598,148.041188,9696.697840
76.498416,459.657299,-0.000000,9770.718434
76.498724,766.095498,-0.000000,9474.636058
76.499032,689.485948,222.061783,9474.636058
76.499340,766.095498,296.082377,9400.615463
76.499648,919.314598,222.061783,9178.553681
76.499956,919.314598,444.123565,9326.594869
76.500265,842.705048,-0.000000,9474.636058
76.500573,612.876398,148.041188,9844.739029
76.500881,1149.143247,-0.000000,9696.697840
76.501189,383.047749,-0.000000,9696.697840
76.501497,383.047749,-0.000000,9770.718434
76.501805,229.828649,148.041188,9696.697840
76.502113,229.828649,296.082377,9622.677246
76.502421,229.828649,-0.000000,9770.718434
76.502729,919.314598,-0.000000,9770.718434
76.503037,459.657299,-0.000000,9548.656652
76.503345,459.657299,-0.000000,9770.718434
76.503654,383.047749,-148.041188,9622.677246
76.503962,536.266849,-0.000000,9770.718434
76.504270,229.828649,-0.000000,9770.718434
76.504578,229.828649,148.041188,9696.697840
76.504886,153.219100,-0.000000,9992.780217
76.505194,842.705048,370.102971,9770.718434
76.505502,995.924147,222.061783,9400.615463
76.505810,1225.752797,666.185348,9770.718434
76.506118,612.876398,370.102971,9326.594869
76.506426,689.485948,518.144159,9400.615463
76.506734,766.095498,370.102971,9326.594869
76.507043,689.485948,296.082377,9400.615463
76.507351,689.485948,222.061783,9252.574275
76.507659,842.705048,296.082377,9548.656652
76.507967,1072.533697,-148.041188,9770.718434
76.508275,383.047749,-74.020594,9770.718434
76.508583,459.657299,148.041188,9696.697840
76.508891,306.438199,-0.000000,9918.759623
76.509199,306.438199,148.041188,9770.718434
76.509507,383.047749,-0.000000,9696.697840
76.509815,919.314598,370.102971,9622.677246
76.510124,995.924147,370.102971,9474.636058
76.510432,919.314598,444.123565,9548.656652
76.510740,689.485948,-0.000000,9474.636058
76.511048,459.657299,370.102971,9696.697840
76.511356,612.876398,296.082377,9474.636058
76.511664,459.657299,148.041188,9474.636058
76.511972,612.876398,444.123565,9622.677246
76.512280,229.828649,222.061783,9770.718434
76.512588,766.095498,148.041188,9918.759623
76.512896,229.828649,444.123565,9844.739029
76.513204,689.485948,-0.000000,9400.615463
76.513513,536.266849,296.082377,9770.718434
76.513821,612.876398,296.082377,9696.697840
76.514129,689.485948,518.144159,9622.677246
76.514437,612.876398,296.082377,9548.656652
76.514745,612.876398,-0.000000,9326.594869
76.515053,229.828649,444.123565,9844.739029
76.515361,689.485948,370.102971,9622.677246
76.515669,766.095498,148.041188,9548.656652
76.515977,689.485948,-0.000000,9548.656652
76.516285,612.876398,370.102971,9622.677246
76.516593,612.876398,222.061783,9696.697840
76.516902,536.266849,-74.020594,9844.739029
76.517210,383.047749,-148.041188,9696.697840
76.517518,766.095498,-222.061783,9622.677246
76.517826,842.705048,222.061783,9548.656652
76.518134,536.266849,666.185348,9844.739029
76.518442,689.485948,666.185348,9400.615463
76.518750,612.876398,518.144159,9400.615463
76.519058,689.485948,296.082377,9400.615463
76.519366,766.095498,-0.000000,9474.636058
76.519674,842.705048,148.041188,9548.656652
76.519982,536.266849,-0.000000,9918.759623
76.520291,459.657299,-0.000000,9844.739029
76.520599,766.095498,-0.000000,9770.718434
76.520907,536.266849,74.020594,9992.780217
76.521215,536.266849,222.061783,9696.697840
76.521523,459.657299,148.041188,9548.656652
76.521831,689.485948,148.041188,9696.697840
76.522139,612.876398,-0.000000,9844.739029
76.522447,229.828649,-0.000000,9548.656652
76.522755,919.314598,222.061783,9400.615463
76.523063,689.485948,296.082377,9548.656652
76.523372,612.876398,444.123565,9474.636058
76.523680,612.876398,296.082377,9400.615463
76.523988,459.657299,296.082377,9474.636058
76.524296,536.266849,-0.000000,9400.615463
76.524604,689.485948,-0.000000,9474.636058
76.524912,459.657299,74.020594,10066.800811
76.525220,306.438199,-0.000000,9918.759623
76.525528,153.219100,-0.000000,9918.759623
76.525836,383.047749,222.061783,9844.739029
76.526144,612.876398,222.061783,9474.636058
76.526452,459.657299,148.041188,9474.636058
76.526761,689.485948,296.082377,9474.636058
76.527069,536.266849,-0.000000,9252.574275
76.527377,766.095498,148.041188,9252.574275
76.527685,842.705048,222.061783,9696.697840
76.527993,383.047749,148.041188,9474.636058
76.528301,383.047749,-0.000000,9474.636058
76.528609,383.047749,-0.000000,9844.739029
76.528917,536.266849,222.061783,9770.718434
76.529225,766.095498,518.144159,9326.594869
76.529533,919.314598,-0.000000,9770.718434
76.529841,842.705048,148.041188,9696.697840
76.530150,919.314598,444.123565,9474.636058
76.530458,766.095498,296.082377,9400.615463
76.530766,842.705048,296.082377,9474.636058
76.531074,766.095498,518.144159,9326.594869
76.531382,689.485948,444.123565,9474.636058
76.531690,229.828649,-0.000000,9400.615463
76.531998,76.609550,-0.000000,9474.636058
76.532306,766.095498,-0.000000,10066.800811
76.532614,536.266849,-0.000000,9696.697840
76.532922,383.047749,-0.000000,9696.697840
76.533231,842.705048,-0.000000,9844.739029
76.533539,612.876398,-0.000000,9622.677246
76.533847,536.266849,-0.000000,9622.677246
76.534155,919.314598,222.061783,9548.656652
76.534463,842.705048,222.061783,9622.677246
76.534771,842.705048,-0.000000,9252.574275
76.535079,766.095498,-0.000000,9474.636058
76.535387,766.095498,222.061783,9326.594869
76.535695,766.095498,444.123565,9474.636058
76.536003,612.876398,222.061783,9474.636058
76.536311,612.876398,296.082377,9548.656652
76.536620,383.047749,-148.041188,9918.759623
76.536928,536.266849,222.061783,9992.780217
76.537236,1072.533697,-148.041188,9992.780217
76.537544,919.314598,-148.041188,9770.718434
76.537852,536.266849,-0.000000,9696.697840
76.538160,842.705048,148.041188,9548.656652
76.538468,536.266849,148.041188,9548.656652
76.538776,995.924147,444.123565,9400.615463
76.539084,459.657299,74.020594,9326.594869
76.539392,1225.752797,592.164754,9474.636058
76.539700,536.266849,444.123565,9548.656652
76.540009,766.095498,222.061783,9474.636058
76.540317,383.047749,296.082377,9622.677246
76.540625,612.876398,296.082377,9548.656652
76.540933,459.657299,148.041188,9844.739029
76.541241,459.657299,-74.020594,9696.697840
76.541549,689.485948,-0.000000,10066.800811
76.541857,459.657299,-74.020594,9918.759623
76.542165,459.657299,-74.020594,9548.656652
76.542473,459.657299,222.061783,9622.677246
76.542781,612.876398,296.082377,9326.594869
76.543089,919.314598,740.205942,9474.636058
76.543398,689.485948,370.102971,9400.615463
76.543706,919.314598,666.185348,9474.636058
76.544014,383.047749,-0.000000,9474.636058
76.544322,689.485948,-0.000000,9770.718434
76.544630,919.314598,-0.000000,9548.656652
76.544938,689.485948,-0.000000,9918.759623
76.545246,612.876398,296.082377,9548.656652
76.545554,536.266849,-74.020594,9622.677246
76.545862,612.876398,-0.000000,9770.718434
76.546170,689.485948,-0.000000,9844.739029
76.546479,612.876398,-0.000000,9918.759623
76.546787,0.000000,222.061783,9844.739029
76.547095,153.219100,-0.000000,9696.697840
76.547403,842.705048,296.082377,9548.656652
76.547711,766.095498,518.144159,9474.636058
76.548019,459.657299,296.082377,9474.636058
76.548327,689.485948,370.102971,9548.656652
76.548635,766.095498,-0.000000,9844.739029
76.548943,612.876398,-0.000000,9622.677246
76.549251,612.876398,296.082377,9844.739029
76.549559,459.657299,518.144159,10066.800811
76.549868,229.828649,-0.000000,9474.636058
76.550176,383.047749,296.082377,9622.677246
76.550484,766.095498,592.164754,9696.697840
76.550792,612.876398,370.102971,9400.615463
76.551100,459.657299,518.144159,9696.697840
76.551408,689.485948,444.123565,9844.739029
76.551716,306.438199,370.102971,10066.800811
76.552024,306.438199,-0.000000,9474.636058
76.552332,306.438199,148.041188,9548.656652
76.552640,536.266849,-0.000000,9696.697840
76.552948,536.266849,-0.000000,9770.718434
76.553257,612.876398,-0.000000,9622.677246
76.553565,0.000000,222.061783,9696.697840
76.553873,459.657299,-74.020594,9770.718434
76.554181,689.485948,-222.061783,9918.759623
76.554489,612.876398,-0.000000,9696.697840
76.554797,689.485948,-0.000000,9474.636058
76.555105,612.876398,148.041188,9474.636058
76.555413,689.485948,222.061783,9622.677246
76.555721,766.095498,222.061783,9548.656652
76.556029,842.705048,444.123565,9548.656652
76.556337,1225.752797,222.061783,9474.636058
76.556646,766.095498,74.020594,9622.677246
76.556954,1225.752797,-0.000000,9548.656652
76.557262,995.924147,296.082377,9474.636058
76.557570,766.095498,222.061783,9474.636058
76.557878,766.095498,296.082377,9548.656652
76.558186,612.876398,296.082377,9474.636058
76.558494,766.095498,-0.000000,9400.615463
76.558802,995.924147,-0.000000,9696.697840
76.559110,536.266849,-0.000000,9992.780217
76.559418,383.047749,-0.000000,10140.821405
76.559727,383.047749,148.041188,9918.759623
76.560035,459.657299,222.061783,9918.759623
76.560343,612.876398,370.102971,9696.697840
76.560651,612.876398,444.123565,9622.677246
76.560959,995.924147,296.082377,9474.636058
76.561267,842.705048,518.144159,9622.677246
76.561575,612.876398,74.020594,9622.677246
76.561883,459.657299,-0.000000,9622.677246
76.562191,459.657299,-0.000000,9696.697840
76.562499,536.266849,-0.000000,9770.718434
76.562807,383.047749,222.061783,9770.718434
76.563116,536.266849,-0.000000,9622.677246
76.563424,995.924147,444.123565,9770.718434
76.563732,536.266849,-0.000000,9696.697840
76.564040,689.485948,-296.082377,9400.615463
76.564348,1072.533697,148.041188,9622.677246
76.564656,536.266849,-0.000000,9400.615463
76.564964,689.485948,148.041188,9400.615463
76.565272,612.876398,296.082377,9474.636058
76.565580,612.876398,296.082377,9474.636058
76.565888,919.314598,148.041188,9548.656652
76.566196,536.266849,222.061783,9696.697840
76.566505,459.657299,-0.000000,9474.636058
76.566813,0.000000,-296.082377,9770.718434
76.567121,153.219100,-0.000000,9770.718434
76.567429,229.828649,-0.000000,9770.718434
76.567737,229.828649,148.041188,9918.759623
76.568045,536.266849,-0.000000,9622.677246
76.568353,536.266849,370.102971,9696.697840
76.568661,995.924147,740.205942,9844.739029
76.568969,766.095498,-0.000000,9696.697840
76.569277,995.924147,296.082377,9474.636058
76.569586,842.705048,296.082377,9400.615463
76.569894,689.485948,296.082377,9474.636058
76.570202,536.266849,296.082377,9474.636058
76.570510,1378.971896,-0.000000,9548.656652
76.570818,995.924147,-0.000000,9918.759623
76.571126,536.266849,-0.000000,9992.780217
76.571434,689.485948,222.061783,9918.759623
76.571742,689.485948,-0.000000,9696.697840
76.572050,689.485948,222.061783,9548.656652
76.572358,766.095498,370.102971,9474.636058
76.572666,995.924147,370.102971,9474.636058
76.572975,995.924147,370.102971,9326.594869
76.573283,842.705048,444.123565,9178.553681
76.573591,919.314598,518.144159,9474.636058
76.573899,689.485948,296.082377,9622.677246
76.574207,689.485948,370.102971,9696.697840
76.574515,536.266849,74.020594,9548.656652
76.574823,459.657299,370.102971,9474.636058
76.575124,459.657299,296.082377,9918.759623
76.575432,383.047749,370.102971,9770.718434
76.575740,536.266849,-296.082377,9696.697840
76.576049,1225.752797,148.041188,9770.718434
76.576357,153.219100,370.102971,9622.677246
76.576665,229.828649,222.061783,9474.636058
76.576973,766.095498,296.082377,9622.677246
76.577281,689.485948,296.082377,9622.677246
76.577589,612.876398,222.061783,9548.656652
76.577897,689.485948,296.082377,9474.636058
76.578205,612.876398,-148.041188,9992.780217
76.578513,383.047749,-0.000000,9770.718434
76.578821,689.485948,148.041188,9844.739029
76.579129,919.314598,222.061783,9548.656652
76.579437,842.705048,-0.000000,9474.636058
76.579745,689.485948,222.061783,9844.739029
76.580053,766.095498,296.082377,9622.677246
76.580361,536.266849,222.061783,9548.656652
76.580669,1225.752797,-0.000000,9844.739029
76.580978,766.095498,222.061783,9696.697840
76.581286,842.705048,296.082377,9696.697840
76.581594,0.000000,518.144159,9770.718434
76.581902,459.657299,296.082377,9548.656652
76.582210,536.266849,518.144159,9474.636058
76.582518,612.876398,222.061783,9474.636058
76.582826,536.266849,148.041188,9474.636058
76.583134,459.657299,-74.020594,9622.677246
76.583442,1225.752797,222.061783,9844.739029
76.583750,306.438199,-0.000000,9770.718434
76.584058,612.876398,-0.000000,9770.718434
76.584366,306.438199,148.041188,9696.697840
76.584674,612.876398,222.061783,9622.677246
76.584982,536.266849,148.041188,9548.656652
76.585290,459.657299,296.082377,9696.697840
76.585598,612.876398,-0.000000,9696.697840
76.585907,153.219100,-0.000000,9474.636058
76.586215,842.705048,370.102971,9696.697840
76.586523,995.924147,-0.000000,9770.718434
76.586831,612.876398,222.061783,9474.636058
76.587139,766.095498,-0.000000,9622.677246
76.587447,766.095498,370.102971,9474.636058
76.587755,689.485948,296.082377,9474.636058
76.588063,766.095498,-296.082377,9622.677246
76.588371,1378.971896,-148.041188,9992.780217
76.588679,689.485948,-74.020594,9622.677246
76.588987,536.266849,370.102971,9548.656652
76.589295,153.219100,222.061783,9326.594869
76.589603,536.266849,296.082377,9474.636058
76.589911,612.876398,148.041188,9696.697840
76.590219,536.266849,222.061783,9622.677246
76.590527,612.876398,-74.020594,9696.697840
76.590836,689.485948,-222.061783,9474.636058
76.591144,689.485948,-0.000000,9696.697840
76.591452,842.705048,-0.000000,9992.780217
76.591760,612.876398,444.123565,9474.636058
76.592068,689.485948,370.102971,9474.636058
76.592376,612.876398,370.102971,9696.697840
76.592684,536.266849,222.061783,9696.697840
76.592992,383.047749,148.041188,9770.718434
76.593300,383.047749,148.041188,9696.697840
76.593608,459.657299,666.185348,9770.718434
76.593916,459.657299,-0.000000,9474.636058
76.594224,536.266849,222.061783,9548.656652
76.594532,766.095498,296.082377,9474.636058
76.594840,536.266849,370.102971,9474.636058
76.595148,766.095498,296.082377,9474.636058
76.595456,383.047749,592.164754,9844.739029
76.595765,383.047749,-0.000000,9918.759623
76.596073,459.657299,-0.000000,9844.739029
76.596381,766.095498,518.144159,9696.697840
76.596689,459.657299,296.082377,9844.739029
76.596997,536.266849,370.102971,9770.718434
76.597305,536.266849,148.041188,9474.636058
76.597613,612.876398,222.061783,9548.656652
76.597921,842.705048,-0.000000,9696.697840
76.598229,612.876398,666.185348,9992.780217
76.598537,536.266849,-74.020594,9622.677246
76.598845,229.828649,814.226536,9992.780217
76.599153,612.876398,296.082377,9474.636058
76.599461,612.876398,370.102971,9622.677246
76.599769,459.657299,296.082377,9474.636058
76.600077,459.657299,148.041188,9622.677246
76.600385,689.485948,-0.000000,9474.636058
76.600694,842.705048,-0.000000,9622.677246
76.601002,306.438199,-148.041188,9770.718434
76.601310,689.485948,-222.061783,9474.636058
76.601618,459.657299,222.061783,9474.636058
76.601926,766.095498,296.082377,9474.636058
76.602234,689.485948,222.061783,9474.636058
76.602542,842.705048,148.041188,9474.636058
76.602850,1072.533697,148.041188,9474.636058
76.603158,842.705048,518.144159,9030.512492
76.603466,1149.143247,-0.000000,9622.677246
76.603774,612.876398,-0.000000,9548.656652
76.604082,536.266849,-0.000000,9622.677246
76.604390,612.876398,-0.000000,9548.656652
76.604698,459.657299,-0.000000,9696.697840
76.605006,383.047749,-0.000000,9696.697840
76.605314,306.438199,-74.020594,9918.759623
76.605623,536.266849,-0.000000,9696.697840
76.605931,842.705048,444.123565,9400.615463
76.606239,1072.533697,296.082377,9622.677246
76.606547,919.314598,518.144159,9474.636058
76.606855,842.705048,370.102971,9400.615463
76.607163,612.876398,296.082377,9474.636058
76.607471,1072.533697,-0.000000,9622.677246
76.607779,459.657299,222.061783,9622.677246
76.608087,229.828649,-0.000000,9844.739029
76.608395,459.657299,148.041188,9844.739029
76.608703,612.876398,-0.000000,9548.656652
76.609011,689.485948,148.041188,9548.656652
76.609319,612.876398,-0.000000,9622.677246
76.609627,689.485948,222.061783,9548.656652
76.609935,1149.143247,518.144159,9548.656652
76.610243,1072.533697,222.061783,9326.594869
76.610552,689.485948,518.144159,9104.533087
76.610860,612.876398,518.144159,9770.718434
76.611168,689.485948,740.205942,9622.677246
76.611476,919.314598,444.123565,9474.636058
76.611784,766.095498,444.123565,9548.656652
76.612092,766.095498,222.061783,9474.636058
76.612400,536.266849,444.123565,9548.656652
76.612708,689.485948,-0.000000,9696.697840
76.613016,842.705048,-0.000000,9918.759623
76.613324,229.828649,-370.102971,9548.656652
76.613632,689.485948,-0.000000,9918.759623
76.613940,612.876398,-0.000000,9474.636058
76.614248,919.314598,222.061783,9548.656652
76.614556,612.876398,370.102971,9770.718434
76.614864,612.876398,-0.000000,9696.697840
76.615172,1072.533697,222.061783,9400.615463
76.615481,842.705048,296.082377,9622.677246
76.615789,995.924147,444.123565,9696.697840
76.616097,612.876398,444.123565,9474.636058
76.616405,612.876398,370.102971,9548.656652
76.616713,689.485948,370.102971,9622.677246
76.617021,612.876398,-0.000000,9474.636058
76.617329,766.095498,-148.041188,9548.656652
76.617637,1149.143247,-0.000000,9770.718434
76.617945,0.000000,-0.000000,9622.677246
76.618253,536.266849,222.061783,10140.821405
76.618561,766.095498,148.041188,9770.718434
76.618869,689.485948,370.102971,9548.656652
76.619177,612.876398,296.082377,9548.656652
76.619485,612.876398,222.061783,9548.656652
76.619793,383.047749,296.082377,9474.636058
76.620101,995.924147,222.061783,9622.677246
76.620410,612.876398,296.082377,9548.656652
76.620718,842.705048,296.082377,9696.697840
76.621026,383.047749,296.082377,9474.636058
76.621334,536.266849,222.061783,9548.656652
76.621642,536.266849,222.061783,9696.697840
76.621950,689.485948,296.082377,9474.636058
76.622258,612.876398,222.061783,9844.739029
76.622566,383.047749,-0.000000,9844.739029
76.622874,0.000000,-74.020594,9474.636058
76.623182,383.047749,-0.000000,9474.636058
76.623490,689.485948,148.041188,9770.718434
76.623798,766.095498,296.082377,9326.594869
76.624106,536.266849,148.041188,9326.594869
76.624414,612.876398,296.082377,9400.615463
76.624722,459.657299,-74.020594,9696.697840
76.625030,612.876398,148.041188,9770.718434
76.625339,229.828649,296.082377,9696.697840
76.625647,612.876398,222.061783,9622.677246
76.625955,459.657299,148.041188,9622.677246
76.626263,306.438199,-74.020594,9696.697840
76.626571,536.266849,-0.000000,9548.656652
76.626879,459.657299,222.061783,9696.697840
76.627187,306.438199,296.082377,9696.697840
76.627495,1149.143247,-0.000000,9474.636058
76.627803,766.095498,296.082377,9548.656652
76.628111,1149.143247,444.123565,9400.615463
76.628419,842.705048,296.082377,9178.553681
76.628727,842.705048,370.102971,9474.636058
76.629035,536.266849,296.082377,9400.615463
76.629343,306.438199,-0.000000,9548.656652
76.629651,689.485948,-74.020594,9770.718434
76.629959,612.876398,-370.102971,10066.800811
76.630268,76.609550,-222.061783,10288.862594
76.630576,153.219100,-0.000000,10214.842000
76.630884,306.438199,-0.000000,9770.718434
76.631192,536.266849,-0.000000,9844.739029
76.631500,536.266849,148.041188,9622.677246
76.631808,612.876398,296.082377,9474.636058
76.632116,842.705048,444.123565,9400.615463
76.632424,689.485948,148.041188,9252.574275
76.632732,919.314598,222.061783,8956.491898
76.633040,306.438199,592.164754,9770.718434
76.633348,612.876398,222.061783,9474.636058
76.633656,689.485948,296.082377,9548.656652
76.633964,612.876398,444.123565,9622.677246
76.634272,612.876398,296.082377,9918.759623
76.634580,612.876398,444.123565,9770.718434
76.634888,536.266849,-222.061783,9770.718434
76.635197,842.705048,-0.000000,10066.800811
76.635505,612.876398,-0.000000,9918.759623
76.635813,383.047749,-0.000000,9696.697840
76.636121,612.876398,148.041188,9770.718434
76.636429,383.047749,296.082377,9474.636058
76.636737,995.924147,296.082377,9400.615463
76.637045,842.705048,-0.000000,9918.759623
76.637353,459.657299,-74.020594,9474.636058
76.637661,689.485948,148.041188,9918.759623
76.637969,689.485948,148.041188,9326.594869
76.638277,612.876398,222.061783,9770.718434
76.638585,612.876398,222.061783,9474.636058
76.638893,766.095498,222.061783,9548.656652
76.639201,536.266849,-0.000000,9474.636058
76.639509,612.876398,-0.000000,9696.697840
76.639817,1072.533697,222.061783,9622.677246
76.640126,1072.533697,222.061783,9622.677246
76.640434,919.314598,370.102971,9104.533087
76.640742,995.924147,518.144159,9178.553681
76.641050,995.924147,592.164754,9252.574275
76.641358,919.314598,370.102971,9252.574275
76.641666,766.095498,296.082377,9326.594869
76.641974,536.266849,-148.041188,9622.677246
76.642282,229.828649,-0.000000,9474.636058
76.642590,536.266849,-0.000000,9770.718434
76.642898,229.828649,-222.061783,9696.697840
76.643206,229.828649,-0.000000,9770.718434
76.643514,383.047749,-74.020594,9696.697840
76.643822,76.609550,-0.000000,9992.780217
76.644130,306.438199,-222.061783,10214.842000
76.644438,536.266849,-148.041188,9696.697840
76.644747,229.828649,296.082377,9474.636058
76.645055,919.314598,148.041188,9030.512492
76.645363,1149.143247,740.205942,9030.512492
76.645671,995.924147,592.164754,9104.533087
76.645979,1149.143247,370.102971,9178.553681
76.646287,842.705048,296.082377,9178.553681
76.646595,842.705048,148.041188,9326.594869
76.646903,536.266849,148.041188,9548.656652
76.647211,459.657299,-0.000000,9548.656652
76.647519,459.657299,518.144159,9696.697840
76.647827,459.657299,-0.000000,9992.780217
76.648135,306.438199,-0.000000,9770.718434
76.648443,383.047749,148.041188,9844.739029
76.648751,76.609550,-0.000000,9844.739029
76.649059,536.266849,74.020594,9696.697840
76.649367,612.876398,370.102971,9548.656652
76.649676,536.266849,592.164754,9326.594869
76.649984,153.219100,370.102971,9844.739029
76.650292,612.876398,592.164754,9474.636058
76.650600,383.047749,296.082377,9474.636058
76.650908,76.609550,-0.000000,9844.739029
76.651216,536.266849,-0.000000,9844.739029
76.651524,689.485948,-0.000000,9770.718434
76.651832,766.095498,-0.000000,10066.800811
76.652140,612.876398,-0.000000,9474.636058
76.652448,919.314598,-370.102971,9622.677246
76.652756,536.266849,222.061783,9696.697840
76.653064,459.657299,296.082377,9474.636058
76.653372,766.095498,444.123565,9400.615463
76.653680,459.657299,444.123565,9474.636058
76.653988,383.047749,370.102971,9474.636058
76.654296,995.924147,-0.000000,9326.594869
76.654605,919.314598,-74.020594,9474.636058
76.654913,766.095498,-0.000000,9548.656652
76.655221,536.266849,-0.000000,9474.636058
76.655529,459.657299,-0.000000,9918.759623
76.655837,383.047749,-0.000000,9696.697840
76.656145,459.657299,-74.020594,9622.677246
76.656453,536.266849,-0.000000,9992.780217
76.656761,612.876398,-0.000000,9548.656652
76.657069,383.047749,-0.000000,9548.656652
76.657377,1225.752797,-74.020594,9548.656652
76.657685,842.705048,296.082377,9548.656652
76.657993,766.095498,370.102971,9474.636058
76.658301,766.095498,222.061783,9474.636058
76.658609,919.314598,148.041188,9400.615463
76.658917,1072.533697,148.041188,9326.594869
76.659225,1455.581446,370.102971,9548.656652
76.659534,919.314598,370.102971,9844.739029
76.659842,612.876398,-0.000000,9548.656652
76.660150,612.876398,-0.000000,9474.636058
76.660458,1072.533697,148.041188,9474.636058
76.660766,689.485948,296.082377,9474.636058
76.661074,919.314598,370.102971,9474.636058
76.661382,766.095498,148.041188,9622.677246
76.661690,536.266849,296.082377,9622.677246
76.661998,919.314598,-148.041188,9622.677246
76.662306,842.705048,-0.000000,9474.636058
76.662614,153.219100,-0.000000,9770.718434
76.662922,689.485948,222.061783,9770.718434
76.663230,459.657299,-0.000000,9696.697840
76.663538,306.438199,-0.000000,9770.718434
76.663846,76.609550,222.061783,9918.759623
76.664154,536.266849,-74.020594,9474.636058
76.664463,612.876398,-0.000000,9696.697840
76.664771,536.266849,296.082377,9696.697840
76.665079,766.095498,296.082377,9326.594869
76.665387,689.485948,222.061783,9474.636058
76.665695,689.485948,444.123565,9474.636058
76.666003,689.485948,222.061783,9474.636058
76.666311,842.705048,296.082377,9474.636058
76.666619,383.047749,296.082377,9622.677246
76.666927,383.047749,370.102971,9696.697840
76.667235,536.266849,-0.000000,9696.697840
76.667543,536.266849,-0.000000,9696.697840
76.667851,76.609550,-222.061783,9696.697840
76.668159,536.266849,-0.000000,9696.697840
76.668467,306.438199,-0.000000,9548.656652
76.668775,689.485948,-0.000000,9696.697840
76.669083,536.266849,148.041188,9844.739029
76.669392,229.828649,-296.082377,9696.697840
76.669700,536.266849,-0.000000,9474.636058
76.670008,766.095498,518.144159,9400.615463
76.670316,842.705048,370.102971,9548.656652
76.670624,536.266849,296.082377,9696.697840
76.670932,536.266849,-0.000000,9696.697840
76.671240,766.095498,370.102971,9548.656652
76.671548,-383.047749,-0.000000,9696.697840
76.671856,689.485948,592.164754,9918.759623
76.672164,842.705048,-0.000000,9770.718434
76.672472,995.924147,222.061783,9400.615463
76.672780,689.485948,296.082377,9474.636058
76.673088,995.924147,296.082377,9326.594869
76.673396,612.876398,222.061783,9474.636058
76.673704,306.438199,148.041188,9474.636058
76.674012,919.314598,296.082377,9770.718434
76.674321,383.047749,962.267725,9844.739029
76.674629,919.314598,-148.041188,9696.697840
76.674937,842.705048,222.061783,9548.656652
76.675245,536.266849,444.123565,9474.636058
76.675553,612.876398,-0.000000,9770.718434
76.675861,612.876398,222.061783,9400.615463
76.676169,766.095498,-0.000000,9696.697840
76.676477,919.314598,-0.000000,9696.697840
76.676785,306.438199,148.041188,9696.697840
76.677093,766.095498,148.041188,9696.697840
76.677401,919.314598,-0.000000,9696.697840
76.677709,766.095498,222.061783,9770.718434
76.678017,536.266849,222.061783,9622.677246
76.678325,383.047749,222.061783,9844.739029
76.678633,842.705048,-0.000000,9770.718434
76.678941,995.924147,740.205942,9844.739029
76.679249,842.705048,-74.020594,8956.491898
76.679557,1149.143247,370.102971,9400.615463
76.679865,766.095498,222.061783,9474.636058
76.680173,919.314598,222.061783,9844.739029
76.680481,919.314598,-0.000000,9474.636058
76.680789,306.438199,148.041188,9474.636058
76.681097,842.705048,74.020594,9474.636058
76.681405,842.705048,444.123565,9696.697840
76.681713,153.219100,370.102971,9918.759623
76.682021,689.485948,-148.041188,9548.656652
76.682329,536.266849,296.082377,9474.636058
76.682637,689.485948,148.041188,9548.656652
76.682945,842.705048,370.102971,9474.636058
76.683253,842.705048,296.082377,9400.615463
76.683561,842.705048,-0.000000,9474.636058
76.683868,842.705048,740.205942,9400.615463
76.684176,383.047749,-0.000000,9622.677246
76.684484,842.705048,370.102971,9548.656652
76.684792,766.095498,148.041188,9548.656652
76.685100,995.924147,296.082377,9622.677246
76.685408,536.266849,222.061783,9622.677246
76.685716,383.047749,-0.000000,9770.718434
76.686024,153.219100,-148.041188,9992.780217
76.686332,1072.533697,-74.020594,9844.739029
76.686640,459.657299,-0.000000,9696.697840
76.686948,306.438199,370.102971,9992.780217
76.687256,459.657299,148.041188,9622.677246
76.687564,459.657299,296.082377,9474.636058
76.687872,612.876398,148.041188,9474.636058
76.688180,536.266849,74.020594,9474.636058
76.688488,689.485948,-0.000000,9548.656652
76.688796,842.705048,-296.082377,9474.636058
76.689104,689.485948,222.061783,9770.718434
76.689412,766.095498,-74.020594,9770.718434
76.689720,306.438199,-0.000000,9622.677246
76.690028,766.095498,-0.000000,9696.697840
76.690336,459.657299,222.061783,9548.656652
76.690644,919.314598,-0.000000,9548.656652
76.690952,612.876398,222.061783,9474.636058
76.691260,842.705048,222.061783,9178.553681
76.691568,1072.533697,370.102971,9326.594869
76.691876,995.924147,148.041188,9252.574275
76.692184,995.924147,444.123565,9474.636058
76.692492,612.876398,-0.000000,9474.636058
76.692800,612.876398,-0.000000,9548.656652
76.693108,459.657299,296.082377,9696.697840
76.693416,536.266849,-0.000000,9918.759623
76.693724,689.485948,-0.000000,9770.718434
76.694032,383.047749,-0.000000,9548.656652
76.694340,536.266849,444.123565,9770.718434
76.694648,612.876398,-0.000000,9400.615463
76.694956,306.438199,148.041188,9548.656652
76.695264,612.876398,296.082377,9622.677246
76.695572,1455.581446,296.082377,9696.697840
76.695880,995.924147,222.061783,9548.656652
76.696188,766.095498,-0.000000,9474.636058
76.696496,1149.143247,370.102971,9622.677246
76.696804,766.095498,296.082377,9622.677246
76.697112,383.047749,148.041188,9548.656652
76.697420,842.705048,296.082377,9696.697840
76.697728,919.314598,296.082377,9622.677246
76.698036,383.047749,-0.000000,9474.636058
76.698344,1302.362347,296.082377,9622.677246
76.698652,1072.533697,-0.000000,9548.656652
76.698960,1225.752797,222.061783,9696.697840
76.699268,612.876398,518.144159,9474.636058
76.699575,612.876398,518.144159,9548.656652
76.699883,766.095498,296.082377,9622.677246
76.700191,612.876398,296.082377,9548.656652
76.700499,306.438199,148.041188,9474.636058
76.700807,459.657299,-148.041188,9696.697840
76.701115,459.657299,-74.020594,9696.697840
76.701423,995.924147,-0.000000,10066.800811
76.701731,536.266849,-74.020594,9770.718434
76.702039,536.266849,-0.000000,9622.677246
76.702347,689.485948,-0.000000,9474.636058
76.702655,689.485948,-0.000000,9474.636058
76.702963,1072.533697,-0.000000,9474.636058
76.703271,1149.143247,370.102971,9474.636058
76.703579,1225.752797,296.082377,9548.656652
76.703887,995.924147,-0.000000,9548.656652
76.704195,689.485948,148.041188,9326.594869
76.704503,612.876398,296.082377,9474.636058
76.704811,536.266849,-0.000000,9474.636058
76.705119,459.657299,222.061783,9770.718434
76.705427,229.828649,-0.000000,9548.656652
76.705735,536.266849,296.082377,9992.780217
76.706043,536.266849,222.061783,9770.718434
76.706351,766.095498,-222.061783,9696.697840
76.706659,459.657299,370.102971,9696.697840
76.706967,612.876398,-0.000000,9548.656652
76.707275,459.657299,296.082377,9622.677246
76.707583,612.876398,148.041188,9474.636058
76.707891,536.266849,-0.000000,9474.636058
76.708199,306.438199,-222.061783,9400.615463
76.708507,919.314598,-0.000000,9548.656652
76.708815,919.314598,-0.000000,9474.636058
76.709123,536.266849,444.123565,9770.718434
76.709431,612.876398,370.102971,9622.677246
76.709739,536.266849,148.041188,9474.636058
76.710047,536.266849,296.082377,9474.636058
76.710355,536.266849,-0.000000,9474.636058
76.710663,76.609550,296.082377,9992.780217
76.710971,766.095498,148.041188,10140.821405
76.711279,766.095498,-0.000000,10066.800811
76.711587,689.485948,-0.000000,9400.615463
76.711895,689.485948,-0.000000,9696.697840
76.712203,689.485948,-0.000000,9548.656652
76.712511,612.876398,222.061783,9622.677246
76.712819,612.876398,-0.000000,9770.718434
76.713127,1225.752797,-0.000000,9548.656652
76.713435,842.705048,370.102971,9474.636058
76.713743,842.705048,666.185348,9696.697840
76.714051,919.314598,370.102971,9400.615463
76.714359,995.924147,-0.000000,9474.636058
76.714667,766.095498,296.082377,9474.636058
76.714975,536.266849,-148.041188,9696.697840
76.715283,536.266849,222.061783,9992.780217
76.715590,383.047749,-0.000000,10066.800811
76.715898,0.000000,-0.000000,9770.718434
76.716206,536.266849,148.041188,9918.759623
76.716514,459.657299,296.082377,9622.677246
76.716822,612.876398,370.102971,9622.677246
76.717130,689.485948,296.082377,9622.677246
76.717438,766.095498,296.082377,9696.697840
76.717746,919.314598,370.102971,9474.636058
76.718054,1072.533697,518.144159,9178.553681
76.718362,1072.533697,-0.000000,9400.615463
76.718670,383.047749,444.123565,9622.677246
76.718978,689.485948,370.102971,9474.636058
76.719286,459.657299,148.041188,9770.718434
76.719594,383.047749,-74.020594,9696.697840
76.719902,0.000000,148.041188,9696.697840
76.720210,306.438199,222.061783,9918.759623
76.720518,229.828649,-74.020594,9548.656652
76.720826,459.657299,-0.000000,9770.718434
76.721134,306.438199,-148.041188,9400.615463
76.721442,153.219100,148.041188,9326.594869
76.721750,459.657299,222.061783,9548.656652
76.722058,306.438199,296.082377,9696.697840
76.722366,459.657299,222.061783,9474.636058
76.722674,536.266849,-0.000000,9400.615463
76.722982,766.095498,222.061783,9548.656652
76.723290,689.485948,148.041188,9696.697840
76.723598,459.657299,222.061783,9622.677246
76.723906,536.266849,-0.000000,9474.636058
76.724214,536.266849,-0.000000,9548.656652
76.724522,459.657299,-0.000000,9474.636058
76.724830,153.219100,-0.000000,9474.636058
76.725138,612.876398,370.102971,9400.615463
76.725446,612.876398,-0.000000,9326.594869
76.725754,612.876398,-0.000000,9548.656652
76.726062,612.876398,-0.000000,9400.615463
76.726370,459.657299,296.082377,9474.636058
76.726678,383.047749,222.061783,9622.677246
76.726986,383.047749,-0.000000,9622.677246
76.727294,766.095498,-0.000000,9400.615463
76.727602,459.657299,-0.000000,9548.656652
76.727910,536.266849,222.061783,9844.739029
76.728218,306.438199,444.123565,10066.800811
76.728526,383.047749,222.061783,9918.759623
76.728834,536.266849,-0.000000,9474.636058
76.729142,536.266849,-0.000000,9474.636058
76.729450,459.657299,148.041188,9474.636058
76.729758,1072.533697,-0.000000,9474.636058
76.730066,1072.533697,222.061783,9770.718434
76.730374,536.266849,-0.000000,9030.512492
76.730682,842.705048,-0.000000,9696.697840
76.730990,995.924147,222.061783,9696.697840
76.731297,689.485948,-0.000000,9474.636058
76.731605,612.876398,222.061783,9474.636058
76.731913,766.095498,296.082377,9622.677246
76.732221,689.485948,-0.000000,9474.636058
76.732529,76.609550,296.082377,9696.697840
76.732837,1072.533697,-0.000000,9548.656652
76.733145,1072.533697,370.102971,9696.697840
76.733453,842.705048,-0.000000,9548.656652
76.733761,766.095498,222.061783,9770.718434
76.734069,766.095498,148.041188,9622.677246
76.734377,766.095498,-0.000000,9696.697840
76.734685,459.657299,-0.000000,9696.697840
76.734993,1072.533697,296.082377,9696.697840
76.735301,383.047749,-0.000000,9400.615463
76.735609,612.876398,296.082377,9696.697840
76.735917,842.705048,296.082377,9548.656652
76.736225,689.485948,518.144159,9548.656652
76.736533,612.876398,222.061783,9696.697840
76.736841,612.876398,-0.000000,9622.677246
76.737149,536.266849,-0.000000,9918.759623
76.737457,766.095498,-148.041188,9992.780217
76.737765,766.095498,-444.123565,9992.780217
76.738073,842.705048,-0.000000,9844.739029
76.738381,766.095498,296.082377,9622.677246
76.738689,612.876398,370.102971,9696.697840
76.738997,1072.533697,592.164754,9474.636058
76.739305,1072.533697,296.082377,9178.553681
76.739613,995.924147,592.164754,9474.636058
76.739921,1072.533697,222.061783,9474.636058
76.740229,612.876398,148.041188,9474.636058
76.740537,919.314598,148.041188,9548.656652
76.740845,612.876398,148.041188,9844.739029
76.741153,612.876398,148.041188,9548.656652
76.741461,383.047749,148.041188,9918.759623
76.741769,536.266849,-0.000000,9918.759623
76.742077,842.705048,-0.000000,9918.759623
76.742385,612.876398,-0.000000,9770.718434
76.742693,612.876398,-148.041188,9474.636058
76.743001,612.876398,-0.000000,9622.677246
76.743309,612.876398,296.082377,9696.697840
76.743617,842.705048,148.041188,9474.636058
76.743925,689.485948,222.061783,9548.656652
76.744233,689.485948,296.082377,9696.697840
76.744541,995.924147,-296.082377,9474.636058
76.744849,612.876398,-0.000000,9622.677246
76.745157,766.095498,296.082377,9696.697840
76.745465,1072.533697,-0.000000,9474.636058
76.745773,919.314598,148.041188,9474.636058
76.746081,766.095498,-0.000000,9548.656652
76.746389,612.876398,-74.020594,9548.656652
76.746697,536.266849,-0.000000,9474.636058
76.747004,612.876398,-222.061783,9770.718434
76.747312,1072.533697,-0.000000,9696.697840
76.747620,919.314598,148.041188,9622.677246
76.747928,842.705048,148.041188,9474.636058
76.748236,689.485948,296.082377,9326.594869
76.748544,612.876398,370.102971,9474.636058
76.748852,766.095498,444.123565,9474.636058
76.749160,689.485948,222.061783,9696.697840
76.749468,459.657299,222.061783,9770.718434
76.749776,306.438199,-74.020594,9696.697840
76.750084,612.876398,-0.000000,9918.759623
76.750392,383.047749,-222.061783,10066.800811
76.750700,306.438199,-0.000000,9770.718434
76.751008,383.047749,296.082377,9696.697840
76.751316,459.657299,148.041188,9548.656652
76.751624,612.876398,370.102971,9622.677246
76.751932,306.438199,296.082377,9696.697840
76.752240,995.924147,370.102971,9474.636058
76.752548,612.876398,-0.000000,9548.656652
76.752856,842.705048,-0.000000,9400.615463
76.753164,842.705048,148.041188,9622.677246
76.753472,459.657299,148.041188,9622.677246
76.753780,536.266849,148.041188,9622.677246
76.754088,612.876398,296.082377,9918.759623
76.754396,612.876398,-0.000000,9770.718434
76.754704,766.095498,-0.000000,9548.656652
76.755012,0.000000,-518.144159,9844.739029
76.755320,689.485948,-0.000000,9918.759623
76.755628,766.095498,222.061783,9696.697840
76.755936,612.876398,222.061783,9622.677246
76.756244,536.266849,296.082377,9474.636058
76.756552,766.095498,296.082377,9548.656652
76.756860,612.876398,-148.041188,9844.739029
76.757168,612.876398,-0.000000,9844.739029
76.757476,76.609550,-0.000000,9770.718434
76.757784,919.314598,-74.020594,9696.697840
76.758092,536.266849,-0.000000,9548.656652
76.758400,536.266849,444.123565,9696.697840
76.758708,536.266849,370.102971,9474.636058
76.759016,689.485948,296.082377,9474.636058
76.759324,995.924147,-0.000000,9474.636058
76.759632,919.314598,222.061783,9474.636058
76.759940,766.095498,222.061783,9474.636058
76.760248,919.314598,370.102971,9622.677246
76.760556,612.876398,296.082377,9326.594869
76.760864,766.095498,370.102971,9474.636058
76.761172,689.485948,370.102971,9696.697840
76.761480,689.485948,148.041188,9770.718434
76.761788,229.828649,148.041188,9992.780217
76.762096,1072.533697,-518.144159,10066.800811
76.762404,153.219100,-0.000000,9992.780217
76.762712,153.219100,-0.000000,9992.780217
76.763019,536.266849,148.041188,9696.697840
76.763327,536.266849,-0.000000,9622.677246
76.763635,612.876398,370.102971,9474.636058
76.763943,689.485948,222.061783,9548.656652
76.764251,919.314598,296.082377,9622.677246
76.764559,536.266849,222.061783,9548.656652
76.764867,1455.581446,-0.000000,9696.697840
76.765175,229.828649,148.041188,9474.636058
76.765483,612.876398,296.082377,9474.636058
76.765791,842.705048,-0.000000,9400.615463
76.766099,689.485948,296.082377,9178.553681
76.766407,612.876398,222.061783,9400.615463
76.766715,842.705048,370.102971,9548.656652
76.767023,689.485948,296.082377,9326.594869
76.767331,612.876398,-0.000000,9474.636058
76.767639,766.095498,-0.000000,9474.636058
76.767947,689.485948,222.061783,9622.677246
76.768255,229.828649,-0.000000,9696.697840
76.768563,536.266849,-0.000000,9622.677246
76.768871,153.219100,148.041188,9918.759623
76.769179,612.876398,-148.041188,9992.780217
76.769487,306.438199,148.041188,9696.697840
76.769795,306.438199,-0.000000,9992.780217
76.770103,383.047749,148.041188,9918.759623
76.770411,766.095498,-0.000000,9548.656652
76.770719,919.314598,-0.000000,9474.636058
76.771027,383.047749,148.041188,9548.656652
76.771335,689.485948,444.123565,9474.636058
76.771643,1149.143247,222.061783,9474.636058
76.771951,995.924147,370.102971,9474.636058
76.772259,1225.752797,814.226536,9770.718434
76.772567,766.095498,592.164754,9178.553681
76.772875,766.095498,444.123565,9474.636058
76.773183,459.657299,370.102971,9474.636058
76.773491,766.095498,296.082377,9622.677246
76.773799,612.876398,222.061783,9622.677246
76.774107,306.438199,296.082377,9474.636058
76.774415,0.000000,222.061783,9992.780217
76.774723,229.828649,-0.000000,9770.718434
76.775031,689.485948,-0.000000,9474.636058
76.775339,229.828649,296.082377,9622.677246
76.775647,536.266849,148.041188,9844.739029
76.775955,229.828649,-0.000000,9474.636058
76.776263,0.000000,148.041188,9696.697840
76.776571,612.876398,-0.000000,9622.677246
76.776879,229.828649,-74.020594,9474.636058
76.777187,229.828649,370.102971,9770.718434
76.777495,689.485948,-0.000000,9696.697840
76.777803,383.047749,-0.000000,9622.677246
76.778111,689.485948,222.061783,9474.636058
76.778418,536.266849,296.082377,9474.636058
76.778726,536.266849,296.082377,9474.636058
76.779034,1149.143247,370.102971,9548.656652
76.779342,1225.752797,370.102971,9474.636058
76.779650,1072.533697,222.061783,9252.574275
