#time,accel_x,accel_y,accel_z
181.801685,2681.334243,-148.041188,9474.636058
181.801993,2528.115143,-296.082377,9252.574275
181.802301,2757.943793,-666.185348,9474.636058
181.802608,3217.601092,-74.020594,9844.739029
181.802916,3064.381992,-148.041188,9474.636058
181.803224,3217.601092,-296.082377,9030.512492
181.803532,3294.210641,296.082377,9104.533087
181.803840,4290.134789,444.123565,9770.718434
181.804148,4060.306139,592.164754,8808.450710
181.804456,3600.648841,888.247130,8290.306550
181.804763,3600.648841,592.164754,9104.533087
181.805071,3447.429741,1332.370696,9474.636058
181.805379,2757.943793,740.205942,9770.718434
181.805687,2528.115143,666.185348,9548.656652
181.805995,2451.505594,296.082377,9918.759623
181.806303,2221.676944,-74.020594,10140.821405
181.806611,2221.676944,-222.061783,10881.027347
181.806918,2068.457845,-888.247130,11325.150913
181.807226,1762.019645,-1628.453072,11325.150913
181.807534,2298.286494,-1036.288319,11621.233289
181.807842,2528.115143,-1332.370696,11325.150913
181.808150,3294.210641,-740.205942,10732.986159
181.808458,3294.210641,-74.020594,9474.636058
181.808766,4519.963438,-296.082377,9844.739029
181.809074,4596.572988,-222.061783,9400.615463
181.809381,4366.744339,-0.000000,9178.553681
181.809689,4903.011187,-148.041188,9252.574275
181.809997,4826.401637,-0.000000,8512.368333
181.810305,5362.668486,148.041188,8512.368333
181.810613,5132.839837,592.164754,8438.347739
181.810921,5898.935335,888.247130,8586.388927
181.811229,5822.325785,740.205942,8216.285956
181.811536,5592.497135,1184.329507,8142.265362
181.811844,5822.325785,962.267725,8216.285956
181.812152,5209.449386,1258.350101,8216.285956
181.812460,5592.497135,1702.473667,8734.430116
181.812768,5669.106685,1628.453072,8882.471304
181.813076,5439.278036,1110.308913,8660.409521
181.813384,4673.182538,1554.432478,8734.430116
181.813691,4596.572988,1406.391290,9178.553681
181.813999,4443.353888,1554.432478,9326.594869
181.814307,3753.867940,1258.350101,9844.739029
181.814615,3294.210641,888.247130,10140.821405
181.814923,3064.381992,962.267725,10214.842000
181.815231,2298.286494,518.144159,10881.027347
181.815539,2068.457845,666.185348,10881.027347
181.815846,1991.848295,592.164754,10955.047942
181.816154,1685.410096,222.061783,11029.068536
181.816462,1608.800546,-0.000000,10732.986159
181.816770,1685.410096,-296.082377,11029.068536
181.817078,1302.362347,-222.061783,10955.047942
181.817386,1225.752797,-740.205942,10881.027347
181.817694,1532.190996,-370.102971,9918.759623
181.818001,2298.286494,-74.020594,10066.800811
181.818309,1762.019645,-74.020594,9474.636058
181.818617,2145.067394,-0.000000,9252.574275
181.818925,2451.505594,-148.041188,9326.594869
181.819233,2911.162892,-296.082377,9104.533087
181.819541,2834.553343,-666.185348,9178.553681
181.819849,2451.505594,-1036.288319,9178.553681
181.820156,2298.286494,-1406.391290,8734.430116
181.820464,2374.896044,-1332.370696,9104.533087
181.820772,1838.629195,-1258.350101,9474.636058
181.821080,1762.019645,-1554.432478,9252.574275
181.821388,2221.676944,-1184.329507,9252.574275
181.821696,2604.724693,-1110.308913,9252.574275
181.822004,2374.896044,-1184.329507,9326.594869
181.822311,2451.505594,-1036.288319,9178.553681
181.822619,2834.553343,-370.102971,9252.574275
181.822927,2451.505594,-148.041188,9178.553681
181.823235,2374.896044,222.061783,9178.553681
181.823543,2145.067394,592.164754,9104.533087
181.823851,1762.019645,666.185348,8882.471304
181.824159,1532.190996,814.226536,9326.594869
181.824466,1608.800546,1184.329507,9326.594869
181.824774,1532.190996,1480.411884,9474.636058
181.825082,1378.971896,1998.556043,9178.553681
181.825390,1455.581446,2664.741391,8734.430116
181.825698,1608.800546,2960.823768,8512.368333
181.826006,1838.629195,3404.947333,8956.491898
181.826314,1378.971896,3182.885551,9030.512492
181.826621,1225.752797,2516.700203,9548.656652
181.826929,536.266849,1998.556043,9770.718434
181.827237,-842.705048,740.205942,10584.944971
181.827545,-1685.410096,-888.247130,11843.295072
181.827853,-2374.896044,-1480.411884,12583.501014
181.828161,-3217.601092,-2072.576638,12805.562797
181.828469,-2911.162892,-2664.741391,12953.603985
181.828777,-2451.505594,-2812.782580,13027.624579
181.829084,-1838.629195,-2664.741391,12213.398043
181.829392,0.000000,-2294.638420,11325.150913
181.829700,306.438199,-1258.350101,10658.965565
181.830008,1225.752797,-666.185348,9696.697840
181.830316,1762.019645,222.061783,8438.347739
181.830624,3064.381992,592.164754,8586.388927
181.830932,3217.601092,666.185348,7031.956449
181.831239,2911.162892,740.205942,7105.977043
181.831547,2834.553343,-296.082377,7328.038826
181.831855,3064.381992,222.061783,7179.997637
181.832163,2145.067394,-0.000000,7179.997637
181.832471,1991.848295,814.226536,7105.977043
181.832779,2068.457845,888.247130,7254.018232
181.833087,1915.238745,1406.391290,7476.080014
181.833394,1991.848295,2072.576638,7550.100608
181.833702,1608.800546,2368.659014,7920.203579
181.834010,1072.533697,2368.659014,8660.409521
181.834318,919.314598,2072.576638,9548.656652
181.834626,766.095498,1110.308913,9918.759623
181.834934,-766.095498,1110.308913,9770.718434
181.835242,-1685.410096,-0.000000,11547.212695
181.835549,-2451.505594,-1480.411884,12509.480420
181.835857,-3600.648841,-2368.659014,13323.706956
181.836165,-4136.915689,-2960.823768,13841.851115
181.836473,-4519.963438,-3701.029710,13545.768739
181.836781,-3140.991542,-3404.947333,14582.057057
181.837089,-2068.457845,-2960.823768,12509.480420
181.837397,-612.876398,-1628.453072,11843.295072
181.837704,1225.752797,-444.123565,10288.862594
181.838012,1532.190996,1776.494261,8142.265362
181.838320,3677.258390,2812.782580,8290.306550
181.838628,4213.525239,3330.926739,6809.894666
181.838936,3907.087040,3701.029710,6883.915261
181.839244,3907.087040,2516.700203,6735.874072
181.839552,3447.429741,1776.494261,7031.956449
181.839859,2298.286494,962.267725,8142.265362
181.840167,1149.143247,518.144159,7772.162391
181.840475,766.095498,-0.000000,8660.409521
181.840783,689.485948,-74.020594,8364.327145
181.841091,1149.143247,370.102971,8364.327145
181.841399,1302.362347,1258.350101,8290.306550
181.841706,2145.067394,1850.514855,7920.203579
181.842014,995.924147,2516.700203,8216.285956
181.842322,1149.143247,2072.576638,8142.265362
181.842630,1072.533697,1702.473667,9622.677246
181.842938,-459.657299,518.144159,10288.862594
181.843246,-1608.800546,-666.185348,10881.027347
181.843554,-2757.943793,-2886.803174,13249.686362
181.843861,-3830.477490,-4145.153275,14359.995275
181.844169,-4519.963438,-5033.400406,15100.201217
181.844477,-3753.867940,-5847.626942,14656.077652
181.844785,-3217.601092,-5107.421000,14137.933492
181.845093,-1225.752797,-4293.194464,12287.418637
181.845401,766.095498,-2146.597232,9844.739029
181.845708,2604.724693,-74.020594,9178.553681
181.846016,4749.792088,1924.535449,8216.285956
181.846324,5439.278036,3552.988522,5847.626942
181.846632,6894.859482,4811.338623,5403.503377
181.846940,6205.373534,4737.318029,5033.400406
181.847248,5439.278036,4663.297435,4737.318029
181.847555,4749.792088,4293.194464,5403.503377
181.847863,3677.258390,3478.967927,6291.750507
181.848171,2604.724693,2146.597232,7550.100608
181.848479,1302.362347,1628.453072,7994.224174
181.848787,995.924147,1036.288319,9474.636058
181.849095,0.000000,592.164754,10066.800811
181.849403,76.609550,-0.000000,11177.109724
181.849710,306.438199,296.082377,10881.027347
181.850018,-766.095498,518.144159,9992.780217
181.850326,0.000000,222.061783,11695.253884
181.850634,-612.876398,-0.000000,11843.295072
181.850942,-1685.410096,-296.082377,12065.356855
181.851250,-2528.115143,-1628.453072,12731.542202
181.851557,-2834.553343,-2442.679609,14137.933492
181.851865,-3600.648841,-3701.029710,14656.077652
181.852173,-3524.039291,-3627.009116,13323.706956
181.852481,-2221.676944,-3627.009116,13323.706956
181.852789,-766.095498,-3256.906145,11695.253884
181.853097,-153.219100,-1480.411884,9400.615463
181.853404,2911.162892,-222.061783,9844.739029
181.853712,4826.401637,1332.370696,7920.203579
181.854020,4443.353888,2368.659014,6735.874072
181.854328,5439.278036,2960.823768,6143.709319
181.854636,5592.497135,3478.967927,5255.462188
181.854944,5362.668486,3627.009116,5329.482782
181.855251,4519.963438,3849.070898,4737.318029
181.855559,4136.915689,2664.741391,6587.832884
181.855867,2757.943793,1406.391290,7402.059420
181.856175,1378.971896,1184.329507,8068.244768
181.856483,842.705048,296.082377,8808.450710
181.856791,229.828649,370.102971,9548.656652
181.857099,-306.438199,444.123565,10362.883188
181.857406,306.438199,444.123565,10140.821405
181.857714,-612.876398,814.226536,9326.594869
181.858022,-306.438199,666.185348,10510.924376
181.858330,-536.266849,518.144159,11325.150913
181.858638,-766.095498,-74.020594,12065.356855
181.858946,-3140.991542,-1480.411884,13471.748144
181.859253,-4136.915689,-3034.844362,14285.974681
181.859561,-5132.839837,-3923.091493,15026.180623
181.859869,-5056.230287,-4663.297435,14434.015869
181.860177,-4136.915689,-4441.235652,13841.851115
181.860485,-2528.115143,-4145.153275,12583.501014
181.860793,-612.876398,-2294.638420,10140.821405
181.861100,842.705048,-0.000000,8660.409521
181.861408,3753.867940,888.247130,8364.327145
181.861716,4136.915689,2146.597232,6143.709319
181.862024,4826.401637,3627.009116,5181.441594
181.862332,5592.497135,4219.173869,4811.338623
181.862640,4903.011187,4293.194464,4737.318029
181.862948,4749.792088,4441.235652,4811.338623
181.863255,3524.039291,3775.050304,5181.441594
181.863563,2911.162892,2886.803174,6365.771101
181.863871,1072.533697,1702.473667,7402.059420
181.864179,76.609550,1110.308913,8956.491898
181.864487,-919.314598,518.144159,10140.821405
181.864795,-1149.143247,-518.144159,11103.089130
181.865102,-1455.581446,-1184.329507,11473.192101
181.865410,-2374.896044,-888.247130,10658.965565
181.865718,-1149.143247,-1406.391290,12065.356855
181.866026,-1838.629195,-1924.535449,12583.501014
181.866334,-3140.991542,-1776.494261,12731.542202
181.866642,-3753.867940,-2590.720797,13323.706956
181.866949,-4060.306139,-3330.926739,14211.954086
181.867257,-4519.963438,-3552.988522,14211.954086
181.867565,-3677.258390,-2886.803174,12879.583391
181.867873,-1685.410096,-3256.906145,12657.521608
181.868181,-1072.533697,-2146.597232,11177.109724
181.868489,0.000000,-666.185348,9770.718434
181.868797,2681.334243,-74.020594,9770.718434
181.869104,2987.772442,1184.329507,7254.018232
181.869412,4366.744339,2442.679609,6957.935855
181.869720,4903.011187,2664.741391,6217.729913
181.870028,5209.449386,2812.782580,6069.688724
181.870336,4903.011187,3330.926739,5773.606348
181.870644,4979.620737,3701.029710,5181.441594
181.870951,3830.477490,2886.803174,6217.729913
181.871259,2834.553343,2738.761985,6143.709319
181.871567,2604.724693,2368.659014,7698.141797
181.871875,1838.629195,1998.556043,8364.327145
181.872183,1072.533697,1924.535449,8734.430116
181.872491,153.219100,1924.535449,9326.594869
181.872798,612.876398,1258.350101,9992.780217
181.873106,459.657299,444.123565,11177.109724
181.873414,0.000000,1036.288319,10214.842000
181.873722,-153.219100,-222.061783,11251.130318
181.874030,-1149.143247,-962.267725,12953.603985
181.874338,-2374.896044,-2146.597232,13619.789333
181.874646,-3447.429741,-3182.885551,14359.995275
181.874953,-3294.210641,-4293.194464,14656.077652
181.875261,-2834.553343,-4367.215058,14137.933492
181.875569,-2298.286494,-4367.215058,12361.439231
181.875877,0.000000,-3552.988522,11991.336260
181.876185,536.266849,-1850.514855,9474.636058
181.876493,3294.210641,-74.020594,9918.759623
181.876800,4903.011187,1406.391290,7920.203579
181.877108,5592.497135,2516.700203,6069.688724
181.877416,6205.373534,2960.823768,5107.421000
181.877724,6588.421283,3627.009116,4663.297435
181.878032,6665.030833,3552.988522,5625.565159
181.878340,4596.572988,3627.009116,4515.256246
181.878647,4443.353888,3701.029710,6143.709319
181.878955,3677.258390,2590.720797,6513.812290
181.879263,1838.629195,1998.556043,7254.018232
181.879571,919.314598,1702.473667,8808.450710
181.879879,-153.219100,1110.308913,9400.615463
181.880187,-306.438199,296.082377,11325.150913
181.880494,-383.047749,-0.000000,10732.986159
181.880802,-995.924147,148.041188,10140.821405
181.881110,-1455.581446,-814.226536,11991.336260
181.881418,-2221.676944,-1554.432478,12361.439231
181.881726,-3064.381992,-1628.453072,13027.624579
181.882034,-4290.134789,-2442.679609,13545.768739
181.882342,-4903.011187,-3256.906145,14359.995275
181.882649,-4826.401637,-3701.029710,14508.036463
181.882957,-4519.963438,-3182.885551,13101.645173
181.883265,-2451.505594,-2960.823768,12435.459826
181.883573,-1149.143247,-1998.556043,11621.233289
181.883881,76.609550,-370.102971,9400.615463
181.884189,1915.238745,1406.391290,8734.430116
181.884496,3830.477490,2146.597232,7698.141797
181.884804,3600.648841,2812.782580,6365.771101
181.885112,4673.182538,2812.782580,6143.709319
181.885420,4826.401637,2664.741391,5921.647536
181.885728,4213.525239,2516.700203,6365.771101
181.886036,3753.867940,2738.761985,5625.565159
181.886343,2757.943793,2294.638420,6365.771101
181.886651,2068.457845,1184.329507,7328.038826
181.886959,689.485948,1184.329507,7550.100608
181.887267,459.657299,1184.329507,8586.388927
181.887575,306.438199,814.226536,8734.430116
181.887883,0.000000,1258.350101,9622.677246
181.888191,153.219100,1036.288319,10140.821405
181.888498,0.000000,296.082377,9918.759623
181.888806,-1378.971896,518.144159,10140.821405
181.889114,-1149.143247,-592.164754,11843.295072
181.889422,-2451.505594,-1924.535449,12953.603985
181.889730,-4213.525239,-3330.926739,13989.892304
181.890038,-4749.792088,-4737.318029,14582.057057
181.890345,-4826.401637,-5773.606348,15618.345376
181.890653,-4596.572988,-5699.585753,13915.871710
181.890961,-3064.381992,-4663.297435,13027.624579
181.891269,-995.924147,-3404.947333,12287.418637
181.891577,0.000000,-962.267725,8882.471304
181.891885,2681.334243,518.144159,9326.594869
181.892192,4596.572988,2220.617826,6809.894666
181.892500,4979.620737,3552.988522,5403.503377
181.892808,6205.373534,3775.050304,5477.523971
181.893116,5898.935335,4515.256246,4071.132681
181.893424,5515.887586,4589.276840,5625.565159
181.893732,4826.401637,4515.256246,4737.318029
181.894040,4519.963438,3478.967927,5847.626942
181.894347,2681.334243,2516.700203,6587.832884
181.894655,1838.629195,1776.494261,7624.121203
181.894963,153.219100,962.267725,9178.553681
181.895271,-229.828649,148.041188,9622.677246
181.895579,-306.438199,-0.000000,11103.089130
181.895887,-153.219100,-148.041188,10807.006753
181.896194,-1225.752797,-0.000000,10362.883188
181.896502,-1149.143247,-0.000000,11251.130318
181.896810,-1225.752797,-592.164754,12435.459826
181.897118,-2145.067394,-1036.288319,13027.624579
181.897426,-2987.772442,-1998.556043,13915.871710
181.897734,-3830.477490,-3330.926739,15100.201217
181.898041,-3830.477490,-4071.132681,15544.324782
181.898349,-3983.696590,-3552.988522,13397.727550
181.898657,-1685.410096,-3256.906145,12879.583391
181.898965,-612.876398,-2368.659014,11325.150913
181.899273,766.095498,-814.226536,9252.574275
181.899581,3447.429741,666.185348,9400.615463
181.899889,4060.306139,1628.453072,7254.018232
181.900196,5515.887586,2590.720797,6735.874072
181.900504,5745.716235,2590.720797,6143.709319
181.900812,6052.154434,2960.823768,5773.606348
181.901120,5439.278036,2812.782580,5477.523971
181.901428,4596.572988,3404.947333,4737.318029
181.901736,3677.258390,2664.741391,6513.812290
181.902043,2604.724693,1850.514855,7105.977043
181.902351,1762.019645,1554.432478,7772.162391
181.902659,1225.752797,1406.391290,8290.306550
181.902967,612.876398,1406.391290,8808.450710
181.903275,153.219100,1258.350101,9770.718434
181.903583,459.657299,1184.329507,10436.903782
181.903890,153.219100,740.205942,10288.862594
181.904198,-995.924147,740.205942,10140.821405
181.904506,-842.705048,-518.144159,11991.336260
181.904814,-2068.457845,-1776.494261,12953.603985
181.905122,-4136.915689,-2738.761985,14434.015869
181.905430,-4749.792088,-3997.112087,15026.180623
181.905737,-4903.011187,-4885.359217,15322.262999
181.906045,-4596.572988,-5033.400406,14211.954086
181.906353,-3447.429741,-4293.194464,12953.603985
181.906661,-689.485948,-3182.885551,11843.295072
181.906969,0.000000,-1332.370696,9178.553681
181.907277,2451.505594,814.226536,9178.553681
181.907585,4673.182538,1924.535449,7920.203579
181.907892,4903.011187,3404.947333,5699.585753
181.908200,6052.154434,3404.947333,5625.565159
181.908508,6281.983084,4737.318029,4219.173869
181.908816,5669.106685,4663.297435,4959.379811
181.909124,4826.401637,4589.276840,4367.215058
181.909432,4060.306139,3923.091493,5551.544565
181.909739,3294.210641,2664.741391,6809.894666
181.910047,1608.800546,1480.411884,7328.038826
181.910355,306.438199,592.164754,9104.533087
181.910663,-306.438199,-0.000000,9844.739029
181.910971,-1225.752797,-740.205942,11547.212695
181.911279,-1149.143247,-1036.288319,11325.150913
181.911586,-2221.676944,-888.247130,10955.047942
181.911894,-2221.676944,-1036.288319,12583.501014
181.912202,-2298.286494,-1406.391290,12953.603985
181.912510,-2604.724693,-1184.329507,13323.706956
181.912818,-3447.429741,-2368.659014,13693.809927
181.913126,-4826.401637,-3108.864956,14285.974681
181.913434,-4519.963438,-3552.988522,14730.098246
181.913741,-3907.087040,-3034.844362,13027.624579
181.914049,-2068.457845,-2812.782580,12139.377449
181.914357,-612.876398,-2368.659014,10881.027347
181.914665,306.438199,-740.205942,9326.594869
181.914973,2451.505594,444.123565,9474.636058
181.915281,3447.429741,1184.329507,7698.141797
181.915588,3907.087040,2590.720797,6439.791695
181.915896,4979.620737,2664.741391,6069.688724
181.916204,5209.449386,2812.782580,5477.523971
181.916512,4749.792088,3330.926739,5625.565159
181.916820,4749.792088,4071.132681,5033.400406
181.917128,4290.134789,3478.967927,5847.626942
181.917435,2834.553343,3404.947333,6365.771101
181.917743,2374.896044,2590.720797,7698.141797
181.918051,1455.581446,1924.535449,8660.409521
181.918359,306.438199,1258.350101,8956.491898
181.918667,-383.047749,962.267725,9474.636058
181.918975,76.609550,592.164754,10732.986159
181.919283,0.000000,-0.000000,10807.006753
181.919590,-1225.752797,-0.000000,10955.047942
181.919898,-1072.533697,-1110.308913,12731.542202
181.920206,-2145.067394,-2072.576638,13545.768739
181.920514,-3524.039291,-2960.823768,14211.954086
181.920822,-4060.306139,-3923.091493,14730.098246
181.921130,-4213.525239,-4737.318029,15322.262999
181.921437,-4213.525239,-4885.359217,13989.892304
181.921745,-2681.334243,-4145.153275,12953.603985
181.922053,-919.314598,-3256.906145,11473.192101
181.922361,459.657299,-1036.288319,9770.718434
181.922669,4136.915689,296.082377,9474.636058
181.922977,4596.572988,2368.659014,6365.771101
181.923284,5975.544884,3108.864956,5477.523971
181.923592,6435.202183,3997.112087,4515.256246
181.923900,6435.202183,4441.235652,4441.235652
181.924208,6435.202183,4663.297435,4367.215058
181.924516,5286.058936,5033.400406,3701.029710
181.924824,5132.839837,3701.029710,5477.523971
181.925132,3140.991542,2368.659014,6069.688724
181.925439,1455.581446,1924.535449,8364.327145
181.925747,0.000000,370.102971,9474.636058
181.926055,-919.314598,-296.082377,10658.965565
181.926363,-1532.190996,-518.144159,11695.253884
181.926671,-1302.362347,-1036.288319,11325.150913
181.926979,-1685.410096,-444.123565,11473.192101
181.927286,-919.314598,-518.144159,12287.418637
181.927594,-1302.362347,-962.267725,12953.603985
181.927902,-2604.724693,-1258.350101,12805.562797
181.928210,-3524.039291,-1702.473667,13397.727550
181.928518,-3830.477490,-3108.864956,14285.974681
181.928826,-4290.134789,-3404.947333,14137.933492
181.929133,-3830.477490,-3552.988522,13397.727550
181.929441,-2145.067394,-3182.885551,12731.542202
181.929749,-612.876398,-2368.659014,11029.068536
181.930057,0.000000,-592.164754,9030.512492
181.930365,2757.943793,296.082377,9474.636058
181.930673,3753.867940,1258.350101,7402.059420
181.930980,4443.353888,2442.679609,6809.894666
181.931288,5362.668486,2664.741391,6069.688724
181.931596,6052.154434,3108.864956,4959.379811
181.931904,5209.449386,3330.926739,5107.421000
181.932212,5362.668486,3997.112087,4293.194464
181.932520,4519.963438,3256.906145,5921.647536
181.932828,3140.991542,2442.679609,6513.812290
181.933135,1762.019645,1998.556043,7698.141797
181.933443,842.705048,1406.391290,8808.450710
181.933751,-153.219100,592.164754,9400.615463
181.934059,-1149.143247,296.082377,10436.903782
181.934367,153.219100,-74.020594,10955.047942
181.934675,0.000000,-296.082377,10955.047942
181.934982,-1762.019645,-666.185348,11177.109724
181.935290,-1608.800546,-1184.329507,12879.583391
181.935598,-2757.943793,-2072.576638,13693.809927
181.935906,-3830.477490,-2812.782580,14211.954086
181.936214,-4443.353888,-3552.988522,14730.098246
181.936522,-4366.744339,-4515.256246,14952.160028
181.936829,-3753.867940,-4589.276840,13915.871710
181.937137,-2221.676944,-3849.070898,13323.706956
181.937445,-919.314598,-2516.700203,11547.212695
181.937753,153.219100,-666.185348,9252.574275
181.938061,3600.648841,1036.288319,8956.491898
181.938365,4673.182538,2738.761985,6809.894666
181.938673,6128.763984,3627.009116,5699.585753
181.938981,6588.421283,4219.173869,3997.112087
181.939289,7277.907231,3997.112087,4367.215058
181.939597,6205.373534,4737.318029,4737.318029
181.939905,5286.058936,5033.400406,3849.070898
181.940213,4826.401637,3923.091493,5921.647536
181.940521,2911.162892,2812.782580,6439.791695
181.940829,1225.752797,1850.514855,8216.285956
181.941137,-229.828649,518.144159,9770.718434
181.941445,-1149.143247,-0.000000,10881.027347
181.941753,-2298.286494,-962.267725,11991.336260
181.942061,-2298.286494,-1036.288319,11769.274478
181.942370,-2451.505594,-666.185348,12139.377449
181.942678,-2145.067394,-1258.350101,12879.583391
181.942986,-2374.896044,-1258.350101,12805.562797
181.943294,-3064.381992,-1258.350101,12953.603985
181.943602,-3677.258390,-2220.617826,13397.727550
181.943910,-4443.353888,-3256.906145,14285.974681
181.944218,-4290.134789,-3034.844362,13693.809927
181.944526,-3140.991542,-2960.823768,13175.665768
181.944834,-1838.629195,-2812.782580,12213.398043
181.945142,-459.657299,-2072.576638,10214.842000
181.945450,383.047749,-518.144159,9400.615463
181.945758,3064.381992,296.082377,8956.491898
181.946066,3600.648841,1776.494261,6957.935855
181.946374,5362.668486,2368.659014,6513.812290
181.946682,5132.839837,2590.720797,5255.462188
181.946990,5592.497135,2960.823768,4737.318029
181.947298,5592.497135,3404.947333,5033.400406
181.947607,4826.401637,3849.070898,4441.235652
181.947915,3907.087040,3034.844362,6143.709319
181.948223,2374.896044,2294.638420,6513.812290
181.948531,1149.143247,1850.514855,7698.141797
181.948839,0.000000,1110.308913,9030.512492
181.949147,-383.047749,370.102971,9622.677246
181.949455,-766.095498,-0.000000,10658.965565
181.949763,-689.485948,-444.123565,10288.862594
181.950071,-1532.190996,-148.041188,10732.986159
181.950379,-1455.581446,-444.123565,11695.253884
181.950687,-1685.410096,-1258.350101,12805.562797
181.950995,-2834.553343,-1924.535449,13101.645173
181.951303,-3600.648841,-3182.885551,13841.851115
181.951611,-4213.525239,-3923.091493,15026.180623
181.951919,-4366.744339,-4071.132681,14211.954086
181.952227,-3677.258390,-4293.194464,13027.624579
181.952535,-1991.848295,-3627.009116,12435.459826
181.952844,-689.485948,-2072.576638,9992.780217
181.953152,1149.143247,-74.020594,9400.615463
181.953460,3983.696590,888.247130,8808.450710
181.953768,4596.572988,2146.597232,6069.688724
181.954076,4979.620737,3404.947333,5181.441594
181.954384,6128.763984,3849.070898,5033.400406
181.954692,6588.421283,3775.050304,5181.441594
181.955000,5669.106685,4293.194464,4515.256246
181.955308,4903.011187,4219.173869,5551.544565
181.955616,3907.087040,3108.864956,6735.874072
181.955924,1991.848295,2294.638420,7179.997637
181.956232,842.705048,1480.411884,9474.636058
181.956540,-459.657299,444.123565,9844.739029
181.956848,-1149.143247,-296.082377,10288.862594
181.957156,-1455.581446,-296.082377,11177.109724
181.957464,-612.876398,-444.123565,11399.171507
181.957772,-1455.581446,-222.061783,11103.089130
181.958081,-1149.143247,-518.144159,11843.295072
181.958389,-1455.581446,-814.226536,12583.501014
181.958697,-2834.553343,-1258.350101,13101.645173
181.959005,-3677.258390,-1850.514855,13915.871710
181.959313,-4136.915689,-2664.741391,14582.057057
181.959621,-3600.648841,-3478.967927,14211.954086
181.959929,-3140.991542,-3108.864956,13027.624579
181.960237,-1302.362347,-2738.761985,12731.542202
181.960545,-153.219100,-1850.514855,10362.883188
181.960853,1149.143247,-74.020594,9104.533087
181.961161,4060.306139,740.205942,8882.471304
181.961469,5056.230287,1850.514855,6957.935855
181.961777,4903.011187,2516.700203,6069.688724
181.962085,5515.887586,2960.823768,5625.565159
181.962393,6052.154434,2738.761985,5477.523971
181.962701,4979.620737,3404.947333,4959.379811
181.963010,4213.525239,3552.988522,5107.421000
181.963318,3830.477490,2886.803174,6661.853478
181.963626,2068.457845,1924.535449,7105.977043
181.963934,459.657299,1702.473667,8290.306550
181.964242,76.609550,1332.370696,9030.512492
181.964550,-995.924147,666.185348,10066.800811
181.964858,-995.924147,592.164754,10510.924376
181.965166,-306.438199,-0.000000,10584.944971
181.965474,-995.924147,-222.061783,10955.047942
181.965782,-1532.190996,-814.226536,11103.089130
181.966090,-1302.362347,-1184.329507,12435.459826
181.966398,-2528.115143,-2516.700203,13471.748144
181.966706,-3370.820191,-2960.823768,14063.912898
181.967014,-3983.696590,-3849.070898,14285.974681
181.967322,-3753.867940,-4515.256246,13767.830521
181.967630,-3447.429741,-4219.173869,12879.583391
181.967938,-1685.410096,-3478.967927,12065.356855
181.968247,153.219100,-1998.556043,10066.800811
181.968555,1685.410096,222.061783,8586.388927
181.968863,4290.134789,1110.308913,7772.162391
181.969171,4979.620737,2368.659014,5995.668130
181.969479,5975.544884,3552.988522,5477.523971
181.969787,5975.544884,3775.050304,4737.318029
181.970095,6128.763984,3997.112087,5477.523971
181.970403,5056.230287,3923.091493,4959.379811
181.970711,4519.963438,3627.009116,5551.544565
181.971019,3524.039291,2368.659014,7105.977043
181.971327,1838.629195,1258.350101,7105.977043
181.971635,229.828649,1036.288319,9104.533087
181.971943,-995.924147,-0.000000,9992.780217
181.972251,-1532.190996,-518.144159,10955.047942
181.972559,-1378.971896,-518.144159,11399.171507
181.972867,-1455.581446,-370.102971,10807.006753
181.973175,-1532.190996,-592.164754,11399.171507
181.973484,-1455.581446,-518.144159,12139.377449
181.973792,-1991.848295,-592.164754,12287.418637
181.974100,-2374.896044,-1184.329507,12953.603985
181.974408,-3064.381992,-1776.494261,13915.871710
181.974716,-4136.915689,-2664.741391,14656.077652
181.975024,-3983.696590,-2812.782580,13545.768739
181.975332,-2681.334243,-2738.761985,12583.501014
181.975640,-1302.362347,-2442.679609,11769.274478
181.975948,-153.219100,-1480.411884,9992.780217
181.976256,1378.971896,-74.020594,8586.388927
181.976564,3830.477490,888.247130,9030.512492
181.976872,3907.087040,1628.453072,6809.894666
181.977180,4673.182538,2664.741391,6513.812290
181.977488,5209.449386,2294.638420,5773.606348
181.977796,4519.963438,2886.803174,5329.482782
181.978104,4903.011187,2812.782580,5921.647536
181.978412,4060.306139,3478.967927,5773.606348
181.978721,3217.601092,2442.679609,7105.977043
181.979029,2145.067394,2220.617826,7254.018232
181.979337,842.705048,1554.432478,8290.306550
181.979645,383.047749,1184.329507,9030.512492
181.979953,-459.657299,1036.288319,9770.718434
181.980261,-536.266849,740.205942,10288.862594
181.980569,-459.657299,-0.000000,11029.068536
181.980877,-536.266849,-592.164754,11103.089130
181.981185,-1149.143247,-740.205942,11251.130318
181.981493,-1225.752797,-1850.514855,12583.501014
181.981801,-2757.943793,-2368.659014,13471.748144
181.982109,-3447.429741,-3108.864956,13989.892304
181.982417,-3907.087040,-4071.132681,13841.851115
181.982725,-3753.867940,-4219.173869,13915.871710
181.983033,-2757.943793,-4219.173869,12583.501014
181.983341,-1762.019645,-3627.009116,12213.398043
181.983649,76.609550,-1776.494261,10584.944971
181.983958,1149.143247,-0.000000,8660.409521
181.984266,4136.915689,1554.432478,8364.327145
181.984574,5209.449386,2442.679609,6513.812290
181.984882,5439.278036,3701.029710,4959.379811
181.985190,5592.497135,3775.050304,4737.318029
181.985498,6741.640382,3627.009116,5773.606348
181.985806,5439.278036,3256.906145,4959.379811
181.986114,4519.963438,3701.029710,5033.400406
181.986422,3524.039291,2516.700203,7105.977043
181.986730,2068.457845,1406.391290,7772.162391
181.987038,229.828649,1036.288319,8882.471304
181.987346,-153.219100,444.123565,9992.780217
181.987654,-1072.533697,-222.061783,10658.965565
181.987962,-1608.800546,-296.082377,11251.130318
181.988270,-766.095498,-74.020594,10955.047942
181.988578,-1608.800546,-74.020594,11621.233289
181.988886,-919.314598,-592.164754,12139.377449
181.989195,-1455.581446,-592.164754,12657.521608
181.989503,-2451.505594,-1036.288319,13175.665768
181.989811,-3294.210641,-1998.556043,13619.789333
181.990119,-3600.648841,-2516.700203,14063.912898
181.990427,-2604.724693,-3034.844362,13841.851115
181.990735,-2145.067394,-3330.926739,12435.459826
181.991043,-766.095498,-2886.803174,11769.274478
181.991351,-689.485948,-1924.535449,9992.780217
181.991659,1072.533697,-296.082377,8586.388927
181.991967,3064.381992,962.267725,8734.430116
181.992275,4366.744339,1628.453072,7550.100608
181.992583,4826.401637,2516.700203,5995.668130
181.992891,5286.058936,2960.823768,5551.544565
181.993199,5745.716235,3182.885551,5847.626942
181.993507,4903.011187,3182.885551,5699.585753
181.993815,4060.306139,3034.844362,5255.462188
181.994123,3370.820191,2590.720797,6587.832884
181.994432,2068.457845,2072.576638,7550.100608
181.994740,612.876398,1702.473667,8290.306550
181.995048,383.047749,1184.329507,9400.615463
181.995356,0.000000,740.205942,9770.718434
181.995664,-612.876398,518.144159,10807.006753
181.995972,-229.828649,-0.000000,10658.965565
181.996280,-1072.533697,-222.061783,10955.047942
181.996588,-1532.190996,-740.205942,11177.109724
181.996896,-1762.019645,-1406.391290,12583.501014
181.997204,-2451.505594,-2072.576638,13249.686362
181.997512,-3370.820191,-3034.844362,13841.851115
181.997820,-3983.696590,-3478.967927,13989.892304
181.998128,-3064.381992,-3997.112087,14359.995275
181.998436,-3370.820191,-3478.967927,13027.624579
181.998744,-1915.238745,-3034.844362,12065.356855
181.999052,0.000000,-1850.514855,10584.944971
181.999361,1149.143247,-0.000000,8216.285956
181.999669,3600.648841,1480.411884,8142.265362
181.999977,4979.620737,2442.679609,6735.874072
182.000285,5669.106685,2960.823768,5181.441594
182.000593,5362.668486,3404.947333,5033.400406
182.000901,5975.544884,3627.009116,5699.585753
182.001209,4903.011187,3108.864956,5773.606348
182.001517,3370.820191,3849.070898,4885.359217
182.001825,3294.210641,2294.638420,7105.977043
182.002133,1838.629195,1776.494261,7105.977043
182.002441,459.657299,888.247130,8364.327145
182.002749,0.000000,296.082377,10066.800811
182.003057,-1072.533697,-518.144159,10288.862594
182.003365,-1991.848295,-740.205942,11843.295072
182.003673,-1225.752797,-592.164754,11103.089130
182.003981,-1762.019645,-0.000000,11029.068536
182.004289,-1608.800546,-666.185348,12139.377449
182.004598,-1915.238745,-814.226536,12435.459826
182.004906,-2528.115143,-1406.391290,12953.603985
182.005214,-3983.696590,-2738.761985,13101.645173
182.005522,-3447.429741,-2368.659014,14063.912898
182.005830,-3370.820191,-3182.885551,13175.665768
182.006138,-2681.334243,-2960.823768,12361.439231
182.006446,-1149.143247,-2442.679609,11695.253884
182.006754,0.000000,-1406.391290,9992.780217
182.007062,1072.533697,-74.020594,8882.471304
182.007370,3217.601092,1036.288319,8956.491898
182.007678,4136.915689,1554.432478,7698.141797
182.007986,4060.306139,1924.535449,6291.750507
182.008294,4826.401637,2368.659014,5847.626942
182.008602,5209.449386,2960.823768,6365.771101
182.008910,4749.792088,3182.885551,5773.606348
182.009218,3907.087040,3701.029710,5403.503377
182.009526,3447.429741,2960.823768,6587.832884
182.009835,2604.724693,2442.679609,7254.018232
182.010143,1838.629195,1850.514855,7846.182985
182.010451,689.485948,1480.411884,8660.409521
182.010759,76.609550,888.247130,9548.656652
182.011067,-842.705048,1110.308913,9918.759623
182.011375,0.000000,370.102971,10955.047942
182.011683,-919.314598,-222.061783,11399.171507
182.011991,-1532.190996,-666.185348,11399.171507
182.012299,-1455.581446,-1850.514855,12583.501014
182.012607,-2221.676944,-2664.741391,13693.809927
182.012915,-3294.210641,-3256.906145,14211.954086
182.013223,-3600.648841,-3627.009116,14359.995275
182.013531,-3447.429741,-3701.029710,13989.892304
182.013839,-2757.943793,-3701.029710,12583.501014
182.014147,-1378.971896,-2516.700203,11621.233289
182.014455,536.266849,-1406.391290,10066.800811
182.014763,1915.238745,-0.000000,7846.182985
182.015072,4060.306139,1554.432478,8364.327145
182.015380,5745.716235,2738.761985,6587.832884
182.015688,5898.935335,3256.906145,4737.318029
182.015996,5592.497135,3108.864956,5255.462188
182.016304,6128.763984,3256.906145,5625.565159
182.016612,4596.572988,3034.844362,5477.523971
182.016920,3447.429741,3182.885551,5699.585753
182.017228,2987.772442,2294.638420,7105.977043
182.017536,1762.019645,1406.391290,7920.203579
182.017844,689.485948,962.267725,8734.430116
182.018152,153.219100,444.123565,9474.636058
182.018460,-689.485948,518.144159,10066.800811
182.018768,-1378.971896,-0.000000,10732.986159
182.019076,-995.924147,-0.000000,10955.047942
182.019384,-1455.581446,148.041188,10955.047942
182.019692,-1378.971896,-370.102971,11473.192101
182.020000,-1378.971896,-814.226536,11917.315666
182.020309,-2604.724693,-1332.370696,13471.748144
182.020617,-2834.553343,-2442.679609,13767.830521
182.020925,-3830.477490,-3404.947333,14137.933492
182.021233,-3907.087040,-3849.070898,14211.954086
182.021541,-3294.210641,-3552.988522,12509.480420
182.021849,-1532.190996,-2812.782580,11843.295072
182.022157,229.828649,-2294.638420,10362.883188
182.022465,1225.752797,-740.205942,8808.450710
182.022773,2451.505594,1332.370696,7994.224174
182.023081,4366.744339,1702.473667,8068.244768
182.023389,4596.572988,2368.659014,6439.791695
182.023697,4979.620737,3256.906145,5033.400406
182.024005,5745.716235,3627.009116,5403.503377
182.024313,4903.011187,3775.050304,5255.462188
182.024621,3983.696590,3997.112087,4737.318029
182.024929,3983.696590,3108.864956,6513.812290
182.025237,2451.505594,2072.576638,7179.997637
182.025546,1072.533697,1628.453072,8290.306550
182.025854,153.219100,1332.370696,9252.574275
182.026162,-842.705048,444.123565,9992.780217
182.026470,-1608.800546,-74.020594,10881.027347
182.026778,-919.314598,-148.041188,11769.274478
182.027086,-1149.143247,-1036.288319,11621.233289
182.027394,-1838.629195,-1036.288319,11547.212695
182.027702,-1762.019645,-1184.329507,12953.603985
182.028010,-2145.067394,-1924.535449,13175.665768
182.028318,-2834.553343,-2664.741391,13619.789333
182.028626,-3217.601092,-3182.885551,13545.768739
182.028934,-2834.553343,-3478.967927,13471.748144
182.029242,-2528.115143,-3478.967927,12287.418637
182.029550,-1225.752797,-2960.823768,11769.274478
182.029858,306.438199,-1406.391290,10584.944971
182.030166,1072.533697,-148.041188,8290.306550
182.030474,3294.210641,1036.288319,8808.450710
182.030783,4903.011187,2368.659014,7179.997637
182.031091,4826.401637,2960.823768,5625.565159
182.031399,5439.278036,2960.823768,5773.606348
182.031707,5898.935335,3404.947333,5921.647536
182.032015,4749.792088,2812.782580,5699.585753
182.032323,3753.867940,3256.906145,5625.565159
182.032631,2987.772442,2442.679609,7105.977043
182.032939,1838.629195,1776.494261,7920.203579
182.033247,459.657299,1628.453072,8290.306550
182.033555,459.657299,1184.329507,9252.574275
182.033863,-536.266849,444.123565,9844.739029
182.034171,-1225.752797,370.102971,10881.027347
182.034479,-459.657299,-74.020594,11251.130318
182.034787,-1532.190996,-222.061783,11103.089130
182.035095,-1838.629195,-740.205942,11991.336260
182.035403,-1685.410096,-1258.350101,13101.645173
182.035712,-2604.724693,-1776.494261,13027.624579
182.036020,-3447.429741,-2368.659014,13767.830521
182.036328,-3830.477490,-3256.906145,14211.954086
182.036636,-3600.648841,-3478.967927,13915.871710
182.036944,-2834.553343,-3330.926739,12731.542202
182.037252,-766.095498,-2960.823768,11991.336260
182.037560,229.828649,-1628.453072,10584.944971
182.037868,995.924147,-148.041188,9400.615463
182.038176,3294.210641,592.164754,8808.450710
182.038485,4749.792088,1850.514855,6809.894666
182.038793,4903.011187,2590.720797,5477.523971
182.039101,5515.887586,3108.864956,5107.421000
182.039409,5898.935335,3404.947333,5107.421000
182.039717,5132.839837,3478.967927,4293.194464
182.040025,4366.744339,3627.009116,4811.338623
182.040333,3753.867940,2664.741391,6513.812290
182.040641,2068.457845,2072.576638,7031.956449
182.040950,842.705048,1554.432478,8290.306550
182.041258,306.438199,1110.308913,9918.759623
182.041566,-536.266849,444.123565,10288.862594
182.041874,-1685.410096,-0.000000,11029.068536
182.042182,-842.705048,-148.041188,11621.233289
182.042490,-1225.752797,-666.185348,11473.192101
182.042798,-1762.019645,-1332.370696,11843.295072
182.043107,-1608.800546,-1258.350101,13027.624579
182.043415,-2451.505594,-2220.617826,13101.645173
182.043723,-3370.820191,-2516.700203,13175.665768
182.044031,-3140.991542,-3034.844362,13249.686362
182.044339,-3064.381992,-3478.967927,13175.665768
182.044647,-2681.334243,-3256.906145,12139.377449
182.044955,-1149.143247,-1998.556043,11843.295072
182.045264,306.438199,-1480.411884,10066.800811
182.045572,1149.143247,148.041188,8364.327145
182.045880,3600.648841,1184.329507,8586.388927
182.046188,4979.620737,2368.659014,7105.977043
182.046496,4903.011187,2960.823768,5625.565159
182.046804,5132.839837,2812.782580,5551.544565
182.047112,5822.325785,3108.864956,5995.668130
182.047420,4596.572988,3256.906145,5847.626942
182.047729,3524.039291,2960.823768,5921.647536
182.048037,3140.991542,2516.700203,6883.915261
182.048345,1991.848295,1628.453072,7624.121203
182.048653,689.485948,1406.391290,8438.347739
182.048961,306.438199,1036.288319,9252.574275
182.049269,-229.828649,-0.000000,10436.903782
182.049577,-1302.362347,-0.000000,11103.089130
182.049886,-383.047749,-0.000000,11029.068536
182.050194,-1455.581446,-814.226536,11399.171507
182.050502,-1991.848295,-740.205942,12287.418637
182.050810,-2145.067394,-1184.329507,12805.562797
182.051118,-2987.772442,-1702.473667,13915.871710
182.051426,-3677.258390,-2664.741391,13841.851115
182.051734,-4060.306139,-3034.844362,13397.727550
182.052043,-3753.867940,-3182.885551,14211.954086
182.052351,-2757.943793,-3256.906145,12583.501014
182.052659,-1685.410096,-2368.659014,11991.336260
182.052967,153.219100,-1480.411884,10288.862594
182.053275,842.705048,296.082377,8142.265362
182.053583,2911.162892,1628.453072,7772.162391
182.053891,5132.839837,2072.576638,7328.038826
182.054200,5209.449386,2886.803174,5403.503377
182.054508,4979.620737,3182.885551,4811.338623
182.054816,5669.106685,3034.844362,5255.462188
182.055124,4366.744339,3478.967927,5773.606348
182.055432,3677.258390,3478.967927,5625.565159
182.055740,3217.601092,2960.823768,6809.894666
182.056048,2451.505594,1998.556043,7328.038826
182.056356,1149.143247,1628.453072,8142.265362
182.056665,766.095498,1110.308913,9400.615463
182.056973,612.876398,814.226536,10214.842000
182.057281,-766.095498,-0.000000,10658.965565
182.057589,-612.876398,-148.041188,11399.171507
182.057897,-842.705048,-740.205942,11399.171507
182.058205,-1532.190996,-1332.370696,11695.253884
182.058513,-1762.019645,-1924.535449,12139.377449
182.058822,-1838.629195,-2294.638420,13471.748144
182.059130,-3217.601092,-3256.906145,13915.871710
182.059438,-4366.744339,-4219.173869,13841.851115
182.059746,-3753.867940,-4293.194464,13841.851115
182.060054,-3447.429741,-3849.070898,12879.583391
182.060362,-1915.238745,-2960.823768,11769.274478
182.060670,229.828649,-1480.411884,10362.883188
182.060979,1532.190996,148.041188,8364.327145
182.061287,3600.648841,1554.432478,7698.141797
182.061595,4903.011187,2590.720797,7254.018232
182.061903,6205.373534,3182.885551,4959.379811
182.062211,5592.497135,3330.926739,4811.338623
182.062519,5362.668486,3478.967927,5699.585753
182.062827,4596.572988,3627.009116,5699.585753
182.063136,3140.991542,3034.844362,5403.503377
182.063444,2757.943793,2442.679609,6291.750507
182.063752,2298.286494,1776.494261,7624.121203
182.064060,766.095498,1480.411884,8068.244768
182.064368,306.438199,666.185348,8882.471304
182.064676,-306.438199,370.102971,10288.862594
182.064984,-1149.143247,222.061783,10732.986159
182.065292,-766.095498,-0.000000,11473.192101
182.065601,-1532.190996,-296.082377,11473.192101
182.065909,-2145.067394,-1036.288319,12361.439231
182.066217,-2451.505594,-1850.514855,13397.727550
182.066525,-3217.601092,-2294.638420,14063.912898
182.066833,-3370.820191,-3404.947333,14730.098246
182.067141,-4749.792088,-3775.050304,14508.036463
182.067449,-3677.258390,-3775.050304,14508.036463
182.067758,-3140.991542,-3478.967927,13027.624579
182.068066,-1455.581446,-2664.741391,11991.336260
182.068374,153.219100,-1480.411884,10436.903782
182.068682,1225.752797,-74.020594,8068.244768
182.068990,2374.896044,1776.494261,8438.347739
182.069298,5669.106685,2664.741391,7402.059420
182.069606,5515.887586,3404.947333,4959.379811
182.069915,5515.887586,3627.009116,5107.421000
182.070223,6052.154434,3701.029710,5625.565159
182.070531,4826.401637,3849.070898,5255.462188
182.070839,3830.477490,3701.029710,5403.503377
182.071147,3294.210641,2812.782580,6957.935855
182.071455,2221.676944,1850.514855,7402.059420
182.071763,1072.533697,1480.411884,7772.162391
182.072071,1915.238745,1258.350101,9178.553681
182.072380,536.266849,962.267725,9252.574275
182.072688,0.000000,814.226536,9844.739029
182.072996,-153.219100,444.123565,10807.006753
182.073304,-306.438199,-592.164754,11547.212695
182.073612,-1225.752797,-1110.308913,11991.336260
182.073920,-1991.848295,-2072.576638,12509.480420
182.074228,-2451.505594,-2738.761985,13619.789333
182.074537,-3294.210641,-3404.947333,14508.036463
182.074845,-4136.915689,-3849.070898,14434.015869
182.075153,-3907.087040,-4219.173869,14211.954086
182.075461,-3447.429741,-4293.194464,13619.789333
182.075769,-2145.067394,-3330.926739,12065.356855
182.076077,0.000000,-2072.576638,10807.006753
182.076385,1378.971896,-222.061783,9326.594869
182.076694,3217.601092,1036.288319,7328.038826
182.077002,5286.058936,2516.700203,7105.977043
182.077310,5515.887586,3849.070898,4441.235652
182.077618,5669.106685,4071.132681,4811.338623
182.077926,5975.544884,3701.029710,5477.523971
182.078234,4826.401637,3997.112087,5551.544565
182.078542,3524.039291,3775.050304,5329.482782
182.078851,3140.991542,2664.741391,6217.729913
182.079159,1762.019645,2220.617826,7254.018232
182.079467,919.314598,1702.473667,7772.162391
182.079775,766.095498,1554.432478,8956.491898
182.080083,-153.219100,888.247130,9548.656652
182.080391,-1149.143247,-0.000000,10362.883188
182.080699,-1149.143247,-148.041188,11547.212695
182.081007,-1225.752797,-666.185348,11325.150913
182.081316,-2451.505594,-1554.432478,12287.418637
182.081624,-2911.162892,-2442.679609,13249.686362
182.081932,-3370.820191,-2738.761985,14730.098246
182.082240,-4213.525239,-3478.967927,14804.118840
182.082548,-4749.792088,-3923.091493,14211.954086
182.082856,-4290.134789,-4071.132681,14434.015869
182.083164,-3370.820191,-3701.029710,13249.686362
182.083473,-1991.848295,-2960.823768,12213.398043
182.083781,-153.219100,-1480.411884,10881.027347
182.084089,766.095498,74.020594,8438.347739
182.084397,3524.039291,1480.411884,7920.203579
182.084705,5439.278036,2812.782580,6735.874072
182.085013,5286.058936,3923.091493,4737.318029
182.085321,5286.058936,3627.009116,4811.338623
182.085630,6358.592633,3552.988522,5255.462188
182.085938,4903.011187,3701.029710,5107.421000
182.086246,3907.087040,3552.988522,5329.482782
182.086554,3447.429741,2886.803174,6735.874072
182.086862,2604.724693,2294.638420,7031.956449
182.087170,1225.752797,1776.494261,7624.121203
182.087478,995.924147,1480.411884,9104.533087
182.087786,306.438199,888.247130,9252.574275
182.088095,-612.876398,-0.000000,10214.842000
182.088403,-153.219100,222.061783,11251.130318
182.088711,-1225.752797,-888.247130,11103.089130
182.089019,-1608.800546,-1258.350101,11769.274478
182.089327,-2298.286494,-2072.576638,13027.624579
182.089635,-2757.943793,-2960.823768,14211.954086
182.089943,-4060.306139,-3404.947333,14804.118840
182.090252,-4673.182538,-3923.091493,14285.974681
182.090560,-4213.525239,-4219.173869,14434.015869
182.090868,-3064.381992,-3997.112087,13323.706956
182.091176,-1915.238745,-2738.761985,11991.336260
182.091484,306.438199,-1628.453072,10584.944971
182.091792,1378.971896,-74.020594,8068.244768
182.092100,3907.087040,1110.308913,8068.244768
182.092409,5898.935335,2368.659014,6661.853478
182.092717,4979.620737,3849.070898,4145.153275
182.093025,5898.935335,3256.906145,5625.565159
182.093333,6818.249932,2960.823768,5403.503377
182.093641,4366.744339,4441.235652,4663.297435
182.093949,3907.087040,3404.947333,5403.503377
182.094257,3370.820191,2960.823768,6217.729913
182.094566,2298.286494,2442.679609,7105.977043
182.094874,995.924147,2220.617826,7550.100608
182.095182,1072.533697,1776.494261,8882.471304
182.095490,229.828649,814.226536,9548.656652
182.095798,-919.314598,296.082377,10510.924376
182.096106,-612.876398,-148.041188,11769.274478
182.096414,-1915.238745,-1110.308913,11695.253884
182.096722,-3294.210641,-1850.514855,13027.624579
182.097031,-3217.601092,-2738.761985,14063.912898
182.097339,-4136.915689,-3256.906145,14878.139434
182.097647,-4979.620737,-3923.091493,14730.098246
182.097955,-4596.572988,-3923.091493,15322.262999
182.098263,-3983.696590,-4293.194464,14804.118840
182.098571,-3370.820191,-3478.967927,12657.521608
182.098879,-1608.800546,-2368.659014,11843.295072
182.099188,229.828649,-1110.308913,9918.759623
182.099496,1378.971896,296.082377,8290.306550
182.099804,4060.306139,1850.514855,8290.306550
182.100112,5209.449386,2960.823768,5995.668130
182.100420,5745.716235,3849.070898,5181.441594
182.100728,5745.716235,3849.070898,5329.482782
182.101036,5822.325785,3701.029710,5181.441594
182.101345,4903.011187,3404.947333,4811.338623
182.101653,3983.696590,3775.050304,5033.400406
182.101961,3677.258390,3108.864956,5995.668130
182.102269,2298.286494,2294.638420,7031.956449
182.102577,1455.581446,2294.638420,7624.121203
182.102885,1149.143247,1480.411884,8512.368333
182.103193,383.047749,370.102971,9400.615463
182.103502,-766.095498,592.164754,10288.862594
182.103810,-612.876398,-148.041188,11029.068536
182.104118,-995.924147,-666.185348,11991.336260
182.104426,-2145.067394,-1258.350101,12065.356855
182.104734,-2451.505594,-2146.597232,13249.686362
182.105042,-3064.381992,-3478.967927,14508.036463
182.105350,-3983.696590,-4145.153275,14952.160028
182.105658,-4519.963438,-4145.153275,14434.015869
182.105967,-3140.991542,-4219.173869,14508.036463
182.106275,-2987.772442,-4145.153275,13397.727550
182.106583,-1685.410096,-2664.741391,11547.212695
182.106891,76.609550,-1554.432478,10066.800811
182.107199,1455.581446,296.082377,7994.224174
182.107507,3677.258390,1702.473667,8142.265362
182.107815,5822.325785,2590.720797,6735.874072
182.108124,5209.449386,3849.070898,4515.256246
182.108432,6052.154434,3256.906145,5551.544565
182.108740,6511.811733,3627.009116,5255.462188
182.109048,4979.620737,3997.112087,4959.379811
182.109356,3983.696590,3627.009116,5329.482782
182.109664,3370.820191,3330.926739,6143.709319
182.109972,2451.505594,2738.761985,7105.977043
182.110281,1685.410096,2368.659014,7031.956449
182.110589,1149.143247,1702.473667,8512.368333
182.110897,612.876398,888.247130,9178.553681
182.111205,-766.095498,148.041188,10436.903782
182.111513,-689.485948,-370.102971,11547.212695
182.111821,-1685.410096,-1184.329507,11843.295072
182.112129,-2834.553343,-1850.514855,12879.583391
182.112437,-4060.306139,-2664.741391,13471.748144
182.112746,-3753.867940,-3627.009116,15248.242405
182.113054,-4903.011187,-4441.235652,15026.180623
182.113362,-4290.134789,-3923.091493,14730.098246
182.113670,-3677.258390,-4293.194464,14359.995275
182.113978,-3064.381992,-3552.988522,13101.645173
182.114286,-1608.800546,-2442.679609,11843.295072
182.114594,536.266849,-888.247130,10214.842000
182.114903,1302.362347,370.102971,8216.285956
182.115211,3677.258390,1628.453072,8586.388927
182.115519,5286.058936,2442.679609,6365.771101
182.115827,5132.839837,4219.173869,5033.400406
182.116135,5745.716235,3552.988522,5403.503377
182.116443,6052.154434,4219.173869,4737.318029
182.116751,5132.839837,4293.194464,4737.318029
182.117060,4290.134789,3627.009116,5181.441594
182.117368,3370.820191,3034.844362,6143.709319
182.117676,2298.286494,2294.638420,6957.935855
182.117984,1838.629195,1998.556043,7402.059420
182.118292,1072.533697,1184.329507,8956.491898
182.118600,-153.219100,814.226536,9770.718434
182.118908,-536.266849,740.205942,10362.883188
182.119217,-612.876398,-74.020594,11325.150913
182.119525,-1378.971896,-1258.350101,12065.356855
182.119833,-2145.067394,-1702.473667,12287.418637
182.120141,-3217.601092,-2590.720797,13323.706956
182.120449,-2834.553343,-3478.967927,14656.077652
182.120757,-4443.353888,-4219.173869,14582.057057
182.121065,-4673.182538,-3627.009116,14656.077652
182.121373,-3907.087040,-4293.194464,14211.954086
182.121682,-3064.381992,-3923.091493,13027.624579
182.121990,-1915.238745,-2886.803174,11917.315666
182.122298,306.438199,-1184.329507,10436.903782
182.122606,1378.971896,444.123565,8438.347739
182.122914,4060.306139,1850.514855,8882.471304
182.123222,5439.278036,2738.761985,6439.791695
182.123530,5132.839837,4145.153275,4515.256246
182.123839,6205.373534,3330.926739,5773.606348
182.124147,6435.202183,3775.050304,4663.297435
182.124455,5132.839837,4293.194464,5033.400406
182.124763,4443.353888,3404.947333,4737.318029
182.125071,3983.696590,3034.844362,6217.729913
182.125379,2911.162892,3108.864956,6809.894666
182.125687,1838.629195,2220.617826,7254.018232
182.125996,612.876398,1628.453072,8734.430116
182.126304,-612.876398,518.144159,9844.739029
182.126612,-842.705048,-0.000000,11325.150913
182.126920,-1608.800546,-962.267725,11473.192101
182.127228,-2528.115143,-1924.535449,12287.418637
182.127536,-3140.991542,-2442.679609,13249.686362
182.127844,-3294.210641,-3404.947333,14878.139434
182.128153,-4519.963438,-3552.988522,15322.262999
182.128461,-4749.792088,-3552.988522,14508.036463
182.128769,-4060.306139,-3478.967927,14359.995275
182.129077,-3370.820191,-3923.091493,13989.892304
182.129385,-2604.724693,-3256.906145,12583.501014
182.129693,-229.828649,-2516.700203,11177.109724
182.130001,229.828649,-740.205942,9104.533087
182.130309,2528.115143,962.267725,8956.491898
182.130618,5209.449386,1924.535449,7550.100608
182.130926,5209.449386,3849.070898,4663.297435
182.131234,5822.325785,3552.988522,4885.359217
182.131542,6818.249932,3330.926739,5107.421000
182.131850,5822.325785,4219.173869,4737.318029
182.132158,4979.620737,3330.926739,4885.359217
182.132466,4366.744339,2664.741391,6217.729913
182.132775,3370.820191,2146.597232,7179.997637
182.133083,1302.362347,2072.576638,7105.977043
182.133391,1762.019645,2072.576638,8068.244768
182.133699,766.095498,1258.350101,8808.450710
182.134007,-306.438199,592.164754,9548.656652
182.134315,-536.266849,814.226536,10658.965565
182.134623,0.000000,-814.226536,11251.130318
182.134932,-1455.581446,-888.247130,12065.356855
182.135240,-1072.533697,-888.247130,11991.336260
182.135548,-2451.505594,-2294.638420,13027.624579
182.135856,-3370.820191,-2886.803174,14582.057057
182.136164,-3983.696590,-3256.906145,14211.954086
182.136472,-4290.134789,-3923.091493,14211.954086
182.136780,-3600.648841,-4293.194464,14063.912898
182.137088,-3370.820191,-3701.029710,12805.562797
182.137397,-1378.971896,-3108.864956,12139.377449
182.137705,766.095498,-1480.411884,10584.944971
182.138013,1455.581446,148.041188,8660.409521
182.138321,4749.792088,1628.453072,8808.450710
182.138629,5286.058936,2960.823768,5477.523971
182.138937,5592.497135,3849.070898,4737.318029
182.139245,6894.859482,3775.050304,5699.585753
182.139553,5669.106685,3849.070898,4589.276840
182.139862,4826.401637,3849.070898,5329.482782
182.140170,4290.134789,3997.112087,5625.565159
182.140478,3370.820191,3256.906145,6809.894666
182.140786,1685.410096,2738.761985,6661.853478
182.141094,1225.752797,2294.638420,7624.121203
182.141402,0.000000,1110.308913,9400.615463
182.141710,-1072.533697,-148.041188,10584.944971
182.142018,-1685.410096,-1036.288319,11991.336260
182.142326,-1762.019645,-1258.350101,12065.356855
182.142635,-2987.772442,-1628.453072,12953.603985
182.142943,-3753.867940,-2294.638420,13397.727550
182.143251,-3600.648841,-2368.659014,14434.015869
182.143559,-4213.525239,-3034.844362,14804.118840
182.143867,-4749.792088,-2812.782580,14211.954086
182.144175,-3983.696590,-3404.947333,14211.954086
182.144483,-4136.915689,-3404.947333,13989.892304
182.144791,-2528.115143,-3182.885551,12361.439231
182.145099,-612.876398,-2220.617826,10436.903782
182.145408,919.314598,-666.185348,8290.306550
182.145716,2911.162892,962.267725,8586.388927
182.146024,5132.839837,2368.659014,7550.100608
182.146332,4979.620737,3256.906145,4811.338623
182.146640,5362.668486,3330.926739,4885.359217
182.146948,6971.469032,3108.864956,5329.482782
182.147256,5515.887586,3330.926739,4737.318029
182.147564,4749.792088,3330.926739,5403.503377
182.147872,3830.477490,2442.679609,5921.647536
182.148181,2681.334243,2146.597232,7254.018232
182.148489,1225.752797,1702.473667,7179.997637
182.148797,1149.143247,1702.473667,8364.327145
182.149105,0.000000,592.164754,9474.636058
182.149413,-1149.143247,444.123565,10436.903782
182.149721,-612.876398,-0.000000,11103.089130
182.150029,-1225.752797,-148.041188,11399.171507
182.150337,-1532.190996,-1036.288319,11843.295072
182.150645,-2145.067394,-1036.288319,11843.295072
182.150953,-1991.848295,-1998.556043,13323.706956
182.151262,-2834.553343,-3034.844362,14137.933492
182.151570,-3524.039291,-3256.906145,13767.830521
182.151878,-3447.429741,-4145.153275,14063.912898
182.152186,-3600.648841,-4293.194464,13249.686362
182.152494,-2145.067394,-3775.050304,12435.459826
182.152802,-689.485948,-2886.803174,11029.068536
182.153110,612.876398,-1036.288319,9400.615463
182.153418,2528.115143,666.185348,8512.368333
182.153726,5209.449386,1628.453072,7476.080014
182.154035,5439.278036,3330.926739,4737.318029
182.154343,6588.421283,3627.009116,5847.626942
182.154651,6435.202183,3330.926739,4737.318029
182.154959,5592.497135,3923.091493,4441.235652
182.155267,4443.353888,3775.050304,5033.400406
182.155575,3677.258390,3552.988522,5921.647536
182.155883,2757.943793,3330.926739,6365.771101
182.156191,1532.190996,2738.761985,7105.977043
182.156499,76.609550,1554.432478,8734.430116
182.156808,-842.705048,592.164754,9992.780217
182.157116,-1302.362347,-148.041188,11251.130318
182.157424,-1915.238745,-666.185348,12065.356855
182.157732,-2451.505594,-1480.411884,12213.398043
182.158040,-3524.039291,-1702.473667,12435.459826
182.158348,-3294.210641,-2072.576638,13619.789333
182.158656,-3217.601092,-2960.823768,14582.057057
182.158964,-4443.353888,-3108.864956,14211.954086
182.159272,-3830.477490,-3404.947333,14211.954086
182.159581,-3677.258390,-3997.112087,14211.954086
182.159889,-3140.991542,-3404.947333,13027.624579
182.160197,-1915.238745,-2368.659014,11991.336260
182.160505,0.000000,-1480.411884,10214.842000
182.160813,995.924147,222.061783,8216.285956
182.161121,3524.039291,1702.473667,8068.244768
182.161429,5209.449386,2516.700203,6957.935855
182.161737,5209.449386,3404.947333,4737.318029
182.162045,5286.058936,2960.823768,5625.565159
182.162353,6435.202183,3034.844362,5329.482782
182.162662,5286.058936,3256.906145,4885.359217
182.162970,3983.696590,2812.782580,5477.523971
182.163278,3217.601092,2368.659014,6661.853478
182.163586,2145.067394,1628.453072,7994.224174
182.163894,1302.362347,1036.288319,7846.182985
182.164202,612.876398,888.247130,8808.450710
182.164510,0.000000,222.061783,9918.759623
182.164818,-689.485948,370.102971,10362.883188
182.165126,-612.876398,592.164754,10807.006753
182.165435,-919.314598,-74.020594,11325.150913
182.165743,-1455.581446,-592.164754,11325.150913
182.166051,-1532.190996,-888.247130,11769.274478
182.166359,-2068.457845,-2146.597232,13471.748144
182.166667,-2757.943793,-3034.844362,13989.892304
182.166975,-3524.039291,-3627.009116,13915.871710
182.167283,-3907.087040,-3775.050304,14211.954086
182.167591,-3217.601092,-4219.173869,13175.665768
182.167899,-2298.286494,-3552.988522,12509.480420
182.168208,-689.485948,-2442.679609,10955.047942
182.168516,1302.362347,-962.267725,8882.471304
182.168824,3294.210641,666.185348,8068.244768
182.169132,6052.154434,1924.535449,7476.080014
182.169440,5132.839837,3182.885551,4737.318029
182.169748,6128.763984,3404.947333,5033.400406
182.170056,6665.030833,3997.112087,4885.359217
182.170364,5669.106685,4071.132681,4737.318029
182.170672,4290.134789,4071.132681,5625.565159
182.170981,3830.477490,3478.967927,6587.832884
182.171289,3140.991542,2960.823768,7254.018232
182.171597,995.924147,2516.700203,7624.121203
182.171905,383.047749,1406.391290,8438.347739
182.172213,-919.314598,518.144159,9992.780217
182.172521,-1225.752797,-0.000000,11103.089130
182.172829,-1378.971896,-370.102971,11695.253884
182.173137,-2298.286494,-962.267725,11991.336260
182.173445,-2604.724693,-1406.391290,12361.439231
182.173753,-2834.553343,-2072.576638,12731.542202
182.174062,-2757.943793,-2590.720797,14582.057057
182.174370,-3983.696590,-3404.947333,14508.036463
182.174678,-3907.087040,-2960.823768,13915.871710
182.174986,-3677.258390,-3330.926739,14063.912898
182.175294,-2987.772442,-3404.947333,13101.645173
182.175602,-1762.019645,-2294.638420,11843.295072
182.175910,153.219100,-1332.370696,10362.883188
182.176218,1225.752797,-0.000000,8290.306550
182.176526,3600.648841,1184.329507,8438.347739
182.176835,6052.154434,2294.638420,7105.977043
182.177143,4596.572988,3404.947333,5033.400406
182.177451,5898.935335,3034.844362,5773.606348
182.177759,5898.935335,3108.864956,5329.482782
182.178067,4903.011187,3552.988522,5181.441594
182.178375,3830.477490,2960.823768,5403.503377
182.178683,2987.772442,2590.720797,6661.853478
182.178991,2451.505594,1480.411884,7846.182985
182.179299,919.314598,1258.350101,7994.224174
182.179608,0.000000,1110.308913,9178.553681
182.179916,-842.705048,444.123565,9622.677246
182.180224,-1072.533697,444.123565,10658.965565
182.180532,-842.705048,370.102971,10881.027347
182.180840,-1072.533697,-74.020594,11399.171507
182.181148,-1608.800546,-444.123565,11843.295072
182.181456,-2068.457845,-1332.370696,11843.295072
182.181764,-2068.457845,-1924.535449,13619.789333
182.182072,-3140.991542,-2590.720797,13841.851115
182.182381,-3524.039291,-2960.823768,13471.748144
182.182689,-3753.867940,-3404.947333,13767.830521
182.182997,-2834.553343,-3775.050304,13175.665768
182.183305,-1685.410096,-3330.926739,11917.315666
182.183613,-842.705048,-2146.597232,10214.842000
182.183921,1915.238745,-1036.288319,9474.636058
182.184229,3217.601092,666.185348,7846.182985
182.184537,4903.011187,1702.473667,7846.182985
182.184845,5132.839837,2812.782580,4737.318029
182.185153,5898.935335,3108.864956,5625.565159
182.185462,6435.202183,3330.926739,5921.647536
182.185770,4979.620737,4071.132681,4737.318029
182.186078,4060.306139,3701.029710,5995.668130
182.186386,3140.991542,3256.906145,6291.750507
182.186694,2604.724693,2664.741391,7179.997637
182.187002,995.924147,1850.514855,7179.997637
182.187310,842.705048,1258.350101,8660.409521
182.187618,-842.705048,370.102971,9474.636058
182.187926,-1225.752797,-222.061783,11177.109724
182.188235,-2145.067394,-814.226536,12065.356855
182.188543,-2528.115143,-1258.350101,11547.212695
182.188851,-2528.115143,-1850.514855,12731.542202
182.189159,-3447.429741,-1406.391290,13471.748144
182.189467,-3524.039291,-2590.720797,13915.871710
182.189775,-3524.039291,-2812.782580,14211.954086
182.190083,-4136.915689,-2516.700203,13915.871710
182.190391,-3217.601092,-2960.823768,13841.851115
182.190699,-2681.334243,-2664.741391,12361.439231
182.191008,-842.705048,-1406.391290,11177.109724
182.191316,536.266849,-222.061783,9992.780217
182.191624,2145.067394,814.226536,8512.368333
182.191932,4443.353888,1480.411884,7698.141797
182.192240,5362.668486,2664.741391,6365.771101
182.192548,4673.182538,3108.864956,5181.441594
182.192856,5592.497135,2220.617826,6365.771101
182.193164,4673.182538,2442.679609,5625.565159
182.193472,4596.572988,2590.720797,5847.626942
182.193781,4060.306139,2442.679609,6069.688724
182.194089,3064.381992,2146.597232,6735.874072
182.194397,1838.629195,1332.370696,7846.182985
182.194705,1072.533697,1628.453072,8290.306550
182.195013,229.828649,1036.288319,9252.574275
182.195321,-536.266849,518.144159,9696.697840
182.195629,-995.924147,814.226536,10584.944971
182.195937,76.609550,592.164754,10436.903782
182.196245,-842.705048,-0.000000,11621.233289
182.196553,-1378.971896,-518.144159,11547.212695
182.196862,-1685.410096,-666.185348,11843.295072
182.197170,-2374.896044,-2072.576638,13175.665768
182.197478,-2911.162892,-2812.782580,13397.727550
182.197786,-3370.820191,-3034.844362,13249.686362
182.198094,-3217.601092,-3923.091493,13693.809927
182.198402,-3217.601092,-3849.070898,12731.542202
182.198710,-2068.457845,-2812.782580,12213.398043
182.199018,459.657299,-1850.514855,10658.965565
182.199326,1915.238745,-666.185348,8660.409521
182.199635,3064.381992,1036.288319,7994.224174
182.199943,5056.230287,1702.473667,7476.080014
182.200251,4749.792088,2960.823768,5329.482782
182.200559,5286.058936,3552.988522,5181.441594
182.200867,5669.106685,3775.050304,5699.585753
182.201175,4979.620737,3775.050304,5329.482782
182.201483,4290.134789,3627.009116,6069.688724
182.201791,3600.648841,3034.844362,6217.729913
182.202099,2374.896044,2590.720797,6883.915261
182.202408,1072.533697,1850.514855,7402.059420
182.202716,229.828649,740.205942,9178.553681
182.203024,-766.095498,-0.000000,9918.759623
182.203332,-1915.238745,-814.226536,10807.006753
182.203640,-1685.410096,-1110.308913,11843.295072
182.203948,-1762.019645,-1406.391290,11843.295072
182.204256,-2528.115143,-1406.391290,12213.398043
182.204564,-2911.162892,-1702.473667,13101.645173
182.204872,-2987.772442,-2368.659014,13989.892304
182.205181,-3753.867940,-2368.659014,13841.851115
182.205489,-3600.648841,-2664.741391,13841.851115
182.205797,-3217.601092,-2960.823768,13767.830521
182.206105,-2757.943793,-2812.782580,12805.562797
182.206413,-612.876398,-1998.556043,11621.233289
182.206721,229.828649,-888.247130,9696.697840
182.207029,1608.800546,370.102971,7846.182985
182.207337,4060.306139,1406.391290,7846.182985
182.207645,5209.449386,2368.659014,6513.812290
182.207954,5056.230287,2368.659014,5403.503377
182.208262,5898.935335,2368.659014,6439.791695
182.208570,5056.230287,2072.576638,5551.544565
182.208878,4749.792088,2664.741391,5699.585753
182.209186,3677.258390,2738.761985,6143.709319
182.209494,2911.162892,2220.617826,7105.977043
182.209802,1838.629195,1480.411884,7772.162391
182.210110,766.095498,1480.411884,8364.327145
182.210418,229.828649,814.226536,9474.636058
182.210726,-229.828649,814.226536,9622.677246
182.211035,-995.924147,444.123565,10436.903782
182.211343,-536.266849,814.226536,10584.944971
182.211651,-306.438199,370.102971,11103.089130
182.211959,-1225.752797,-0.000000,11399.171507
182.212267,-1532.190996,-740.205942,11917.315666
182.212575,-2298.286494,-1924.535449,13027.624579
182.212883,-2757.943793,-2886.803174,13915.871710
182.213191,-3294.210641,-3256.906145,13915.871710
182.213499,-3294.210641,-3182.885551,13693.809927
182.213808,-2987.772442,-3849.070898,13323.706956
182.214116,-1378.971896,-2886.803174,11843.295072
182.214424,153.219100,-1776.494261,10732.986159
182.214732,1762.019645,-296.082377,9178.553681
182.215040,3140.991542,814.226536,8142.265362
182.215348,5132.839837,1850.514855,7105.977043
182.215656,4903.011187,2664.741391,5921.647536
182.215964,5669.106685,3627.009116,5625.565159
182.216272,6358.592633,3552.988522,5329.482782
182.216581,5132.839837,4219.173869,5033.400406
182.216889,4290.134789,3701.029710,5773.606348
182.217197,3447.429741,3330.926739,6291.750507
182.217505,2451.505594,2516.700203,7031.956449
182.217813,919.314598,1850.514855,7328.038826
182.218121,0.000000,888.247130,9474.636058
182.218429,-1378.971896,-296.082377,10658.965565
182.218737,-2221.676944,-1036.288319,11769.274478
182.219045,-2451.505594,-1554.432478,12509.480420
182.219354,-3064.381992,-1776.494261,12287.418637
182.219662,-2987.772442,-1702.473667,12435.459826
182.219970,-2604.724693,-1628.453072,13545.768739
182.220278,-2681.334243,-2294.638420,13989.892304
182.220586,-2834.553343,-2072.576638,13471.748144
182.220894,-2911.162892,-2368.659014,13175.665768
182.221202,-2221.676944,-2590.720797,12435.459826
182.221510,-1838.629195,-1998.556043,11547.212695
182.221818,-689.485948,-1258.350101,10881.027347
182.222126,766.095498,-370.102971,9326.594869
182.222435,1608.800546,962.267725,7698.141797
182.222743,3447.429741,1258.350101,8142.265362
182.223051,4290.134789,1406.391290,6883.915261
182.223359,4749.792088,2590.720797,5773.606348
182.223667,4979.620737,1850.514855,6513.812290
182.223975,4673.182538,2294.638420,5995.668130
182.224283,3983.696590,2368.659014,6365.771101
182.224591,3370.820191,2220.617826,6735.874072
182.224899,2911.162892,1924.535449,7476.080014
182.225208,2145.067394,1110.308913,8438.347739
182.225516,1072.533697,1036.288319,8438.347739
182.225824,536.266849,962.267725,9474.636058
182.226132,-459.657299,222.061783,9770.718434
182.226440,-612.876398,370.102971,10288.862594
182.226748,-842.705048,370.102971,10214.842000
182.227056,-919.314598,-0.000000,11177.109724
182.227364,-842.705048,-222.061783,11251.130318
182.227672,-1378.971896,-814.226536,11769.274478
182.227981,-1838.629195,-1850.514855,12805.562797
182.228289,-2451.505594,-2442.679609,13249.686362
182.228597,-2757.943793,-2516.700203,13249.686362
182.228905,-2987.772442,-2960.823768,13101.645173
182.229213,-2298.286494,-3627.009116,12731.542202
182.229521,-1378.971896,-2812.782580,11843.295072
182.229829,229.828649,-1702.473667,10510.924376
182.230137,1838.629195,-592.164754,9474.636058
182.230445,3370.820191,962.267725,8290.306550
182.230754,4749.792088,1036.288319,6957.935855
182.231062,5132.839837,2368.659014,5699.585753
182.231370,5592.497135,3034.844362,5699.585753
182.231678,5745.716235,3627.009116,5181.441594
182.231986,4979.620737,3775.050304,5107.421000
182.232294,4903.011187,3256.906145,5995.668130
182.232602,2911.162892,3256.906145,6883.915261
182.232910,1915.238745,2812.782580,7846.182985
182.233218,1072.533697,1776.494261,8216.285956
182.233526,-383.047749,1036.288319,9844.739029
182.233835,-1838.629195,148.041188,11103.089130
182.234143,-1915.238745,-666.185348,12065.356855
182.234451,-2451.505594,-962.267725,12509.480420
182.234759,-2757.943793,-1110.308913,12583.501014
182.235067,-2528.115143,-1258.350101,12657.521608
182.235375,-2451.505594,-1406.391290,13249.686362
182.235683,-2528.115143,-1998.556043,13175.665768
182.235991,-2987.772442,-2072.576638,12583.501014
182.236299,-2681.334243,-2146.597232,12435.459826
182.236608,-2374.896044,-2368.659014,12139.377449
182.236916,-1838.629195,-2072.576638,11399.171507
182.237224,-306.438199,-1480.411884,10658.965565
182.237532,536.266849,-1036.288319,9474.636058
182.237840,1685.410096,740.205942,8290.306550
182.238148,3064.381992,1332.370696,8364.327145
182.238456,4749.792088,1776.494261,7402.059420
182.238764,3830.477490,2442.679609,6143.709319
182.239072,4826.401637,1998.556043,6809.894666
182.239381,4826.401637,1850.514855,6365.771101
182.239689,3753.867940,1776.494261,6291.750507
182.239997,3294.210641,1628.453072,6957.935855
182.240305,2681.334243,1110.308913,7550.100608
182.240613,1302.362347,1036.288319,8438.347739
182.240921,766.095498,962.267725,8216.285956
182.241229,153.219100,1036.288319,9104.533087
182.241537,-306.438199,666.185348,9474.636058
182.241845,-689.485948,962.267725,9992.780217
182.242153,0.000000,592.164754,10066.800811
182.242461,-766.095498,148.041188,11177.109724
182.242769,-1072.533697,-0.000000,11473.192101
182.243077,-1532.190996,-666.185348,12065.356855
182.243385,-2451.505594,-1850.514855,12805.562797
182.243694,-3064.381992,-2442.679609,13323.706956
182.244002,-2911.162892,-3034.844362,13323.706956
182.244310,-3064.381992,-3627.009116,13027.624579
182.244618,-3447.429741,-3552.988522,12509.480420
182.244926,-1455.581446,-2886.803174,11473.192101
182.245234,-306.438199,-1850.514855,10066.800811
182.245542,2068.457845,-666.185348,8956.491898
182.245850,3217.601092,1184.329507,7994.224174
182.246158,4903.011187,2146.597232,7105.977043
182.246466,5592.497135,2960.823768,5329.482782
182.246774,6052.154434,3701.029710,5477.523971
182.247082,6205.373534,3627.009116,5329.482782
182.247390,4903.011187,3478.967927,5847.626942
182.247698,3370.820191,3108.864956,6809.894666
182.248006,3294.210641,2368.659014,7254.018232
182.248314,1991.848295,1628.453072,7920.203579
182.248623,689.485948,1554.432478,8586.388927
182.248931,0.000000,814.226536,9474.636058
182.249239,-1302.362347,-0.000000,10510.924376
182.249547,-1455.581446,-222.061783,11399.171507
182.249855,-1762.019645,-370.102971,12139.377449
182.250163,-1532.190996,-666.185348,11621.233289
182.250471,-1991.848295,-962.267725,11917.315666
182.250779,-1378.971896,-1406.391290,12287.418637
182.251087,-2451.505594,-2146.597232,13619.789333
182.251395,-2987.772442,-2368.659014,13323.706956
182.251703,-3294.210641,-2368.659014,13175.665768
182.252011,-2834.553343,-2664.741391,12879.583391
182.252319,-1991.848295,-2960.823768,12287.418637
182.252627,-1149.143247,-2220.617826,10658.965565
182.252935,459.657299,-814.226536,9770.718434
182.253243,1838.629195,-0.000000,9030.512492
182.253552,2987.772442,1184.329507,7994.224174
182.253860,4596.572988,1702.473667,7328.038826
182.254168,4596.572988,2960.823768,5255.462188
182.254476,5286.058936,2664.741391,6143.709319
182.254784,5515.887586,2812.782580,5403.503377
182.255092,4136.915689,2664.741391,5255.462188
182.255400,3677.258390,2220.617826,6809.894666
182.255708,2451.505594,1628.453072,7105.977043
182.256016,1532.190996,1332.370696,8438.347739
182.256324,306.438199,1332.370696,8216.285956
182.256632,612.876398,888.247130,9252.574275
182.256940,0.000000,740.205942,9104.533087
182.257248,-383.047749,814.226536,10288.862594
182.257556,-153.219100,814.226536,10881.027347
182.257864,-536.266849,296.082377,10955.047942
182.258172,-1072.533697,-370.102971,11621.233289
182.258481,-2068.457845,-1406.391290,11843.295072
182.258789,-2528.115143,-2072.576638,13471.748144
182.259097,-3677.258390,-3034.844362,14063.912898
182.259405,-3830.477490,-3552.988522,13841.851115
182.259713,-3907.087040,-3849.070898,13841.851115
182.260021,-2987.772442,-3849.070898,13323.706956
182.260329,-2068.457845,-3034.844362,12139.377449
182.260637,76.609550,-1850.514855,10436.903782
182.260945,1608.800546,-74.020594,8956.491898
182.261253,2987.772442,1110.308913,7920.203579
182.261561,4903.011187,2368.659014,7105.977043
182.261869,5209.449386,3552.988522,5551.544565
182.262177,5362.668486,4145.153275,4367.215058
182.262485,6052.154434,4367.215058,4737.318029
182.262793,5898.935335,4071.132681,5329.482782
182.263101,4749.792088,3552.988522,6217.729913
182.263410,3524.039291,2812.782580,6661.853478
182.263718,2298.286494,2072.576638,7772.162391
182.264026,995.924147,1406.391290,8142.265362
182.264334,0.000000,666.185348,9104.533087
182.264642,-689.485948,148.041188,10214.842000
182.264950,-1915.238745,-296.082377,11325.150913
182.265258,-1762.019645,-888.247130,12139.377449
182.265566,-1915.238745,-1184.329507,12065.356855
182.265874,-2451.505594,-1258.350101,12287.418637
182.266182,-2757.943793,-1776.494261,12953.603985
182.266490,-3064.381992,-2220.617826,14063.912898
182.266798,-3140.991542,-2886.803174,13989.892304
182.267106,-2987.772442,-2960.823768,13471.748144
182.267414,-2604.724693,-3108.864956,13471.748144
182.267722,-2374.896044,-2442.679609,12435.459826
182.268030,-1072.533697,-1850.514855,11251.130318
182.268338,383.047749,-1036.288319,9918.759623
182.268647,1455.581446,370.102971,7920.203579
182.268955,3447.429741,1406.391290,8068.244768
182.269263,4673.182538,1998.556043,6735.874072
182.269571,3983.696590,2664.741391,5033.400406
182.269879,5286.058936,2368.659014,6291.750507
182.270187,5515.887586,2442.679609,5181.441594
182.270495,4673.182538,2664.741391,5477.523971
182.270803,3447.429741,1924.535449,6143.709319
182.271111,2528.115143,1702.473667,7105.977043
182.271419,2068.457845,1480.411884,7772.162391
182.271727,995.924147,1924.535449,7920.203579
182.272035,842.705048,1554.432478,8956.491898
182.272343,536.266849,1480.411884,8734.430116
182.272651,459.657299,1554.432478,9918.759623
182.272959,0.000000,962.267725,10510.924376
182.273267,-689.485948,-0.000000,11251.130318
182.273576,-1378.971896,-814.226536,12361.439231
182.273884,-2451.505594,-1702.473667,12065.356855
182.274192,-3370.820191,-2664.741391,13767.830521
182.274500,-3830.477490,-4293.194464,14952.160028
182.274808,-3983.696590,-4293.194464,14730.098246
182.275116,-4290.134789,-4441.235652,14285.974681
182.275424,-3140.991542,-4589.276840,13323.706956
182.275732,-2221.676944,-3552.988522,12361.439231
182.276040,-306.438199,-1924.535449,10658.965565
182.276348,1455.581446,-0.000000,8808.450710
182.276656,3753.867940,1702.473667,8660.409521
182.276964,5745.716235,2886.803174,6439.791695
182.277272,5592.497135,4811.338623,4737.318029
182.277580,6894.859482,4071.132681,5403.503377
182.277888,6665.030833,4663.297435,4663.297435
182.278196,5515.887586,4737.318029,4959.379811
182.278505,4366.744339,3627.009116,5551.544565
182.278813,3524.039291,3034.844362,6587.832884
182.279121,1915.238745,1998.556043,7254.018232
182.279429,1149.143247,1998.556043,7920.203579
182.279737,153.219100,740.205942,8734.430116
182.280045,-995.924147,-0.000000,9992.780217
182.280353,-1532.190996,-0.000000,11399.171507
182.280661,-1762.019645,-740.205942,12435.459826
182.280969,-2451.505594,-1332.370696,12583.501014
182.281277,-2834.553343,-1702.473667,12509.480420
182.281585,-3294.210641,-1998.556043,13101.645173
182.281893,-2911.162892,-2590.720797,14656.077652
182.282201,-4136.915689,-2886.803174,13841.851115
182.282509,-4060.306139,-2516.700203,13767.830521
182.282817,-3217.601092,-3256.906145,13619.789333
182.283125,-2451.505594,-2590.720797,12213.398043
182.283434,-1225.752797,-1850.514855,11325.150913
182.283742,383.047749,-814.226536,9918.759623
182.284050,1608.800546,518.144159,8068.244768
182.284358,3983.696590,1406.391290,8068.244768
182.284666,5132.839837,2368.659014,6735.874072
182.284974,5056.230287,3108.864956,5403.503377
182.285282,5439.278036,2220.617826,6143.709319
182.285590,5439.278036,2294.638420,5551.544565
182.285898,4366.744339,2368.659014,5995.668130
182.286206,3600.648841,1924.535449,6217.729913
182.286514,3217.601092,2220.617826,7254.018232
182.286822,1991.848295,2146.597232,7105.977043
182.287130,1225.752797,1924.535449,7179.997637
182.287438,1455.581446,2368.659014,7994.224174
182.287746,766.095498,1850.514855,8142.265362
182.288054,306.438199,1702.473667,9474.636058
182.288363,0.000000,1110.308913,10214.842000
182.288671,-1378.971896,-74.020594,11547.212695
182.288979,-1608.800546,-1184.329507,12287.418637
182.289287,-2528.115143,-2590.720797,12879.583391
182.289595,-3524.039291,-3182.885551,14285.974681
182.289903,-4519.963438,-4441.235652,15248.242405
182.290211,-4519.963438,-4515.256246,14359.995275
182.290519,-3983.696590,-4663.297435,14285.974681
182.290827,-2757.943793,-4663.297435,13323.706956
182.291135,-1225.752797,-3108.864956,12139.377449
182.291443,612.876398,-1554.432478,10066.800811
182.291751,2451.505594,666.185348,8734.430116
182.292059,4596.572988,2146.597232,7476.080014
182.292367,5515.887586,3182.885551,5921.647536
182.292675,5975.544884,4293.194464,5181.441594
182.292983,6281.983084,4071.132681,5551.544565
182.293292,6281.983084,4293.194464,4811.338623
182.293600,5209.449386,4515.256246,5403.503377
182.293908,3753.867940,3627.009116,5995.668130
182.294216,3140.991542,3182.885551,6809.894666
182.294524,2068.457845,2442.679609,7254.018232
182.294832,1225.752797,2072.576638,7994.224174
182.295140,459.657299,1406.391290,8660.409521
182.295448,-919.314598,296.082377,9770.718434
182.295756,-1225.752797,-0.000000,11769.274478
182.296064,-1302.362347,-592.164754,11917.315666
182.296372,-2528.115143,-1332.370696,12583.501014
182.296680,-3064.381992,-2072.576638,12953.603985
182.296988,-3370.820191,-2368.659014,13397.727550
182.297296,-3600.648841,-2960.823768,15100.201217
182.297604,-4136.915689,-3034.844362,14359.995275
182.297912,-4213.525239,-2738.761985,14063.912898
182.298221,-2911.162892,-3404.947333,13989.892304
182.298529,-2451.505594,-3404.947333,12287.418637
182.298837,-1225.752797,-1850.514855,11695.253884
182.299145,459.657299,-1332.370696,10140.821405
182.299453,1608.800546,296.082377,7920.203579
182.299761,3217.601092,1850.514855,8142.265362
182.300069,5286.058936,2812.782580,6809.894666
182.300377,4826.401637,3404.947333,5033.400406
182.300685,5822.325785,2590.720797,5995.668130
182.300993,5669.106685,3404.947333,5847.626942
182.301301,4903.011187,2664.741391,5995.668130
182.301609,3524.039291,2664.741391,6291.750507
182.301917,3294.210641,2516.700203,7105.977043
182.302225,2374.896044,2220.617826,7254.018232
182.302533,1762.019645,2368.659014,7179.997637
182.302841,1455.581446,1924.535449,8142.265362
182.303150,383.047749,1184.329507,8586.388927
182.303458,-459.657299,518.144159,10140.821405
182.303766,-689.485948,296.082377,10732.986159
182.304074,-1762.019645,-962.267725,11917.315666
182.304382,-2298.286494,-1628.453072,12509.480420
182.304690,-3294.210641,-2220.617826,12879.583391
182.304998,-3677.258390,-3552.988522,14656.077652
182.305306,-4443.353888,-4145.153275,14656.077652
182.305614,-4136.915689,-3997.112087,14211.954086
182.305922,-3983.696590,-4663.297435,14285.974681
182.306230,-3294.210641,-4737.318029,13249.686362
182.306538,-1455.581446,-3182.885551,11473.192101
182.306846,306.438199,-1480.411884,10066.800811
182.307154,1991.848295,222.061783,8438.347739
182.307462,4673.182538,1776.494261,7920.203579
182.307770,5286.058936,3182.885551,4959.379811
182.308079,6128.763984,4145.153275,4885.359217
182.308387,7048.078582,4219.173869,5107.421000
182.308695,6435.202183,4589.276840,4441.235652
182.309003,5362.668486,4293.194464,5107.421000
182.309311,4213.525239,3552.988522,5551.544565
182.309619,3140.991542,3330.926739,6365.771101
182.309927,2145.067394,2590.720797,6735.874072
182.310235,1532.190996,1998.556043,8142.265362
182.310543,-153.219100,518.144159,9400.615463
182.310851,-1302.362347,-74.020594,11029.068536
182.311159,-2145.067394,-370.102971,11917.315666
182.311467,-2451.505594,-1036.288319,12657.521608
182.311775,-2528.115143,-1924.535449,13101.645173
182.312083,-3447.429741,-1850.514855,12805.562797
182.312391,-3217.601092,-1998.556043,13841.851115
182.312699,-3217.601092,-2442.679609,14359.995275
182.313008,-3370.820191,-2294.638420,13249.686362
182.313316,-3524.039291,-2664.741391,13323.706956
182.313624,-3370.820191,-2590.720797,13175.665768
182.313932,-2068.457845,-2294.638420,12361.439231
182.314240,-995.924147,-1924.535449,11473.192101
182.314548,229.828649,-592.164754,9918.759623
182.314856,1608.800546,592.164754,8142.265362
182.315164,3064.381992,1776.494261,7994.224174
182.315472,4826.401637,1776.494261,7624.121203
182.315780,4290.134789,2516.700203,5477.523971
182.316088,5056.230287,2368.659014,6069.688724
182.316396,5592.497135,2738.761985,5847.626942
182.316704,3677.258390,3182.885551,5477.523971
182.317012,3907.087040,2960.823768,5995.668130
182.317320,3140.991542,2738.761985,6661.853478
182.317628,2451.505594,2738.761985,7031.956449
182.317937,1608.800546,2294.638420,6957.935855
182.318245,842.705048,1776.494261,8660.409521
182.318553,536.266849,1628.453072,9400.615463
182.318861,612.876398,444.123565,10140.821405
182.319169,0.000000,296.082377,10807.006753
182.319477,-1149.143247,-1184.329507,10881.027347
182.319785,-1838.629195,-1776.494261,12731.542202
182.320093,-2757.943793,-2442.679609,13693.809927
182.320401,-2987.772442,-3404.947333,14211.954086
182.320709,-4136.915689,-4145.153275,14730.098246
182.321017,-3753.867940,-4293.194464,14582.057057
182.321325,-4213.525239,-4663.297435,14508.036463
182.321633,-3907.087040,-3552.988522,13545.768739
182.321941,-2451.505594,-2516.700203,12287.418637
182.322249,-229.828649,-1184.329507,10732.986159
182.322557,1991.848295,148.041188,8438.347739
182.322866,3677.258390,1850.514855,6735.874072
182.323174,4903.011187,3552.988522,5921.647536
182.323482,6435.202183,3330.926739,5551.544565
182.323790,6358.592633,4811.338623,4441.235652
182.324098,6052.154434,4441.235652,4589.276840
182.324406,5439.278036,3701.029710,5255.462188
182.324714,4519.963438,3552.988522,5181.441594
182.325022,3447.429741,3627.009116,6069.688724
182.325330,2451.505594,2590.720797,6809.894666
182.325638,1302.362347,2368.659014,7920.203579
182.325946,306.438199,1406.391290,9474.636058
182.326254,-306.438199,592.164754,10584.944971
182.326562,-919.314598,-148.041188,11251.130318
182.326870,-1378.971896,-888.247130,11843.295072
182.327178,-2374.896044,-1554.432478,11917.315666
182.327486,-2911.162892,-2072.576638,13323.706956
182.327795,-3064.381992,-2960.823768,13619.789333
182.328103,-3753.867940,-2812.782580,14137.933492
182.328411,-3524.039291,-3478.967927,14582.057057
182.328719,-4519.963438,-3923.091493,14211.954086
182.329027,-3907.087040,-3478.967927,13989.892304
182.329335,-3217.601092,-3034.844362,13175.665768
182.329643,-2145.067394,-2294.638420,12213.398043
182.329951,-689.485948,-666.185348,10584.944971
182.330259,1149.143247,222.061783,9474.636058
182.330567,2911.162892,1702.473667,7624.121203
182.330875,3753.867940,2738.761985,6439.791695
182.331183,6435.202183,3108.864956,6217.729913
182.331491,5209.449386,3849.070898,4219.173869
182.331799,5515.887586,3478.967927,5107.421000
182.332107,4903.011187,3330.926739,5551.544565
182.332415,4136.915689,3478.967927,5255.462188
182.332724,3830.477490,3478.967927,5181.441594
182.333032,2681.334243,3182.885551,6291.750507
182.333340,1838.629195,2886.803174,7254.018232
182.333648,1302.362347,2442.679609,8142.265362
182.333956,766.095498,1406.391290,9696.697840
182.334264,0.000000,666.185348,9918.759623
182.334572,-383.047749,-0.000000,11177.109724
182.334880,-1608.800546,-1036.288319,11769.274478
182.335188,-1838.629195,-2146.597232,13027.624579
182.335496,-2604.724693,-3034.844362,15026.180623
182.335804,-4060.306139,-4145.153275,14804.118840
182.336112,-4596.572988,-5403.503377,15248.242405
182.336420,-4903.011187,-5181.441594,15248.242405
182.336728,-4749.792088,-5329.482782,14804.118840
182.337036,-3983.696590,-4441.235652,13841.851115
182.337344,-2374.896044,-3108.864956,12435.459826
182.337653,536.266849,-1332.370696,10881.027347
182.337961,2145.067394,888.247130,7772.162391
182.338269,4596.572988,2368.659014,6513.812290
182.338577,6281.983084,3552.988522,6143.709319
182.338885,6281.983084,4811.338623,3775.050304
182.339193,6741.640382,4811.338623,4145.153275
182.339501,6128.763984,4219.173869,4737.318029
182.339809,5362.668486,3923.091493,4737.318029
182.340117,4673.182538,3552.988522,5773.606348
182.340425,3140.991542,2590.720797,6291.750507
182.340733,2221.676944,2368.659014,6809.894666
182.341041,2145.067394,2146.597232,7476.080014
182.341349,995.924147,1628.453072,8142.265362
182.341657,-842.705048,444.123565,9474.636058
182.341965,-536.266849,-0.000000,11029.068536
182.342273,-766.095498,-962.267725,11843.295072
182.342582,-2145.067394,-962.267725,11769.274478
182.342890,-2528.115143,-2220.617826,12657.521608
182.343198,-2681.334243,-2516.700203,13915.871710
182.343506,-3294.210641,-3034.844362,14656.077652
182.343814,-3753.867940,-3404.947333,14878.139434
182.344122,-4060.306139,-3923.091493,14582.057057
182.344430,-4213.525239,-4441.235652,14508.036463
182.344738,-4060.306139,-3775.050304,13323.706956
182.345046,-2145.067394,-3108.864956,12953.603985
182.345354,-689.485948,-1850.514855,11695.253884
182.345662,1302.362347,-0.000000,8734.430116
182.345970,3447.429741,1554.432478,6809.894666
182.346278,4749.792088,3034.844362,5625.565159
182.346586,6281.983084,3701.029710,5699.585753
182.346894,5745.716235,4219.173869,3775.050304
182.347202,6205.373534,3997.112087,5181.441594
182.347510,4749.792088,3478.967927,4811.338623
182.347818,4443.353888,3330.926739,5181.441594
182.348126,3524.039291,3552.988522,6143.709319
182.348433,2374.896044,2738.761985,6809.894666
182.348741,2298.286494,3108.864956,7179.997637
182.349049,2068.457845,2664.741391,7254.018232
182.349357,919.314598,1480.411884,8882.471304
182.349665,-306.438199,740.205942,10288.862594
182.349973,0.000000,-370.102971,11695.253884
182.350281,-1762.019645,-1184.329507,11917.315666
182.350589,-2834.553343,-2146.597232,12435.459826
182.350897,-2987.772442,-3552.988522,14434.015869
182.351205,-4060.306139,-3997.112087,14952.160028
182.351513,-4826.401637,-4515.256246,15248.242405
182.351821,-4903.011187,-5033.400406,15174.221811
182.352129,-4826.401637,-5329.482782,15322.262999
182.352437,-4826.401637,-4811.338623,14285.974681
182.352745,-2757.943793,-3182.885551,12953.603985
182.353053,-536.266849,-1998.556043,11843.295072
182.353361,1838.629195,444.123565,8734.430116
182.353669,3753.867940,2590.720797,6883.915261
182.353977,5592.497135,3701.029710,5773.606348
182.354285,6818.249932,5107.421000,4885.359217
182.354593,6588.421283,5699.585753,3404.947333
182.354901,6281.983084,4589.276840,4885.359217
182.355209,6128.763984,4441.235652,4959.379811
182.355517,4979.620737,3775.050304,4885.359217
182.355825,3983.696590,3627.009116,5551.544565
182.356132,2604.724693,2886.803174,6365.771101
182.356440,2145.067394,2664.741391,7624.121203
182.356748,1149.143247,1850.514855,7624.121203
182.357056,0.000000,370.102971,9474.636058
182.357364,-689.485948,-444.123565,10807.006753
182.357672,-919.314598,-1184.329507,11399.171507
182.357980,-1455.581446,-1702.473667,12213.398043
182.358288,-2757.943793,-2664.741391,13249.686362
182.358596,-3370.820191,-3108.864956,14211.954086
182.358904,-4136.915689,-3404.947333,14730.098246
182.359212,-4213.525239,-3923.091493,15100.201217
182.359520,-4519.963438,-4293.194464,15026.180623
182.359828,-4903.011187,-4219.173869,14730.098246
182.360136,-3524.039291,-3701.029710,14137.933492
182.360444,-2145.067394,-3330.926739,12509.480420
182.360752,-1149.143247,-1850.514855,11177.109724
182.361060,1378.971896,-74.020594,9178.553681
182.361368,3217.601092,1850.514855,6957.935855
182.361676,4903.011187,2738.761985,6513.812290
182.361984,6052.154434,3923.091493,5033.400406
182.362292,6052.154434,3775.050304,4071.132681
182.362600,6358.592633,3330.926739,4737.318029
182.362908,5439.278036,3256.906145,4663.297435
182.363216,4519.963438,3627.009116,5107.421000
182.363523,3753.867940,3775.050304,5699.585753
182.363831,2987.772442,3775.050304,5625.565159
182.364139,2451.505594,3849.070898,6365.771101
182.364447,2757.943793,3034.844362,7476.080014
182.364755,1915.238745,2294.638420,7402.059420
182.365063,0.000000,518.144159,9548.656652
182.365371,-229.828649,-296.082377,11547.212695
182.365679,-1455.581446,-1702.473667,11843.295072
182.365987,-2987.772442,-2368.659014,13027.624579
182.366295,-3983.696590,-3701.029710,14285.974681
182.366603,-4673.182538,-4737.318029,15100.201217
182.366911,-5286.058936,-4811.338623,16062.468941
182.367219,-4903.011187,-6069.688724,15766.386565
182.367527,-4060.306139,-5033.400406,15248.242405
182.367835,-4290.134789,-4959.379811,14211.954086
182.368143,-2451.505594,-3256.906145,13027.624579
182.368451,0.000000,-1628.453072,11251.130318
182.368759,1915.238745,814.226536,9104.533087
182.369067,3753.867940,2368.659014,6957.935855
182.369375,5898.935335,3775.050304,6217.729913
182.369683,6358.592633,4737.318029,4885.359217
182.369991,5975.544884,5033.400406,4589.276840
182.370299,6358.592633,4367.215058,4959.379811
182.370607,5745.716235,4071.132681,4885.359217
182.370915,4366.744339,4071.132681,5181.441594
182.371222,3370.820191,3478.967927,5699.585753
182.371530,2604.724693,3034.844362,6365.771101
182.371838,2374.896044,3034.844362,6809.894666
182.372146,2221.676944,2590.720797,7179.997637
182.372454,306.438199,1036.288319,8808.450710
182.372762,-306.438199,-222.061783,10881.027347
182.373070,-536.266849,-888.247130,11695.253884
182.373378,-1991.848295,-1480.411884,11991.336260
182.373686,-3140.991542,-2516.700203,13249.686362
182.373994,-3753.867940,-3478.967927,14359.995275
182.374302,-4060.306139,-3701.029710,15100.201217
182.374610,-4903.011187,-4441.235652,15174.221811
182.374918,-4213.525239,-4737.318029,14285.974681
182.375226,-4213.525239,-4515.256246,14582.057057
182.375534,-3907.087040,-4145.153275,13397.727550
182.375842,-2528.115143,-3034.844362,12509.480420
182.376150,-383.047749,-1628.453072,10732.986159
182.376458,1455.581446,296.082377,8808.450710
182.376766,3524.039291,2146.597232,7105.977043
182.377074,5362.668486,3627.009116,6291.750507
182.377382,6818.249932,3997.112087,5403.503377
182.377690,6511.811733,4293.194464,3701.029710
182.377998,6588.421283,4145.153275,4441.235652
182.378306,5975.544884,3701.029710,4885.359217
182.378614,4519.963438,3701.029710,4811.338623
182.378921,3370.820191,3256.906145,6143.709319
182.379229,2834.553343,2442.679609,6883.915261
182.379537,2298.286494,2590.720797,7772.162391
182.379845,536.266849,1850.514855,8512.368333
182.380153,0.000000,1332.370696,9992.780217
182.380461,-1225.752797,666.185348,11029.068536
182.380769,-1608.800546,-296.082377,12139.377449
182.381077,-2451.505594,-1702.473667,12435.459826
182.381385,-3447.429741,-2812.782580,13545.768739
182.381693,-4749.792088,-3330.926739,14804.118840
182.382001,-4749.792088,-4145.153275,15544.324782
182.382309,-4826.401637,-4515.256246,15174.221811
182.382617,-5132.839837,-4663.297435,14730.098246
182.382925,-4136.915689,-4589.276840,14359.995275
182.383233,-2681.334243,-3849.070898,13249.686362
182.383541,-919.314598,-2368.659014,11251.130318
182.383849,1378.971896,-148.041188,8882.471304
182.384157,3524.039291,1332.370696,6809.894666
182.384465,6128.763984,1924.535449,6735.874072
182.384773,6511.811733,4071.132681,3775.050304
182.385081,7354.516781,5403.503377,3627.009116
182.385389,7967.393179,4737.318029,3923.091493
182.385697,6894.859482,4737.318029,2960.823768
182.386005,5209.449386,3701.029710,4885.359217
182.386312,3983.696590,2590.720797,5699.585753
182.386620,2068.457845,1776.494261,7402.059420
182.386928,0.000000,888.247130,7772.162391
182.387236,-229.828649,-0.000000,9696.697840
182.387544,-1302.362347,-222.061783,10140.821405
182.387852,-1608.800546,-592.164754,11177.109724
182.388160,-1685.410096,-1036.288319,11621.233289
182.388468,-2221.676944,-1554.432478,11695.253884
182.388776,-2451.505594,-2220.617826,12657.521608
182.389084,-2604.724693,-2738.761985,12953.603985
182.389392,-3064.381992,-2442.679609,14137.933492
182.389700,-3600.648841,-2590.720797,14211.954086
182.390008,-3830.477490,-2664.741391,13841.851115
182.390316,-3064.381992,-2886.803174,13249.686362
182.390624,-2987.772442,-2738.761985,12657.521608
182.390932,-2145.067394,-1998.556043,11843.295072
182.391240,-689.485948,-1480.411884,11029.068536
182.391548,995.924147,-148.041188,9474.636058
182.391856,3140.991542,666.185348,7772.162391
182.392164,3677.258390,2220.617826,6513.812290
182.392472,5669.106685,3108.864956,6217.729913
182.392780,6358.592633,4293.194464,4441.235652
182.393088,6435.202183,4441.235652,4293.194464
182.393396,6281.983084,3997.112087,5033.400406
182.393704,4673.182538,3552.988522,4959.379811
182.394011,3524.039291,3034.844362,6143.709319
182.394319,2374.896044,2368.659014,7328.038826
182.394627,1302.362347,1554.432478,8660.409521
182.394935,229.828649,888.247130,9696.697840
182.395243,-766.095498,592.164754,10066.800811
182.395551,-1149.143247,-74.020594,11177.109724
182.395859,-1685.410096,-666.185348,11621.233289
182.396167,-1915.238745,-1406.391290,12287.418637
182.396475,-2451.505594,-2072.576638,12879.583391
182.396783,-2528.115143,-2516.700203,13471.748144
182.397091,-2604.724693,-2960.823768,14137.933492
182.397399,-2911.162892,-3034.844362,14211.954086
182.397707,-3447.429741,-3552.988522,13989.892304
182.398015,-3370.820191,-3108.864956,13323.706956
182.398323,-2681.334243,-2886.803174,12657.521608
182.398631,-1762.019645,-2294.638420,11473.192101
182.398939,-306.438199,-1184.329507,10140.821405
182.399247,2068.457845,296.082377,8882.471304
182.399555,3447.429741,1628.453072,7254.018232
182.399863,4826.401637,2738.761985,6143.709319
182.400171,6588.421283,3849.070898,5255.462188
182.400479,6894.859482,4515.256246,4145.153275
182.400787,6665.030833,4293.194464,4367.215058
182.401095,5975.544884,3775.050304,4959.379811
182.401403,4519.963438,3108.864956,5699.585753
182.401710,3140.991542,2442.679609,6883.915261
182.402018,1915.238745,2072.576638,7920.203579
182.402326,612.876398,444.123565,8956.491898
182.402634,-612.876398,222.061783,9992.780217
182.402942,-1225.752797,-0.000000,10732.986159
182.403250,-1838.629195,-296.082377,11621.233289
182.403558,-1762.019645,-1110.308913,11991.336260
182.403866,-2145.067394,-888.247130,12287.418637
182.404174,-1915.238745,-1036.288319,12287.418637
182.404482,-2221.676944,-1628.453072,13175.665768
182.404790,-2451.505594,-1776.494261,13397.727550
182.405098,-2834.553343,-1924.535449,13767.830521
182.405406,-3217.601092,-2516.700203,13323.706956
182.405714,-2911.162892,-2146.597232,12879.583391
182.406022,-2528.115143,-1850.514855,12065.356855
182.406330,-1149.143247,-1702.473667,11473.192101
182.406638,229.828649,-962.267725,10732.986159
182.406946,1532.190996,-148.041188,9326.594869
182.407254,2834.553343,1110.308913,7624.121203
182.407562,4136.915689,2072.576638,6365.771101
182.407870,4979.620737,2664.741391,6143.709319
182.408178,6052.154434,3552.988522,4959.379811
182.408486,6511.811733,3552.988522,4663.297435
182.408794,5439.278036,3256.906145,5107.421000
182.409101,4673.182538,2368.659014,5551.544565
182.409409,3600.648841,2516.700203,6587.832884
182.409717,2068.457845,1480.411884,7846.182985
182.410025,919.314598,1110.308913,8290.306550
182.410333,-383.047749,592.164754,9548.656652
182.410641,-689.485948,-0.000000,10436.903782
182.410949,-1608.800546,-370.102971,11029.068536
182.411257,-1149.143247,-888.247130,11621.233289
182.411565,-1302.362347,-1184.329507,12065.356855
182.411873,-2068.457845,-1258.350101,12583.501014
182.412181,-2068.457845,-2368.659014,12657.521608
182.412489,-2451.505594,-2368.659014,12879.583391
182.412797,-2987.772442,-2516.700203,13101.645173
182.413105,-2911.162892,-2886.803174,12953.603985
182.413413,-2757.943793,-2812.782580,12509.480420
182.413721,-2451.505594,-2442.679609,12213.398043
182.414029,-842.705048,-1628.453072,11621.233289
182.414337,306.438199,-962.267725,10140.821405
182.414645,1302.362347,296.082377,8808.450710
182.414953,3294.210641,1406.391290,7624.121203
182.415261,4290.134789,2368.659014,6587.832884
182.415569,5669.106685,3552.988522,5551.544565
182.415877,6665.030833,4219.173869,5181.441594
182.416185,6358.592633,4071.132681,4885.359217
182.416493,4903.011187,3404.947333,5255.462188
182.416800,4060.306139,2886.803174,6513.812290
182.417108,2451.505594,1850.514855,7031.956449
182.417416,1685.410096,1554.432478,8142.265362
182.417724,383.047749,370.102971,9252.574275
182.418032,-612.876398,148.041188,9992.780217
182.418340,-1302.362347,-370.102971,11325.150913
182.418648,-1685.410096,-444.123565,11473.192101
182.418956,-1225.752797,-592.164754,11473.192101
182.419264,-1532.190996,-888.247130,11547.212695
182.419572,-1302.362347,-1036.288319,11843.295072
182.419880,-1685.410096,-1258.350101,12583.501014
182.420188,-2145.067394,-1702.473667,12953.603985
182.420496,-2757.943793,-2220.617826,13175.665768
182.420804,-3064.381992,-2812.782580,13249.686362
182.421112,-3140.991542,-2886.803174,13693.809927
182.421420,-3370.820191,-2886.803174,12583.501014
182.421728,-2757.943793,-1924.535449,12435.459826
182.422036,-995.924147,-1628.453072,11251.130318
182.422344,459.657299,-740.205942,9770.718434
182.422652,2145.067394,592.164754,8068.244768
182.422960,3907.087040,2146.597232,6513.812290
182.423268,5132.839837,3108.864956,5921.647536
182.423576,6128.763984,3775.050304,4959.379811
182.423884,6741.640382,3923.091493,4145.153275
182.424192,5669.106685,3849.070898,4515.256246
182.424499,4519.963438,3256.906145,5033.400406
182.424807,3524.039291,2516.700203,6439.791695
182.425115,1532.190996,1702.473667,7550.100608
182.425423,76.609550,814.226536,9104.533087
182.425731,-383.047749,740.205942,9992.780217
182.426039,-1225.752797,-0.000000,10584.944971
182.426347,-1378.971896,-222.061783,11325.150913
182.426655,-1378.971896,-740.205942,11547.212695
182.426963,-1149.143247,-814.226536,11843.295072
182.427271,-1685.410096,-1332.370696,11621.233289
182.427579,-1455.581446,-1554.432478,12361.439231
182.427887,-2068.457845,-2294.638420,12879.583391
182.428195,-2145.067394,-2294.638420,12731.542202
182.428503,-2221.676944,-3182.885551,12805.562797
182.428811,-2681.334243,-3034.844362,13027.624579
182.429119,-2911.162892,-3108.864956,12435.459826
182.429427,-2298.286494,-2368.659014,12065.356855
182.429735,-689.485948,-1110.308913,11325.150913
182.430043,842.705048,-222.061783,9326.594869
182.430351,2911.162892,888.247130,8290.306550
182.430659,4519.963438,1924.535449,7031.956449
182.430967,5745.716235,3330.926739,5551.544565
182.431275,6588.421283,3775.050304,4441.235652
182.431583,6511.811733,4441.235652,4219.173869
182.431890,5975.544884,3923.091493,4441.235652
182.432198,4903.011187,3108.864956,5403.503377
182.432506,3524.039291,2516.700203,6587.832884
182.432814,1991.848295,1776.494261,7402.059420
182.433122,153.219100,814.226536,9030.512492
182.433430,-536.266849,296.082377,10140.821405
182.433738,-1532.190996,-592.164754,10658.965565
182.434046,-1685.410096,-444.123565,11325.150913
182.434354,-1225.752797,-518.144159,11547.212695
182.434662,-1455.581446,-592.164754,11399.171507
182.434970,-1532.190996,-888.247130,11843.295072
182.435278,-1378.971896,-1332.370696,12509.480420
182.435586,-1915.238745,-1850.514855,12953.603985
182.435894,-2145.067394,-2220.617826,13397.727550
182.436202,-3140.991542,-2516.700203,13915.871710
182.436510,-4060.306139,-3034.844362,13471.748144
182.436818,-3294.210641,-2590.720797,12805.562797
182.437126,-2451.505594,-1776.494261,12435.459826
182.437434,-1302.362347,-1480.411884,11473.192101
182.437742,612.876398,-444.123565,9992.780217
182.438050,2451.505594,814.226536,8438.347739
182.438358,3830.477490,1924.535449,6883.915261
182.438666,4979.620737,2368.659014,5773.606348
182.438974,6358.592633,3627.009116,4885.359217
182.439282,6435.202183,3923.091493,4589.276840
182.439589,5898.935335,4071.132681,4441.235652
182.439897,4903.011187,3182.885551,5181.441594
182.440205,3907.087040,2812.782580,6365.771101
182.440513,2528.115143,1998.556043,7624.121203
182.440822,612.876398,740.205942,8808.450710
182.441130,0.000000,740.205942,9622.677246
182.441438,-689.485948,-0.000000,10214.842000
182.441746,-1225.752797,-0.000000,10881.027347
182.442054,-1378.971896,-444.123565,11695.253884
182.442362,-1072.533697,-1184.329507,11843.295072
182.442670,-1915.238745,-1332.370696,11843.295072
182.442978,-2068.457845,-2368.659014,12879.583391
182.443286,-2451.505594,-2442.679609,13397.727550
182.443594,-2528.115143,-2368.659014,13397.727550
182.443902,-3294.210641,-3034.844362,13397.727550
182.444210,-3294.210641,-3034.844362,13249.686362
182.444518,-3217.601092,-2442.679609,12509.480420
182.444826,-2451.505594,-1850.514855,11917.315666
182.445134,-689.485948,-1110.308913,10881.027347
182.445442,612.876398,-222.061783,9326.594869
182.445750,3064.381992,888.247130,8438.347739
182.446058,4136.915689,1850.514855,6439.791695
182.446367,5209.449386,2960.823768,5329.482782
182.446675,6588.421283,3627.009116,4959.379811
182.446983,6358.592633,3627.009116,4589.276840
182.447291,5439.278036,3552.988522,4663.297435
182.447599,4366.744339,2738.761985,5847.626942
182.447907,3677.258390,1998.556043,6513.812290
182.448215,1685.410096,1480.411884,6661.853478
182.448523,1072.533697,888.247130,8586.388927
182.448831,-229.828649,592.164754,9474.636058
182.449139,-1149.143247,148.041188,10362.883188
182.449447,-1302.362347,-0.000000,11103.089130
182.449755,-1378.971896,-296.082377,11399.171507
182.450063,-1915.238745,-814.226536,11769.274478
182.450371,-1915.238745,-1554.432478,12287.418637
182.450679,-2681.334243,-2072.576638,13619.789333
182.450987,-3600.648841,-2812.782580,13397.727550
182.451295,-3830.477490,-2516.700203,13619.789333
182.451603,-3600.648841,-2960.823768,13767.830521
182.451912,-3830.477490,-3034.844362,13693.809927
182.452220,-3217.601092,-2664.741391,12805.562797
182.452528,-1838.629195,-1998.556043,11917.315666
182.452836,-306.438199,-1110.308913,10732.986159
182.453144,919.314598,-222.061783,8882.471304
182.453452,3524.039291,888.247130,7550.100608
182.453760,4290.134789,2072.576638,6587.832884
182.454068,5592.497135,3108.864956,5847.626942
182.454376,6665.030833,3775.050304,4959.379811
182.454684,6281.983084,3849.070898,4737.318029
182.454992,5975.544884,3330.926739,4811.338623
182.455300,4903.011187,2738.761985,5551.544565
182.455608,3524.039291,2442.679609,7328.038826
182.455916,2298.286494,1998.556043,7031.956449
182.456224,995.924147,1258.350101,8364.327145
182.456532,229.828649,1110.308913,9178.553681
182.456840,-306.438199,666.185348,9918.759623
182.457148,-919.314598,592.164754,10510.924376
182.457457,-536.266849,-74.020594,11399.171507
182.457765,-1532.190996,-814.226536,11843.295072
182.458073,-2145.067394,-1184.329507,12065.356855
182.458381,-2528.115143,-2220.617826,13323.706956
182.458689,-2604.724693,-2590.720797,13693.809927
182.458997,-3370.820191,-2886.803174,13915.871710
182.459305,-3370.820191,-3330.926739,13915.871710
182.459613,-3524.039291,-3256.906145,13619.789333
182.459921,-2911.162892,-3256.906145,13175.665768
182.460229,-1455.581446,-2738.761985,11843.295072
182.460537,229.828649,-1258.350101,9992.780217
182.460845,2298.286494,-0.000000,8734.430116
182.461153,3983.696590,1406.391290,7254.018232
182.461461,5209.449386,2664.741391,5847.626942
182.461769,6435.202183,3478.967927,4811.338623
182.462077,6741.640382,4145.153275,4293.194464
182.462385,6205.373534,3997.112087,4219.173869
182.462693,4826.401637,3108.864956,4959.379811
182.463002,4443.353888,2664.741391,6143.709319
182.463310,3524.039291,2072.576638,6809.894666
182.463618,1378.971896,1184.329507,7402.059420
182.463926,-153.219100,740.205942,9030.512492
182.464234,-842.705048,222.061783,10362.883188
182.464542,-1378.971896,370.102971,10881.027347
182.464850,-1915.238745,-148.041188,11399.171507
182.465158,-1532.190996,-444.123565,11547.212695
182.465466,-1915.238745,-592.164754,11695.253884
182.465774,-1991.848295,-1332.370696,12731.542202
182.466082,-2374.896044,-1998.556043,13175.665768
182.466390,-2987.772442,-2294.638420,13027.624579
182.466698,-3447.429741,-2368.659014,13545.768739
182.467006,-3753.867940,-3256.906145,13693.809927
182.467314,-4749.792088,-3182.885551,13471.748144
182.467622,-2911.162892,-2812.782580,12879.583391
182.467930,-2221.676944,-2220.617826,12139.377449
182.468239,-306.438199,-1480.411884,10362.883188
182.468547,1532.190996,-0.000000,8808.450710
182.468855,3064.381992,1702.473667,7920.203579
182.469163,4596.572988,2368.659014,6365.771101
182.469471,5745.716235,3627.009116,5329.482782
182.469779,6741.640382,3701.029710,4737.318029
182.470087,5669.106685,3701.029710,4293.194464
182.470395,5975.544884,3552.988522,4885.359217
182.470703,4903.011187,2812.782580,5995.668130
182.471011,2987.772442,2146.597232,6809.894666
182.471319,1762.019645,1480.411884,7698.141797
182.471627,459.657299,1184.329507,8882.471304
182.471935,-229.828649,370.102971,9918.759623
182.472243,-612.876398,518.144159,10362.883188
182.472551,-919.314598,-0.000000,11177.109724
182.472859,-1302.362347,-444.123565,11621.233289
182.473167,-1685.410096,-740.205942,11843.295072
182.473475,-1762.019645,-1036.288319,12139.377449
182.473784,-2374.896044,-1702.473667,12953.603985
182.474092,-2604.724693,-2146.597232,13249.686362
182.474400,-3294.210641,-2590.720797,13619.789333
182.474708,-3524.039291,-3182.885551,13471.748144
182.475016,-2987.772442,-2738.761985,13101.645173
182.475324,-2221.676944,-2886.803174,11843.295072
182.475632,-1608.800546,-2072.576638,11695.253884
182.475940,383.047749,-1332.370696,10362.883188
182.476248,2145.067394,-0.000000,8512.368333
182.476556,3677.258390,1184.329507,7328.038826
182.476864,5056.230287,2220.617826,6439.791695
182.477172,6435.202183,3034.844362,5255.462188
182.477480,6818.249932,3627.009116,4959.379811
182.477788,6052.154434,3256.906145,4515.256246
182.478096,5209.449386,3256.906145,4885.359217
182.478404,4213.525239,2738.761985,5847.626942
182.478712,3064.381992,2516.700203,6735.874072
182.479020,1685.410096,2072.576638,7550.100608
182.479329,383.047749,1184.329507,8808.450710
182.479637,-842.705048,1036.288319,9770.718434
182.479945,-1225.752797,592.164754,10510.924376
182.480253,-1225.752797,222.061783,11769.274478
182.480561,-1915.238745,-444.123565,11547.212695
182.480869,-2451.505594,-962.267725,11843.295072
182.481177,-2298.286494,-1776.494261,12805.562797
182.481485,-2834.553343,-2442.679609,13175.665768
182.481793,-3217.601092,-3034.844362,13841.851115
182.482101,-3524.039291,-3182.885551,13915.871710
182.482409,-3447.429741,-3775.050304,13841.851115
182.482717,-3294.210641,-3701.029710,13323.706956
182.483025,-2911.162892,-2960.823768,12361.439231
182.483333,-1608.800546,-2368.659014,11843.295072
182.483641,0.000000,-1184.329507,10214.842000
182.483949,2145.067394,-0.000000,8956.491898
182.484257,3907.087040,1258.350101,7328.038826
182.484565,4749.792088,2738.761985,6143.709319
182.484874,6511.811733,3552.988522,5921.647536
182.485182,5898.935335,4441.235652,4219.173869
182.485490,6281.983084,4367.215058,3997.112087
182.485798,5898.935335,4145.153275,4811.338623
182.486106,4673.182538,3701.029710,5329.482782
182.486414,2987.772442,2812.782580,6513.812290
182.486722,2221.676944,1924.535449,7994.224174
182.487030,153.219100,1036.288319,9030.512492
182.487338,-1149.143247,296.082377,9696.697840
182.487646,-1072.533697,-0.000000,10955.047942
182.487954,-1915.238745,-296.082377,11769.274478
182.488262,-2374.896044,-1036.288319,12361.439231
182.488570,-2451.505594,-1480.411884,13027.624579
182.488878,-2374.896044,-1702.473667,13027.624579
182.489186,-2604.724693,-2368.659014,13249.686362
182.489494,-2528.115143,-2368.659014,13693.809927
182.489802,-2374.896044,-2590.720797,13397.727550
182.490110,-2528.115143,-3256.906145,13249.686362
182.490419,-2757.943793,-2516.700203,12805.562797
182.490727,-1838.629195,-2146.597232,11695.253884
182.491035,-689.485948,-1406.391290,10881.027347
182.491343,842.705048,-592.164754,9622.677246
182.491651,2374.896044,222.061783,8808.450710
182.491959,3983.696590,1110.308913,7402.059420
182.492267,5056.230287,2664.741391,6143.709319
182.492575,6052.154434,2664.741391,5773.606348
182.492883,6205.373534,3404.947333,4589.276840
182.493191,5745.716235,3627.009116,4885.359217
182.493499,5209.449386,3108.864956,5477.523971
182.493807,4136.915689,2664.741391,5995.668130
182.494115,2911.162892,2146.597232,6809.894666
182.494423,1378.971896,1628.453072,7920.203579
182.494731,76.609550,1110.308913,9030.512492
182.495039,0.000000,814.226536,10066.800811
182.495347,-995.924147,444.123565,10732.986159
182.495656,-1685.410096,-0.000000,11103.089130
182.495964,-2145.067394,-592.164754,11769.274478
182.496272,-2451.505594,-1184.329507,12509.480420
182.496580,-2374.896044,-2146.597232,12879.583391
182.496888,-2451.505594,-2516.700203,13545.768739
182.497196,-2987.772442,-2738.761985,13397.727550
182.497504,-3600.648841,-3330.926739,13915.871710
182.497812,-3370.820191,-3182.885551,13027.624579
182.498120,-2834.553343,-2442.679609,12879.583391
182.498428,-1685.410096,-2294.638420,11769.274478
182.498736,0.000000,-1406.391290,10436.903782
182.499044,1455.581446,-666.185348,9104.533087
182.499352,3140.991542,814.226536,8068.244768
182.499660,4443.353888,1628.453072,6661.853478
182.499968,5745.716235,2368.659014,5921.647536
182.500276,6281.983084,3404.947333,4885.359217
182.500584,5975.544884,3849.070898,4293.194464
182.500892,6128.763984,3627.009116,4663.297435
182.501201,4903.011187,3034.844362,5403.503377
182.501509,3600.648841,1924.535449,6735.874072
182.501817,1915.238745,1332.370696,8068.244768
182.502125,306.438199,370.102971,9030.512492
182.502433,-1455.581446,296.082377,9992.780217
182.502741,-1149.143247,-0.000000,10732.986159
182.503049,-1455.581446,296.082377,11325.150913
182.503357,-1532.190996,-444.123565,11325.150913
182.503665,-1455.581446,-296.082377,11695.253884
182.503973,-1072.533697,-1036.288319,11917.315666
182.504281,-1149.143247,-1406.391290,12435.459826
182.504589,-1915.238745,-1480.411884,12435.459826
182.504897,-1838.629195,-2072.576638,12287.418637
182.505205,-2068.457845,-2072.576638,12583.501014
182.505513,-2374.896044,-2368.659014,12287.418637
182.505821,-2298.286494,-2220.617826,12213.398043
182.506129,-1608.800546,-2072.576638,11769.274478
182.506437,-306.438199,-1628.453072,11029.068536
182.506746,153.219100,-814.226536,9770.718434
182.507054,2834.553343,148.041188,8660.409521
182.507362,3753.867940,1406.391290,7328.038826
182.507670,4979.620737,2368.659014,6143.709319
182.507978,5822.325785,2590.720797,5329.482782
182.508286,5745.716235,3330.926739,5329.482782
182.508594,5132.839837,3182.885551,5625.565159
182.508902,4596.572988,2960.823768,5921.647536
182.509210,2451.505594,2368.659014,6735.874072
182.509518,2221.676944,1702.473667,7328.038826
182.509826,689.485948,1184.329507,8882.471304
182.510134,-383.047749,666.185348,9622.677246
182.510442,-1225.752797,148.041188,10436.903782
182.510750,-1532.190996,-0.000000,11029.068536
182.511058,-2068.457845,-148.041188,11473.192101
182.511366,-2068.457845,-1184.329507,11917.315666
182.511674,-1838.629195,-1702.473667,12361.439231
182.511982,-2068.457845,-1554.432478,12361.439231
182.512291,-2451.505594,-2294.638420,13027.624579
182.512599,-2757.943793,-1924.535449,12953.603985
182.512907,-3064.381992,-2220.617826,13545.768739
182.513215,-2987.772442,-2220.617826,13027.624579
182.513523,-2451.505594,-1998.556043,12065.356855
182.513831,-1915.238745,-1998.556043,11251.130318
182.514139,-536.266849,-1184.329507,10510.924376
182.514447,995.924147,-814.226536,9400.615463
182.514755,2451.505594,666.185348,8216.285956
182.515063,3753.867940,1702.473667,7031.956449
182.515371,4826.401637,2368.659014,6143.709319
182.515679,5822.325785,3034.844362,5403.503377
182.515987,6358.592633,3478.967927,4959.379811
182.516295,5286.058936,3034.844362,5403.503377
182.516603,4903.011187,2590.720797,5921.647536
182.516911,3677.258390,1628.453072,6957.935855
182.517219,2068.457845,1184.329507,7846.182985
182.517527,689.485948,962.267725,8734.430116
182.517836,-383.047749,444.123565,9844.739029
182.518144,-689.485948,-148.041188,10658.965565
182.518452,-995.924147,-74.020594,10807.006753
182.518760,-1149.143247,-296.082377,11103.089130
182.519068,-995.924147,-666.185348,11325.150913
182.519376,-1149.143247,-740.205942,11621.233289
182.519684,-766.095498,-518.144159,12213.398043
182.519992,-1378.971896,-1258.350101,11991.336260
182.520300,-1608.800546,-1258.350101,11917.315666
182.520608,-1685.410096,-1776.494261,12361.439231
182.520916,-2298.286494,-1776.494261,12583.501014
182.521224,-2451.505594,-1554.432478,12435.459826
182.521532,-1532.190996,-2368.659014,11473.192101
182.521840,-536.266849,-1554.432478,10807.006753
182.522148,919.314598,-518.144159,9918.759623
182.522456,2451.505594,148.041188,8660.409521
182.522764,3524.039291,1110.308913,7402.059420
182.523073,4903.011187,1998.556043,6513.812290
182.523381,6052.154434,2738.761985,5625.565159
182.523689,5669.106685,3182.885551,5033.400406
182.523997,5745.716235,3034.844362,5551.544565
182.524305,4596.572988,2886.803174,5329.482782
182.524613,3294.210641,2442.679609,7105.977043
182.524921,2221.676944,1628.453072,7105.977043
182.525229,689.485948,1332.370696,8512.368333
182.525537,-459.657299,370.102971,9770.718434
182.525845,-1915.238745,370.102971,10584.944971
182.526153,-1915.238745,-0.000000,11251.130318
182.526461,-1915.238745,-666.185348,11473.192101
182.526769,-1991.848295,-592.164754,11917.315666
182.527077,-2298.286494,-962.267725,12361.439231
182.527385,-2374.896044,-1480.411884,12731.542202
182.527693,-2604.724693,-1776.494261,13101.645173
182.528001,-2757.943793,-1998.556043,12953.603985
182.528309,-2451.505594,-2368.659014,13471.748144
182.528618,-3217.601092,-2664.741391,12583.501014
182.528926,-2604.724693,-1702.473667,12879.583391
182.529234,-2221.676944,-1850.514855,11843.295072
182.529542,-1149.143247,-1776.494261,10658.965565
182.529850,612.876398,-444.123565,9474.636058
182.530158,2221.676944,444.123565,8438.347739
182.530466,3677.258390,1554.432478,7105.977043
182.530774,4826.401637,2442.679609,6217.729913
182.531082,5745.716235,3404.947333,5773.606348
182.531390,6205.373534,3478.967927,4885.359217
182.531698,5898.935335,3849.070898,5107.421000
182.532006,5209.449386,3182.885551,5403.503377
182.532314,3600.648841,2590.720797,6513.812290
182.532622,2221.676944,1628.453072,7698.141797
182.532930,612.876398,740.205942,8956.491898
182.533238,-383.047749,-0.000000,9918.759623
182.533546,-995.924147,-444.123565,10510.924376
182.533854,-1149.143247,-814.226536,10807.006753
182.534163,-1225.752797,-444.123565,11473.192101
182.534471,-1455.581446,-592.164754,11177.109724
182.534779,-1149.143247,-740.205942,11695.253884
182.535087,-995.924147,-518.144159,11843.295072
182.535395,-919.314598,-1258.350101,11843.295072
182.535703,-1685.410096,-1332.370696,12509.480420
182.536011,-1762.019645,-2220.617826,12583.501014
182.536319,-2374.896044,-2368.659014,12879.583391
182.536627,-2298.286494,-2886.803174,12361.439231
182.536935,-1608.800546,-2590.720797,12213.398043
182.537243,-919.314598,-1850.514855,11103.089130
182.537551,383.047749,-1036.288319,9770.718434
182.537859,2145.067394,-370.102971,8586.388927
182.538167,3677.258390,592.164754,7328.038826
182.538475,4903.011187,2220.617826,6291.750507
182.538783,6588.421283,3108.864956,4811.338623
182.539091,7048.078582,3034.844362,4589.276840
182.539399,5898.935335,3849.070898,4367.215058
182.539708,5132.839837,3330.926739,5181.441594
182.540016,3600.648841,2812.782580,6439.791695
182.540324,1915.238745,2516.700203,7254.018232
182.540632,689.485948,1258.350101,8956.491898
182.540940,-995.924147,518.144159,9696.697840
182.541248,-2068.457845,592.164754,11473.192101
182.541556,-1915.238745,-222.061783,11547.212695
182.541864,-2298.286494,-518.144159,11843.295072
182.542172,-2145.067394,-814.226536,12065.356855
182.542480,-2298.286494,-1110.308913,12213.398043
182.542788,-2221.676944,-1628.453072,12731.542202
182.543096,-2451.505594,-2072.576638,12953.603985
182.543404,-2528.115143,-2368.659014,12583.501014
182.543712,-2987.772442,-2220.617826,13101.645173
182.544020,-2451.505594,-2960.823768,12953.603985
182.544328,-2911.162892,-2516.700203,12435.459826
182.544636,-2221.676944,-2146.597232,12065.356855
182.544944,-919.314598,-1480.411884,11029.068536
182.545252,383.047749,-666.185348,9696.697840
182.545561,2757.943793,222.061783,8512.368333
182.545869,4213.525239,1702.473667,7105.977043
182.546177,5745.716235,2442.679609,6291.750507
182.546485,6358.592633,3627.009116,5181.441594
182.546793,6665.030833,3552.988522,4737.318029
182.547101,5898.935335,3701.029710,5107.421000
182.547409,4673.182538,3034.844362,5477.523971
182.547717,3447.429741,2368.659014,6809.894666
182.548025,1991.848295,1628.453072,7624.121203
182.548333,766.095498,518.144159,8734.430116
182.548641,0.000000,148.041188,9548.656652
182.548949,-612.876398,-74.020594,10584.944971
182.549257,-1685.410096,-370.102971,11029.068536
182.549565,-1608.800546,-148.041188,11399.171507
182.549873,-1378.971896,-370.102971,11843.295072
182.550181,-1532.190996,-296.082377,11399.171507
182.550489,-1149.143247,-888.247130,11991.336260
182.550797,-1149.143247,-1332.370696,12361.439231
182.551105,-1685.410096,-1628.453072,12287.418637
182.551414,-2145.067394,-2368.659014,12435.459826
182.551722,-2451.505594,-2516.700203,12731.542202
182.552030,-2604.724693,-2590.720797,12583.501014
182.552338,-1762.019645,-2368.659014,12139.377449
182.552646,-536.266849,-1776.494261,10881.027347
182.552954,995.924147,-1332.370696,9696.697840
182.553262,2298.286494,-0.000000,8364.327145
182.553570,3677.258390,1332.370696,7105.977043
182.553878,5745.716235,2220.617826,6143.709319
182.554186,6358.592633,3404.947333,4811.338623
182.554494,6435.202183,3552.988522,4737.318029
182.554802,5975.544884,3775.050304,4885.359217
182.555110,4979.620737,3478.967927,5773.606348
182.555418,3370.820191,2368.659014,6587.832884
182.555726,1991.848295,1998.556043,7624.121203
182.556034,612.876398,1110.308913,8882.471304
182.556342,-995.924147,666.185348,10214.842000
182.556650,-1302.362347,444.123565,10881.027347
182.556958,-1685.410096,-0.000000,11177.109724
182.557267,-2068.457845,-518.144159,11843.295072
182.557575,-1915.238745,-1036.288319,11991.336260
182.557883,-2451.505594,-1628.453072,12361.439231
182.558191,-2298.286494,-1702.473667,12805.562797
182.558499,-2604.724693,-2072.576638,12953.603985
182.558807,-2681.334243,-2442.679609,12879.583391
182.559115,-2987.772442,-2738.761985,13175.665768
182.559423,-2911.162892,-2516.700203,12953.603985
182.559731,-2604.724693,-2220.617826,12213.398043
182.560039,-1915.238745,-1850.514855,11399.171507
182.560347,-536.266849,-1184.329507,10362.883188
182.560655,919.314598,296.082377,9474.636058
182.560963,3370.820191,1036.288319,8216.285956
182.561271,3753.867940,2368.659014,7105.977043
182.561579,5286.058936,2960.823768,5847.626942
182.561887,5975.544884,3701.029710,5107.421000
182.562195,5745.716235,3627.009116,4811.338623
182.562503,5822.325785,3404.947333,5107.421000
182.562811,4290.134789,2368.659014,6143.709319
182.563119,3064.381992,1924.535449,7254.018232
182.563428,1455.581446,814.226536,8364.327145
182.563736,383.047749,518.144159,9030.512492
182.564044,-766.095498,-222.061783,9696.697840
182.564352,-1685.410096,-222.061783,10807.006753
182.564660,-1608.800546,-296.082377,11325.150913
182.564968,-1991.848295,-592.164754,11325.150913
182.565276,-1608.800546,-592.164754,11695.253884
182.565584,-1608.800546,-1036.288319,11695.253884
182.565892,-1378.971896,-518.144159,12361.439231
182.566200,-1762.019645,-1480.411884,11843.295072
182.566508,-1685.410096,-1628.453072,12287.418637
182.566816,-1532.190996,-1850.514855,12583.501014
182.567124,-2145.067394,-2368.659014,12509.480420
182.567432,-2145.067394,-2368.659014,12361.439231
182.567740,-1225.752797,-2368.659014,11621.233289
182.568048,-842.705048,-1554.432478,11103.089130
182.568356,995.924147,-740.205942,9548.656652
182.568664,2451.505594,370.102971,8142.265362
182.568972,3907.087040,1332.370696,7179.997637
182.569281,4979.620737,2516.700203,6143.709319
182.569589,5669.106685,3108.864956,5403.503377
182.569897,7048.078582,3478.967927,5255.462188
182.570205,5286.058936,3552.988522,5329.482782
182.570513,4290.134789,2960.823768,5995.668130
182.570821,2987.772442,2516.700203,7550.100608
182.571129,1608.800546,1628.453072,7550.100608
182.571437,76.609550,1480.411884,9030.512492
182.571745,-842.705048,518.144159,10288.862594
182.572053,-1762.019645,296.082377,11177.109724
182.572361,-2221.676944,-0.000000,11843.295072
182.572669,-1991.848295,-370.102971,11917.315666
182.572977,-2298.286494,-1036.288319,12287.418637
182.573285,-1915.238745,-1332.370696,11917.315666
