#time,accel_x,accel_y,accel_z
322.198641,612.876398,296.082377,10140.821405
322.198950,766.095498,296.082377,9770.718434
322.199258,1072.533697,148.041188,9548.656652
322.199566,766.095498,370.102971,9622.677246
322.199874,689.485948,296.082377,9696.697840
322.200182,612.876398,296.082377,9696.697840
322.200490,689.485948,-0.000000,9548.656652
322.200798,995.924147,-444.123565,9622.677246
322.201107,306.438199,296.082377,9844.739029
322.201415,919.314598,-0.000000,9696.697840
322.201723,995.924147,-0.000000,9400.615463
322.202031,766.095498,222.061783,9326.594869
322.202339,612.876398,370.102971,9696.697840
322.202647,459.657299,370.102971,9622.677246
322.202956,383.047749,370.102971,9548.656652
322.203264,766.095498,-0.000000,9474.636058
322.203572,536.266849,222.061783,9696.697840
322.203880,995.924147,-0.000000,9770.718434
322.204188,766.095498,-0.000000,9548.656652
322.204496,842.705048,222.061783,9548.656652
322.204804,689.485948,148.041188,9622.677246
322.205113,536.266849,296.082377,9770.718434
322.205421,459.657299,296.082377,9696.697840
322.205729,0.000000,-74.020594,9548.656652
322.206037,383.047749,-74.020594,9474.636058
322.206345,842.705048,-74.020594,9622.677246
322.206653,383.047749,222.061783,9770.718434
322.206961,536.266849,-0.000000,9474.636058
322.207270,766.095498,222.061783,9400.615463
322.207578,995.924147,148.041188,9474.636058
322.207886,536.266849,296.082377,9622.677246
322.208194,842.705048,222.061783,9474.636058
322.208502,612.876398,-0.000000,9548.656652
322.208810,612.876398,222.061783,9770.718434
322.209119,76.609550,740.205942,10214.842000
322.209427,612.876398,222.061783,9548.656652
322.209735,689.485948,-0.000000,9474.636058
322.210043,459.657299,-0.000000,9474.636058
322.210351,842.705048,148.041188,9474.636058
322.210659,612.876398,444.123565,9770.718434
322.210967,842.705048,-0.000000,9696.697840
322.211276,459.657299,-222.061783,9992.780217
322.211584,919.314598,-444.123565,9844.739029
322.211892,766.095498,-518.144159,9992.780217
322.212200,766.095498,-518.144159,10066.800811
322.212508,536.266849,-518.144159,9918.759623
322.212816,1072.533697,-444.123565,10066.800811
322.213125,1455.581446,-444.123565,10066.800811
322.213433,1915.238745,-222.061783,9474.636058
322.213741,1455.581446,296.082377,8808.450710
322.214049,2221.676944,592.164754,8882.471304
322.214357,2528.115143,1110.308913,8808.450710
322.214665,2374.896044,814.226536,9252.574275
322.214973,1915.238745,518.144159,9326.594869
322.215282,1532.190996,518.144159,9400.615463
322.215590,1455.581446,-74.020594,9844.739029
322.215898,1685.410096,-222.061783,10362.883188
322.216206,1762.019645,-0.000000,10214.842000
322.216514,1762.019645,-370.102971,9992.780217
322.216822,1608.800546,-296.082377,10214.842000
322.217130,1838.629195,-74.020594,9992.780217
322.217439,2374.896044,-0.000000,9844.739029
322.217747,2451.505594,296.082377,9622.677246
322.218055,2604.724693,370.102971,9326.594869
322.218363,2911.162892,740.205942,9474.636058
322.218671,2757.943793,222.061783,9326.594869
322.218979,2834.553343,296.082377,9326.594869
322.219288,2604.724693,-0.000000,9474.636058
322.219596,2298.286494,-0.000000,9918.759623
322.219904,2451.505594,-0.000000,9918.759623
322.220212,2528.115143,296.082377,10140.821405
322.220520,2681.334243,222.061783,10214.842000
322.220828,2451.505594,-74.020594,9918.759623
322.221136,2757.943793,-148.041188,10214.842000
322.221445,3064.381992,-74.020594,10140.821405
322.221753,3064.381992,-148.041188,9770.718434
322.222061,3064.381992,-0.000000,9548.656652
322.222369,3294.210641,-74.020594,9622.677246
322.222677,3524.039291,-0.000000,9696.697840
322.222985,3600.648841,518.144159,9696.697840
322.223294,3524.039291,-0.000000,9030.512492
322.223602,4673.182538,-0.000000,9400.615463
322.223910,4290.134789,-0.000000,9104.533087
322.224218,4443.353888,370.102971,9178.553681
322.224526,4443.353888,518.144159,9104.533087
322.224834,4443.353888,444.123565,9104.533087
322.225142,3677.258390,592.164754,9326.594869
322.225451,4366.744339,-0.000000,9474.636058
322.225759,4519.963438,370.102971,9326.594869
322.226067,4519.963438,518.144159,9252.574275
322.226375,4366.744339,444.123565,8808.450710
322.226683,4519.963438,888.247130,9030.512492
322.226991,4749.792088,1036.288319,9104.533087
322.227299,4366.744339,1110.308913,8956.491898
322.227608,4596.572988,740.205942,9548.656652
322.227916,4596.572988,888.247130,8734.430116
322.228224,3677.258390,444.123565,8734.430116
322.228532,3600.648841,962.267725,10066.800811
322.228840,3753.867940,666.185348,10214.842000
322.229148,2757.943793,296.082377,10362.883188
322.229457,2834.553343,740.205942,9622.677246
322.229765,2681.334243,740.205942,9696.697840
322.230073,3370.820191,1036.288319,9992.780217
322.230381,2834.553343,518.144159,9622.677246
322.230689,2911.162892,444.123565,10362.883188
322.230997,2068.457845,-0.000000,9992.780217
322.231305,1915.238745,518.144159,10140.821405
322.231614,1608.800546,-0.000000,9992.780217
322.231922,1302.362347,-148.041188,10881.027347
322.232230,1302.362347,-592.164754,10732.986159
322.232538,1378.971896,-814.226536,10807.006753
322.232846,1532.190996,-1776.494261,11103.089130
322.233154,1991.848295,-1628.453072,10658.965565
322.233463,2221.676944,-2072.576638,10658.965565
322.233771,2987.772442,-1850.514855,10066.800811
322.234079,3447.429741,-1332.370696,9844.739029
322.234387,3753.867940,-1036.288319,9474.636058
322.234695,3907.087040,-518.144159,9474.636058
322.235003,4903.011187,-0.000000,9326.594869
322.235311,4749.792088,518.144159,8216.285956
322.235620,5056.230287,1036.288319,8290.306550
322.235928,5439.278036,962.267725,8290.306550
322.236236,4903.011187,592.164754,7846.182985
322.236544,4749.792088,592.164754,8364.327145
322.236852,4290.134789,222.061783,8512.368333
322.237160,3600.648841,-148.041188,9474.636058
322.237468,2834.553343,-370.102971,9770.718434
322.237777,3140.991542,-370.102971,10140.821405
322.238085,2604.724693,296.082377,9696.697840
322.238393,3677.258390,814.226536,9400.615463
322.238701,4136.915689,2146.597232,8734.430116
322.239009,4519.963438,2664.741391,8290.306550
322.239317,4749.792088,3034.844362,8290.306550
322.239626,4366.744339,2960.823768,8290.306550
322.239934,4136.915689,1554.432478,9400.615463
322.240242,2528.115143,370.102971,10140.821405
322.240550,1685.410096,-740.205942,11843.295072
322.240858,1072.533697,-2590.720797,12731.542202
322.241166,306.438199,-3256.906145,13249.686362
322.241474,536.266849,-3923.091493,13693.809927
322.241783,1225.752797,-3775.050304,13175.665768
322.242091,2528.115143,-2664.741391,11917.315666
322.242399,3524.039291,-1480.411884,9844.739029
322.242707,6665.030833,296.082377,9030.512492
322.243015,7354.516781,1776.494261,7179.997637
322.243323,7814.174080,2886.803174,5551.544565
322.243632,8427.050478,4589.276840,5403.503377
322.243940,8120.612279,5255.462188,4959.379811
322.244248,6588.421283,5181.441594,5033.400406
322.244556,5822.325785,4219.173869,6217.729913
322.244864,3907.087040,2738.761985,7772.162391
322.245172,2374.896044,1332.370696,9474.636058
322.245480,766.095498,-814.226536,10584.944971
322.245789,-383.047749,-1850.514855,12509.480420
322.246097,-919.314598,-3923.091493,13619.789333
322.246405,-842.705048,-4663.297435,14285.974681
322.246713,-153.219100,-4367.215058,14063.912898
322.247021,842.705048,-4145.153275,13471.748144
322.247329,2145.067394,-2960.823768,12361.439231
322.247638,3830.477490,-2072.576638,11177.109724
322.247946,6205.373534,-962.267725,9548.656652
322.248254,5822.325785,1332.370696,7328.038826
322.248562,7048.078582,2220.617826,6365.771101
322.248870,6665.030833,3256.906145,6143.709319
322.249178,6281.983084,3627.009116,6143.709319
322.249486,5822.325785,3478.967927,6069.688724
322.249795,4903.011187,2516.700203,7105.977043
322.250103,3447.429741,888.247130,7994.224174
322.250411,2604.724693,-518.144159,9400.615463
322.250719,1455.581446,-2664.741391,11917.315666
322.251027,612.876398,-3997.112087,12805.562797
322.251335,306.438199,-4663.297435,13545.768739
322.251643,1149.143247,-3701.029710,12879.583391
322.251952,2604.724693,-1850.514855,11473.192101
322.252260,5209.449386,592.164754,9622.677246
322.252568,6588.421283,3182.885551,6587.832884
322.252876,8044.002729,4959.379811,4959.379811
322.253184,8350.440928,6217.729913,3923.091493
322.253492,8197.221829,6661.853478,4663.297435
322.253801,7354.516781,5033.400406,5773.606348
322.254109,4826.401637,2738.761985,7698.141797
322.254417,1762.019645,-444.123565,10955.047942
322.254725,-1302.362347,-3997.112087,13619.789333
322.255033,-3294.210641,-4737.318029,15100.201217
322.255341,-3677.258390,-6661.853478,17394.839637
322.255649,-2604.724693,-6883.915261,17320.819043
322.255958,-1149.143247,-5181.441594,15692.365970
322.256266,1762.019645,-2220.617826,11991.336260
322.256574,4826.401637,740.205942,7920.203579
322.256882,7277.907231,3552.988522,6069.688724
322.257190,9422.974625,5847.626942,5107.421000
322.257498,9576.193725,5477.523971,3552.988522
322.257807,9806.022374,6217.729913,3108.864956
322.258115,7584.345430,4367.215058,4737.318029
322.258423,4979.620737,814.226536,7920.203579
322.258731,1838.629195,-1998.556043,10140.821405
322.259039,-536.266849,-3775.050304,12509.480420
322.259347,-1685.410096,-4293.194464,13471.748144
322.259655,-536.266849,-3997.112087,12583.501014
322.259964,1608.800546,-1184.329507,11769.274478
322.260272,3600.648841,1258.350101,9178.553681
322.260580,6281.983084,2960.823768,7550.100608
322.260888,6818.249932,4145.153275,6809.894666
322.261196,6818.249932,5033.400406,6957.935855
322.261504,5515.887586,3701.029710,8142.265362
322.261812,2987.772442,2442.679609,9474.636058
322.262121,229.828649,222.061783,11695.253884
322.262429,-612.876398,-1850.514855,12583.501014
322.262737,-3217.601092,-3108.864956,13915.871710
322.263045,-4366.744339,-4071.132681,14656.077652
322.263353,-3370.820191,-3182.885551,13619.789333
322.263661,-153.219100,-2664.741391,13471.748144
322.263970,1532.190996,-888.247130,9992.780217
322.264278,4519.963438,-148.041188,8586.388927
322.264586,4903.011187,-0.000000,8290.306550
322.264894,4749.792088,1036.288319,7031.956449
322.265202,5286.058936,1776.494261,7772.162391
322.265510,4366.744339,2590.720797,7846.182985
322.265818,4213.525239,2960.823768,7254.018232
322.266126,3447.429741,4515.256246,6217.729913
322.266434,3830.477490,4589.276840,6587.832884
322.266742,4596.572988,3849.070898,6661.853478
322.267050,3677.258390,2442.679609,7031.956449
322.267358,2604.724693,222.061783,9104.533087
322.267667,1149.143247,-2960.823768,11251.130318
322.267975,-995.924147,-4663.297435,14063.912898
322.268283,-2834.553343,-6069.688724,14434.015869
322.268591,-3370.820191,-5995.668130,13915.871710
322.268899,-3140.991542,-4367.215058,13323.706956
322.269207,-1838.629195,-1628.453072,11695.253884
322.269515,459.657299,296.082377,9770.718434
322.269823,2145.067394,2368.659014,8882.471304
322.270131,4366.744339,2368.659014,7179.997637
322.270439,4366.744339,3182.885551,4959.379811
322.270747,4060.306139,2960.823768,6439.791695
322.271056,3370.820191,1184.329507,8512.368333
322.271364,2604.724693,1480.411884,8586.388927
322.271672,1838.629195,1110.308913,9104.533087
322.271980,536.266849,888.247130,8882.471304
322.272288,1302.362347,2072.576638,8660.409521
322.272596,2221.676944,2368.659014,9178.553681
322.272904,2757.943793,962.267725,9474.636058
322.273212,1685.410096,-666.185348,9252.574275
322.273520,459.657299,-1850.514855,10584.944971
322.273828,-459.657299,-2960.823768,11843.295072
322.274136,-919.314598,-2812.782580,12139.377449
322.274444,-1072.533697,-1554.432478,11695.253884
322.274753,-1685.410096,-518.144159,10436.903782
322.275061,-459.657299,296.082377,10066.800811
322.275369,0.000000,888.247130,10584.944971
322.275677,383.047749,1554.432478,9400.615463
322.275985,919.314598,962.267725,9030.512492
322.276293,1532.190996,-518.144159,9104.533087
322.276601,-1455.581446,-74.020594,9548.656652
322.276909,919.314598,-1998.556043,12435.459826
322.277217,0.000000,222.061783,10140.821405
322.277525,1378.971896,888.247130,10140.821405
322.277833,2987.772442,1702.473667,8586.388927
322.278141,4060.306139,2664.741391,7624.121203
322.278450,4213.525239,1332.370696,8142.265362
322.278758,3907.087040,1332.370696,6587.832884
322.279066,3064.381992,-740.205942,9326.594869
322.279374,1072.533697,-1628.453072,10066.800811
322.279682,842.705048,-1998.556043,10658.965565
322.279990,-459.657299,-0.000000,10214.842000
322.280298,0.000000,-296.082377,9474.636058
322.280606,0.000000,1850.514855,9178.553681
322.280914,306.438199,1184.329507,9474.636058
322.281222,1072.533697,370.102971,10066.800811
322.281530,0.000000,518.144159,9844.739029
322.281839,-612.876398,-0.000000,10955.047942
322.282147,-995.924147,-962.267725,11547.212695
322.282455,0.000000,740.205942,10881.027347
322.282763,76.609550,2072.576638,10362.883188
322.283071,1838.629195,2664.741391,9178.553681
322.283379,2451.505594,3627.009116,7772.162391
322.283687,2987.772442,2146.597232,8438.347739
322.283995,2834.553343,-74.020594,9178.553681
322.284303,842.705048,-1924.535449,9622.677246
322.284611,-153.219100,-3404.947333,11769.274478
322.284919,-1072.533697,-4293.194464,11917.315666
322.285227,-1532.190996,-2738.761985,10732.986159
322.285536,-1149.143247,-1110.308913,10066.800811
322.285844,842.705048,370.102971,9326.594869
322.286152,1378.971896,2146.597232,8216.285956
322.286460,2911.162892,1850.514855,7624.121203
322.286768,2451.505594,1776.494261,7328.038826
322.287076,1378.971896,888.247130,7772.162391
322.287384,995.924147,-0.000000,9474.636058
322.287692,0.000000,296.082377,10214.842000
322.288000,-229.828649,74.020594,10436.903782
322.288308,-459.657299,1406.391290,9252.574275
322.288616,766.095498,1628.453072,9474.636058
322.288925,1608.800546,888.247130,9918.759623
322.289233,1838.629195,-0.000000,9770.718434
322.289541,1378.971896,-1554.432478,9770.718434
322.289849,-1455.581446,-3330.926739,10584.944971
322.290157,-1838.629195,-4441.235652,12583.501014
322.290465,-2145.067394,-3701.029710,12287.418637
322.290773,-2068.457845,-1480.411884,10732.986159
322.291081,-536.266849,740.205942,9622.677246
322.291389,229.828649,2516.700203,8068.244768
322.291697,1991.848295,3034.844362,8216.285956
322.292005,2298.286494,3108.864956,7179.997637
322.292313,1685.410096,2368.659014,7846.182985
322.292622,919.314598,1258.350101,9030.512492
322.292930,-229.828649,-0.000000,10288.862594
322.293238,-995.924147,370.102971,10881.027347
322.293546,-689.485948,444.123565,9992.780217
322.293854,612.876398,2072.576638,9400.615463
322.294162,1685.410096,2368.659014,8956.491898
322.294470,2451.505594,1110.308913,8660.409521
322.294778,2451.505594,148.041188,8734.430116
322.295086,919.314598,-1406.391290,9474.636058
322.295394,0.000000,-3478.967927,11473.192101
322.295702,-995.924147,-3404.947333,11917.315666
322.296010,-1608.800546,-2368.659014,11621.233289
322.296319,-1455.581446,-1110.308913,10584.944971
322.296627,0.000000,814.226536,9400.615463
322.296935,766.095498,2072.576638,8734.430116
322.297243,1838.629195,1850.514855,8068.244768
322.297551,1762.019645,1480.411884,7550.100608
322.297859,842.705048,296.082377,8734.430116
322.298167,383.047749,-518.144159,10214.842000
322.298475,229.828649,-296.082377,11029.068536
322.298783,-689.485948,-0.000000,10881.027347
322.299091,536.266849,1258.350101,10214.842000
322.299399,2145.067394,2442.679609,8660.409521
322.299708,2681.334243,2960.823768,8438.347739
322.300016,3064.381992,1184.329507,8734.430116
322.300324,3217.601092,-0.000000,8142.265362
322.300632,1762.019645,-1554.432478,9400.615463
322.300940,383.047749,-3404.947333,11177.109724
322.301248,-459.657299,-3034.844362,10881.027347
322.301556,-919.314598,-1776.494261,11029.068536
322.301864,-1072.533697,-518.144159,9474.636058
322.302172,153.219100,1184.329507,9770.718434
322.302480,1608.800546,1924.535449,9030.512492
322.302788,919.314598,2368.659014,7624.121203
322.303096,1149.143247,962.267725,8808.450710
322.303405,-153.219100,148.041188,9696.697840
322.303713,-229.828649,-222.061783,10732.986159
322.304021,-919.314598,592.164754,10584.944971
322.304329,1072.533697,666.185348,11103.089130
322.304637,153.219100,3182.885551,7772.162391
322.304945,1762.019645,3256.906145,7920.203579
322.305253,4290.134789,1850.514855,10362.883188
322.305561,2374.896044,1332.370696,6217.729913
322.305869,2298.286494,-1406.391290,8882.471304
322.306177,689.485948,-3478.967927,9696.697840
322.306485,-1838.629195,-4515.256246,10881.027347
322.306794,-1685.410096,-3849.070898,12509.480420
322.307102,-1225.752797,-1924.535449,10510.924376
322.307410,-229.828649,444.123565,9992.780217
322.307718,766.095498,1628.453072,8438.347739
322.308026,2451.505594,1998.556043,7846.182985
322.308334,1991.848295,1628.453072,8586.388927
322.308642,1455.581446,148.041188,8290.306550
322.308950,229.828649,222.061783,9622.677246
322.309258,383.047749,-148.041188,10436.903782
322.309566,-383.047749,74.020594,9992.780217
322.309874,689.485948,2368.659014,9474.636058
322.310182,1455.581446,3330.926739,9178.553681
322.310491,2757.943793,1480.411884,8512.368333
322.310799,2451.505594,1628.453072,8956.491898
322.311107,2145.067394,-1184.329507,9918.759623
322.311415,1149.143247,-3256.906145,9844.739029
322.311723,-536.266849,-3775.050304,11473.192101
322.312031,-1072.533697,-4145.153275,13841.851115
322.312339,-1608.800546,-2516.700203,11325.150913
322.312647,-689.485948,-0.000000,10214.842000
322.312955,842.705048,1554.432478,9104.533087
322.313263,1762.019645,3330.926739,7328.038826
322.313571,1685.410096,2886.803174,7994.224174
322.313879,2221.676944,2368.659014,8216.285956
322.314188,1302.362347,1554.432478,8512.368333
322.314496,-383.047749,962.267725,9844.739029
322.314804,612.876398,518.144159,11177.109724
322.315112,0.000000,1258.350101,9548.656652
322.315420,-229.828649,2960.823768,8734.430116
322.315728,2068.457845,2294.638420,9474.636058
322.316036,2451.505594,1924.535449,9178.553681
322.316344,2221.676944,-148.041188,10140.821405
322.316652,1149.143247,-1036.288319,9622.677246
322.316960,383.047749,-2886.803174,10288.862594
322.317268,-459.657299,-4441.235652,12065.356855
322.317577,-1532.190996,-3182.885551,11695.253884
322.317885,-995.924147,-1850.514855,11547.212695
322.318193,-612.876398,-518.144159,9326.594869
322.318501,229.828649,1924.535449,7994.224174
322.318809,1915.238745,2072.576638,8956.491898
322.319117,1302.362347,1702.473667,8290.306550
322.319425,919.314598,1480.411884,7994.224174
322.319733,459.657299,370.102971,9400.615463
322.320041,-153.219100,-0.000000,10214.842000
322.320349,-995.924147,592.164754,10140.821405
322.320657,229.828649,1110.308913,9918.759623
322.320965,306.438199,2368.659014,9178.553681
322.321274,2068.457845,2294.638420,8882.471304
322.321582,2604.724693,1628.453072,9178.553681
322.321890,1685.410096,-444.123565,8956.491898
322.322198,995.924147,-2516.700203,9918.759623
322.322506,-306.438199,-3849.070898,11547.212695
322.322814,-1072.533697,-4071.132681,12509.480420
322.323122,-1838.629195,-3256.906145,10732.986159
322.323430,-1072.533697,-222.061783,10066.800811
322.323738,612.876398,1184.329507,8882.471304
322.324046,1532.190996,2886.803174,7550.100608
322.324354,2374.896044,2812.782580,7772.162391
322.324662,1838.629195,2368.659014,7402.059420
322.324971,842.705048,1036.288319,9104.533087
322.325279,-229.828649,518.144159,10436.903782
322.325587,-842.705048,148.041188,10881.027347
322.325895,-153.219100,888.247130,10584.944971
322.326203,0.000000,2516.700203,9326.594869
322.326511,1225.752797,3256.906145,9918.759623
322.326819,2374.896044,1776.494261,9326.594869
322.327127,1608.800546,518.144159,8808.450710
322.327435,1685.410096,-1924.535449,9992.780217
322.327743,383.047749,-3701.029710,10510.924376
322.328051,-1149.143247,-4367.215058,12287.418637
322.328360,-995.924147,-4515.256246,12139.377449
322.328668,-766.095498,-1776.494261,11251.130318
322.328976,-766.095498,-0.000000,9030.512492
322.329284,1225.752797,1258.350101,9030.512492
322.329592,2145.067394,2738.761985,7920.203579
322.329900,2374.896044,2442.679609,7105.977043
322.330208,1915.238745,1332.370696,7624.121203
322.330516,383.047749,1036.288319,8512.368333
322.330824,0.000000,370.102971,10214.842000
322.331132,0.000000,1036.288319,10288.862594
322.331440,689.485948,2368.659014,9252.574275
322.331748,1149.143247,2886.803174,8956.491898
322.332057,1915.238745,2442.679609,9548.656652
322.332365,2068.457845,1036.288319,9326.594869
322.332673,2298.286494,-1258.350101,9696.697840
322.332981,612.876398,-2516.700203,10658.965565
322.333289,-995.924147,-4959.379811,12065.356855
322.333597,-1915.238745,-5107.421000,14063.912898
322.333905,-1762.019645,-3775.050304,12065.356855
322.334213,-1149.143247,-962.267725,10436.903782
322.334521,689.485948,1184.329507,9104.533087
322.334829,2068.457845,3182.885551,7179.997637
322.335137,2834.553343,3330.926739,7624.121203
322.335446,2911.162892,2146.597232,7550.100608
322.335754,2221.676944,1850.514855,8364.327145
322.336062,1378.971896,370.102971,9548.656652
322.336370,0.000000,1036.288319,9844.739029
322.336678,0.000000,1332.370696,10140.821405
322.336986,0.000000,2368.659014,8808.450710
322.337294,1685.410096,3034.844362,8734.430116
322.337602,2911.162892,2220.617826,8586.388927
322.337910,2451.505594,666.185348,7994.224174
322.338218,2145.067394,-1406.391290,9548.656652
322.338526,536.266849,-3627.009116,10658.965565
322.338834,-1378.971896,-4885.359217,12805.562797
322.339143,-1608.800546,-4441.235652,12953.603985
322.339451,-1455.581446,-2220.617826,11251.130318
322.339759,-766.095498,-370.102971,10066.800811
322.340067,689.485948,1406.391290,8956.491898
322.340375,2068.457845,1998.556043,7772.162391
322.340683,2681.334243,1850.514855,7550.100608
322.340991,2145.067394,1332.370696,7550.100608
322.341299,842.705048,-0.000000,8956.491898
322.341607,153.219100,370.102971,9992.780217
322.341915,0.000000,814.226536,10140.821405
322.342223,229.828649,1998.556043,8734.430116
322.342531,842.705048,3182.885551,8660.409521
322.342840,2145.067394,2664.741391,8882.471304
322.343148,3140.991542,2072.576638,8438.347739
322.343456,2757.943793,-0.000000,9104.533087
322.343764,1072.533697,-2368.659014,10066.800811
322.344072,0.000000,-3923.091493,11695.253884
322.344380,-1915.238745,-4441.235652,12805.562797
322.344688,-1455.581446,-3552.988522,11991.336260
322.344996,-689.485948,-1406.391290,10362.883188
322.345304,0.000000,592.164754,9474.636058
322.345612,1455.581446,1776.494261,9030.512492
322.345920,2374.896044,2368.659014,7846.182985
322.346229,1608.800546,2072.576638,7624.121203
322.346537,1302.362347,740.205942,8956.491898
322.346845,459.657299,-0.000000,9548.656652
322.347153,-919.314598,1406.391290,9992.780217
322.347461,0.000000,1036.288319,9992.780217
322.347769,612.876398,2590.720797,8956.491898
322.348077,1149.143247,3108.864956,8882.471304
322.348385,2834.553343,2664.741391,8068.244768
322.348693,2834.553343,1406.391290,8142.265362
322.349001,1685.410096,-1258.350101,9178.553681
322.349309,0.000000,-2886.803174,9770.718434
322.349617,-1302.362347,-4663.297435,12583.501014
322.349926,-1838.629195,-4515.256246,12953.603985
322.350234,-2145.067394,-2738.761985,10510.924376
322.350542,-306.438199,-370.102971,9474.636058
322.350850,1915.238745,1406.391290,8438.347739
322.351158,2374.896044,2886.803174,7994.224174
322.351466,2681.334243,2738.761985,7179.997637
322.351774,2451.505594,1850.514855,7846.182985
322.352082,1072.533697,1036.288319,8882.471304
322.352390,536.266849,370.102971,10436.903782
322.352698,0.000000,592.164754,10436.903782
322.353006,0.000000,1702.473667,9622.677246
322.353315,229.828649,2146.597232,9178.553681
322.353623,1685.410096,2442.679609,9474.636058
322.353931,2145.067394,1480.411884,8882.471304
322.354239,1455.581446,-666.185348,9548.656652
322.354547,306.438199,-3330.926739,10658.965565
322.354855,-1225.752797,-4441.235652,12213.398043
322.355163,-1915.238745,-5625.565159,13841.851115
322.355471,-1915.238745,-4071.132681,12065.356855
322.355779,-1072.533697,-1332.370696,10362.883188
322.356087,612.876398,1258.350101,8290.306550
322.356395,1915.238745,2590.720797,7994.224174
322.356703,2757.943793,3256.906145,7846.182985
322.357012,2604.724693,2516.700203,7031.956449
322.357320,1838.629195,1480.411884,8512.368333
322.357628,0.000000,296.082377,9104.533087
322.357936,306.438199,592.164754,10881.027347
322.358244,76.609550,1702.473667,9992.780217
322.358552,229.828649,2738.761985,9474.636058
322.358860,1302.362347,3330.926739,9104.533087
322.359168,2068.457845,3034.844362,8586.388927
322.359476,2145.067394,518.144159,9474.636058
322.359784,1225.752797,-1036.288319,9622.677246
322.360092,-689.485948,-3552.988522,11251.130318
322.360400,-1991.848295,-4589.276840,13175.665768
322.360709,-2068.457845,-4515.256246,13323.706956
322.361017,-2068.457845,-2442.679609,11695.253884
322.361325,-842.705048,-0.000000,9474.636058
322.361633,1302.362347,1924.535449,8882.471304
322.361941,1991.848295,2590.720797,7846.182985
322.362249,2451.505594,1924.535449,8068.244768
322.362557,2221.676944,1036.288319,7846.182985
322.362865,689.485948,222.061783,9252.574275
322.363173,76.609550,148.041188,9992.780217
322.363481,306.438199,888.247130,10288.862594
322.363789,383.047749,2368.659014,9400.615463
322.364098,1991.848295,3552.988522,8290.306550
322.364406,3064.381992,3997.112087,7476.080014
322.364714,3294.210641,2516.700203,7920.203579
322.365022,3217.601092,-0.000000,8882.471304
322.365330,1149.143247,-1702.473667,10288.862594
322.365638,-153.219100,-3997.112087,11251.130318
322.365946,-1532.190996,-5033.400406,13175.665768
322.366254,-2451.505594,-3552.988522,12361.439231
322.366562,-1838.629195,-2220.617826,11103.089130
322.366870,-153.219100,-0.000000,10066.800811
322.367178,995.924147,1480.411884,9326.594869
322.367485,1532.190996,1480.411884,8734.430116
322.367793,1302.362347,1258.350101,9178.553681
322.368101,1225.752797,-0.000000,9030.512492
322.368409,229.828649,592.164754,9030.512492
322.368717,76.609550,148.041188,10288.862594
322.369025,536.266849,1406.391290,9474.636058
322.369333,919.314598,3552.988522,8512.368333
322.369641,2451.505594,3330.926739,8216.285956
322.369949,2987.772442,2960.823768,7476.080014
322.370257,2987.772442,1702.473667,8364.327145
322.370565,1915.238745,-814.226536,9104.533087
322.370873,383.047749,-2590.720797,9918.759623
322.371181,-612.876398,-4441.235652,11843.295072
322.371488,-2068.457845,-4589.276840,12287.418637
322.371796,-2068.457845,-3256.906145,11473.192101
322.372104,-1302.362347,-1110.308913,10362.883188
322.372412,153.219100,740.205942,9918.759623
322.372720,1608.800546,1554.432478,8882.471304
322.373028,1532.190996,1702.473667,8586.388927
322.373336,1455.581446,1480.411884,7994.224174
322.373644,842.705048,666.185348,9104.533087
322.373952,306.438199,1332.370696,10140.821405
322.374260,153.219100,1554.432478,9992.780217
322.374568,153.219100,2368.659014,8660.409521
322.374876,919.314598,3330.926739,9844.739029
322.375184,1915.238745,2960.823768,9252.574275
322.375491,1838.629195,1924.535449,8808.450710
322.375799,1838.629195,-148.041188,9696.697840
322.376107,842.705048,-2072.576638,9770.718434
322.376415,-995.924147,-3849.070898,11695.253884
322.376723,-2221.676944,-4811.338623,13027.624579
322.377031,-2298.286494,-3552.988522,12583.501014
322.377339,-1378.971896,-1628.453072,10362.883188
322.377647,0.000000,370.102971,9474.636058
322.377955,2145.067394,1850.514855,8512.368333
322.378263,2298.286494,2738.761985,7624.121203
322.378571,2528.115143,2442.679609,7550.100608
322.378879,1991.848295,1184.329507,7846.182985
322.379187,689.485948,740.205942,9400.615463
322.379494,-459.657299,-0.000000,10510.924376
322.379802,0.000000,1258.350101,9918.759623
322.380110,306.438199,2220.617826,9918.759623
322.380418,842.705048,2368.659014,8808.450710
322.380726,1685.410096,1776.494261,9400.615463
322.381034,1991.848295,962.267725,9252.574275
322.381342,2068.457845,-888.247130,9104.533087
322.381650,612.876398,-2886.803174,10362.883188
322.381958,0.000000,-4219.173869,11843.295072
322.382266,-1455.581446,-4145.153275,12139.377449
322.382574,-1532.190996,-2516.700203,11547.212695
322.382882,-153.219100,-518.144159,10584.944971
322.383190,919.314598,1628.453072,8808.450710
322.383497,1915.238745,2294.638420,8512.368333
322.383805,2451.505594,1850.514855,7920.203579
322.384113,2221.676944,1258.350101,8290.306550
322.384421,2298.286494,-0.000000,9474.636058
322.384729,766.095498,-0.000000,9918.759623
322.385037,766.095498,962.267725,9622.677246
322.385345,153.219100,2442.679609,9400.615463
322.385653,1225.752797,3256.906145,8734.430116
322.385961,2528.115143,3849.070898,8216.285956
322.386269,3140.991542,3404.947333,7846.182985
322.386577,2604.724693,1036.288319,8512.368333
322.386885,1608.800546,-1110.308913,9844.739029
322.387193,306.438199,-2516.700203,11177.109724
322.387500,-1762.019645,-4589.276840,12583.501014
322.387808,-2451.505594,-3478.967927,12805.562797
322.388116,-2068.457845,-1924.535449,11177.109724
322.388424,-1149.143247,-148.041188,10288.862594
322.388732,153.219100,1110.308913,9326.594869
322.389040,1838.629195,1702.473667,8660.409521
322.389348,2068.457845,962.267725,8290.306550
322.389656,1532.190996,370.102971,8290.306550
322.389964,1302.362347,-0.000000,9104.533087
322.390272,842.705048,296.082377,9474.636058
322.390580,459.657299,1480.411884,9474.636058
322.390888,842.705048,3034.844362,8438.347739
322.391196,1991.848295,3923.091493,7698.141797
322.391503,2834.553343,3627.009116,7254.018232
322.391811,2528.115143,1924.535449,8142.265362
322.392119,2681.334243,-518.144159,9474.636058
322.392427,383.047749,-2368.659014,10214.842000
322.392735,-919.314598,-4293.194464,11917.315666
322.393043,-2374.896044,-4737.318029,12583.501014
322.393351,-2834.553343,-3330.926739,12361.439231
322.393659,-2221.676944,-1776.494261,11325.150913
322.393967,-612.876398,-0.000000,10362.883188
322.394275,229.828649,1036.288319,10214.842000
322.394583,1991.848295,592.164754,9548.656652
322.394891,1149.143247,296.082377,8882.471304
322.395199,459.657299,-0.000000,9104.533087
322.395506,0.000000,-296.082377,10362.883188
322.395814,0.000000,666.185348,9992.780217
322.396122,76.609550,1924.535449,9474.636058
322.396430,995.924147,3701.029710,8142.265362
322.396738,2834.553343,4145.153275,7476.080014
322.397046,3064.381992,3182.885551,8364.327145
322.397354,3217.601092,1036.288319,7698.141797
322.397662,2451.505594,-592.164754,8660.409521
322.397970,153.219100,-2886.803174,10807.006753
322.398278,-1378.971896,-4219.173869,12065.356855
322.398586,-2145.067394,-3404.947333,12509.480420
322.398894,-2451.505594,-2146.597232,11991.336260
322.399202,-536.266849,-592.164754,10288.862594
322.399509,76.609550,1406.391290,9696.697840
322.399817,1225.752797,1406.391290,9548.656652
322.400125,1762.019645,962.267725,8364.327145
322.400433,1685.410096,592.164754,8512.368333
322.400741,1302.362347,-74.020594,9474.636058
322.401049,76.609550,222.061783,9252.574275
322.401357,0.000000,1332.370696,9844.739029
322.401665,229.828649,2072.576638,9622.677246
322.401973,1302.362347,3108.864956,8364.327145
322.402281,2068.457845,3404.947333,8734.430116
322.402589,2681.334243,1850.514855,8956.491898
322.402897,2451.505594,370.102971,8290.306550
322.403205,995.924147,-1702.473667,10066.800811
322.403512,76.609550,-3404.947333,11695.253884
322.403820,-1685.410096,-3923.091493,11473.192101
322.404128,-2145.067394,-2738.761985,11473.192101
322.404436,-766.095498,-1184.329507,10436.903782
322.404744,-459.657299,814.226536,9178.553681
322.405052,1225.752797,1702.473667,9474.636058
322.405360,1915.238745,1776.494261,7920.203579
322.405668,2451.505594,666.185348,7328.038826
322.405976,1072.533697,666.185348,9326.594869
322.406284,689.485948,-518.144159,10881.027347
322.406592,-306.438199,-0.000000,9696.697840
322.406900,766.095498,1480.411884,9992.780217
322.407207,842.705048,2220.617826,8734.430116
322.407515,2068.457845,3627.009116,8808.450710
322.407823,2834.553343,2442.679609,8808.450710
322.408131,2987.772442,1554.432478,7328.038826
322.408439,2298.286494,-74.020594,8660.409521
322.408747,1072.533697,-2516.700203,10362.883188
322.409055,-536.266849,-4071.132681,11251.130318
322.409363,-2374.896044,-3478.967927,11843.295072
322.409671,-2068.457845,-2220.617826,10658.965565
322.409979,-1302.362347,-222.061783,9770.718434
322.410287,-383.047749,888.247130,9770.718434
322.410595,1378.971896,1776.494261,9178.553681
322.410903,1915.238745,1628.453072,8216.285956
322.411210,1225.752797,1036.288319,8438.347739
322.411518,1225.752797,-518.144159,9474.636058
322.411826,612.876398,-0.000000,9992.780217
322.412134,153.219100,518.144159,10881.027347
322.412442,919.314598,1776.494261,9030.512492
322.412750,1685.410096,3256.906145,8068.244768
322.413058,2757.943793,3404.947333,7624.121203
322.413366,2987.772442,1850.514855,8068.244768
322.413674,3524.039291,444.123565,8512.368333
322.413982,1072.533697,-1554.432478,9178.553681
322.414290,76.609550,-3775.050304,11029.068536
322.414598,-1608.800546,-4145.153275,11917.315666
322.414906,-2221.676944,-3404.947333,11843.295072
322.415213,-2145.067394,-666.185348,10214.842000
322.415521,-689.485948,518.144159,9770.718434
322.415829,612.876398,2072.576638,9548.656652
322.416137,2221.676944,1406.391290,8364.327145
322.416445,2374.896044,1258.350101,7698.141797
322.416753,1608.800546,-0.000000,8438.347739
322.417061,842.705048,-0.000000,9548.656652
322.417369,383.047749,296.082377,9918.759623
322.417677,536.266849,1258.350101,10288.862594
322.417985,612.876398,2442.679609,8956.491898
322.418293,1685.410096,2738.761985,8660.409521
322.418601,2757.943793,2294.638420,8512.368333
322.418909,2298.286494,592.164754,8586.388927
322.419216,2145.067394,-740.205942,9918.759623
322.419524,689.485948,-2812.782580,10658.965565
322.419832,-612.876398,-4071.132681,11251.130318
322.420140,-1915.238745,-3552.988522,11843.295072
322.420448,-1762.019645,-1776.494261,11251.130318
322.420756,-995.924147,518.144159,9844.739029
322.421064,459.657299,1998.556043,9326.594869
322.421372,1302.362347,2220.617826,8734.430116
322.421680,1915.238745,2072.576638,8586.388927
322.421988,842.705048,592.164754,8734.430116
322.422296,459.657299,148.041188,9696.697840
322.422604,0.000000,-0.000000,10732.986159
322.422912,-995.924147,-296.082377,11473.192101
322.423219,-689.485948,1406.391290,9992.780217
322.423527,229.828649,2516.700203,9474.636058
322.423835,1225.752797,2146.597232,9400.615463
322.424143,2681.334243,1850.514855,8882.471304
322.424451,3217.601092,-74.020594,8808.450710
322.424759,1532.190996,-1332.370696,9030.512492
322.425067,612.876398,-3552.988522,10584.944971
322.425375,-689.485948,-3182.885551,11325.150913
322.425683,-1378.971896,-2738.761985,11917.315666
322.425991,-1225.752797,-888.247130,9992.780217
322.426299,-459.657299,1332.370696,8734.430116
322.426607,1685.410096,2368.659014,8660.409521
322.426915,1225.752797,2146.597232,7772.162391
322.427222,2374.896044,2072.576638,8068.244768
322.427530,919.314598,296.082377,9104.533087
322.427838,153.219100,-740.205942,10214.842000
322.428146,-1455.581446,-814.226536,11029.068536
322.428454,-842.705048,-0.000000,11473.192101
322.428762,-459.657299,1406.391290,9252.574275
322.429070,842.705048,2368.659014,9326.594869
322.429378,2298.286494,1776.494261,9252.574275
322.429686,2834.553343,1110.308913,8290.306550
322.429994,2757.943793,-814.226536,9178.553681
322.430302,1149.143247,-1850.514855,9326.594869
322.430610,0.000000,-3552.988522,10732.986159
322.430918,-1532.190996,-3627.009116,12657.521608
322.431225,-1838.629195,-1998.556043,10658.965565
322.431533,-1149.143247,1110.308913,9104.533087
322.431841,612.876398,1998.556043,9622.677246
322.432149,1608.800546,2738.761985,8438.347739
322.432457,1838.629195,2664.741391,7254.018232
322.432765,2221.676944,1554.432478,8512.368333
322.433073,842.705048,592.164754,9030.512492
322.433381,0.000000,370.102971,10584.944971
322.433689,229.828649,-0.000000,10510.924376
322.433997,536.266849,1628.453072,8882.471304
322.434305,1608.800546,2738.761985,9104.533087
322.434613,1762.019645,2960.823768,7846.182985
322.434921,3140.991542,1924.535449,8956.491898
322.435228,2834.553343,-0.000000,8660.409521
322.435536,766.095498,-1406.391290,9474.636058
322.435844,0.000000,-4441.235652,12287.418637
322.436152,-1455.581446,-4293.194464,12509.480420
322.436460,-2451.505594,-2960.823768,12509.480420
322.436768,-2221.676944,-1998.556043,11251.130318
322.437076,-1225.752797,1036.288319,9622.677246
322.437384,76.609550,1924.535449,9770.718434
322.437692,1149.143247,2072.576638,8882.471304
322.438000,1455.581446,2590.720797,8142.265362
322.438308,1532.190996,1332.370696,8068.244768
322.438616,306.438199,740.205942,8956.491898
322.438924,459.657299,148.041188,9918.759623
322.439231,229.828649,1258.350101,9696.697840
322.439539,766.095498,2220.617826,8882.471304
322.439847,1685.410096,2516.700203,8290.306550
322.440155,2681.334243,1628.453072,9548.656652
322.440463,2911.162892,740.205942,8364.327145
322.440771,2528.115143,-814.226536,8512.368333
322.441079,1302.362347,-2516.700203,9844.739029
322.441387,-306.438199,-3775.050304,11695.253884
322.441695,-1532.190996,-4071.132681,11843.295072
322.442003,-1762.019645,-2220.617826,11325.150913
322.442311,-842.705048,-296.082377,9844.739029
322.442619,0.000000,1480.411884,8956.491898
322.442927,689.485948,2146.597232,8882.471304
322.443234,1915.238745,1702.473667,7772.162391
322.443542,1532.190996,888.247130,7328.038826
322.443850,1455.581446,296.082377,8660.409521
322.444158,76.609550,-296.082377,9844.739029
322.444466,-153.219100,-0.000000,10436.903782
322.444774,-153.219100,888.247130,9918.759623
322.445082,919.314598,2146.597232,8586.388927
322.445390,2604.724693,1850.514855,8660.409521
322.445698,2987.772442,1924.535449,8438.347739
322.446006,3217.601092,518.144159,8290.306550
322.446314,3064.381992,-1406.391290,9104.533087
322.446622,1378.971896,-2738.761985,10362.883188
322.446930,-383.047749,-3552.988522,11621.233289
322.447237,-1302.362347,-3330.926739,11769.274478
322.447545,-1532.190996,-1554.432478,11029.068536
322.447853,-1225.752797,296.082377,10436.903782
322.448161,229.828649,1332.370696,9992.780217
322.448469,995.924147,1924.535449,9030.512492
322.448777,612.876398,2146.597232,8512.368333
322.449085,1072.533697,1406.391290,8734.430116
322.449393,306.438199,888.247130,9622.677246
322.449701,-153.219100,740.205942,10362.883188
322.450009,0.000000,1184.329507,10066.800811
322.450317,459.657299,2146.597232,9178.553681
322.450625,1225.752797,2886.803174,9178.553681
322.450933,2451.505594,2516.700203,9104.533087
322.451240,2681.334243,1554.432478,8956.491898
322.451548,2298.286494,-370.102971,9474.636058
322.451856,1225.752797,-2442.679609,9696.697840
322.452164,0.000000,-3775.050304,11547.212695
322.452472,-1455.581446,-4663.297435,12731.542202
322.452780,-2145.067394,-3330.926739,12213.398043
322.453088,-1838.629195,-1184.329507,10362.883188
322.453396,229.828649,666.185348,9326.594869
322.453704,1302.362347,2220.617826,8364.327145
322.454012,1685.410096,2590.720797,7994.224174
322.454320,1685.410096,2516.700203,7624.121203
322.454628,919.314598,1628.453072,8290.306550
322.454936,76.609550,1554.432478,9326.594869
322.455243,0.000000,888.247130,10214.842000
322.455551,-689.485948,1776.494261,9548.656652
322.455859,-229.828649,2220.617826,9474.636058
322.456167,1762.019645,2442.679609,10214.842000
322.456475,1762.019645,1850.514855,9326.594869
322.456783,2298.286494,-0.000000,8956.491898
322.457091,1991.848295,-1924.535449,9474.636058
322.457399,612.876398,-3108.864956,10362.883188
322.457707,-689.485948,-5847.626942,12213.398043
322.458015,-1762.019645,-4737.318029,12213.398043
322.458323,-1608.800546,-3108.864956,11695.253884
322.458631,-919.314598,-222.061783,9548.656652
322.458938,842.705048,1998.556043,8216.285956
322.459246,2451.505594,3182.885551,7994.224174
322.459554,2604.724693,3404.947333,6809.894666
322.459862,2451.505594,2664.741391,6883.915261
322.460170,1838.629195,1776.494261,8216.285956
322.460478,383.047749,888.247130,10140.821405
322.460786,-689.485948,1184.329507,9474.636058
322.461094,-229.828649,1480.411884,9918.759623
322.461402,689.485948,1924.535449,9548.656652
322.461710,1149.143247,2146.597232,9178.553681
322.462018,2068.457845,370.102971,9696.697840
322.462326,1532.190996,-1036.288319,8882.471304
322.462634,766.095498,-3182.885551,9992.780217
322.462941,-612.876398,-4737.318029,11399.171507
322.463249,-1915.238745,-4737.318029,12287.418637
322.463557,-2068.457845,-3478.967927,13027.624579
322.463865,-1302.362347,-1184.329507,10510.924376
322.464173,612.876398,1406.391290,8734.430116
322.464481,1838.629195,2368.659014,8216.285956
322.464789,2451.505594,3330.926739,7402.059420
322.465097,2528.115143,2368.659014,7105.977043
322.465405,2298.286494,1184.329507,7772.162391
322.465713,612.876398,222.061783,9178.553681
322.466021,-229.828649,296.082377,10288.862594
322.466329,-383.047749,1036.288319,10362.883188
322.466637,0.000000,2442.679609,9252.574275
322.466944,1149.143247,2812.782580,8734.430116
322.467252,2451.505594,2368.659014,9104.533087
322.467560,2451.505594,666.185348,9030.512492
322.467869,1685.410096,-592.164754,9474.636058
322.468177,612.876398,-3256.906145,10955.047942
322.468485,-1149.143247,-4219.173869,12213.398043
322.468793,-1685.410096,-4219.173869,12583.501014
322.469101,-2145.067394,-2368.659014,11547.212695
322.469409,-1455.581446,-296.082377,10362.883188
322.469717,383.047749,1406.391290,9622.677246
322.470025,1608.800546,2294.638420,8290.306550
322.470333,2451.505594,2220.617826,8216.285956
322.470641,2451.505594,1998.556043,7254.018232
322.470949,1149.143247,1110.308913,8734.430116
322.471257,459.657299,518.144159,10214.842000
322.471565,229.828649,1480.411884,9622.677246
322.471873,229.828649,2442.679609,9400.615463
322.472181,1149.143247,2664.741391,9030.512492
322.472490,2604.724693,2886.803174,8586.388927
322.472798,2451.505594,1332.370696,8290.306550
322.473106,2681.334243,518.144159,8882.471304
322.473414,1685.410096,-1406.391290,9770.718434
322.473722,383.047749,-3552.988522,11399.171507
322.474030,-1225.752797,-4367.215058,12287.418637
322.474338,-2068.457845,-3775.050304,12509.480420
322.474646,-1838.629195,-1998.556043,10881.027347
322.474954,-689.485948,-0.000000,10066.800811
322.475262,689.485948,1480.411884,8956.491898
322.475570,2221.676944,1702.473667,8364.327145
322.475878,1762.019645,1998.556043,7994.224174
322.476186,1072.533697,962.267725,8586.388927
322.476494,306.438199,518.144159,9400.615463
322.476802,0.000000,518.144159,9844.739029
322.477110,306.438199,1554.432478,9474.636058
322.477419,306.438199,2664.741391,8660.409521
322.477727,1608.800546,2590.720797,9696.697840
322.478035,2068.457845,2442.679609,8438.347739
322.478343,2374.896044,1184.329507,8364.327145
322.478651,2068.457845,-1184.329507,9474.636058
322.478959,689.485948,-2812.782580,10140.821405
322.479267,-689.485948,-4441.235652,11695.253884
322.479575,-2068.457845,-4737.318029,12509.480420
322.479883,-2145.067394,-3404.947333,11251.130318
322.480191,-1225.752797,-370.102971,9992.780217
322.480499,383.047749,1406.391290,9326.594869
322.480807,1838.629195,2294.638420,7624.121203
322.481115,2604.724693,2516.700203,7328.038826
322.481423,2221.676944,2294.638420,7328.038826
322.481731,1072.533697,1332.370696,8142.265362
322.482040,0.000000,444.123565,10066.800811
322.482348,-919.314598,1036.288319,10732.986159
322.482656,-1302.362347,1184.329507,9918.759623
322.482964,383.047749,2368.659014,9474.636058
322.483272,1455.581446,2442.679609,9548.656652
322.483580,1762.019645,1702.473667,8512.368333
322.483888,2451.505594,-296.082377,9400.615463
322.484196,1838.629195,-1998.556043,9992.780217
322.484504,0.000000,-4145.153275,11029.068536
322.484812,-842.705048,-4737.318029,12065.356855
322.485120,-919.314598,-3701.029710,11917.315666
322.485428,-995.924147,-1776.494261,10140.821405
322.485736,-306.438199,1036.288319,8882.471304
322.486044,1608.800546,1776.494261,9178.553681
322.486352,2221.676944,2442.679609,8142.265362
322.486661,2451.505594,2220.617826,7105.977043
322.486969,1685.410096,1554.432478,8290.306550
322.487277,766.095498,962.267725,9474.636058
322.487585,76.609550,962.267725,9918.759623
322.487893,0.000000,1850.514855,9844.739029
322.488201,536.266849,2516.700203,9474.636058
322.488509,1838.629195,3552.988522,8734.430116
322.488817,2834.553343,3034.844362,8956.491898
322.489125,2757.943793,1184.329507,9178.553681
322.489433,2757.943793,-814.226536,9178.553681
322.489741,536.266849,-3182.885551,10288.862594
322.490049,-1225.752797,-4885.359217,12509.480420
322.490357,-1915.238745,-5107.421000,13545.768739
322.490665,-3524.039291,-3775.050304,12139.377449
322.490973,-1991.848295,-1776.494261,11251.130318
322.491281,229.828649,-0.000000,9474.636058
322.491590,1149.143247,2072.576638,8882.471304
322.491898,2374.896044,2368.659014,7994.224174
322.492206,2604.724693,2146.597232,6883.915261
322.492514,1072.533697,1702.473667,8512.368333
322.492822,995.924147,1554.432478,9696.697840
322.493130,306.438199,2294.638420,8586.388927
322.493438,383.047749,3108.864956,8808.450710
322.493746,1455.581446,3404.947333,8290.306550
322.494054,1838.629195,3997.112087,7846.182985
322.494362,1685.410096,1850.514855,9326.594869
322.494670,2145.067394,-666.185348,9474.636058
322.494978,842.705048,-2294.638420,9770.718434
322.495286,-1225.752797,-4959.379811,12731.542202
322.495594,-2298.286494,-6217.729913,13323.706956
322.495902,-3447.429741,-4885.359217,13027.624579
322.496211,-3140.991542,-3552.988522,12805.562797
322.496519,-1378.971896,-222.061783,9548.656652
322.496827,689.485948,1702.473667,9770.718434
322.497135,2221.676944,2072.576638,8660.409521
322.497443,3064.381992,2294.638420,6735.874072
322.497751,2757.943793,2072.576638,7105.977043
322.498059,1608.800546,1184.329507,8882.471304
322.498367,689.485948,1702.473667,8882.471304
322.498675,306.438199,2146.597232,8956.491898
322.498983,612.876398,2960.823768,9252.574275
322.499291,1149.143247,3182.885551,7772.162391
322.499599,2757.943793,2664.741391,8734.430116
322.499907,3677.258390,1554.432478,8660.409521
322.500215,2451.505594,-148.041188,7772.162391
322.500523,1608.800546,-2442.679609,10362.883188
322.500832,-153.219100,-4219.173869,11621.233289
322.501140,-1991.848295,-4737.318029,12657.521608
322.501448,-1838.629195,-3627.009116,12361.439231
322.501756,-1149.143247,-1924.535449,10732.986159
322.502064,-1225.752797,740.205942,9696.697840
322.502372,919.314598,1924.535449,9918.759623
322.502680,2834.553343,1332.370696,9918.759623
322.502988,0.000000,2294.638420,6809.894666
322.503296,1455.581446,-74.020594,9918.759623
322.503604,0.000000,296.082377,10214.842000
322.503912,-689.485948,962.267725,9844.739029
322.504220,383.047749,1184.329507,9844.739029
322.504528,1149.143247,3108.864956,7920.203579
322.504836,2681.334243,3182.885551,9178.553681
322.505144,3217.601092,2368.659014,7624.121203
322.505452,3677.258390,1998.556043,7105.977043
322.505761,2528.115143,-444.123565,8216.285956
322.506069,1532.190996,-2368.659014,9770.718434
322.506377,-612.876398,-3034.844362,11399.171507
322.506685,-1378.971896,-4367.215058,12065.356855
322.506993,-1532.190996,-2368.659014,10807.006753
322.507301,-1072.533697,-370.102971,9696.697840
322.507609,536.266849,962.267725,10510.924376
322.507917,689.485948,1184.329507,9178.553681
322.508225,1149.143247,1628.453072,8660.409521
322.508533,1302.362347,1036.288319,8734.430116
322.508841,306.438199,592.164754,9104.533087
322.509149,153.219100,592.164754,10732.986159
322.509457,0.000000,1702.473667,10362.883188
322.509765,0.000000,2960.823768,9474.636058
322.510073,1225.752797,3404.947333,9326.594869
322.510382,2145.067394,3182.885551,8512.368333
322.510690,2451.505594,1702.473667,8364.327145
322.510998,1685.410096,-296.082377,8734.430116
322.511306,459.657299,-1998.556043,9918.759623
322.511614,-536.266849,-4663.297435,11917.315666
322.511922,-1991.848295,-4737.318029,11843.295072
322.512230,-2374.896044,-3552.988522,11769.274478
322.512538,-1762.019645,-1702.473667,11103.089130
322.512846,459.657299,222.061783,9474.636058
322.513154,1991.848295,1702.473667,8364.327145
322.513462,2604.724693,2516.700203,7550.100608
322.513770,3294.210641,1998.556043,7624.121203
322.514078,2068.457845,1554.432478,7179.997637
322.514386,1455.581446,1480.411884,9030.512492
322.514694,919.314598,1332.370696,9400.615463
322.515003,229.828649,2220.617826,9474.636058
322.515311,689.485948,2812.782580,9252.574275
322.515619,1302.362347,3108.864956,8808.450710
322.515927,1532.190996,1776.494261,9696.697840
322.516235,2221.676944,222.061783,9252.574275
322.516543,1378.971896,-1998.556043,9918.759623
322.516851,-229.828649,-4367.215058,11177.109724
322.517159,-1532.190996,-5255.462188,12213.398043
322.517467,-2374.896044,-4515.256246,12583.501014
322.517775,-2374.896044,-3256.906145,11991.336260
322.518083,-919.314598,-592.164754,10214.842000
322.518391,766.095498,1554.432478,8956.491898
322.518699,2374.896044,2294.638420,8142.265362
322.519007,2681.334243,2146.597232,7254.018232
322.519315,2221.676944,2368.659014,7328.038826
322.519623,2451.505594,1110.308913,9400.615463
322.519932,76.609550,1184.329507,8290.306550
322.520240,689.485948,1850.514855,10214.842000
322.520548,1225.752797,2590.720797,9474.636058
322.520856,612.876398,4071.132681,7550.100608
322.521164,2681.334243,2368.659014,9622.677246
322.521472,3217.601092,2516.700203,7698.141797
322.521780,2911.162892,-0.000000,9326.594869
322.522088,1225.752797,-1702.473667,9474.636058
322.522396,0.000000,-3256.906145,11843.295072
322.522704,-1915.238745,-4589.276840,13101.645173
322.523012,-3064.381992,-3627.009116,12805.562797
322.523320,-2145.067394,-2220.617826,12139.377449
322.523628,-1608.800546,-222.061783,9992.780217
322.523936,-306.438199,296.082377,10436.903782
322.524244,1838.629195,814.226536,9548.656652
322.524553,1685.410096,814.226536,8290.306550
322.524861,459.657299,666.185348,9104.533087
322.525169,153.219100,-0.000000,9474.636058
322.525477,76.609550,962.267725,11103.089130
322.525785,-153.219100,2146.597232,9474.636058
322.526093,1838.629195,2738.761985,8142.265362
322.526401,2374.896044,4219.173869,7846.182985
322.526709,3217.601092,3108.864956,8142.265362
322.527017,4136.915689,1924.535449,7476.080014
322.527325,2757.943793,592.164754,7624.121203
322.527633,1608.800546,-1998.556043,9474.636058
322.527941,-306.438199,-3034.844362,9844.739029
322.528249,-1762.019645,-3404.947333,12139.377449
322.528557,-2528.115143,-3256.906145,11399.171507
322.528865,-1608.800546,-888.247130,10881.027347
322.529174,-383.047749,-0.000000,9696.697840
322.529482,229.828649,1110.308913,9770.718434
322.529790,1302.362347,518.144159,9622.677246
322.530098,536.266849,518.144159,8734.430116
322.530406,0.000000,-0.000000,10140.821405
322.530714,76.609550,-74.020594,10362.883188
322.531022,-842.705048,740.205942,10807.006753
322.531330,229.828649,1850.514855,10214.842000
322.531638,1532.190996,3108.864956,7550.100608
322.531946,2987.772442,3997.112087,8290.306550
322.532254,3217.601092,2220.617826,8216.285956
322.532562,3064.381992,592.164754,7476.080014
322.532870,2374.896044,-1036.288319,8808.450710
322.533178,766.095498,-2812.782580,9992.780217
322.533486,-612.876398,-4071.132681,10807.006753
322.533794,-1378.971896,-3330.926739,11177.109724
322.534103,-1225.752797,-2220.617826,11029.068536
322.534411,-766.095498,222.061783,9548.656652
322.534719,842.705048,1480.411884,9400.615463
322.535027,1149.143247,1628.453072,8734.430116
322.535335,2298.286494,1776.494261,7624.121203
322.535643,689.485948,888.247130,8586.388927
322.535951,-383.047749,-222.061783,10658.965565
322.536259,0.000000,-74.020594,11103.089130
322.536567,-1225.752797,1332.370696,10510.924376
322.536875,0.000000,1998.556043,10140.821405
322.537183,1149.143247,3108.864956,8660.409521
322.537491,2374.896044,2590.720797,9030.512492
322.537799,2298.286494,1702.473667,8882.471304
322.538107,2068.457845,-666.185348,9326.594869
322.538415,306.438199,-2368.659014,10584.944971
322.538724,-459.657299,-3330.926739,11695.253884
322.539032,-1225.752797,-3552.988522,12583.501014
322.539340,-2681.334243,-2146.597232,11399.171507
322.539648,-612.876398,-148.041188,10732.986159
322.539956,0.000000,1850.514855,8956.491898
322.540264,1762.019645,2516.700203,8512.368333
322.540572,2528.115143,2738.761985,7994.224174
322.540880,2221.676944,2220.617826,7772.162391
322.541188,1455.581446,1036.288319,8882.471304
322.541496,229.828649,222.061783,10436.903782
322.541804,-306.438199,370.102971,10584.944971
322.542112,76.609550,1480.411884,10362.883188
322.542420,1608.800546,2516.700203,9030.512492
322.542728,2451.505594,3108.864956,8512.368333
322.543036,3217.601092,2072.576638,8290.306550
322.543345,2681.334243,814.226536,8882.471304
322.543653,1915.238745,-1480.411884,9622.677246
322.543961,612.876398,-3404.947333,11103.089130
322.544269,-995.924147,-3923.091493,11917.315666
322.544577,-1915.238745,-3923.091493,12139.377449
322.544885,-2528.115143,-2072.576638,10955.047942
322.545193,-919.314598,-0.000000,10214.842000
322.545501,842.705048,1184.329507,9622.677246
322.545809,1378.971896,2146.597232,8068.244768
322.546117,2834.553343,1924.535449,7698.141797
322.546425,2451.505594,1110.308913,7772.162391
322.546733,995.924147,148.041188,9474.636058
322.547041,766.095498,740.205942,9252.574275
322.547349,842.705048,1480.411884,9474.636058
322.547657,919.314598,1776.494261,9178.553681
322.547965,1762.019645,2590.720797,8364.327145
322.548274,3064.381992,2368.659014,8734.430116
322.548582,2451.505594,740.205942,7846.182985
322.548890,2528.115143,-592.164754,8586.388927
322.549198,612.876398,-2516.700203,9548.656652
322.549506,-919.314598,-4737.318029,11843.295072
322.549814,-2298.286494,-4441.235652,12213.398043
322.550122,-2681.334243,-2960.823768,11473.192101
322.550430,-1302.362347,-1258.350101,10584.944971
322.550738,-842.705048,1110.308913,9474.636058
322.551046,919.314598,1998.556043,9474.636058
322.551354,1455.581446,1776.494261,8808.450710
322.551662,1225.752797,1702.473667,7698.141797
322.551970,995.924147,740.205942,9326.594869
322.552278,-229.828649,1110.308913,9252.574275
322.552586,0.000000,518.144159,10955.047942
322.552895,306.438199,2146.597232,9696.697840
322.553203,1302.362347,2738.761985,8956.491898
322.553511,2604.724693,2960.823768,7994.224174
322.553819,3524.039291,2590.720797,8364.327145
322.554127,3447.429741,740.205942,8586.388927
322.554435,1838.629195,-888.247130,8734.430116
322.554743,459.657299,-2960.823768,10807.006753
322.555051,-1072.533697,-3849.070898,11547.212695
322.555359,-2145.067394,-3404.947333,12065.356855
322.555667,-2374.896044,-1332.370696,11103.089130
322.555975,-1225.752797,-296.082377,9992.780217
322.556283,766.095498,1702.473667,9918.759623
322.556591,1072.533697,1998.556043,9326.594869
322.556899,1378.971896,1480.411884,9030.512492
322.557207,459.657299,1036.288319,9252.574275
322.557516,0.000000,-0.000000,10584.944971
322.557824,-459.657299,-518.144159,11695.253884
322.558132,-995.924147,222.061783,11399.171507
322.558440,153.219100,1332.370696,9400.615463
322.558748,1838.629195,2442.679609,8956.491898
322.559056,3140.991542,2664.741391,7994.224174
322.559364,3524.039291,1628.453072,7624.121203
322.559672,3370.820191,370.102971,8364.327145
322.559980,2451.505594,-1480.411884,8882.471304
322.560288,1378.971896,-2812.782580,10362.883188
322.560596,-689.485948,-3182.885551,10955.047942
322.560904,-612.876398,-2368.659014,11177.109724
322.561212,-536.266849,-444.123565,9918.759623
322.561520,229.828649,1258.350101,9326.594869
322.561828,1225.752797,1702.473667,9104.533087
322.562136,1532.190996,2146.597232,8364.327145
322.562445,766.095498,1628.453072,8586.388927
322.562753,459.657299,370.102971,9918.759623
322.563061,-919.314598,-814.226536,10732.986159
322.563369,-1302.362347,-0.000000,11399.171507
322.563677,0.000000,962.267725,10510.924376
322.563985,459.657299,1850.514855,9474.636058
322.564293,1302.362347,2146.597232,8956.491898
322.564601,3217.601092,1332.370696,8882.471304
322.564909,2911.162892,444.123565,8586.388927
322.565217,2221.676944,-1480.411884,9178.553681
322.565525,1072.533697,-3182.885551,9770.718434
322.565833,-306.438199,-3997.112087,11251.130318
322.566141,-2145.067394,-3923.091493,11325.150913
322.566449,-766.095498,-1776.494261,10066.800811
322.566757,-229.828649,592.164754,9030.512492
322.567065,995.924147,1332.370696,8586.388927
322.567373,2451.505594,2220.617826,7624.121203
322.567681,2987.772442,2516.700203,6957.935855
322.567989,1455.581446,1184.329507,7476.080014
322.568297,612.876398,1110.308913,8808.450710
322.568605,536.266849,518.144159,10140.821405
322.568913,-459.657299,666.185348,10436.903782
322.569221,76.609550,1554.432478,9400.615463
322.569529,919.314598,2516.700203,9770.718434
322.569837,1762.019645,1406.391290,9844.739029
322.570145,1762.019645,592.164754,8586.388927
322.570452,1608.800546,-740.205942,9326.594869
322.570760,229.828649,-2886.803174,10066.800811
322.571068,-689.485948,-3997.112087,11695.253884
322.571376,-1378.971896,-4145.153275,12583.501014
322.571684,-2374.896044,-2664.741391,11695.253884
322.571992,-1149.143247,-1036.288319,10732.986159
322.572300,383.047749,962.267725,9474.636058
322.572608,1685.410096,2442.679609,8808.450710
322.572916,2911.162892,2294.638420,7402.059420
322.573224,2451.505594,2516.700203,7105.977043
322.573532,1685.410096,1702.473667,8808.450710
322.573840,536.266849,1184.329507,9030.512492
322.574148,0.000000,1332.370696,10362.883188
322.574456,612.876398,1702.473667,10066.800811
322.574764,766.095498,2590.720797,8882.471304
322.575072,1685.410096,2590.720797,9400.615463
322.575380,2681.334243,1924.535449,9548.656652
322.575688,2757.943793,666.185348,9400.615463
322.575995,1762.019645,-962.267725,9104.533087
322.576303,459.657299,-2960.823768,11029.068536
322.576611,-1608.800546,-3849.070898,11991.336260
322.576919,-2221.676944,-3923.091493,12805.562797
322.577227,-2374.896044,-2442.679609,12213.398043
322.577535,-1838.629195,-740.205942,10955.047942
322.577843,-612.876398,518.144159,10140.821405
322.578151,612.876398,1850.514855,8882.471304
322.578459,1762.019645,1850.514855,7772.162391
322.578767,1302.362347,1480.411884,7994.224174
322.579075,995.924147,962.267725,8660.409521
322.579383,536.266849,666.185348,9474.636058
322.579691,229.828649,1036.288319,8808.450710
322.579999,1149.143247,2220.617826,8438.347739
322.580307,2068.457845,2590.720797,8142.265362
322.580615,2911.162892,3034.844362,7994.224174
322.580923,3064.381992,1850.514855,7624.121203
322.581231,3064.381992,370.102971,8290.306550
322.581539,2068.457845,-1924.535449,9104.533087
322.581846,-306.438199,-3404.947333,9992.780217
322.582154,-1302.362347,-4145.153275,12435.459826
322.582462,-2145.067394,-4145.153275,11991.336260
322.582770,-1915.238745,-1850.514855,11029.068536
322.583078,-995.924147,-518.144159,11029.068536
322.583386,153.219100,666.185348,9474.636058
322.583694,1072.533697,1184.329507,9252.574275
322.584002,689.485948,1332.370696,8290.306550
322.584310,842.705048,740.205942,8586.388927
322.584618,995.924147,-0.000000,9696.697840
322.584926,-229.828649,740.205942,9400.615463
322.585234,383.047749,1480.411884,9918.759623
322.585542,1685.410096,2146.597232,9030.512492
322.585850,1608.800546,3108.864956,7550.100608
322.586158,2757.943793,2516.700203,8290.306550
322.586466,3600.648841,1554.432478,8586.388927
322.586774,2451.505594,-444.123565,9030.512492
322.587082,766.095498,-2146.597232,9474.636058
322.587390,76.609550,-3997.112087,11621.233289
322.587697,-1225.752797,-4293.194464,12213.398043
322.588005,-1915.238745,-2812.782580,11769.274478
322.588313,-1072.533697,-962.267725,10658.965565
322.588621,0.000000,-0.000000,9622.677246
322.588929,612.876398,1036.288319,9400.615463
322.589237,1608.800546,1776.494261,9104.533087
322.589545,995.924147,1110.308913,8512.368333
322.589853,536.266849,962.267725,9252.574275
322.590161,76.609550,666.185348,9474.636058
322.590469,-153.219100,1036.288319,10066.800811
322.590777,0.000000,1776.494261,10140.821405
322.591085,612.876398,2664.741391,9326.594869
322.591393,1532.190996,2960.823768,9474.636058
322.591701,2528.115143,1406.391290,9844.739029
322.592009,2221.676944,592.164754,9178.553681
322.592317,1685.410096,-1406.391290,9548.656652
322.592625,306.438199,-2812.782580,10732.986159
322.592933,-766.095498,-3627.009116,11325.150913
322.593240,-1149.143247,-3256.906145,11695.253884
322.593548,-1149.143247,-1850.514855,10436.903782
322.593856,-306.438199,222.061783,8882.471304
322.594164,1378.971896,1702.473667,8882.471304
322.594472,2451.505594,2146.597232,9252.574275
322.594780,1762.019645,2146.597232,7698.141797
322.595088,306.438199,1554.432478,8956.491898
322.595396,689.485948,296.082377,9844.739029
322.595704,-459.657299,1036.288319,10140.821405
322.596012,-536.266849,1850.514855,10732.986159
322.596320,-229.828649,2146.597232,10066.800811
322.596628,1302.362347,2886.803174,9474.636058
322.596936,2604.724693,1998.556043,9622.677246
322.597244,2681.334243,1258.350101,9474.636058
322.597552,2374.896044,-888.247130,9696.697840
322.597860,1072.533697,-2738.761985,10510.924376
322.598168,-842.705048,-4663.297435,12435.459826
322.598476,-1455.581446,-4367.215058,11843.295072
322.598784,-1991.848295,-3256.906145,11473.192101
322.599091,-766.095498,-740.205942,9918.759623
322.599399,1225.752797,444.123565,9104.533087
322.599707,2604.724693,1998.556043,8068.244768
322.600015,2451.505594,1998.556043,7105.977043
322.600323,2451.505594,2294.638420,7179.997637
322.600631,1455.581446,1258.350101,8512.368333
322.600939,536.266849,888.247130,10066.800811
322.601247,229.828649,888.247130,9918.759623
322.601555,0.000000,1924.535449,9622.677246
322.601863,766.095498,1924.535449,8882.471304
322.602171,1838.629195,1998.556043,9400.615463
322.602479,2451.505594,1258.350101,9474.636058
322.602787,2068.457845,-222.061783,8734.430116
322.603095,1455.581446,-1554.432478,9252.574275
322.603403,0.000000,-3923.091493,10658.965565
322.603711,-1302.362347,-4219.173869,11547.212695
322.604019,-2221.676944,-3701.029710,11991.336260
322.604327,-1685.410096,-2220.617826,10807.006753
322.604634,-612.876398,-0.000000,9252.574275
322.604942,1225.752797,1110.308913,9252.574275
322.605250,2145.067394,2146.597232,8734.430116
322.605558,2451.505594,2886.803174,7772.162391
322.605866,1762.019645,1776.494261,7846.182985
322.606174,995.924147,1110.308913,9252.574275
322.606482,229.828649,1110.308913,9548.656652
322.606790,-383.047749,1924.535449,9252.574275
322.607098,1149.143247,2146.597232,9622.677246
322.607406,1838.629195,3108.864956,8068.244768
322.607714,1685.410096,2368.659014,9178.553681
322.608022,2757.943793,962.267725,9326.594869
322.608330,2298.286494,-0.000000,8290.306550
322.608638,995.924147,-2146.597232,10288.862594
322.608946,-1072.533697,-4071.132681,11917.315666
322.609254,-1762.019645,-4219.173869,12731.542202
322.609562,-1762.019645,-2812.782580,12139.377449
322.609870,-1378.971896,-1258.350101,10881.027347
322.610178,536.266849,370.102971,9474.636058
322.610485,2068.457845,1628.453072,8734.430116
322.610793,2068.457845,1924.535449,8290.306550
322.611101,1838.629195,1628.453072,7179.997637
322.611409,1302.362347,888.247130,9104.533087
322.611717,-459.657299,222.061783,9474.636058
322.612025,-306.438199,666.185348,9474.636058
322.612333,153.219100,1628.453072,10510.924376
322.612641,689.485948,2812.782580,8660.409521
322.612949,1685.410096,3108.864956,7994.224174
322.613257,2604.724693,2220.617826,9178.553681
322.613565,2528.115143,962.267725,8438.347739
322.613873,1685.410096,-1110.308913,9252.574275
322.614181,-306.438199,-2812.782580,11769.274478
322.614489,-1378.971896,-4293.194464,12065.356855
322.614797,-2374.896044,-4293.194464,11769.274478
322.615105,-1685.410096,-2664.741391,11843.295072
322.615413,-536.266849,-814.226536,9548.656652
322.615721,842.705048,740.205942,9252.574275
322.616029,1762.019645,1332.370696,8512.368333
322.616336,1991.848295,1110.308913,7994.224174
322.616644,1455.581446,1406.391290,8216.285956
322.616952,229.828649,962.267725,9844.739029
322.617260,0.000000,592.164754,9474.636058
322.617568,-383.047749,1998.556043,9326.594869
322.617876,459.657299,2886.803174,9178.553681
322.618184,1608.800546,3552.988522,8068.244768
322.618492,2757.943793,3478.967927,8882.471304
322.618800,3217.601092,2368.659014,8142.265362
322.619108,2757.943793,740.205942,8216.285956
322.619416,919.314598,-2146.597232,10066.800811
322.619724,-612.876398,-3478.967927,11991.336260
322.620032,-1838.629195,-4441.235652,12139.377449
322.620340,-2451.505594,-3552.988522,12509.480420
322.620648,-1608.800546,-2220.617826,10881.027347
322.620956,229.828649,-0.000000,9400.615463
322.621264,1302.362347,962.267725,9326.594869
322.621572,2451.505594,1480.411884,7846.182985
322.621879,2604.724693,1702.473667,7254.018232
322.622187,1225.752797,740.205942,8734.430116
322.622495,0.000000,370.102971,9252.574275
322.622803,-229.828649,1554.432478,9548.656652
322.623111,536.266849,2442.679609,9696.697840
322.623419,1455.581446,3404.947333,8660.409521
322.623727,1838.629195,3775.050304,7624.121203
322.624035,2834.553343,2368.659014,9104.533087
322.624343,3677.258390,1258.350101,9178.553681
322.624651,1991.848295,-592.164754,9474.636058
322.624959,-383.047749,-3404.947333,11917.315666
322.625267,-1915.238745,-5033.400406,12583.501014
322.625575,-2451.505594,-4589.276840,12657.521608
322.625883,-2681.334243,-2738.761985,11843.295072
322.626191,-612.876398,-1406.391290,10658.965565
322.626499,612.876398,666.185348,9030.512492
322.626807,2451.505594,1332.370696,9030.512492
322.627115,2757.943793,1036.288319,7772.162391
322.627423,1915.238745,1332.370696,7846.182985
322.627730,919.314598,666.185348,9326.594869
322.628038,0.000000,1258.350101,9474.636058
322.628346,0.000000,1850.514855,10214.842000
322.628654,1072.533697,2368.659014,9474.636058
322.628962,1838.629195,3849.070898,8438.347739
322.629270,3140.991542,2960.823768,8216.285956
322.629578,2757.943793,2220.617826,8956.491898
322.629886,2374.896044,370.102971,9030.512492
322.630194,459.657299,-1998.556043,9918.759623
322.630502,-1072.533697,-3108.864956,11103.089130
322.630810,-2221.676944,-4367.215058,12583.501014
322.631118,-2374.896044,-3775.050304,12435.459826
322.631426,-1455.581446,-1850.514855,10510.924376
322.631734,306.438199,222.061783,9252.574275
322.632042,1608.800546,1702.473667,9326.594869
322.632350,2145.067394,1850.514855,8068.244768
322.632658,1915.238745,1702.473667,8216.285956
322.632966,919.314598,1480.411884,8882.471304
322.633273,153.219100,962.267725,9474.636058
322.633581,0.000000,1036.288319,9992.780217
322.633889,459.657299,2368.659014,9918.759623
322.634197,1915.238745,2960.823768,8808.450710
322.634505,2374.896044,3330.926739,8586.388927
322.634813,3140.991542,2442.679609,8882.471304
322.635121,3140.991542,1110.308913,8216.285956
322.635429,2451.505594,-666.185348,8734.430116
322.635737,612.876398,-2664.741391,10140.821405
322.636045,-1378.971896,-4441.235652,11473.192101
322.636353,-1685.410096,-4811.338623,12435.459826
322.636661,-1685.410096,-3182.885551,11843.295072
322.636969,-1455.581446,-1184.329507,10288.862594
322.637277,459.657299,666.185348,9992.780217
322.637585,1838.629195,1480.411884,9030.512492
322.637893,1455.581446,1332.370696,8216.285956
322.638201,1532.190996,888.247130,8364.327145
322.638509,229.828649,592.164754,9326.594869
322.638817,306.438199,444.123565,10807.006753
322.639124,-383.047749,1702.473667,9992.780217
322.639432,229.828649,2442.679609,9548.656652
322.639740,1608.800546,3256.906145,8512.368333
322.640048,2757.943793,3552.988522,7624.121203
322.640356,3064.381992,2146.597232,8216.285956
322.640664,2528.115143,-0.000000,8882.471304
322.640972,1149.143247,-1998.556043,9326.594869
322.641280,-1302.362347,-3478.967927,11399.171507
322.641588,-2451.505594,-4737.318029,12657.521608
322.641896,-2681.334243,-3552.988522,12509.480420
322.642204,-1685.410096,-1850.514855,10584.944971
322.642512,0.000000,-0.000000,9918.759623
322.642820,1532.190996,962.267725,8660.409521
322.643128,2221.676944,1776.494261,7920.203579
322.643436,1455.581446,1702.473667,8512.368333
322.643744,1762.019645,888.247130,8290.306550
322.644052,0.000000,222.061783,9844.739029
322.644360,-459.657299,888.247130,10732.986159
322.644668,-459.657299,2146.597232,9474.636058
322.644975,306.438199,2590.720797,9178.553681
322.645283,1838.629195,2886.803174,9030.512492
322.645591,2374.896044,2664.741391,8290.306550
322.645899,2528.115143,888.247130,8290.306550
322.646207,2068.457845,-740.205942,9178.553681
322.646515,0.000000,-2368.659014,10288.862594
322.646823,-995.924147,-4441.235652,12435.459826
322.647131,-2451.505594,-4071.132681,12287.418637
322.647439,-2068.457845,-2664.741391,11843.295072
322.647747,-1149.143247,-814.226536,9770.718434
322.648055,766.095498,962.267725,9400.615463
322.648363,2068.457845,1998.556043,8216.285956
322.648671,2451.505594,1702.473667,7179.997637
322.648979,2528.115143,1332.370696,8438.347739
322.649287,229.828649,666.185348,8956.491898
322.649595,612.876398,148.041188,10658.965565
322.649903,-766.095498,1850.514855,8882.471304
322.650211,383.047749,1850.514855,10140.821405
322.650518,919.314598,3108.864956,8734.430116
322.650826,1915.238745,3108.864956,8734.430116
322.651134,3140.991542,1776.494261,8808.450710
322.651442,2681.334243,370.102971,7994.224174
322.651750,1302.362347,-1480.411884,9326.594869
322.652058,-536.266849,-3627.009116,10955.047942
322.652366,-1302.362347,-4071.132681,11917.315666
322.652674,-2451.505594,-3923.091493,12065.356855
322.652982,-1455.581446,-2294.638420,11251.130318
322.653290,-536.266849,-592.164754,9696.697840
322.653598,1225.752797,666.185348,9178.553681
322.653906,2528.115143,1480.411884,8512.368333
322.654214,2145.067394,1332.370696,7920.203579
322.654522,1149.143247,1184.329507,8660.409521
322.654830,229.828649,740.205942,9474.636058
322.655138,459.657299,888.247130,10362.883188
322.655446,229.828649,1628.453072,9992.780217
322.655754,1149.143247,2590.720797,8882.471304
322.656062,2528.115143,3330.926739,8438.347739
322.656369,3447.429741,2886.803174,7550.100608
322.656677,3294.210641,1998.556043,8068.244768
322.656985,2451.505594,-222.061783,9178.553681
322.657293,1455.581446,-2220.617826,10140.821405
322.657601,-842.705048,-3034.844362,10362.883188
322.657909,-1532.190996,-3256.906145,12139.377449
322.658217,-1838.629195,-3627.009116,12065.356855
322.658525,-1915.238745,-1184.329507,9992.780217
322.658833,-536.266849,148.041188,10807.006753
322.659141,1608.800546,1184.329507,9474.636058
322.659449,1762.019645,1480.411884,8364.327145
322.659757,1915.238745,1258.350101,8068.244768
322.660065,1072.533697,814.226536,9030.512492
322.660373,306.438199,370.102971,10510.924376
322.660681,0.000000,814.226536,10288.862594
322.660989,229.828649,2072.576638,9992.780217
322.661297,1455.581446,2590.720797,8808.450710
322.661605,2604.724693,4219.173869,7846.182985
322.661912,3677.258390,2738.761985,7920.203579
322.662220,2987.772442,1036.288319,8216.285956
322.662528,2221.676944,-370.102971,8512.368333
322.662836,842.705048,-2516.700203,9844.739029
322.663144,-1072.533697,-3923.091493,11547.212695
322.663452,-2374.896044,-4219.173869,13471.748144
322.663760,-2221.676944,-1998.556043,12065.356855
322.664068,-1455.581446,-518.144159,11103.089130
322.664376,76.609550,888.247130,9178.553681
322.664684,1685.410096,1628.453072,8808.450710
322.664992,1838.629195,1554.432478,8364.327145
322.665300,1378.971896,740.205942,8512.368333
322.665608,0.000000,-0.000000,9844.739029
322.665916,-153.219100,-888.247130,10658.965565
322.666224,-766.095498,1110.308913,10140.821405
322.666532,0.000000,1776.494261,9992.780217
322.666840,1532.190996,3034.844362,9030.512492
322.667148,2451.505594,2812.782580,7402.059420
322.667456,3064.381992,1628.453072,7846.182985
322.667764,2451.505594,-444.123565,8586.388927
322.668072,1685.410096,-1480.411884,9104.533087
322.668380,-383.047749,-3775.050304,10955.047942
322.668688,-1685.410096,-4663.297435,12361.439231
322.668995,-2451.505594,-3404.947333,11621.233289
322.669303,-1455.581446,-1406.391290,10658.965565
322.669611,-306.438199,222.061783,9474.636058
322.669919,1455.581446,1406.391290,8660.409521
322.670227,2681.334243,1406.391290,8216.285956
322.670535,1762.019645,222.061783,7698.141797
322.670843,689.485948,296.082377,8438.347739
322.671151,153.219100,148.041188,10510.924376
322.671459,-383.047749,962.267725,10288.862594
322.671767,-459.657299,1702.473667,9918.759623
322.672075,1072.533697,3182.885551,9474.636058
322.672383,2221.676944,3256.906145,8808.450710
322.672691,2681.334243,2812.782580,8216.285956
322.672999,2911.162892,1332.370696,8660.409521
322.673307,2145.067394,-888.247130,9178.553681
322.673615,0.000000,-2664.741391,9992.780217
322.673923,-1532.190996,-4145.153275,12361.439231
322.674231,-2221.676944,-3404.947333,12435.459826
322.674539,-2604.724693,-2220.617826,11621.233289
322.674847,-689.485948,-814.226536,10362.883188
322.675155,919.314598,148.041188,9770.718434
322.675463,1915.238745,1850.514855,8808.450710
322.675771,1991.848295,2072.576638,8216.285956
322.676079,1608.800546,1332.370696,8290.306550
322.676387,1225.752797,666.185348,9844.739029
322.676695,0.000000,962.267725,10140.821405
322.677003,0.000000,1110.308913,10732.986159
322.677311,689.485948,2516.700203,9696.697840
322.677619,1838.629195,3627.009116,8512.368333
322.677927,2834.553343,3108.864956,9104.533087
322.678235,3140.991542,2072.576638,8290.306550
322.678543,2528.115143,666.185348,8364.327145
322.678851,689.485948,-1628.453072,9400.615463
322.679159,-536.266849,-3849.070898,11325.150913
322.679467,-2374.896044,-4515.256246,12361.439231
322.679775,-2604.724693,-3775.050304,11843.295072
322.680083,-2298.286494,-2516.700203,11103.089130
322.680391,-766.095498,-370.102971,10140.821405
322.680699,919.314598,1258.350101,9474.636058
322.681007,2068.457845,962.267725,8290.306550
322.681315,1991.848295,1406.391290,7994.224174
322.681623,995.924147,888.247130,8734.430116
322.681931,153.219100,444.123565,9770.718434
322.682239,-229.828649,592.164754,11029.068536
322.682547,383.047749,1554.432478,9918.759623
322.682855,1685.410096,2886.803174,8512.368333
322.683163,3140.991542,3478.967927,8216.285956
322.683471,3140.991542,3404.947333,7550.100608
322.683779,3140.991542,1332.370696,8068.244768
322.684087,2145.067394,-666.185348,8882.471304
322.684395,0.000000,-2442.679609,9400.615463
322.684703,-1378.971896,-4219.173869,11621.233289
322.685011,-2681.334243,-5329.482782,12879.583391
322.685319,-2451.505594,-3108.864956,10807.006753
322.685627,-1225.752797,-962.267725,9992.780217
322.685935,383.047749,740.205942,9178.553681
322.686243,1685.410096,1702.473667,8512.368333
322.686551,1991.848295,1924.535449,8068.244768
322.686859,1991.848295,1776.494261,7624.121203
322.687167,1532.190996,370.102971,9104.533087
322.687475,-229.828649,518.144159,10658.965565
322.687783,-995.924147,740.205942,11029.068536
322.688091,1072.533697,1850.514855,9696.697840
322.688399,1455.581446,3478.967927,8512.368333
322.688707,2451.505594,2738.761985,9400.615463
322.689015,4060.306139,2442.679609,7994.224174
322.689323,2757.943793,1776.494261,7846.182985
322.689631,1302.362347,-814.226536,9178.553681
322.689939,229.828649,-2442.679609,10288.862594
322.690247,-1532.190996,-3775.050304,12213.398043
322.690555,-2068.457845,-3849.070898,12657.521608
322.690863,-2145.067394,-1036.288319,11029.068536
322.691171,-766.095498,592.164754,10955.047942
322.691479,842.705048,1110.308913,10140.821405
322.691787,1149.143247,1924.535449,7994.224174
322.692095,1608.800546,1480.411884,8808.450710
322.692403,689.485948,370.102971,9474.636058
322.692711,76.609550,592.164754,9178.553681
322.693019,0.000000,222.061783,11769.274478
322.693327,0.000000,592.164754,10362.883188
322.693635,459.657299,2664.741391,9030.512492
322.693943,2911.162892,3108.864956,8882.471304
322.694251,3830.477490,3182.885551,7846.182985
322.694559,3753.867940,2072.576638,7031.956449
322.694867,2528.115143,-0.000000,8364.327145
322.695175,2145.067394,-2294.638420,10436.903782
322.695483,-919.314598,-3256.906145,9992.780217
322.695791,-2451.505594,-4145.153275,12435.459826
322.696099,-1685.410096,-3478.967927,11769.274478
322.696407,-1225.752797,-666.185348,8734.430116
322.696715,0.000000,370.102971,10066.800811
322.697023,2145.067394,1184.329507,7698.141797
322.697331,1608.800546,740.205942,8364.327145
322.697639,1072.533697,-74.020594,8142.265362
322.697947,689.485948,-148.041188,8956.491898
322.698255,-459.657299,-666.185348,11769.274478
322.698563,-459.657299,-666.185348,11251.130318
322.698871,-229.828649,1776.494261,9030.512492
322.699179,1455.581446,2146.597232,8660.409521
322.699487,2604.724693,2072.576638,8068.244768
322.699795,3064.381992,2294.638420,7476.080014
322.700103,3294.210641,1110.308913,8142.265362
322.700411,1838.629195,-1258.350101,8512.368333
322.700719,-383.047749,-2442.679609,9992.780217
322.701027,-842.705048,-4071.132681,12287.418637
322.701335,-2068.457845,-2886.803174,11251.130318
322.701643,-1532.190996,-1110.308913,10362.883188
322.701951,842.705048,518.144159,9252.574275
322.702259,1838.629195,1924.535449,8586.388927
322.702567,2451.505594,2738.761985,7624.121203
322.702875,2374.896044,2294.638420,7920.203579
322.703183,1608.800546,1554.432478,8364.327145
322.703491,0.000000,666.185348,9992.780217
322.703799,-766.095498,518.144159,11769.274478
322.704107,-459.657299,1036.288319,11251.130318
322.704415,-229.828649,1702.473667,10362.883188
322.704723,1532.190996,2516.700203,9474.636058
322.705031,2681.334243,1850.514855,9474.636058
322.705339,2528.115143,1036.288319,9474.636058
322.705647,1608.800546,-592.164754,9622.677246
322.705955,229.828649,-2368.659014,10362.883188
322.706263,-1455.581446,-3478.967927,11917.315666
322.706571,-1838.629195,-4145.153275,12879.583391
322.706879,-1991.848295,-2368.659014,10807.006753
322.707187,-536.266849,-148.041188,10140.821405
322.707495,1455.581446,1184.329507,9104.533087
322.707803,2068.457845,2368.659014,7772.162391
322.708111,2221.676944,2220.617826,7624.121203
322.708419,1608.800546,2146.597232,7179.997637
322.708727,919.314598,1110.308913,8956.491898
322.709035,-689.485948,296.082377,10584.944971
322.709342,-459.657299,-0.000000,11177.109724
322.709650,-383.047749,1184.329507,10510.924376
322.709958,536.266849,1776.494261,10214.842000
322.710266,1685.410096,2368.659014,9474.636058
322.710574,2834.553343,1554.432478,9104.533087
322.710882,2604.724693,666.185348,8142.265362
322.711190,1455.581446,-1332.370696,8956.491898
322.711498,76.609550,-2590.720797,10288.862594
322.711806,-1532.190996,-4737.318029,11917.315666
322.712114,-1455.581446,-4071.132681,11991.336260
322.712422,-2068.457845,-1850.514855,10658.965565
322.712730,-919.314598,-74.020594,10214.842000
322.713038,1149.143247,814.226536,9548.656652
322.713346,1762.019645,2294.638420,7550.100608
322.713654,1762.019645,2220.617826,7031.956449
322.713962,1991.848295,814.226536,7920.203579
322.714270,459.657299,962.267725,9252.574275
322.714578,-612.876398,518.144159,10881.027347
322.714886,383.047749,962.267725,10955.047942
322.715194,995.924147,1702.473667,8956.491898
322.715502,1762.019645,2960.823768,8142.265362
322.715810,3447.429741,2368.659014,8438.347739
322.716118,3830.477490,1554.432478,7402.059420
322.716426,2834.553343,666.185348,8216.285956
322.716734,2145.067394,-1850.514855,9548.656652
322.717042,-459.657299,-3256.906145,10436.903782
322.717350,-1991.848295,-4367.215058,13175.665768
322.717658,-1915.238745,-3701.029710,11991.336260
322.717966,-1532.190996,-1110.308913,9548.656652
322.718274,-153.219100,370.102971,10288.862594
322.718582,1685.410096,1110.308913,8438.347739
322.718890,1838.629195,2072.576638,7994.224174
322.719198,1378.971896,1554.432478,8290.306550
322.719506,1149.143247,666.185348,8882.471304
322.719814,0.000000,1332.370696,9844.739029
322.720122,-153.219100,-0.000000,10881.027347
322.720430,0.000000,1480.411884,9548.656652
322.720738,229.828649,2220.617826,9178.553681
322.721046,2374.896044,2294.638420,9696.697840
322.721354,2757.943793,2368.659014,8142.265362
322.721662,2987.772442,1110.308913,7846.182985
322.721970,1915.238745,-1184.329507,9474.636058
322.722278,229.828649,-2442.679609,9918.759623
322.722586,-842.705048,-3923.091493,12361.439231
322.722894,-1991.848295,-3330.926739,11843.295072
322.723202,-1685.410096,-2146.597232,11251.130318
322.723510,-383.047749,-0.000000,9844.739029
322.723818,1302.362347,1850.514855,8660.409521
322.724126,2221.676944,2664.741391,8438.347739
322.724434,2757.943793,2516.700203,7402.059420
322.724742,1225.752797,2146.597232,8290.306550
322.725050,153.219100,1036.288319,9992.780217
322.725358,-306.438199,296.082377,10807.006753
322.725666,-995.924147,1258.350101,10140.821405
322.725974,-536.266849,1406.391290,10658.965565
322.726282,1072.533697,2294.638420,10066.800811
322.726590,2145.067394,2294.638420,8808.450710
322.726898,2451.505594,1554.432478,8956.491898
322.727206,2451.505594,-370.102971,8734.430116
322.727514,1455.581446,-1924.535449,9918.759623
322.727822,-612.876398,-3404.947333,11029.068536
322.728130,-2451.505594,-3849.070898,11695.253884
322.728438,-1685.410096,-3849.070898,12287.418637
322.728746,-2068.457845,-888.247130,10140.821405
322.729054,995.924147,-370.102971,10658.965565
322.729362,1608.800546,1998.556043,7254.018232
322.729670,2451.505594,2072.576638,8068.244768
322.729978,2298.286494,1480.411884,8956.491898
322.730286,612.876398,2368.659014,7031.956449
322.730594,306.438199,-74.020594,10658.965565
322.730902,-229.828649,1036.288319,9178.553681
322.731210,459.657299,1258.350101,9474.636058
322.731518,76.609550,2368.659014,8808.450710
322.731826,2298.286494,1998.556043,9104.533087
322.732134,2528.115143,1480.411884,9326.594869
322.732442,1991.848295,370.102971,8290.306550
322.732750,1838.629195,-814.226536,9474.636058
322.733058,0.000000,-3108.864956,9992.780217
322.733366,-1302.362347,-4589.276840,12509.480420
322.733674,-2451.505594,-4071.132681,11103.089130
322.733982,-2221.676944,-2886.803174,11251.130318
322.734290,-1072.533697,-1332.370696,10584.944971
322.734598,612.876398,740.205942,8660.409521
322.734906,2298.286494,1776.494261,8364.327145
322.735214,2604.724693,2368.659014,7179.997637
322.735522,1991.848295,2442.679609,7402.059420
322.735830,536.266849,1480.411884,8882.471304
322.736138,1378.971896,-148.041188,11325.150913
322.736446,-1838.629195,1998.556043,7550.100608
322.736754,536.266849,1480.411884,10732.986159
322.737062,2145.067394,2146.597232,9622.677246
322.737370,842.705048,3404.947333,7402.059420
322.737678,3524.039291,1110.308913,10584.944971
322.737986,2604.724693,1036.288319,7476.080014
322.738294,1072.533697,-1406.391290,9918.759623
322.738602,0.000000,-3997.112087,11473.192101
322.738910,-689.485948,-3997.112087,12361.439231
322.739218,-2987.772442,-4367.215058,13175.665768
322.739526,-1762.019645,-2886.803174,11769.274478
322.739834,-76.609550,-0.000000,10881.027347
322.740142,229.828649,1036.288319,9474.636058
322.740450,2145.067394,1998.556043,9030.512492
322.740758,2068.457845,2886.803174,6735.874072
322.741066,2068.457845,2072.576638,8364.327145
322.741374,1072.533697,1036.288319,9474.636058
322.741682,0.000000,1258.350101,9918.759623
322.741990,995.924147,1258.350101,10362.883188
322.742298,766.095498,2738.761985,8364.327145
322.742606,2451.505594,3182.885551,9252.574275
322.742914,3370.820191,2738.761985,8660.409521
322.743222,3140.991542,1702.473667,7550.100608
322.743530,2757.943793,-148.041188,8364.327145
322.743838,1302.362347,-2220.617826,9770.718434
322.744146,-612.876398,-4441.235652,11399.171507
322.744454,-1991.848295,-4885.359217,13397.727550
322.744762,-2145.067394,-3701.029710,12509.480420
322.745070,-1532.190996,-1406.391290,10362.883188
322.745378,383.047749,-148.041188,10214.842000
322.745686,1532.190996,1554.432478,8216.285956
322.745994,2221.676944,2294.638420,7994.224174
322.746302,2374.896044,1924.535449,8068.244768
322.746610,1072.533697,1480.411884,8512.368333
322.746918,-306.438199,740.205942,10362.883188
322.747226,-536.266849,1110.308913,10881.027347
322.747534,153.219100,1702.473667,9548.656652
322.747842,306.438199,2812.782580,9030.512492
322.748150,2528.115143,2812.782580,9104.533087
322.748458,3524.039291,1924.535449,8142.265362
322.748766,2757.943793,1036.288319,8290.306550
322.749074,2987.772442,-2368.659014,9400.615463
322.749382,612.876398,-2886.803174,9770.718434
322.749690,-919.314598,-4145.153275,11547.212695
322.749997,-1685.410096,-4441.235652,11695.253884
322.750305,-1072.533697,-1998.556043,10510.924376
322.750613,-536.266849,-0.000000,9622.677246
322.750921,919.314598,1110.308913,8808.450710
322.751229,2374.896044,1850.514855,8068.244768
322.751537,2221.676944,2368.659014,7698.141797
322.751845,842.705048,1258.350101,8660.409521
322.752153,0.000000,592.164754,9696.697840
322.752461,-1149.143247,296.082377,11177.109724
322.752769,-1838.629195,1184.329507,11177.109724
322.753077,0.000000,1702.473667,10214.842000
322.753385,995.924147,2590.720797,9326.594869
322.753693,2068.457845,2146.597232,8512.368333
322.754001,2451.505594,1628.453072,8438.347739
322.754309,3140.991542,-666.185348,9400.615463
322.754617,689.485948,-2664.741391,9474.636058
322.754925,-612.876398,-4071.132681,11473.192101
322.755233,-1455.581446,-4515.256246,12287.418637
322.755541,-1991.848295,-3256.906145,11917.315666
322.755849,-842.705048,-1258.350101,10066.800811
322.756157,1378.971896,518.144159,9474.636058
322.756465,2298.286494,1776.494261,8512.368333
322.756773,2987.772442,2294.638420,6883.915261
322.757081,2911.162892,2812.782580,7179.997637
322.757389,1455.581446,1924.535449,8364.327145
322.757697,76.609550,888.247130,9548.656652
322.758005,-306.438199,1554.432478,10436.903782
322.758313,0.000000,2072.576638,10436.903782
322.758621,0.000000,2590.720797,9622.677246
322.758929,2528.115143,2812.782580,9030.512492
322.759237,2298.286494,2368.659014,8734.430116
322.759545,2221.676944,518.144159,9104.533087
322.759853,1225.752797,-1480.411884,9696.697840
322.760161,-689.485948,-3627.009116,11695.253884
322.760469,-2068.457845,-5329.482782,13619.789333
322.760777,-2528.115143,-5033.400406,12731.542202
322.761085,-1838.629195,-3108.864956,12139.377449
322.761393,-459.657299,-1332.370696,10510.924376
322.761701,1072.533697,592.164754,9030.512492
322.762009,2528.115143,2146.597232,8068.244768
322.762317,2681.334243,2146.597232,6883.915261
322.762625,2451.505594,2220.617826,7179.997637
322.762933,842.705048,1702.473667,8808.450710
322.763241,536.266849,1480.411884,10288.862594
322.763549,306.438199,1998.556043,9326.594869
322.763857,612.876398,3034.844362,8438.347739
322.764165,2451.505594,3034.844362,8512.368333
322.764473,3217.601092,3330.926739,7550.100608
322.764781,2757.943793,1924.535449,7920.203579
322.765089,1991.848295,-296.082377,8808.450710
322.765397,612.876398,-2886.803174,10510.924376
322.765705,-1532.190996,-5181.441594,12361.439231
322.766013,-3447.429741,-5773.606348,13397.727550
322.766321,-2911.162892,-4737.318029,13249.686362
322.766629,-2145.067394,-2146.597232,10955.047942
322.766937,-229.828649,-592.164754,9844.739029
322.767245,1302.362347,1480.411884,9104.533087
322.767553,2374.896044,1776.494261,8586.388927
322.767861,2221.676944,2516.700203,7328.038826
322.768169,1225.752797,814.226536,8512.368333
322.768477,1072.533697,1258.350101,10214.842000
322.768785,0.000000,814.226536,9696.697840
322.769092,76.609550,2294.638420,9548.656652
322.769400,689.485948,3034.844362,8364.327145
322.769708,3294.210641,3256.906145,8290.306550
322.770016,3600.648841,3108.864956,7031.956449
322.770324,3217.601092,1702.473667,7920.203579
322.770632,2834.553343,-1628.453072,8438.347739
322.770940,459.657299,-2516.700203,9992.780217
322.771248,-1532.190996,-4811.338623,13027.624579
322.771556,-2221.676944,-4589.276840,13175.665768
322.771864,-2528.115143,-2812.782580,11843.295072
322.772172,-1762.019645,-1184.329507,11029.068536
322.772480,459.657299,666.185348,9770.718434
322.772788,1532.190996,2146.597232,8660.409521
322.773096,2068.457845,1776.494261,8438.347739
322.773404,1378.971896,1406.391290,8660.409521
322.773712,612.876398,1480.411884,9918.759623
322.774019,459.657299,444.123565,11103.089130
322.774327,-306.438199,1998.556043,9474.636058
322.774635,919.314598,2886.803174,8956.491898
322.774943,1838.629195,2442.679609,9326.594869
322.775251,2911.162892,3330.926739,7698.141797
322.775559,3907.087040,2294.638420,8216.285956
322.775867,2911.162892,-0.000000,8216.285956
322.776175,1302.362347,-2146.597232,9622.677246
322.776483,-1072.533697,-3997.112087,12287.418637
322.776791,-2145.067394,-4293.194464,13175.665768
322.777099,-2451.505594,-3256.906145,11843.295072
322.777407,-1762.019645,-1332.370696,11029.068536
322.777715,0.000000,-0.000000,10362.883188
322.778023,1072.533697,814.226536,8586.388927
322.778331,2374.896044,2146.597232,7994.224174
322.778639,1762.019645,1850.514855,7772.162391
322.778946,1149.143247,1036.288319,7994.224174
322.779254,76.609550,666.185348,9696.697840
322.779562,-536.266849,740.205942,10510.924376
322.779870,-383.047749,1480.411884,9770.718434
322.780178,153.219100,1924.535449,9030.512492
322.780486,1532.190996,2220.617826,9178.553681
322.780794,2681.334243,1480.411884,8734.430116
322.781102,2451.505594,444.123565,8216.285956
322.781410,919.314598,-1110.308913,9326.594869
322.781718,153.219100,-3330.926739,10584.944971
322.782026,-1225.752797,-4367.215058,11769.274478
322.782334,-2451.505594,-4441.235652,12287.418637
322.782642,-1838.629195,-3182.885551,11177.109724
322.782950,-229.828649,-1110.308913,9844.739029
322.783258,612.876398,740.205942,8512.368333
322.783566,2987.772442,1554.432478,7624.121203
322.783873,2987.772442,2368.659014,6957.935855
322.784181,2374.896044,2146.597232,7105.977043
322.784489,1762.019645,1258.350101,8290.306550
322.784797,536.266849,666.185348,9622.677246
322.785105,0.000000,1184.329507,9918.759623
322.785413,306.438199,1184.329507,9992.780217
322.785721,766.095498,2220.617826,9104.533087
322.786029,1685.410096,2368.659014,9770.718434
322.786337,3140.991542,1332.370696,9252.574275
322.786645,1915.238745,666.185348,8586.388927
322.786953,1532.190996,-1628.453072,10362.883188
322.787261,-229.828649,-2886.803174,11029.068536
322.787569,-1915.238745,-3627.009116,12509.480420
322.787877,-1762.019645,-3627.009116,13027.624579
322.788185,-2528.115143,-1332.370696,11029.068536
322.788493,-153.219100,370.102971,10362.883188
322.788800,1608.800546,1406.391290,9548.656652
322.789108,1915.238745,2516.700203,7624.121203
322.789416,2221.676944,1924.535449,8438.347739
322.789724,1149.143247,1628.453072,8364.327145
322.790032,689.485948,1036.288319,9474.636058
322.790340,383.047749,518.144159,9770.718434
322.790648,0.000000,1850.514855,10140.821405
322.790956,1072.533697,2368.659014,9548.656652
322.791264,2145.067394,3478.967927,8364.327145
322.791572,2681.334243,2738.761985,7920.203579
322.791880,3217.601092,1776.494261,7846.182985
322.792188,2374.896044,-148.041188,8512.368333
322.792496,0.000000,-1998.556043,10140.821405
322.792804,-1685.410096,-3849.070898,11917.315666
322.793112,-2221.676944,-4589.276840,13175.665768
322.793420,-3217.601092,-3552.988522,12139.377449
322.793727,-1915.238745,-1628.453072,11251.130318
322.794035,-612.876398,-0.000000,10362.883188
322.794343,842.705048,814.226536,9474.636058
322.794651,1608.800546,1184.329507,7920.203579
322.794959,1838.629195,1184.329507,8290.306550
322.795267,689.485948,148.041188,8808.450710
322.795575,-612.876398,370.102971,9696.697840
322.795883,689.485948,1036.288319,10362.883188
322.796191,229.828649,2072.576638,8956.491898
322.796499,1991.848295,2960.823768,8216.285956
322.796807,3217.601092,3330.926739,7624.121203
322.797115,3524.039291,2664.741391,7105.977043
322.797423,2987.772442,1702.473667,7846.182985
322.797731,2604.724693,-518.144159,8882.471304
322.798039,-306.438199,-2442.679609,10140.821405
322.798347,-1608.800546,-3923.091493,12139.377449
322.798655,-2604.724693,-3701.029710,13323.706956
322.798962,-2604.724693,-2516.700203,11843.295072
322.799270,-1072.533697,-814.226536,10955.047942
322.799578,229.828649,592.164754,9548.656652
322.799886,1149.143247,1332.370696,9326.594869
322.800194,1685.410096,1110.308913,8956.491898
322.800502,536.266849,1184.329507,8438.347739
322.800810,536.266849,444.123565,9992.780217
322.801118,306.438199,-222.061783,10732.986159
322.801426,0.000000,1628.453072,9400.615463
322.801734,995.924147,1628.453072,10066.800811
322.802042,2374.896044,2812.782580,8068.244768
322.802350,4290.134789,2886.803174,8364.327145
322.802658,4136.915689,1924.535449,8290.306550
322.802966,3753.867940,370.102971,7624.121203
322.803274,2451.505594,-962.267725,8438.347739
322.803582,153.219100,-2960.823768,10955.047942
322.803889,-1149.143247,-3256.906145,12065.356855
322.804197,-1762.019645,-3034.844362,12065.356855
322.804505,-1378.971896,-814.226536,10214.842000
322.804813,-229.828649,-74.020594,10066.800811
322.805121,919.314598,1332.370696,9622.677246
322.805429,1762.019645,1480.411884,8364.327145
322.805737,2298.286494,962.267725,8068.244768
322.806045,76.609550,888.247130,9474.636058
322.806353,-842.705048,-296.082377,11177.109724
322.806661,-1225.752797,370.102971,11547.212695
322.806969,-1149.143247,1332.370696,11399.171507
322.807277,0.000000,1554.432478,10436.903782
322.807585,1455.581446,2664.741391,9622.677246
322.807893,2834.553343,2368.659014,9474.636058
322.808201,2221.676944,962.267725,7105.977043
322.808509,2451.505594,-0.000000,8438.347739
322.808816,995.924147,-1850.514855,10140.821405
322.809124,-766.095498,-3034.844362,10807.006753
322.809432,-1532.190996,-2812.782580,11917.315666
322.809740,-1608.800546,-1554.432478,11251.130318
322.810048,-229.828649,-222.061783,9770.718434
322.810356,1455.581446,2146.597232,8956.491898
322.810664,2221.676944,2220.617826,7846.182985
322.810972,2528.115143,2294.638420,6957.935855
322.811280,1302.362347,1776.494261,7328.038826
322.811588,229.828649,-0.000000,10658.965565
322.811896,-459.657299,-296.082377,10955.047942
322.812204,-995.924147,592.164754,10436.903782
322.812512,153.219100,962.267725,10436.903782
322.812820,1762.019645,1628.453072,8512.368333
322.813128,2451.505594,2368.659014,8660.409521
322.813436,2911.162892,1702.473667,8808.450710
322.813743,2681.334243,222.061783,8068.244768
322.814051,612.876398,-1332.370696,9030.512492
322.814359,-459.657299,-3849.070898,11769.274478
322.814667,-2757.943793,-4515.256246,12361.439231
322.814975,-3217.601092,-3997.112087,12361.439231
322.815283,-1608.800546,-2368.659014,11621.233289
322.815591,-766.095498,-74.020594,10362.883188
322.815899,766.095498,1184.329507,9104.533087
322.816207,2221.676944,2368.659014,7328.038826
322.816515,2681.334243,2368.659014,6735.874072
322.816823,1915.238745,1480.411884,7550.100608
322.817131,1915.238745,814.226536,8882.471304
322.817439,689.485948,1628.453072,9326.594869
322.817747,919.314598,1628.453072,9178.553681
322.818055,1072.533697,2664.741391,9252.574275
322.818363,2298.286494,2590.720797,8438.347739
322.818670,2451.505594,2368.659014,8364.327145
322.818978,2528.115143,1110.308913,8438.347739
322.819286,1225.752797,-888.247130,9178.553681
322.819594,-459.657299,-3849.070898,11103.089130
322.819902,-2374.896044,-5181.441594,13397.727550
322.820210,-3370.820191,-4885.359217,12805.562797
322.820518,-3447.429741,-3182.885551,13027.624579
322.820826,-1762.019645,-1110.308913,11251.130318
322.821134,153.219100,444.123565,10214.842000
322.821442,1915.238745,2516.700203,7624.121203
322.821750,2604.724693,2738.761985,7476.080014
322.822058,2145.067394,1998.556043,7328.038826
322.822366,1762.019645,888.247130,8068.244768
322.822674,995.924147,666.185348,10288.862594
322.822982,383.047749,962.267725,9770.718434
322.823290,1225.752797,1406.391290,10436.903782
322.823597,1225.752797,2664.741391,8216.285956
322.823905,3370.820191,2664.741391,8364.327145
322.824213,3830.477490,2368.659014,8216.285956
322.824521,3217.601092,1332.370696,7476.080014
322.824829,2451.505594,-1036.288319,9844.739029
322.825137,383.047749,-2812.782580,10658.965565
322.825445,-1685.410096,-3775.050304,12435.459826
322.825753,-2528.115143,-3108.864956,12287.418637
322.826061,-1762.019645,-1258.350101,11473.192101
322.826369,-612.876398,-0.000000,10955.047942
322.826677,689.485948,1628.453072,8808.450710
322.826985,1762.019645,2368.659014,8216.285956
322.827293,1225.752797,1184.329507,8660.409521
322.827601,536.266849,962.267725,9474.636058
322.827909,-153.219100,-0.000000,10658.965565
322.828217,-919.314598,-222.061783,11177.109724
322.828524,-689.485948,296.082377,10510.924376
322.828832,995.924147,1702.473667,9474.636058
322.829140,2451.505594,2368.659014,8956.491898
322.829448,3830.477490,2368.659014,7179.997637
322.829756,3600.648841,2220.617826,7402.059420
322.830064,3983.696590,370.102971,7328.038826
322.830372,1838.629195,-296.082377,8882.471304
322.830680,229.828649,-2516.700203,10584.944971
322.830988,-612.876398,-3034.844362,11843.295072
322.831296,-2374.896044,-2220.617826,10658.965565
322.831604,-1302.362347,-296.082377,10807.006753
322.831912,689.485948,-0.000000,10658.965565
322.832220,-612.876398,1702.473667,8364.327145
322.832528,1455.581446,888.247130,9622.677246
322.832836,536.266849,666.185348,8512.368333
322.833144,-1072.533697,-370.102971,10288.862594
322.833451,-1455.581446,-814.226536,11547.212695
322.833759,-1302.362347,-0.000000,10658.965565
322.834067,-1302.362347,518.144159,10881.027347
322.834375,459.657299,1184.329507,9696.697840
322.834683,2374.896044,2590.720797,8660.409521
322.834991,3140.991542,2368.659014,7772.162391
322.835299,3064.381992,888.247130,7402.059420
322.835607,2681.334243,-296.082377,8364.327145
322.835915,76.609550,-2146.597232,9918.759623
322.836223,-612.876398,-3256.906145,11103.089130
322.836531,-1225.752797,-2516.700203,10584.944971
322.836839,-919.314598,-1850.514855,10732.986159
322.837147,76.609550,-74.020594,8882.471304
322.837455,1991.848295,1924.535449,8956.491898
322.837763,2528.115143,2812.782580,7698.141797
322.838071,1762.019645,2146.597232,6809.894666
322.838378,1378.971896,1480.411884,8808.450710
322.838686,0.000000,370.102971,10436.903782
322.838994,-689.485948,-148.041188,11325.150913
322.839302,-766.095498,814.226536,10584.944971
322.839610,229.828649,740.205942,10881.027347
322.839918,536.266849,1258.350101,9918.759623
322.840226,2145.067394,2220.617826,9474.636058
322.840534,2298.286494,1036.288319,8956.491898
322.840842,2221.676944,-222.061783,8660.409521
322.841150,766.095498,-2220.617826,10066.800811
322.841458,-689.485948,-3478.967927,12657.521608
322.841766,-1608.800546,-4441.235652,12287.418637
322.842074,-1608.800546,-2516.700203,11177.109724
322.842382,-995.924147,-740.205942,10288.862594
322.842690,1762.019645,1258.350101,9400.615463
322.842998,2451.505594,3108.864956,6809.894666
322.843305,3217.601092,3775.050304,6661.853478
322.843613,3064.381992,3034.844362,6587.832884
322.843921,2451.505594,2072.576638,7698.141797
322.844229,229.828649,592.164754,9844.739029
322.844537,612.876398,222.061783,10658.965565
322.844845,-689.485948,1036.288319,10658.965565
322.845153,0.000000,1258.350101,10658.965565
322.845461,1378.971896,1702.473667,9696.697840
322.845769,1838.629195,1702.473667,8882.471304
322.846077,2451.505594,370.102971,9400.615463
322.846385,1532.190996,-888.247130,9400.615463
322.846693,-229.828649,-3256.906145,11547.212695
322.847001,-1915.238745,-4441.235652,12657.521608
322.847309,-2681.334243,-3775.050304,11991.336260
322.847617,-2221.676944,-2442.679609,11991.336260
322.847925,-306.438199,-74.020594,10362.883188
322.848232,1072.533697,1998.556043,8438.347739
322.848540,1991.848295,2516.700203,7624.121203
322.848848,2528.115143,1850.514855,6883.915261
322.849156,1838.629195,2146.597232,6957.935855
322.849464,842.705048,666.185348,9622.677246
322.849772,-459.657299,-74.020594,9622.677246
322.850080,-689.485948,1036.288319,9622.677246
322.850388,459.657299,1480.411884,9696.697840
322.850696,1762.019645,2368.659014,8438.347739
322.851004,2987.772442,2812.782580,7772.162391
322.851312,3524.039291,1036.288319,7772.162391
322.851620,2681.334243,-0.000000,7402.059420
322.851928,1685.410096,-1850.514855,9030.512492
322.852236,-612.876398,-3627.009116,11843.295072
322.852544,-1838.629195,-4145.153275,11917.315666
322.852852,-2451.505594,-3552.988522,11991.336260
322.853159,-1991.848295,-1850.514855,11917.315666
322.853467,-459.657299,-518.144159,10584.944971
322.853775,995.924147,1480.411884,9104.533087
322.854083,1532.190996,1110.308913,8290.306550
322.854391,1072.533697,1258.350101,7550.100608
322.854699,612.876398,592.164754,9030.512492
322.855007,229.828649,518.144159,9400.615463
322.855315,-383.047749,1406.391290,9326.594869
322.855623,306.438199,1480.411884,9992.780217
322.855931,1149.143247,2220.617826,9400.615463
322.856239,2528.115143,2812.782580,8438.347739
322.856547,4060.306139,2368.659014,8438.347739
322.856855,3600.648841,1036.288319,8438.347739
322.857163,2374.896044,-814.226536,8882.471304
322.857471,0.000000,-2664.741391,10510.924376
322.857779,-919.314598,-4293.194464,12065.356855
322.858086,-2451.505594,-3627.009116,12065.356855
322.858394,-1838.629195,-2812.782580,12139.377449
322.858702,-766.095498,-1406.391290,10584.944971
322.859010,153.219100,1110.308913,9474.636058
322.859318,1762.019645,1702.473667,8882.471304
322.859626,2145.067394,2516.700203,7624.121203
322.859934,1149.143247,2368.659014,8512.368333
322.860242,-612.876398,1184.329507,9474.636058
322.860550,-689.485948,148.041188,11399.171507
322.860858,-995.924147,962.267725,10881.027347
322.861166,-536.266849,1184.329507,9992.780217
322.861474,1149.143247,1554.432478,10288.862594
322.861782,2451.505594,2664.741391,8512.368333
322.862090,3064.381992,1924.535449,8586.388927
322.862398,2834.553343,518.144159,8216.285956
322.862706,1455.581446,-814.226536,8142.265362
322.863013,229.828649,-3256.906145,11325.150913
322.863321,-689.485948,-3701.029710,11843.295072
322.863629,-1762.019645,-3108.864956,11103.089130
322.863937,-689.485948,-1554.432478,11029.068536
322.864245,306.438199,444.123565,8956.491898
322.864553,1532.190996,1702.473667,8142.265362
322.864861,2221.676944,2812.782580,7920.203579
322.865169,2145.067394,2368.659014,7031.956449
322.865477,919.314598,1258.350101,8290.306550
322.865785,0.000000,222.061783,9770.718434
322.866093,-1225.752797,-296.082377,11177.109724
322.866401,-842.705048,-0.000000,11621.233289
322.866709,-153.219100,1036.288319,9992.780217
322.867017,1225.752797,2072.576638,9474.636058
322.867325,2987.772442,1184.329507,8808.450710
322.867633,2911.162892,888.247130,7994.224174
322.867941,2145.067394,-814.226536,8808.450710
322.868248,1072.533697,-2664.741391,9770.718434
322.868556,-919.314598,-3404.947333,11029.068536
322.868864,-1608.800546,-4293.194464,12731.542202
322.869172,-1608.800546,-2812.782580,11695.253884
322.869480,-536.266849,-740.205942,10214.842000
322.869788,995.924147,1406.391290,9178.553681
322.870096,2068.457845,2368.659014,7772.162391
322.870404,2298.286494,2738.761985,7254.018232
322.870712,1685.410096,1998.556043,7920.203579
322.871020,766.095498,740.205942,8438.347739
322.871328,-459.657299,592.164754,10066.800811
322.871636,-995.924147,222.061783,11177.109724
322.871944,-612.876398,1036.288319,10584.944971
322.872252,383.047749,2072.576638,9548.656652
322.872560,1685.410096,2664.741391,9400.615463
322.872868,2451.505594,1332.370696,8586.388927
322.873176,1838.629195,666.185348,7920.203579
322.873483,995.924147,-1776.494261,10732.986159
322.873791,0.000000,-3627.009116,11473.192101
322.874099,-2374.896044,-3701.029710,12139.377449
322.874407,-1838.629195,-3775.050304,13101.645173
322.874715,-1532.190996,-1184.329507,10362.883188
322.875023,76.609550,370.102971,9918.759623
322.875331,1838.629195,1924.535449,8364.327145
322.875639,2604.724693,2960.823768,6439.791695
322.875947,2604.724693,2886.803174,6513.812290
322.876255,2298.286494,1332.370696,7920.203579
322.876563,1149.143247,962.267725,9326.594869
322.876871,-306.438199,74.020594,9474.636058
322.877179,0.000000,666.185348,10362.883188
322.877487,229.828649,1554.432478,9474.636058
322.877795,1608.800546,1998.556043,9474.636058
322.878103,2451.505594,2146.597232,9178.553681
322.878411,2451.505594,1110.308913,8512.368333
322.878718,2451.505594,-666.185348,8956.491898
322.879026,229.828649,-3034.844362,10955.047942
322.879334,-383.047749,-4293.194464,12879.583391
322.879642,-2221.676944,-4071.132681,12879.583391
322.879950,-1991.848295,-2886.803174,12065.356855
322.880258,-995.924147,-1184.329507,10881.027347
322.880566,689.485948,962.267725,9622.677246
322.880874,1991.848295,2146.597232,7994.224174
322.881182,2374.896044,2516.700203,7476.080014
322.881490,2604.724693,1998.556043,7846.182985
322.881798,842.705048,1184.329507,8364.327145
322.882106,306.438199,740.205942,9622.677246
322.882414,-383.047749,1258.350101,9992.780217
322.882722,229.828649,1924.535449,10066.800811
322.883030,995.924147,2368.659014,9474.636058
322.883338,2604.724693,3182.885551,8956.491898
322.883646,3600.648841,2072.576638,7846.182985
322.883953,2834.553343,1406.391290,7772.162391
322.884261,1685.410096,-962.267725,9696.697840
322.884569,0.000000,-2960.823768,10510.924376
322.884877,-2068.457845,-3775.050304,12731.542202
322.885185,-2451.505594,-3404.947333,13175.665768
322.885493,-1991.848295,-1554.432478,11177.109724
322.885801,0.000000,296.082377,10362.883188
322.886109,1072.533697,2072.576638,8364.327145
322.886417,2068.457845,2442.679609,7772.162391
322.886725,1225.752797,2368.659014,7772.162391
322.887033,153.219100,1628.453072,8068.244768
322.887341,-1225.752797,592.164754,9474.636058
322.887649,-2298.286494,370.102971,10955.047942
322.887957,-3140.991542,592.164754,11103.089130
322.888265,-2528.115143,1332.370696,10436.903782
322.888573,-1072.533697,2072.576638,9918.759623
322.888881,459.657299,2516.700203,9030.512492
322.889189,689.485948,2146.597232,7772.162391
322.889496,306.438199,-0.000000,9178.553681
322.889804,-766.095498,-1776.494261,9622.677246
322.890112,-2604.724693,-3182.885551,11325.150913
322.890420,-4213.525239,-4663.297435,13323.706956
322.890728,-3677.258390,-3849.070898,12287.418637
322.891036,-3064.381992,-2516.700203,11325.150913
322.891344,-1838.629195,-74.020594,9992.780217
322.891652,76.609550,1554.432478,7624.121203
322.891960,766.095498,2812.782580,6809.894666
322.892268,1762.019645,2368.659014,7105.977043
322.892576,919.314598,2220.617826,6439.791695
322.892884,-536.266849,888.247130,8512.368333
322.893192,-995.924147,-0.000000,10362.883188
322.893500,-1762.019645,444.123565,9992.780217
322.893808,-2681.334243,518.144159,10658.965565
322.894116,-995.924147,814.226536,10066.800811
322.894424,-229.828649,1628.453072,8734.430116
322.894731,536.266849,1406.391290,8586.388927
322.895039,766.095498,-0.000000,8660.409521
322.895347,-459.657299,-1110.308913,9030.512492
322.895655,-1608.800546,-3034.844362,11103.089130
322.895963,-2451.505594,-4589.276840,12879.583391
322.896271,-3524.039291,-4441.235652,12657.521608
322.896579,-3524.039291,-2812.782580,11843.295072
322.896887,-2145.067394,-740.205942,11177.109724
322.897195,-536.266849,1258.350101,8660.409521
322.897503,-306.438199,3775.050304,7179.997637
322.897811,1685.410096,3552.988522,6957.935855
322.898119,1532.190996,4663.297435,5773.606348
322.898427,1378.971896,3404.947333,7550.100608
322.898735,229.828649,2294.638420,7698.141797
322.899043,-1608.800546,1924.535449,9030.512492
322.899351,-2604.724693,-0.000000,11473.192101
322.899659,-3524.039291,-0.000000,10362.883188
322.899966,-3217.601092,814.226536,10732.986159
322.900274,-3064.381992,296.082377,10807.006753
322.900582,-1915.238745,888.247130,10362.883188
322.900890,-1455.581446,962.267725,9178.553681
322.901198,-919.314598,-296.082377,9030.512492
322.901506,-1685.410096,-1184.329507,9474.636058
322.901814,-2681.334243,-2072.576638,11103.089130
322.902122,-3983.696590,-3256.906145,13101.645173
322.902430,-5132.839837,-4071.132681,13397.727550
322.902738,-5439.278036,-3256.906145,12953.603985
322.903046,-5975.544884,-2368.659014,12435.459826
322.903354,-5209.449386,-0.000000,10881.027347
322.903662,-2221.676944,1702.473667,9326.594869
322.903970,-383.047749,2738.761985,7105.977043
322.904278,689.485948,4219.173869,5551.544565
322.904586,1685.410096,4219.173869,5403.503377
322.904894,1225.752797,2738.761985,6069.688724
322.905201,0.000000,1628.453072,7846.182985
322.905509,-919.314598,-370.102971,9400.615463
322.905817,-2604.724693,-1924.535449,9770.718434
322.906125,-3830.477490,-2664.741391,11177.109724
322.906433,-3370.820191,-2442.679609,11251.130318
322.906741,-2757.943793,-296.082377,10584.944971
322.907049,-919.314598,1184.329507,9474.636058
322.907357,919.314598,2368.659014,7550.100608
322.907665,1991.848295,3775.050304,6439.791695
322.907973,2221.676944,3256.906145,7105.977043
322.908281,1072.533697,2294.638420,8216.285956
322.908589,-2068.457845,-74.020594,9696.697840
322.908897,-4826.401637,-1924.535449,11547.212695
322.909205,-6741.640382,-3552.988522,14285.974681
322.909513,-8427.050478,-3775.050304,15174.221811
322.909821,-8120.612279,-3849.070898,15248.242405
322.910129,-6741.640382,-2590.720797,13545.768739
322.910437,-4979.620737,-1702.473667,11473.192101
322.910744,-2911.162892,592.164754,8660.409521
322.911052,306.438199,3478.967927,6439.791695
322.911360,2068.457845,4515.256246,5033.400406
322.911668,2604.724693,5403.503377,4145.153275
322.911976,2451.505594,4811.338623,4071.132681
322.912284,919.314598,3256.906145,5995.668130
322.912592,-1378.971896,740.205942,8808.450710
322.912900,-3294.210641,-1036.288319,10881.027347
322.913208,-5975.544884,-3404.947333,12953.603985
322.913516,-6665.030833,-4885.359217,13693.809927
322.913824,-6128.763984,-5107.421000,13915.871710
322.914132,-4366.744339,-3923.091493,12953.603985
322.914440,-2221.676944,-1776.494261,10214.842000
322.914748,-459.657299,888.247130,7550.100608
322.915056,1225.752797,2812.782580,6365.771101
322.915364,2068.457845,5107.421000,5329.482782
322.915672,2145.067394,6809.894666,5107.421000
322.915979,612.876398,5847.626942,5773.606348
322.916287,-306.438199,3701.029710,8216.285956
322.916595,-3140.991542,1258.350101,9992.780217
322.916903,-7277.907231,-1776.494261,12287.418637
322.917211,-8656.879127,-4589.276840,15766.386565
322.917519,-10572.117872,-6069.688724,16284.530724
322.917827,-10342.289223,-6883.915261,16802.674883
322.918135,-8044.002729,-6513.812290,16062.468941
322.918443,-5286.058936,-4515.256246,12953.603985
322.918751,-2451.505594,-2146.597232,9918.759623
322.919059,383.047749,740.205942,6735.874072
322.919367,2145.067394,3478.967927,5477.523971
322.919675,4136.915689,4811.338623,5181.441594
322.919983,4903.011187,7031.956449,2812.782580
322.920291,4366.744339,8216.285956,2516.700203
322.920599,3294.210641,6513.812290,4737.318029
322.920907,1225.752797,5033.400406,6957.935855
322.921214,-2221.676944,2738.761985,9770.718434
322.921522,-4979.620737,-592.164754,12435.459826
322.921830,-6894.859482,-2590.720797,14137.933492
322.922138,-7890.783629,-3552.988522,13841.851115
322.922446,-7890.783629,-3775.050304,14211.954086
322.922754,-5975.544884,-4219.173869,14211.954086
322.923062,-4443.353888,-3182.885551,11029.068536
322.923370,-3830.477490,-1628.453072,9770.718434
322.923678,-1762.019645,-74.020594,8512.368333
322.923986,-459.657299,1554.432478,7772.162391
322.924294,229.828649,2886.803174,7772.162391
322.924602,995.924147,3108.864956,7105.977043
322.924910,1072.533697,1924.535449,7476.080014
322.925218,76.609550,1184.329507,8512.368333
322.925526,-459.657299,814.226536,9622.677246
322.925834,-1685.410096,-814.226536,11325.150913
322.926142,-2145.067394,-1628.453072,10584.944971
322.926449,-2604.724693,-1036.288319,10066.800811
322.926757,-2145.067394,-962.267725,9178.553681
322.927065,-995.924147,-74.020594,8216.285956
322.927373,-1149.143247,666.185348,7994.224174
322.927681,-459.657299,1110.308913,7994.224174
322.927989,-842.705048,1036.288319,7920.203579
322.928297,-1762.019645,1776.494261,8438.347739
322.928605,-2834.553343,1850.514855,10288.862594
322.928913,-4290.134789,666.185348,11103.089130
322.929221,-5515.887586,-592.164754,12287.418637
322.929529,-7277.907231,-1776.494261,13027.624579
322.929837,-7737.564530,-2442.679609,13693.809927
322.930145,-7354.516781,-2886.803174,13989.892304
322.930453,-6741.640382,-2516.700203,12435.459826
322.930761,-4903.011187,-1998.556043,11399.171507
322.931069,-3294.210641,-1332.370696,10214.842000
322.931377,-1455.581446,-0.000000,8290.306550
322.931685,383.047749,1406.391290,6661.853478
322.931992,1455.581446,2220.617826,5921.647536
322.932300,1608.800546,2886.803174,5625.565159
322.932608,2221.676944,2886.803174,6513.812290
322.932916,919.314598,2146.597232,6809.894666
322.933224,0.000000,1406.391290,7476.080014
322.933532,-612.876398,888.247130,9326.594869
322.933840,-1915.238745,-0.000000,9992.780217
322.934148,-2757.943793,-370.102971,10881.027347
322.934456,-3140.991542,-592.164754,11251.130318
322.934764,-3294.210641,-1184.329507,11325.150913
322.935072,-2681.334243,-518.144159,10807.006753
322.935380,-2068.457845,148.041188,10066.800811
322.935688,-1838.629195,-0.000000,9992.780217
322.935996,-1685.410096,-0.000000,9474.636058
322.936304,-1685.410096,666.185348,9622.677246
322.936612,-1915.238745,592.164754,9696.697840
322.936920,-1455.581446,814.226536,9696.697840
322.937227,-2068.457845,740.205942,9992.780217
322.937535,-1455.581446,592.164754,10288.862594
322.937843,-2834.553343,296.082377,10732.986159
322.938151,-2145.067394,370.102971,10807.006753
322.938459,-2221.676944,370.102971,10214.842000
322.938767,-1762.019645,444.123565,10066.800811
322.939075,-1302.362347,518.144159,9696.697840
322.939383,-842.705048,740.205942,9326.594869
322.939691,-995.924147,666.185348,8660.409521
322.939999,-459.657299,814.226536,8660.409521
322.940307,-766.095498,1480.411884,9030.512492
322.940615,-1532.190996,1776.494261,9030.512492
322.940923,-1608.800546,1184.329507,8882.471304
322.941231,-1991.848295,666.185348,9178.553681
322.941539,-2911.162892,444.123565,9696.697840
322.941847,-3600.648841,-370.102971,10362.883188
322.942155,-3983.696590,-740.205942,11399.171507
322.942462,-4060.306139,-1036.288319,11399.171507
322.942770,-4366.744339,-888.247130,11325.150913
322.943078,-3830.477490,-888.247130,10214.842000
322.943386,-3140.991542,-370.102971,10066.800811
322.943694,-2451.505594,-222.061783,9918.759623
322.944002,-1915.238745,-444.123565,9548.656652
322.944310,-1608.800546,-148.041188,9400.615463
322.944618,-1685.410096,-518.144159,9104.533087
322.944926,-1302.362347,-148.041188,9178.553681
322.945234,-766.095498,296.082377,9178.553681
322.945542,-459.657299,-222.061783,8882.471304
322.945850,-459.657299,740.205942,8438.347739
322.946158,-306.438199,962.267725,8142.265362
322.946466,76.609550,1184.329507,7994.224174
322.946774,76.609550,1406.391290,7920.203579
322.947082,306.438199,1480.411884,7994.224174
322.947390,-383.047749,1258.350101,8290.306550
322.947698,-689.485948,814.226536,8956.491898
322.948005,-2068.457845,1036.288319,9770.718434
322.948313,-2604.724693,370.102971,10436.903782
322.948621,-3064.381992,148.041188,10658.965565
322.948929,-3907.087040,-0.000000,11103.089130
322.949237,-3907.087040,222.061783,11399.171507
322.949545,-4060.306139,222.061783,11547.212695
322.949853,-4443.353888,444.123565,11473.192101
322.950161,-4060.306139,-0.000000,11103.089130
322.950469,-4213.525239,296.082377,10881.027347
322.950777,-3370.820191,222.061783,10288.862594
322.951085,-3370.820191,666.185348,9844.739029
322.951393,-2834.553343,740.205942,9326.594869
322.951701,-2604.724693,888.247130,8882.471304
322.952009,-2757.943793,666.185348,8956.491898
322.952317,-2987.772442,518.144159,9104.533087
322.952625,-3294.210641,592.164754,8882.471304
322.952933,-3677.258390,592.164754,9252.574275
322.953240,-3753.867940,592.164754,9548.656652
322.953548,-4060.306139,-0.000000,9844.739029
322.953856,-4136.915689,-0.000000,9844.739029
322.954164,-3983.696590,-296.082377,9844.739029
322.954472,-3753.867940,-518.144159,10140.821405
322.954780,-3677.258390,-444.123565,9696.697840
322.955088,-3983.696590,-74.020594,10140.821405
322.955396,-3370.820191,-740.205942,9548.656652
322.955704,-3753.867940,-518.144159,9474.636058
322.956012,-3600.648841,-518.144159,9474.636058
322.956320,-3447.429741,-814.226536,9548.656652
322.956628,-3370.820191,-740.205942,9696.697840
322.956936,-3294.210641,-592.164754,10362.883188
322.957244,-3064.381992,-1332.370696,10362.883188
322.957552,-3294.210641,-1332.370696,10510.924376
322.957860,-2834.553343,-1258.350101,10510.924376
322.958168,-2221.676944,-1184.329507,10362.883188
322.958475,-1685.410096,-888.247130,9992.780217
322.958783,-766.095498,-370.102971,9474.636058
322.959091,0.000000,148.041188,8734.430116
322.959399,1225.752797,888.247130,7920.203579
322.959707,1532.190996,1628.453072,7476.080014
322.960015,2145.067394,2220.617826,7105.977043
322.960323,1532.190996,2960.823768,6735.874072
322.960631,1072.533697,3478.967927,6883.915261
322.960939,612.876398,3330.926739,7550.100608
322.961247,0.000000,3108.864956,8216.285956
322.961555,-1302.362347,2590.720797,9400.615463
322.961863,-2221.676944,1776.494261,10362.883188
322.962171,-3600.648841,444.123565,11251.130318
322.962479,-4060.306139,-74.020594,11769.274478
322.962787,-4826.401637,-740.205942,12731.542202
322.963095,-5209.449386,-1258.350101,12731.542202
322.963403,-4979.620737,-1850.514855,12879.583391
322.963710,-4519.963438,-1850.514855,12805.562797
322.964018,-4443.353888,-2220.617826,11843.295072
322.964326,-4213.525239,-666.185348,11029.068536
322.964634,-2374.896044,-1554.432478,11621.233289
322.964942,-2145.067394,-814.226536,10658.965565
322.965250,-1225.752797,592.164754,8660.409521
322.965558,0.000000,370.102971,8512.368333
322.965866,0.000000,814.226536,7994.224174
322.966174,229.828649,1258.350101,8068.244768
322.966482,383.047749,1480.411884,7476.080014
322.966790,1302.362347,2294.638420,7179.997637
322.967098,612.876398,2738.761985,7105.977043
322.967406,689.485948,3182.885551,7105.977043
322.967714,612.876398,2960.823768,7846.182985
322.968022,-1149.143247,2294.638420,8364.327145
322.968330,-1915.238745,1628.453072,9104.533087
322.968638,-3600.648841,296.082377,10362.883188
322.968946,-4366.744339,-1258.350101,11843.295072
322.969253,-5975.544884,-2072.576638,11695.253884
322.969561,-6665.030833,-2072.576638,12435.459826
322.969869,-6205.373534,-3404.947333,13915.871710
322.970177,-5898.935335,-3034.844362,12731.542202
322.970485,-5515.887586,-2664.741391,12361.439231
322.970793,-4290.134789,-2368.659014,11695.253884
322.971101,-3370.820191,-1628.453072,10807.006753
322.971409,-2221.676944,-296.082377,9770.718434
322.971717,-306.438199,1110.308913,8142.265362
322.972025,1455.581446,2812.782580,6217.729913
322.972333,2834.553343,4293.194464,5255.462188
322.972641,3064.381992,5255.462188,4219.173869
322.972949,2911.162892,5329.482782,4219.173869
322.973257,2145.067394,4293.194464,5699.585753
322.973565,76.609550,3182.885551,7031.956449
322.973873,-1685.410096,1184.329507,9474.636058
322.974181,-3600.648841,-1258.350101,11103.089130
322.974488,-6205.373534,-3034.844362,12657.521608
322.974796,-6665.030833,-4885.359217,14063.912898
322.975104,-7507.735880,-5329.482782,14730.098246
322.975412,-7048.078582,-5847.626942,14952.160028
322.975720,-6128.763984,-4293.194464,13027.624579
322.976028,-4673.182538,-2146.597232,11177.109724
322.976336,-2068.457845,-0.000000,9770.718434
322.976644,0.000000,3108.864956,6883.915261
322.976952,1838.629195,5329.482782,5107.421000
322.977260,3370.820191,6365.771101,4737.318029
322.977568,2681.334243,6217.729913,4441.235652
322.977876,229.828649,4145.153275,6513.812290
322.978184,-2298.286494,1480.411884,9770.718434
322.978492,-5439.278036,-1480.411884,11695.253884
322.978800,-7584.345430,-4663.297435,14211.954086
322.979108,-8350.440928,-6217.729913,15100.201217
322.979416,-8350.440928,-6809.894666,14508.036463
322.979724,-7277.907231,-6069.688724,13249.686362
322.980031,-4673.182538,-3256.906145,10288.862594
322.980339,-1685.410096,296.082377,8438.347739
322.980647,1455.581446,3034.844362,6735.874072
322.980955,3830.477490,6957.935855,3997.112087
