#time,accel_x,accel_y,accel_z
844.304045,-133.998066,-899.701298,-9571.290400
844.306977,-114.855485,-918.843878,-9647.860723
844.309908,-95.712904,-861.416136,-9571.290400
844.312840,-114.855485,-918.843878,-9628.718142
844.315772,133.998066,-1225.125171,-9284.151688
844.318703,-95.712904,-1225.125171,-9552.147819
844.321635,-95.712904,-1588.834206,-9437.292334
844.324566,-95.712904,-3101.098090,-9207.581365
844.327498,-535.992262,-5455.635528,-9533.005238
844.330430,382.851616,-11064.411702,-8403.592971
844.333361,-803.988394,-10241.280728,-11657.831707
844.336293,-172.283227,-8518.448456,-9762.716208
844.339225,516.849682,-6317.051664,-5819.344563
844.342156,-899.701298,1990.828403,-12882.956878
844.345051,612.562586,2756.531635,-8690.731683
844.347945,-861.416136,2105.683888,-7542.176835
844.350840,708.275490,-4555.934230,-10834.700733
844.353734,-38.285162,-5053.641331,-10260.423309
844.356629,-1148.554848,-7982.456194,-9265.009107
844.359523,899.701298,-12002.398162,-7446.463931
844.362418,401.994197,-7006.184573,-10126.425243
844.365313,-1205.982590,-1646.261949,-14548.361408
844.368207,2622.533570,-459.421939,-5838.487144
844.371102,-4402.793584,3273.381317,-13170.095590
844.373996,2507.678085,-114.855485,-8001.598774
844.376891,-842.273555,-593.420005,-8193.024582
844.379785,-1971.685822,-3617.947771,-11523.833642
844.382680,1454.836141,-8958.727814,-8518.448456
844.385574,-2258.824534,-2660.818731,-7006.184573
844.388469,2718.246474,-2086.541307,-15658.631094
844.391363,-3694.518094,5302.494882,-3809.373579
844.394258,1895.115499,1856.830338,-5283.352301
844.397153,-76.570323,2813.959378,-18396.020149
844.400047,-1205.982590,1225.125171,-363.709035
844.402942,1129.412267,-4900.500685,-12902.099459
844.405836,-2699.103893,-2641.676150,-10375.278794
844.408731,2967.100024,-5895.914886,-9207.581365
844.411625,-1627.119368,-535.992262,-12346.964616
844.414520,-95.712904,191.425808,-10183.852986
844.417414,1703.689691,478.564520,-6929.614250
844.420309,-2009.970984,3101.098090,-11944.970419
844.423203,-669.990328,1416.550979,-10356.136213
844.426098,401.994197,-861.416136,-8958.727814
844.428992,133.998066,-2067.398726,-8461.020714
844.431887,727.418070,-3962.514226,-9073.583299
844.434782,-574.277424,-2105.683888,-8843.872330
844.437676,-5589.633594,3158.525832,-12117.253646
844.440571,6431.907149,-3541.377448,-8461.020714
844.443465,-3388.236802,2928.814862,-8250.452325
844.446360,-535.992262,535.992262,-12366.107197
844.449254,1875.972918,-2009.970984,-6661.618118
844.452149,-2297.109696,-497.707101,-10758.130410
844.455043,-1493.121302,-1818.545176,-9379.864592
844.457938,2928.814862,-4728.217458,-14318.650438
844.460766,1837.687757,-2584.248408,-3943.371645
844.463593,-3732.803256,2009.970984,-11064.411702
844.466421,976.271621,440.279358,-15792.629160
844.469249,1990.828403,765.703232,-3235.096155
844.472076,-2565.105827,2124.826469,-8767.302006
844.474904,248.853550,-1071.984525,-16386.049165
844.477731,459.421939,-1550.549045,-4211.367776
844.480559,-2737.389054,-382.851616,-7312.465866
844.483387,-823.130974,-3081.955509,-18549.160795
844.486214,4862.215523,-6010.770371,-899.701298
844.489042,-5149.354235,880.558717,-9399.007173
844.491870,1110.269686,-1837.687757,-17592.031755
844.494697,76.570323,1225.125171,-1741.974853
844.497525,-1646.261949,2890.529701,-10719.845248
844.500353,2335.394858,-1378.265818,-16711.473038
844.503180,1205.982590,-1397.408398,-555.134843
844.506008,-3158.525832,95.712904,-13514.662045
844.508836,6987.041992,-5513.063270,-19104.295638
844.511663,-7695.317482,5474.778109,5340.780043
844.514491,937.986459,-842.273555,-12748.958813
844.517319,3522.234867,-7484.749093,-26857.040862
844.520146,-5589.633594,2890.529701,12136.396227
844.522974,3771.088418,-2737.389054,-10068.997501
844.525802,-57.427742,-1378.265818,-28522.445392
844.528629,-1971.685822,2316.252277,11696.116869
844.531457,3311.666478,-2258.824534,-18932.012411
844.534285,-2603.390989,1665.404530,-9628.718142
844.537112,2794.816797,-2431.107762,3675.375514
844.539940,1569.691626,-3273.381317,-23239.093091
844.542768,-5513.063270,2679.961312,-7293.323285
844.545595,6642.475538,-6489.334891,2679.961312
844.548423,-2986.242605,-1320.838075,-29096.722816
844.551251,-1646.261949,2220.539373,-689.132909
844.554078,3081.955509,-1244.267752,-2986.242605
844.556906,-4192.225195,2469.392923,-25823.341499
844.559734,1167.697429,0.000000,-1684.547110
844.562561,-210.568389,-401.994197,-4345.365842
844.565389,-2220.539373,-2048.256146,-24770.499555
844.568217,880.558717,-2029.113565,2775.674216
844.571044,842.273555,-2258.824534,-9858.429112
844.573556,-4670.789715,2450.250342,-17592.031755
844.576069,4632.504554,-4555.934230,3292.523898
844.578581,-4479.363907,1320.838075,-24177.079550
844.581093,1627.119368,-133.998066,-6891.329088
844.583605,937.986459,306.281293,708.275490
844.586118,-535.992262,57.427742,-19927.426613
844.588630,440.279358,-1646.261949,-10662.417506
844.591142,880.558717,-1493.121302,2756.531635
844.593654,-765.703232,-2392.822600,-23832.513096
844.596166,-1397.408398,153.140646,-6297.909083
844.598679,2009.970984,-1320.838075,-1531.406464
844.601191,-2909.672282,1263.410333,-19582.860158
844.603703,-803.988394,38.285162,-6833.901346
844.606215,1052.841944,-2124.826469,1646.261949
844.608728,2622.533570,-2469.392923,-30168.707341
844.611240,497.707101,267.996131,4919.643266
844.613752,-2105.683888,612.562586,-17611.174336
844.616264,382.851616,-2852.244539,-29728.427982
844.618776,1052.841944,-172.283227,12634.103328
844.621289,-229.710970,-1263.410333,-8901.300072
844.623801,-421.136778,-2354.537438,-30034.709275
844.626313,382.851616,-421.136778,3177.668413
844.628825,1684.547110,-478.564520,-7752.745224
844.631338,-2469.392923,478.564520,-23200.807930
844.633850,-2277.967115,3388.236802,-3254.238736
844.636362,4594.219392,-2565.105827,-1454.836141
844.638874,-4000.799387,-1569.691626,-26187.050534
844.641386,1512.263883,-2373.680019,-689.132909
844.643899,-1091.127106,-1148.554848,-5187.639397
844.646411,-1607.976787,-421.136778,-19869.998870
844.648923,382.851616,-1301.695494,-5417.350366
844.651435,-133.998066,344.566454,-8001.598774
844.653948,-1014.556782,-478.564520,-19066.010477
844.656460,421.136778,593.420005,-1971.685822
844.658972,918.843878,-1531.406464,-6259.623922
844.661484,-1397.408398,-1493.121302,-21152.551784
844.663996,-1110.269686,-38.285162,-1569.691626
844.666509,4000.799387,-4192.225195,-6699.903280
844.669021,-593.420005,-2947.957443,-17955.740790
844.671533,-3981.656806,2277.967115,-8652.446522
844.674114,4326.223261,-1148.554848,-4364.508422
844.676695,-2660.818731,2143.969050,-14988.640766
844.679277,-1378.265818,1627.119368,-8882.157491
844.681858,2699.103893,-2431.107762,-6163.911018
844.684439,-3139.383251,-229.710970,-11696.116869
844.687020,669.990328,-3196.810994,-11983.255581
844.689601,19.142581,-1473.978722,-6183.053598
844.692182,-3024.527766,114.855485,-14816.357539
844.694763,3522.234867,-2813.959378,-6259.623922
844.697345,593.420005,-1378.265818,-6661.618118
844.699926,-3369.094221,2009.970984,-17534.604013
844.702507,1378.265818,133.998066,-6872.186507
844.705088,1167.697429,-114.855485,-5953.342629
844.707669,-1569.691626,440.279358,-13954.941403
844.710250,2297.109696,-2871.387120,-12959.527202
844.712831,-1110.269686,-382.851616,-2737.389054
844.715413,-3579.662610,861.416136,-6699.903280
844.717994,2584.248408,-5551.348432,-22205.393728
844.720575,-1684.547110,210.568389,-1052.841944
844.723156,133.998066,-765.703232,-6757.331022
844.725737,2143.969050,-3675.375514,-19200.008542
844.728318,-4766.502619,4153.940034,-2009.970984
844.730899,3311.666478,-1071.984525,-14299.507858
844.733481,-1397.408398,1320.838075,-12327.822035
844.736062,-650.847747,-248.853550,-574.277424
844.738643,1895.115499,-3962.514226,-18951.154992
844.741224,-2967.100024,-823.130974,-6125.625856
844.743805,2373.680019,-4632.504554,-9341.579430
844.746386,363.709035,-1875.972918,-12251.251712
844.748967,-3713.660675,3713.660675,-9169.296203
844.751549,4938.785846,-784.845813,-8059.026517
844.754130,-1703.689691,689.132909,-11906.685258
844.756738,-2182.254211,1627.119368,-8020.741355
844.759346,612.562586,-1397.408398,-9877.571693
844.761954,-689.132909,-1378.265818,-8863.014910
844.764562,-497.707101,-2450.250342,-8997.012976
844.767170,-1627.119368,-1933.400661,-8863.014910
844.769778,1339.980656,-2871.387120,-11428.120738
844.772386,-114.855485,-38.285162,-9896.714274
844.774994,-995.414202,2029.113565,-6929.614250
844.777602,2067.398726,-574.277424,-13246.665914
844.780210,2124.826469,344.566454,-9131.011042
844.782818,-3349.951640,1856.830338,-4575.076811
844.785426,3101.098090,-4670.789715,-12519.247843
844.788034,-4441.078746,153.140646,-15754.343998
844.790642,3694.518094,-4000.799387,2526.820666
844.793250,-2852.244539,-1588.834206,-19046.867896
844.795858,-861.416136,153.140646,-10356.136213
844.798466,3062.812928,-1091.127106,-1014.556782
844.801074,-3617.947771,3330.809059,-15620.345933
844.803682,2373.680019,-708.275490,-5072.783912
844.806290,1014.556782,-937.986459,-7369.893608
844.808898,-3043.670347,-823.130974,-14835.500120
844.811506,650.847747,-2852.244539,-4689.932296
844.814114,3407.379382,-5895.914886,-9284.151688
844.816722,-5838.487144,2124.826469,-17381.463366
844.819330,3043.670347,-1684.547110,459.421939
844.821938,-382.851616,1091.127106,-16979.469170
844.824546,191.425808,1569.691626,-10566.704602
844.827154,-1397.408398,2833.101958,-5570.491013
844.829762,1091.127106,-1033.699363,-11925.827838
844.832370,1780.260014,-3866.801322,-7006.184573
844.834978,-2622.533570,-899.701298,-11562.118803
844.837586,1761.117434,-4173.082614,-6355.336826
844.840195,-2507.678085,-1359.123237,-11083.554283
844.842803,5608.776174,-5053.641331,-7331.608446
844.845411,-7714.460062,6163.911018,-12308.679454
844.848019,4536.791650,-325.423874,-6585.047795
844.850627,-1473.978722,1512.263883,-9399.007173
844.853235,-2431.107762,1129.412267,-12882.956878
844.855843,2679.961312,-2794.816797,-10987.841379
844.858451,-2124.826469,-153.140646,-3235.096155
844.861059,3503.092286,-6049.055533,-16960.326589
844.863667,-3579.662610,-689.132909,-9437.292334
844.866275,2220.539373,-1569.691626,-3349.951640
844.868883,-153.140646,-440.279358,-17075.182074
844.871491,-1129.412267,2488.535504,-7714.460062
844.874099,3215.953574,-574.277424,-6068.198114
844.876707,-4249.652938,2507.678085,-12787.243974
844.879315,-459.421939,-593.420005,-9820.143950
844.881932,2277.967115,-4173.082614,-8920.442653
844.884549,-4307.080680,1301.695494,-6374.479406
844.887165,1550.549045,-3751.945837,-15026.925928
844.889782,516.849682,-1856.830338,-4517.649069
844.892399,-1071.984525,-650.847747,-11772.687192
844.895016,-267.996131,-114.855485,-11179.267187
844.897633,708.275490,363.709035,-5819.344563
844.900249,-248.853550,382.851616,-12059.825904
844.902866,-1320.838075,-153.140646,-11868.400096
844.905483,-191.425808,-555.134843,-4843.072942
844.908100,6967.899411,-6029.912952,-13629.517530
844.910717,-5742.774240,2775.674216,-8231.309744
844.913333,440.279358,363.709035,-5206.781978
844.915950,1473.978722,-2105.683888,-20539.989198
844.918567,-2641.676150,1473.978722,1512.263883
844.921184,2986.242605,-3905.086483,-15792.629160
844.923801,-4364.508422,1473.978722,-8997.012976
844.926417,3139.383251,-3235.096155,-5991.627790
844.929034,344.566454,-1282.552914,-12193.823970
844.931651,-2718.246474,861.416136,-8920.442653
844.934268,3426.521963,-2699.103893,-11140.982026
844.936885,-2029.113565,325.423874,-7216.752962
844.939501,95.712904,-1071.984525,-14261.222696
844.942118,3235.096155,-2967.100024,-6623.332957
844.944735,-5666.203917,4479.363907,-13514.662045
844.947352,3637.090352,-287.138712,-10490.134278
844.949969,363.709035,3311.666478,-9820.143950
844.952585,-2163.111630,5742.774240,-6661.618118
844.955202,1990.828403,1454.836141,-16788.043362
844.957819,-229.710970,3177.668413,-3254.238736
844.960436,-287.138712,1244.267752,-11408.978157
844.963053,57.427742,1684.547110,-12155.538808
844.965670,-650.847747,2335.394858,-7255.038123
844.968286,440.279358,-2048.256146,-10317.851051
844.970903,-1014.556782,1741.974853,-9150.153622
844.973520,727.418070,3713.660675,-10949.556218
844.976137,-114.855485,3024.527766,-9513.862658
844.978754,-1033.699363,3158.525832,-9647.860723
844.981371,842.273555,4019.941968,-8786.444587
844.983988,-287.138712,2450.250342,-8863.014910
844.986605,-421.136778,861.416136,-12614.960747
844.989222,19.142581,133.998066,-6699.903280
844.991839,-57.427742,1320.838075,-10317.851051
844.994456,-95.712904,1895.115499,-10815.558152
844.997073,-861.416136,3024.527766,-9207.581365
844.999690,746.560651,2277.967115,-9705.288466
845.002307,-153.140646,-765.703232,-10279.565890
845.004924,-401.994197,-899.701298,-10528.419440
845.007541,-248.853550,-19.142581,-8767.302006
845.010157,-95.712904,57.427742,-10624.132344
845.012774,459.421939,1780.260014,-9705.288466
845.015391,-669.990328,6833.901346,-9073.583299
845.018008,229.710970,6565.905214,-10413.563955
845.020625,344.566454,8614.161360,-10336.993632
845.023242,-421.136778,6719.045861,-8078.169098
845.025859,555.134843,229.710970,-9265.009107
845.028476,-172.283227,-2584.248408,-11083.554283
845.031093,-210.568389,-2335.394858,-10356.136213
845.033710,229.710970,-3885.943902,-8422.735552
845.036327,-76.570323,669.990328,-10145.567824
845.038944,95.712904,3809.373579,-8327.022648
845.041561,-114.855485,6393.621987,-10834.700733
845.044178,1646.261949,6948.756830,-8977.870395
845.046795,-957.129040,5149.354235,-12787.243974
845.049411,76.570323,-76.570323,-9552.147819
845.052028,-325.423874,-38.285162,-5091.926493
845.054645,574.277424,-1378.265818,-14261.222696
845.057262,-650.847747,-1952.543242,-10164.710405
845.059879,-995.414202,-363.709035,-5627.918755
845.062496,1856.830338,-19.142581,-15256.636898
845.065113,-555.134843,1818.545176,-7197.610381
845.067730,133.998066,1263.410333,-9590.432981
845.070341,1110.269686,-1359.123237,-11906.685258
845.072953,-1244.267752,-306.281293,-10738.987829
845.075564,38.285162,-3158.525832,-9628.718142
845.078176,401.994197,-4307.080680,-10987.841379
845.080787,-1914.258080,-918.843878,-9341.579430
845.083399,1033.699363,-995.414202,-8556.733618
845.086010,-306.281293,325.423874,-11523.833642
845.088621,-382.851616,1435.693560,-6489.334891
845.091233,-1397.408398,1320.838075,-8154.739421
845.093844,2526.820666,-2813.959378,-11849.257515
845.096456,-3158.525832,631.705166,-4517.649069
845.099067,2488.535504,-4862.215523,-14318.650438
845.101679,-2105.683888,-1320.838075,-9418.149754
845.104290,708.275490,-2641.676150,-7427.321350
845.106902,210.568389,-1416.550979,-14892.927862
845.109513,-516.849682,267.996131,-5608.776174
845.112124,1569.691626,-38.285162,-11657.831707
845.114736,-421.136778,593.420005,-10528.419440
845.117347,535.992262,248.853550,-6661.618118
845.119959,-2354.537438,-669.990328,-11045.269122
845.122570,2143.969050,-4096.512291,-12614.960747
845.125182,-1856.830338,-918.843878,-4613.361973
845.127793,-38.285162,-1933.400661,-12748.958813
845.130404,1091.127106,-2182.254211,-6833.901346
845.133016,-861.416136,-229.710970,-8193.024582
845.135627,-1244.267752,363.709035,-11696.116869
845.138239,1588.834206,-1225.125171,-7389.036189
845.140850,-2450.250342,1397.408398,-9513.862658
845.143462,2277.967115,-2679.961312,-11791.829773
845.146073,708.275490,-1282.552914,-8939.585234
845.148684,-1186.840010,-842.273555,-9016.155557
845.151296,-325.423874,-1244.267752,-14854.642701
845.153907,325.423874,-1837.687757,-4632.504554
845.156519,-995.414202,-287.138712,-7963.313613
845.159130,-1914.258080,38.285162,-14490.933666
845.161742,6106.483275,-4804.787781,-5781.059402
845.164353,-861.416136,-1033.699363,-5972.485210
845.166964,-8920.442653,6527.620053,-18893.727250
845.169576,7982.456194,-2928.814862,-95.712904
845.172187,-3311.666478,1225.125171,-9590.432981
845.174790,631.705166,-1875.972918,-19066.010477
845.177393,-1110.269686,-1646.261949,535.992262
845.179995,-995.414202,-1971.685822,-11351.550414
845.182598,2163.111630,-6929.614250,-20157.137582
845.185200,-3637.090352,1205.982590,1550.549045
845.187803,2182.254211,-1875.972918,-11255.837510
845.190405,593.420005,-57.427742,-21745.971789
845.193008,-1627.119368,4230.510357,5091.926493
845.195610,535.992262,1320.838075,-18740.586603
845.198212,1856.830338,-2526.820666,-10011.569758
845.200815,-1856.830338,-1875.972918,-2699.103893
845.203417,1320.838075,-4383.651003,-13055.240106
845.206020,-478.564520,-4517.649069,-11600.403965
845.208622,-3273.381317,-248.853550,-5991.627790
845.211225,1722.832272,-1014.556782,-9456.434915
845.213827,-995.414202,1875.972918,-11408.978157
845.216430,133.998066,1914.258080,-8518.448456
845.219032,-2871.387120,880.558717,-7944.171032
845.221635,3196.810994,-3675.375514,-16558.332392
845.224237,-2373.680019,1052.841944,-1263.410333
845.226840,3503.092286,-5953.342629,-10451.849117
845.229442,-1225.125171,-2526.820666,-16175.480776
845.232045,784.845813,-1244.267752,-1741.974853
845.234647,1205.982590,-1014.556782,-13706.087853
845.237250,-1914.258080,2163.111630,-11810.972354
845.239852,2220.539373,0.000000,-4575.076811
845.242455,-1646.261949,1071.984525,-10317.851051
845.245057,-574.277424,-689.132909,-14835.500120
845.247659,-918.843878,-2067.398726,-2277.967115
845.250262,3388.236802,-5685.346498,-10949.556218
845.252864,-4575.076811,76.570323,-15103.496251
845.255467,229.710970,-401.994197,-4326.223261
845.258069,784.845813,-727.418070,-9801.001370
845.260672,-1493.121302,497.707101,-15314.064640
845.263274,1225.125171,-95.712904,-3081.955509
845.265877,-229.710970,-287.138712,-9360.722011
845.268479,-267.996131,-1282.552914,-13801.800757
845.271082,727.418070,-2086.541307,-3273.381317
845.273684,-1761.117434,-995.414202,-12806.386555
845.276287,1473.978722,-3598.805190,-12270.394293
845.278882,1684.547110,-1799.402595,-1301.695494
845.281477,-3292.523898,2335.394858,-17553.746594
845.284072,459.421939,1225.125171,-10490.134278
845.286667,-1703.689691,2431.107762,-19.142581
845.289263,3024.527766,-4039.084549,-15984.054968
845.291858,-3292.523898,-497.707101,-10585.847182
845.294453,1837.687757,-3943.371645,-191.425808
845.297048,95.712904,-4019.941968,-19334.006608
845.299643,-1780.260014,-325.423874,-7944.171032
845.302238,2431.107762,-1780.260014,-4632.504554
845.304834,-2411.965181,382.851616,-14510.076246
845.307429,1225.125171,-1148.554848,-4460.221326
845.310024,-1339.980656,1990.828403,-6795.616184
845.312619,1129.412267,-210.568389,-18300.307245
845.315214,-2890.529701,382.851616,-1167.697429
845.317809,3675.375514,-6297.909083,-11887.542677
845.320405,-3847.658741,-1703.689691,-17726.029821
845.323000,2182.254211,-3483.949706,1225.125171
845.325595,-861.416136,-899.701298,-13246.665914
845.328190,-1359.123237,689.132909,-14376.078181
845.330785,880.558717,746.560651,-1359.123237
845.333380,-1186.840010,114.855485,-11562.118803
845.335976,1473.978722,-1990.828403,-13974.083984
845.338571,-1569.691626,19.142581,-1033.699363
845.341166,2220.539373,-2928.814862,-17094.324654
845.343761,-4575.076811,-1148.554848,-5742.774240
845.346356,3694.518094,-4919.643266,-9571.290400
845.348951,-4153.940034,1244.267752,-15582.060771
845.351547,3637.090352,-861.416136,-4785.645200
845.354142,-2373.680019,2067.398726,-9667.003304
845.356737,401.994197,957.129040,-14184.652373
845.359332,497.707101,-229.710970,-5972.485210
845.361927,-1569.691626,-153.140646,-8997.012976
845.364522,612.562586,-3158.525832,-12959.527202
845.367118,95.712904,-3005.385186,-5532.205851
845.369713,-1052.841944,-1703.689691,-13840.085918
845.372308,-1550.549045,248.853550,-8633.303941
845.374903,2775.674216,-1684.547110,-2852.244539
845.377498,-1167.697429,-1148.554848,-20310.278229
845.380093,-842.273555,1033.699363,-2182.254211
845.382689,2699.103893,-2565.105827,-9016.155557
845.385284,-2450.250342,803.988394,-16309.478842
845.387879,2220.539373,-2373.680019,-1856.830338
845.390474,-2603.390989,-842.273555,-11389.835576
845.393069,2928.814862,-4689.932296,-16232.908518
845.395664,2488.535504,-1703.689691,5417.350366
845.398260,-3579.662610,1378.265818,-20616.559522
845.400855,-3177.668413,3751.945837,-17113.467235
845.403442,2699.103893,-248.853550,17438.891109
845.406028,1244.267752,-2201.396792,-27335.605382
845.408615,-3120.240670,-172.283227,-15160.923994
845.411202,2928.814862,-3847.658741,13380.663979
845.413788,-995.414202,-2182.254211,-14376.078181
845.416375,-497.707101,-3981.656806,-25670.200853
845.418962,2718.246474,-1875.972918,4153.940034
845.421549,-57.427742,38.285162,-11428.120738
845.424135,440.279358,1339.980656,-14433.505923
845.426722,401.994197,650.847747,5800.201982
845.429309,995.414202,191.425808,-17304.893043
845.431896,-5532.205851,267.996131,-13591.232368
845.434482,7101.897477,-5187.639397,-4096.512291
845.437069,-4326.223261,1435.693560,-6987.041992
845.439656,421.136778,-2048.256146,-20597.416941
845.442243,1684.547110,-1837.687757,-19.142581
845.444829,-1818.545176,210.568389,-10298.708470
845.447416,4153.940034,-4804.787781,-14720.644635
845.450003,-2584.248408,593.420005,-5685.346498
845.452589,-0.000000,-861.416136,-12461.820101
845.455176,-248.853550,-650.847747,-6833.901346
845.457763,1148.554848,248.853550,-9667.003304
845.460350,-4058.227130,803.988394,-11274.980091
845.462936,3675.375514,-2813.959378,-11102.696864
845.465523,-3943.371645,1148.554848,-3637.090352
845.468110,2220.539373,-2699.103893,-17247.465301
845.470697,-1435.693560,-248.853550,-6221.338760
845.473283,784.845813,-593.420005,-5800.201982
845.475870,1167.697429,-3196.810994,-17649.459498
845.478457,-2105.683888,1531.406464,-7331.608446
845.481044,248.853550,-401.994197,-8901.300072
845.483630,-1129.412267,478.564520,-11830.114934
845.486120,-267.996131,-957.129040,-5972.485210
845.488609,1339.980656,-3388.236802,-10298.708470
845.491098,784.845813,-1933.400661,-11523.833642
845.493588,-3541.377448,1205.982590,-2086.541307
845.496077,3541.377448,-3732.803256,-18185.451760
845.498566,-2220.539373,363.709035,-5321.637462
845.501056,2067.398726,-1780.260014,-9533.005238
845.503545,-2297.109696,478.564520,-14490.933666
845.506034,1569.691626,-823.130974,-3101.098090
845.508524,-1875.972918,0.000000,-13801.800757
845.511013,-191.425808,76.570323,-10011.569758
845.513502,1339.980656,-2048.256146,-3541.377448
845.515992,-1493.121302,-516.849682,-17343.178205
845.518481,2699.103893,-2833.101958,-6546.762634
845.520970,-4766.502619,1799.402595,-4230.510357
845.523460,2928.814862,-4230.510357,-18855.442088
845.525949,-1646.261949,-497.707101,-4096.512291
845.528438,-229.710970,-325.423874,-7389.036189
845.530928,1148.554848,-2067.398726,-16232.908518
845.533417,-1071.984525,210.568389,-3388.236802
845.535906,-133.998066,-976.271621,-15237.494317
845.538395,-1320.838075,459.421939,-7829.315547
845.540885,1052.841944,-1741.974853,-7235.895542
845.543374,-1607.976787,19.142581,-13706.087853
845.545863,3828.516160,-2852.244539,-8078.169098
845.548353,-5781.059402,2411.965181,-3445.664544
845.550842,2928.814862,-4039.084549,-20750.557587
845.553331,-535.992262,-497.707101,-2584.248408
845.555821,-3694.518094,1569.691626,-8556.733618
845.558310,3426.521963,-3273.381317,-15314.064640
845.560799,325.423874,-133.998066,-4039.084549
845.563289,-4441.078746,3139.383251,-8709.874264
845.565778,3732.803256,-3024.527766,-14548.361408
845.568267,-1818.545176,-306.281293,-5264.209720
845.570757,306.281293,-2431.107762,-8824.729749
845.573246,2986.242605,-3579.662610,-12519.247843
845.575735,-7140.182638,3866.801322,-459.421939
845.578225,4766.502619,-5321.637462,-19659.430482
845.580714,-2182.254211,1129.412267,-6910.471669
845.583203,-3388.236802,2258.824534,-3943.371645
845.585711,5742.774240,-3598.805190,-17056.039493
845.588219,-2718.246474,2909.672282,-7427.321350
845.590727,-1339.980656,1339.980656,-7312.465866
845.593235,1186.840010,-2182.254211,-11006.983960
845.595743,-516.849682,-1627.119368,-7427.321350
845.598251,5666.203917,-7503.891674,-4594.219392
845.600759,-3866.801322,-1837.687757,-18376.877568
845.603267,-2967.100024,76.570323,-9590.432981
845.605774,1818.545176,95.712904,2277.967115
845.608282,-555.134843,306.281293,-21994.825339
845.610790,-57.427742,-2297.109696,-6144.768437
845.613298,2507.678085,-7255.038123,-4823.930362
845.615806,-708.275490,-8499.305875,-16768.900781
845.618314,-555.134843,-8403.592971,-6470.192310
845.620822,1378.265818,-6010.770371,-5168.496816
845.623330,-1263.410333,-1397.408398,-18051.453694
845.625838,-95.712904,-1282.552914,-5245.067139
845.628346,1473.978722,-3732.803256,-4843.072942
845.630853,-784.845813,38.285162,-18472.590472
845.633361,-669.990328,-2603.390989,-4594.219392
845.635869,267.996131,-6604.190376,-7369.893608
845.638377,-976.271621,-6738.188442,-15333.207221
845.640885,516.849682,-4843.072942,-5953.342629
845.643393,-708.275490,-4268.795518,-8805.587168
845.645901,-497.707101,-2986.242605,-13725.230434
845.648409,555.134843,-2373.680019,-2277.967115
845.650917,-363.709035,-1244.267752,-13361.521398
845.653425,-76.570323,-3445.664544,-12442.677520
845.655932,-38.285162,-5321.637462,-3847.658741
845.658440,-19.142581,-6470.192310,-12710.673651
845.660948,248.853550,-2201.396792,-11887.542677
845.663456,-918.843878,650.847747,-4919.643266
845.665964,363.709035,-1397.408398,-12078.968485
845.668472,38.285162,-2239.681954,-11351.550414
845.670980,-153.140646,-2852.244539,-4326.223261
845.673488,-401.994197,-5876.772306,-13935.798822
845.675996,229.710970,-9628.718142,-8652.446522
845.678504,-153.140646,-9035.298138,-7044.469734
845.681011,-38.285162,-8843.872330,-12787.243974
845.683519,497.707101,-5608.776174,-3426.521963
845.685964,76.570323,574.277424,-10930.413637
845.688409,-1129.412267,1588.834206,-13399.806560
845.690853,114.855485,-267.996131,-5417.350366
845.693298,382.851616,-5130.211654,-9475.577496
845.695742,-210.568389,-5111.069074,-13036.097525
845.698187,-229.710970,-6910.471669,-7523.034254
845.700632,-38.285162,-9686.145885,-6374.479406
845.703076,-344.566454,-5321.637462,-13495.519464
845.705521,-1493.121302,708.275490,-10432.706536
845.707966,650.847747,-1435.693560,-8939.585234
845.710410,3369.094221,-5493.920690,-6259.623922
845.712855,-3713.660675,2258.824534,-16539.189811
845.715300,1799.402595,-3751.945837,-5474.778109
845.717744,-421.136778,-5015.356170,-9877.571693
845.720189,-3598.805190,-4115.654872,-5647.061336
845.722633,823.130974,-4421.936165,-16194.623357
845.725078,3369.094221,-95.712904,-7542.176835
845.727523,-3866.801322,6623.332957,-1071.984525
845.729967,76.570323,2029.113565,-17017.754331
845.732412,3101.098090,-229.710970,-8097.311678
845.734857,-5015.356170,2526.820666,-1282.552914
845.737301,5130.211654,-8824.729749,-18989.440154
845.739746,-4039.084549,-2201.396792,-11332.407834
845.742190,612.562586,-3828.516160,-535.992262
845.744635,229.710970,-2909.672282,-16328.621422
845.747080,-1952.543242,535.992262,-13859.228499
845.749524,2182.254211,861.416136,-1186.840010
845.751969,-650.847747,1665.404530,-12251.251712
845.754414,-267.996131,803.988394,-9418.149754
845.756858,-401.994197,-133.998066,-765.703232
845.759303,-401.994197,-3541.377448,-18798.014346
845.761747,-57.427742,-3579.662610,-8403.592971
845.764192,3101.098090,-5053.641331,-153.140646
845.766637,-4421.936165,803.988394,-24770.499555
845.769081,-1320.838075,2775.674216,-5245.067139
845.771526,4058.227130,-287.138712,-1914.258080
845.773971,-3751.945837,3369.094221,-17266.607882
845.776415,727.418070,-1244.267752,-11542.976222
845.778860,2622.533570,-3694.518094,3024.527766
845.781304,-3177.668413,-2545.963246,-20980.268557
845.783781,-784.845813,-3885.943902,-9284.151688
845.786258,3120.240670,-4421.936165,-918.843878
845.788734,-1493.121302,-382.851616,-16788.043362
845.791211,-689.132909,2584.248408,-7599.604578
845.793687,3273.381317,153.140646,-4249.652938
845.796164,-6278.766502,5398.207786,-16175.480776
845.798640,3675.375514,-3330.809059,-9877.571693
845.801117,2411.965181,-4134.797453,344.566454
845.803594,-6527.620053,95.712904,-20884.555653
845.806070,4307.080680,-5991.627790,-8269.594906
845.808547,-1607.976787,440.279358,229.710970
845.811023,-1875.972918,-210.568389,-21037.696299
845.813500,2565.105827,-1052.841944,-7714.460062
845.815976,-1052.841944,1895.115499,-2718.246474
845.818453,-76.570323,-133.998066,-16615.760134
845.820930,95.712904,-1780.260014,-9552.147819
845.823406,287.138712,-1971.685822,-2277.967115
845.825883,-478.564520,-2947.957443,-16213.765938
845.828359,-555.134843,-1856.830338,-7408.178770
845.830836,401.994197,-1646.261949,-5800.201982
845.833312,-1071.984525,478.564520,-17075.182074
845.835789,114.855485,1339.980656,-6049.055533
845.838266,1397.408398,19.142581,-5895.914886
845.840742,-2718.246474,1071.984525,-16137.195614
845.843219,57.427742,-2488.535504,-4900.500685
845.845695,-593.420005,-1244.267752,-9437.292334
845.848172,306.281293,-2335.394858,-12614.960747
845.850648,-401.994197,-937.986459,-5991.627790
845.853125,4192.225195,-3330.809059,-12729.816232
845.855602,-5723.631659,3598.805190,-5742.774240
845.858078,1895.115499,-3081.955509,-12576.675586
845.860555,2450.250342,-4498.506488,-12519.247843
845.863031,-5589.633594,3407.379382,-9016.155557
845.865508,5264.209720,-4345.365842,-9379.864592
845.867984,-4555.934230,1378.265818,-12729.816232
845.870461,1014.556782,-612.562586,-4230.510357
845.872938,1684.547110,-1186.840010,-16864.613685
845.875414,-1971.685822,1607.976787,-1339.980656
845.877891,-76.570323,-1397.408398,-12404.392358
845.880367,-574.277424,-1780.260014,-14127.224630
845.882867,-248.853550,-880.558717,-1282.552914
845.885367,38.285162,-2354.537438,-13916.656242
845.887866,1684.547110,-2699.103893,-10490.134278
845.890366,-2220.539373,421.136778,-7369.893608
845.892866,803.988394,1301.695494,-14854.642701
845.895366,1091.127106,-153.140646,-8499.305875
845.897865,-1780.260014,210.568389,-1033.699363
845.900365,229.710970,-4421.936165,-20310.278229
845.902865,593.420005,-1780.260014,1837.687757
845.905365,-210.568389,-2813.959378,-13438.091722
845.907864,-2086.541307,57.427742,-15486.347867
845.910364,727.418070,-593.420005,76.570323
845.912864,-1837.687757,574.277424,-15869.199483
845.915363,1856.830338,-497.707101,-11045.269122
845.917863,-2124.826469,2067.398726,-1952.543242
845.920363,1129.412267,153.140646,-16768.900781
845.922863,-325.423874,-1339.980656,-7293.323285
845.925362,248.853550,-3215.953574,-2699.103893
845.927862,-1646.261949,-3369.094221,-19410.576931
845.930362,-1741.974853,-650.847747,-5608.776174
845.932861,3254.238736,-3311.666478,-3637.090352
845.935361,-3464.807125,1378.265818,-20444.276294
845.937861,2431.107762,-593.420005,-6144.768437
845.940361,-57.427742,765.703232,-7771.887805
845.942860,-1761.117434,1282.552914,-16520.047230
845.945360,1914.258080,-1627.119368,-4728.217458
845.947860,-1856.830338,-535.992262,-9647.860723
845.950360,153.140646,-2411.965181,-14892.927862
845.952859,1933.400661,-4058.227130,-2737.389054
845.955359,-4613.361973,1416.550979,-8977.870395
845.957859,650.847747,-1301.695494,-18281.164664
845.960358,535.992262,-325.423874,593.420005
845.962858,-1799.402595,1320.838075,-12748.958813
845.965358,2488.535504,-2794.816797,-17017.754331
845.967858,-2277.967115,2143.969050,4823.930362
845.970357,1895.115499,-3790.230998,-18778.871765
845.972857,-1416.550979,-1435.693560,-12327.822035
845.975357,1244.267752,-1052.841944,-2622.533570
845.977856,-344.566454,-1933.400661,-20348.563390
845.980356,1091.127106,-2794.816797,-4881.358104
845.982874,-363.709035,-459.421939,-5149.354235
845.985392,-3369.094221,1531.406464,-18989.440154
845.987910,2967.100024,-1091.127106,-6967.899411
845.990428,363.709035,842.273555,-4287.938099
845.992945,-2048.256146,459.421939,-17419.748528
845.995463,727.418070,-1722.832272,-6125.625856
845.997981,-248.853550,-1703.689691,-6029.912952
846.000499,-746.560651,-1665.404530,-14242.080115
846.003017,-689.132909,-1052.841944,-10202.995566
846.005535,-306.281293,-765.703232,-1550.549045
846.008053,2048.256146,-4077.369710,-16232.908518
846.010571,2029.113565,-1588.834206,-6221.338760
846.013088,-2469.392923,2718.246474,-6546.762634
846.015606,3024.527766,-2431.107762,-14471.791085
846.018124,-3483.949706,1205.982590,-9705.288466
846.020642,4996.213589,-3579.662610,-6853.043926
846.023160,-2813.959378,-191.425808,-12002.398162
846.025678,57.427742,-612.562586,-8212.167163
846.028196,1244.267752,-2699.103893,-9092.725880
846.030713,-2488.535504,382.851616,-12021.540742
846.033231,1665.404530,-1627.119368,-5895.914886
846.035749,-1359.123237,-95.712904,-11026.126541
846.038267,976.271621,-823.130974,-9571.290400
846.040785,-1473.978722,-382.851616,-11696.116869
846.043303,631.705166,-1205.982590,-3043.670347
846.045821,-2335.394858,-1397.408398,-15294.922059
846.048338,2354.537438,-2220.539373,-11045.269122
846.050856,1014.556782,-1225.125171,-3943.371645
846.053374,-2316.252277,1014.556782,-15103.496251
846.055892,1646.261949,-1167.697429,-10796.415571
846.058410,-401.994197,95.712904,-5761.916821
846.060928,-287.138712,-382.851616,-12117.253646
846.063446,-267.996131,-1205.982590,-12480.962682
846.065964,1895.115499,-2775.674216,-2201.396792
846.068481,-4383.651003,957.129040,-18376.877568
846.070999,-4268.795518,1454.836141,-4268.795518
846.073517,5532.205851,-5398.207786,-10815.558152
846.076035,-784.845813,459.421939,-9035.298138
846.078553,-2469.392923,1607.976787,-7197.610381
846.081071,3158.525832,-2488.535504,-10738.987829
846.083601,-1052.841944,-746.560651,-10949.556218
846.086131,516.849682,-1282.552914,-9533.005238
846.088661,2967.100024,-4249.652938,-12882.956878
846.091191,-3522.234867,976.271621,-8078.169098
846.093722,4115.654872,-3330.809059,-8882.157491
846.096252,-1799.402595,689.132909,-15122.638832
846.098782,-2507.678085,2565.105827,-6431.907149
846.101312,3598.805190,-2431.107762,-10949.556218
846.103842,-2852.244539,1091.127106,-7331.608446
846.106372,-784.845813,-880.558717,-13552.947206
846.108903,1684.547110,-2584.248408,-5493.920690
846.111433,-1761.117434,-918.843878,-9360.722011
846.113963,-0.000000,-2182.254211,-12959.527202
846.116493,401.994197,-1761.117434,-6738.188442
846.119023,-2641.676150,1665.404530,-10758.130410
846.121553,5053.641331,-4919.643266,-9647.860723
846.124084,-1780.260014,2450.250342,-15696.916256
846.126614,-3235.096155,3522.234867,-2239.681954
846.129144,3349.951640,-3560.520029,-15314.064640
846.131674,-3656.232933,574.277424,-11523.833642
846.134204,2967.100024,-3388.236802,-2603.390989
846.136734,-401.994197,-2833.101958,-16673.187877
846.139265,-2009.970984,325.423874,-8499.305875
846.141795,2335.394858,-1550.549045,-4134.797453
846.144325,-1818.545176,1129.412267,-14912.070443
846.146855,-1167.697429,784.845813,-8307.880067
846.149385,1493.121302,-1741.974853,-4651.647134
846.151915,3445.664544,-3254.238736,-13323.236237
846.154446,-8729.016845,5034.498750,-10968.698798
846.156976,10202.995566,-6336.194245,-3215.953574
846.159506,-8748.159426,3847.658741,-10164.710405
846.162036,3694.518094,-4460.221326,-13591.232368
846.164566,631.705166,-2392.822600,-5245.067139
846.167096,-2469.392923,957.129040,-13016.954944
846.169627,593.420005,172.283227,-13801.800757
846.172157,689.132909,287.138712,-2545.963246
846.174687,2718.246474,-2986.242605,-10260.423309
846.177217,-5991.627790,2545.963246,-14854.642701
846.179747,4709.074877,-2603.390989,-3522.234867
846.182277,-191.425808,-574.277424,-12442.677520
846.184756,-2316.252277,1014.556782,-10892.128475
846.187234,2660.818731,-2852.244539,-7121.040058
846.189711,-4019.941968,1627.119368,-7676.174901
846.192189,1780.260014,-3273.381317,-15543.775610
846.194667,-861.416136,-1091.127106,-3905.086483
846.197145,-2163.111630,-325.423874,-13993.226565
846.199623,2469.392923,-2507.678085,-11026.126541
846.202101,-38.285162,-1167.697429,-4115.654872
846.204578,-1607.976787,-325.423874,-16405.191746
846.207056,1895.115499,-1990.828403,-9552.147819
846.209534,-1071.984525,1014.556782,-4326.223261
846.212012,1014.556782,-1148.554848,-19104.295638
846.214490,-1818.545176,1837.687757,-3790.230998
846.216967,3790.230998,-4651.647134,-9207.581365
846.219445,-4115.654872,995.414202,-14127.224630
846.221923,344.566454,-1263.410333,-3713.660675
846.224401,-287.138712,-1167.697429,-11006.983960
846.226879,-114.855485,76.570323,-12978.669782
846.229357,2201.396792,-2775.674216,-4957.928427
846.231834,-1531.406464,1014.556782,-10547.562021
846.234312,1703.689691,-2718.246474,-12346.964616
846.236790,-1244.267752,784.845813,-3273.381317
846.239268,842.273555,-1971.685822,-15141.781413
846.241746,-612.562586,-593.420005,-10049.854920
846.244224,248.853550,-2258.824534,-4249.652938
846.246701,-899.701298,172.283227,-16003.197549
846.249179,-708.275490,2507.678085,-10202.995566
846.251657,3062.812928,1914.258080,-5245.067139
846.254135,-4689.932296,7714.460062,-12021.540742
846.256613,3330.809059,1780.260014,-12863.814298
846.259090,57.427742,2909.672282,325.423874
846.261568,-861.416136,2641.676150,-19008.582734
846.264046,899.701298,2009.970984,-11083.554283
846.266524,-1033.699363,1129.412267,-344.566454
846.269002,325.423874,-2756.531635,-18836.299507
846.271480,-248.853550,2890.529701,-3790.230998
846.273957,325.423874,3694.518094,-11772.687192
846.276435,-880.558717,2411.965181,-16290.336261
846.278913,363.709035,2775.674216,-3579.662610
846.281391,57.427742,4709.074877,-10164.710405
846.283891,-689.132909,2507.678085,-15562.918190
846.286392,459.421939,1225.125171,-4019.941968
846.288893,-38.285162,19.142581,-9743.573627
846.291393,-842.273555,229.710970,-15696.916256
846.293894,650.847747,612.562586,-2871.387120
846.296395,-133.998066,2163.111630,-12366.107197
846.298895,-363.709035,3541.377448,-13629.517530
846.301396,210.568389,3120.240670,-4039.084549
846.303896,267.996131,-995.414202,-15275.779478
846.306397,-76.570323,-861.416136,-9934.999435
846.308898,-210.568389,459.421939,-3847.658741
846.311398,363.709035,765.703232,-15984.054968
846.313899,-363.709035,5570.491013,-9379.864592
846.316400,593.420005,6795.616184,-4689.932296
846.318900,19.142581,9839.286531,-16156.338195
846.321401,-574.277424,8365.307810,-6623.332957
846.323901,401.994197,2335.394858,-4823.930362
846.326402,210.568389,-1569.691626,-16003.197549
846.328903,-1205.982590,-2890.529701,-7963.313613
846.331403,976.271621,-6623.332957,-5704.489078
846.333904,-861.416136,-1301.695494,-15160.923994
846.336405,95.712904,2163.111630,-6527.620053
846.338905,57.427742,6776.473603,-9513.862658
846.341406,-191.425808,8958.727814,-11542.976222
846.343907,-172.283227,6604.190376,-9265.009107
846.346407,1703.689691,1205.982590,-7963.313613
846.348908,-2201.396792,784.845813,-11198.409768
846.351408,-344.566454,-1933.400661,-12078.968485
846.353909,210.568389,-4115.654872,-3483.949706
846.356410,-995.414202,-3407.379382,-13093.525267
846.358910,2239.681954,-957.129040,-15141.781413
846.361411,-1856.830338,3924.229064,2239.681954
846.363912,1837.687757,1722.832272,-18530.018214
846.366412,-1684.547110,2928.814862,-10336.993632
846.368913,1071.984525,-344.566454,-2373.680019
846.371413,803.988394,-4670.789715,-16481.762069
846.373914,-880.558717,-3081.955509,-8709.874264
846.376415,2086.541307,-4575.076811,-5742.774240
846.378915,-3656.232933,-401.994197,-13667.802691
846.381416,1205.982590,-995.414202,-9781.858789
846.383933,-1665.404530,1186.840010,-5647.061336
846.386451,2297.109696,1052.841944,-13629.517530
846.388968,-2182.254211,4402.793584,-5321.637462
846.391485,689.132909,153.140646,-11083.554283
846.394003,1186.840010,-3713.660675,-6585.047795
846.396520,-2488.535504,-2833.101958,-12653.245909
846.399037,440.279358,-5053.641331,-8154.739421
846.401555,650.847747,-3579.662610,-8901.300072
846.404072,-76.570323,-1550.549045,-11944.970419
846.406589,861.416136,1646.261949,-7389.036189
846.409107,-1454.836141,2029.113565,-11466.405899
846.411624,1454.836141,1244.267752,-11657.831707
846.414142,-708.275490,899.701298,-5666.203917
846.416659,-57.427742,-1627.119368,-14031.511726
846.419176,1225.125171,-3981.656806,-5666.203917
846.421694,-325.423874,-3732.803256,-10911.271056
846.424211,-1990.828403,-1741.974853,-11504.691061
846.426728,2373.680019,-3407.379382,-7121.040058
846.429246,-2909.672282,1378.265818,-7829.315547
846.431763,1837.687757,210.568389,-13399.806560
846.434280,1225.125171,1569.691626,-5206.781978
846.436798,-4728.217458,3637.090352,-8939.585234
846.439315,3101.098090,-4096.512291,-16194.623357
846.441832,-861.416136,-2335.394858,-3349.951640
846.444350,-1225.125171,-2067.398726,-13418.949141
846.446867,57.427742,-3388.236802,-15448.062706
846.449384,1875.972918,-2316.252277,478.564520
846.451902,-3981.656806,0.000000,-16290.336261
846.454419,4766.502619,-1990.828403,-13170.095590
846.456936,-2488.535504,4460.221326,2239.681954
846.459454,497.707101,1071.984525,-19123.438219
846.461971,1091.127106,-1627.119368,-10719.845248
846.464488,-1607.976787,-708.275490,574.277424
846.467006,-421.136778,-3330.809059,-15582.060771
846.469523,-133.998066,-4000.799387,-13514.662045
846.472040,478.564520,-2048.256146,-631.705166
846.474558,612.562586,-4517.649069,-9552.147819
846.477075,-6374.479406,2756.531635,-32236.106067
846.479593,1435.693560,4153.940034,13150.953010
846.482110,5455.635528,497.707101,-3579.662610
846.484639,-1205.982590,-19.142581,-22320.249213
846.487169,114.855485,1512.263883,574.277424
846.489699,1722.832272,-4192.225195,-15543.775610
846.492228,-1550.549045,-4689.932296,-25880.769242
846.494758,-172.283227,-2967.100024,4364.508422
846.497287,2699.103893,-2986.242605,-12193.823970
846.499817,-727.418070,-1186.840010,-15677.773675
846.502347,-76.570323,1071.984525,-4996.213589
846.504876,267.996131,2488.535504,-4364.508422
846.507406,-3694.518094,1684.547110,-19123.438219
846.509935,3656.232933,-2679.961312,-3062.812928
846.512465,344.566454,-2584.248408,-6470.192310
846.514995,-2947.957443,-937.986459,-19908.284032
846.517524,4230.510357,-5761.916821,-3005.385186
846.520054,-2622.533570,172.283227,-6240.481341
846.522583,861.416136,-2182.254211,-19238.293704
846.525113,1473.978722,478.564520,-5589.633594
846.527643,-153.140646,459.421939,-11102.696864
846.530172,-2277.967115,1607.976787,-18453.447891
846.532702,3349.951640,-1339.980656,1435.693560
846.535231,-5225.924558,440.279358,-10088.140082
846.537761,3330.809059,-5991.627790,-22128.823405
846.540291,-1071.984525,-574.277424,7101.897477
846.542820,-287.138712,-1741.974853,-14548.361408
846.545350,57.427742,-2469.392923,-18721.444022
846.547879,-899.701298,1914.258080,4211.367776
846.550409,1588.834206,-803.988394,-13361.521398
846.552939,-1454.836141,440.279358,-16500.904650
846.555468,3369.094221,-3081.955509,2737.389054
846.557998,-1244.267752,-1071.984525,-17764.314982
846.560527,-516.849682,-1933.400661,-13667.802691
846.563057,-1129.412267,-861.416136,746.560651
846.565587,-287.138712,-1799.402595,-17955.740790
846.568116,-593.420005,421.136778,-9609.575562
846.570646,1569.691626,-1473.978722,-5474.778109
846.573175,-1741.974853,784.845813,-11887.542677
846.575705,57.427742,-478.564520,-11562.118803
846.578234,306.281293,-689.132909,-6872.186507
846.580764,-1071.984525,-1033.699363,-8461.020714
846.583294,-574.277424,-2009.970984,-13074.382686
846.585833,535.992262,-1646.261949,-4421.936165
846.588373,-401.994197,-1761.117434,-13552.947206
846.590913,-3598.805190,76.570323,-9992.427178
846.593452,5245.067139,-4536.791650,-5340.780043
846.595992,-2086.541307,1761.117434,-10624.132344
846.598532,1856.830338,-1167.697429,-16213.765938
846.601071,-1263.410333,401.994197,-210.568389
846.603611,1875.972918,-2641.676150,-18223.736922
846.606151,-153.140646,-1244.267752,-9399.007173
846.608690,-1148.554848,-114.855485,-3579.662610
846.611230,1378.265818,-3062.812928,-16596.617554
846.613770,-2258.824534,516.849682,-7925.028451
846.616309,689.132909,-133.998066,-7235.895542
846.618849,-4153.940034,1014.556782,-11562.118803
846.621389,6029.912952,-6699.903280,-10336.993632
846.623928,-3675.375514,861.416136,-4249.652938
846.626468,2775.674216,-3292.523898,-15294.922059
846.629008,-1378.265818,-114.855485,-6661.618118
846.631547,-1052.841944,-229.710970,-8786.444587
846.634087,2335.394858,-2411.965181,-12021.540742
846.636627,-2411.965181,1339.980656,-8307.880067
846.639166,2469.392923,-1225.125171,-11121.839445
846.641706,-2813.959378,306.281293,-10068.997501
846.644246,746.560651,-363.709035,-11006.983960
846.646785,-3254.238736,95.712904,-6336.194245
846.649325,5589.633594,-5474.778109,-14299.507858
846.651865,-3694.518094,-57.427742,-7389.036189
846.654404,2871.387120,-2622.533570,-8997.012976
846.656944,-1282.552914,57.427742,-9877.571693
846.659484,-2411.965181,1071.984525,-10260.423309
846.662023,2354.537438,-2220.539373,-8154.739421
846.664563,-2335.394858,976.271621,-7752.745224
846.667103,918.843878,-1914.258080,-12557.533005
846.669642,38.285162,-1799.402595,-7446.463931
846.672182,-631.705166,-1378.265818,-8671.589102
846.674722,-325.423874,-1301.695494,-14318.650438
846.677261,229.710970,114.855485,-2775.674216
846.679801,1895.115499,-1761.117434,-14912.070443
846.682341,995.414202,-669.990328,-11849.257515
846.684880,-1225.125171,995.414202,-2431.107762
846.687427,-555.134843,-765.703232,-15524.633029
846.689973,210.568389,-2258.824534,-13189.238171
846.692520,-746.560651,-918.843878,631.705166
846.695066,172.283227,-2450.250342,-16137.195614
846.697612,1397.408398,-4460.221326,-3579.662610
846.700159,-4747.360038,899.701298,-18013.168533
846.702705,191.425808,1186.840010,-8365.307810
846.705252,-1512.263883,4173.082614,57.427742
846.707798,5876.772306,-4460.221326,-15371.492382
846.710344,-4345.365842,823.130974,-17400.605947
846.712891,2105.683888,-2852.244539,3292.523898
846.715437,-6087.340694,-382.851616,-21420.547915
846.717984,3464.807125,-4632.504554,-12538.390424
846.720530,172.283227,401.994197,4823.930362
846.723076,-2392.822600,1569.691626,-21363.120173
846.725623,2699.103893,-516.849682,-12691.531070
846.728169,-1914.258080,2354.537438,5608.776174
846.730716,-2373.680019,574.277424,-22262.821470
846.733262,1148.554848,-1952.543242,-8824.729749
846.735809,-1052.841944,-1186.840010,2909.672282
846.738355,-229.710970,-3675.375514,-23066.809864
846.740901,1205.982590,-2143.969050,-6833.901346
846.743448,-2603.390989,1129.412267,2737.389054
846.745994,440.279358,-2813.959378,-22358.534374
846.748541,2737.389054,-1761.117434,-9801.001370
846.751087,-1550.549045,2335.394858,-3369.094221
846.753633,1129.412267,-1512.263883,-21497.118238
846.756180,-1703.689691,1110.269686,-1244.267752
846.758726,1971.685822,-1761.117434,-8154.739421
846.761273,-2316.252277,-2086.541307,-24043.081485
846.763819,-38.285162,-1531.406464,669.990328
846.766365,650.847747,-1780.260014,-6508.477472
846.768912,-1971.685822,153.140646,-21305.692430
846.771458,650.847747,-76.570323,-574.277424
846.774005,-1646.261949,325.423874,-4441.078746
846.776551,1684.547110,-3407.379382,-23526.231803
846.779098,-2947.957443,1990.828403,1856.830338
846.781644,5072.783912,-4632.504554,-6776.473603
846.784190,-2220.539373,-2794.816797,-23602.802126
846.786737,-1741.974853,344.566454,210.568389
846.789287,669.990328,-1531.406464,-13706.087853
846.791838,-2029.113565,1550.549045,-16711.473038
846.794388,1703.689691,-555.134843,784.845813
846.796939,-593.420005,574.277424,-13189.238171
846.799489,248.853550,-1550.549045,-14222.937534
846.802040,-2277.967115,669.990328,-1186.840010
846.804590,2277.967115,-4862.215523,-16558.332392
846.807141,-2737.389054,-612.562586,-9092.725880
846.809691,1110.269686,-1856.830338,-4709.074877
846.812242,-191.425808,-1110.269686,-15869.199483
846.814792,-1071.984525,1282.552914,-6987.041992
846.817343,-95.712904,287.138712,-8786.444587
846.819893,1225.125171,-1933.400661,-7025.327154
846.822444,-612.562586,-2124.826469,-16462.619488
846.824994,708.275490,-937.986459,-6087.340694
846.827545,1091.127106,-574.277424,-9016.155557
846.830095,-6087.340694,2488.535504,-14548.361408
846.832646,6087.340694,-6565.905214,-10700.702667
846.835196,-4594.219392,1837.687757,-1397.408398
846.837747,1607.976787,-2967.100024,-20176.280163
846.840297,-4575.076811,1761.117434,-5685.346498
846.842848,4938.785846,-2431.107762,-10356.136213
846.845398,-2124.826469,3215.953574,-7657.032320
846.847949,-689.132909,1512.263883,-10164.710405
846.850499,2182.254211,-3311.666478,-11351.550414
846.853050,-3215.953574,248.853550,-6795.616184
846.855600,2392.822600,-5436.492947,-11121.839445
846.858150,-1339.980656,-2163.111630,-10394.421374
846.860701,287.138712,-2029.113565,-7178.467800
846.863251,1320.838075,-976.271621,-12155.538808
846.865802,-1837.687757,2105.683888,-8901.300072
846.868352,1129.412267,478.564520,-9111.868461
846.870903,-4441.078746,2009.970984,-10566.704602
846.873453,6297.909083,-5359.922624,-10987.841379
846.876004,-2163.111630,-689.132909,-7733.602643
846.878554,-2201.396792,-306.281293,-11906.685258
846.881105,2909.672282,-4000.799387,-6087.340694
846.883655,-3139.383251,1818.545176,-11810.972354
846.886206,1799.402595,-1588.834206,-10413.563955
846.888756,-1033.699363,976.271621,-8173.882002
