#time,accel_x,accel_y,accel_z
368.297291,612.876398,370.102971,9474.636058
368.297599,306.438199,444.123565,9548.656652
368.297906,536.266849,-0.000000,9474.636058
368.298214,766.095498,-0.000000,9548.656652
368.298522,229.828649,-74.020594,9696.697840
368.298830,536.266849,222.061783,9548.656652
368.299138,459.657299,-0.000000,9548.656652
368.299446,612.876398,296.082377,9696.697840
368.299754,536.266849,222.061783,9622.677246
368.300061,842.705048,-0.000000,9548.656652
368.300369,76.609550,-74.020594,9474.636058
368.300677,536.266849,-0.000000,9548.656652
368.300985,689.485948,222.061783,9548.656652
368.301293,459.657299,222.061783,9474.636058
368.301601,459.657299,-0.000000,9696.697840
368.301909,689.485948,296.082377,9918.759623
368.302217,306.438199,370.102971,9696.697840
368.302524,306.438199,-0.000000,9844.739029
368.302832,536.266849,-0.000000,9622.677246
368.303140,383.047749,296.082377,9770.718434
368.303448,842.705048,-0.000000,9474.636058
368.303756,536.266849,296.082377,9400.615463
368.304064,536.266849,370.102971,9548.656652
368.304372,536.266849,222.061783,9696.697840
368.304680,919.314598,-0.000000,9548.656652
368.304987,842.705048,-148.041188,9548.656652
368.305295,383.047749,-74.020594,9770.718434
368.305603,383.047749,-0.000000,9622.677246
368.305911,689.485948,-0.000000,9696.697840
368.306219,536.266849,-0.000000,9696.697840
368.306527,612.876398,-0.000000,9474.636058
368.306835,689.485948,-0.000000,9622.677246
368.307143,1225.752797,-0.000000,9474.636058
368.307450,1149.143247,-0.000000,9474.636058
368.307758,612.876398,-0.000000,9844.739029
368.308066,995.924147,-148.041188,9992.780217
368.308374,689.485948,-296.082377,9918.759623
368.308682,612.876398,-518.144159,10140.821405
368.308990,689.485948,-370.102971,9918.759623
368.309298,689.485948,-518.144159,9918.759623
368.309606,766.095498,-222.061783,9770.718434
368.309913,1455.581446,-666.185348,9992.780217
368.310221,1532.190996,-148.041188,9030.512492
368.310529,2221.676944,592.164754,8882.471304
368.310837,2068.457845,962.267725,8808.450710
368.311145,2451.505594,592.164754,9030.512492
368.311453,2221.676944,592.164754,9178.553681
368.311761,1915.238745,296.082377,9252.574275
368.312069,1149.143247,296.082377,9474.636058
368.312376,1838.629195,-0.000000,9844.739029
368.312684,1762.019645,-222.061783,10214.842000
368.312992,1838.629195,-0.000000,10066.800811
368.313300,1762.019645,-74.020594,9918.759623
368.313608,1838.629195,-222.061783,10214.842000
368.313916,1991.848295,-0.000000,10066.800811
368.314224,2221.676944,-0.000000,9770.718434
368.314532,3140.991542,518.144159,9400.615463
368.314839,2604.724693,518.144159,9474.636058
368.315147,2834.553343,518.144159,9622.677246
368.315455,2987.772442,296.082377,9548.656652
368.315763,2604.724693,296.082377,9474.636058
368.316071,2604.724693,444.123565,9474.636058
368.316379,2451.505594,-0.000000,9548.656652
368.316687,2528.115143,148.041188,9918.759623
368.316995,2987.772442,148.041188,10066.800811
368.317302,2681.334243,222.061783,9622.677246
368.317610,2681.334243,-148.041188,9770.718434
368.317918,3064.381992,-0.000000,10584.944971
368.318226,3140.991542,-0.000000,10288.862594
368.318534,2834.553343,-0.000000,9844.739029
368.318842,3064.381992,-0.000000,9844.739029
368.319150,3294.210641,222.061783,9696.697840
368.319458,3830.477490,148.041188,9474.636058
368.319765,4060.306139,296.082377,9252.574275
368.320073,4290.134789,444.123565,9400.615463
368.320381,4290.134789,370.102971,9474.636058
368.320689,4136.915689,370.102971,9326.594869
368.320997,4213.525239,148.041188,9326.594869
368.321305,4366.744339,444.123565,9400.615463
368.321613,4213.525239,296.082377,9474.636058
368.321921,3830.477490,296.082377,9696.697840
368.322228,4596.572988,-0.000000,9548.656652
368.322536,4596.572988,222.061783,9400.615463
368.322844,4979.620737,740.205942,9474.636058
368.323152,4596.572988,1110.308913,8956.491898
368.323460,4903.011187,1258.350101,8734.430116
368.323768,4673.182538,1406.391290,8882.471304
368.324076,4596.572988,1406.391290,8290.306550
368.324384,3830.477490,1036.288319,9326.594869
368.324691,4060.306139,962.267725,10214.842000
368.324999,3294.210641,370.102971,9548.656652
368.325307,3907.087040,740.205942,9622.677246
368.325615,2681.334243,222.061783,10288.862594
368.325923,3217.601092,814.226536,9992.780217
368.326231,2681.334243,666.185348,9474.636058
368.326539,2681.334243,444.123565,9696.697840
368.326847,2681.334243,666.185348,10436.903782
368.327154,2757.943793,444.123565,9844.739029
368.327462,2451.505594,666.185348,9474.636058
368.327770,1838.629195,148.041188,9622.677246
368.328078,2221.676944,370.102971,9844.739029
368.328386,1302.362347,-74.020594,10066.800811
368.328694,1302.362347,-666.185348,10584.944971
368.329002,1378.971896,-962.267725,10584.944971
368.329310,1608.800546,-1332.370696,10658.965565
368.329617,1608.800546,-1998.556043,11029.068536
368.329925,2451.505594,-1850.514855,10510.924376
368.330233,2757.943793,-1554.432478,10584.944971
368.330541,2911.162892,-1628.453072,9770.718434
368.330849,3677.258390,-1554.432478,9622.677246
368.331157,3753.867940,-1110.308913,9326.594869
368.331465,4290.134789,-222.061783,8808.450710
368.331773,5056.230287,-0.000000,9030.512492
368.332080,4903.011187,1110.308913,8808.450710
368.332388,5362.668486,592.164754,8364.327145
368.332696,4979.620737,666.185348,8364.327145
368.333004,4519.963438,222.061783,8512.368333
368.333312,4060.306139,296.082377,8734.430116
368.333620,3983.696590,-0.000000,9104.533087
368.333928,3677.258390,-296.082377,9622.677246
368.334236,2987.772442,-0.000000,9770.718434
368.334543,2681.334243,296.082377,9770.718434
368.334851,3677.258390,592.164754,9474.636058
368.335159,3447.429741,1776.494261,9178.553681
368.335467,3830.477490,2738.761985,8438.347739
368.335775,4443.353888,3034.844362,8660.409521
368.336083,4290.134789,2960.823768,8438.347739
368.336391,3983.696590,2812.782580,8290.306550
368.336699,4136.915689,1110.308913,10436.903782
368.337006,2528.115143,-148.041188,10807.006753
368.337314,1302.362347,-1406.391290,11991.336260
368.337622,306.438199,-2812.782580,12805.562797
368.337930,459.657299,-3478.967927,13545.768739
368.338238,919.314598,-3552.988522,13471.748144
368.338546,2068.457845,-2886.803174,11991.336260
368.338854,3524.039291,-1850.514855,11177.109724
368.339161,4443.353888,-1258.350101,9030.512492
368.339469,6665.030833,592.164754,9030.512492
368.339777,6741.640382,2072.576638,7105.977043
368.340085,7354.516781,3478.967927,5773.606348
368.340393,7814.174080,3997.112087,6069.688724
368.340701,6971.469032,4885.359217,4811.338623
368.341009,5975.544884,4737.318029,5921.647536
368.341317,5975.544884,3478.967927,6661.853478
368.341624,3217.601092,2738.761985,7402.059420
368.341932,2528.115143,740.205942,9770.718434
368.342240,1302.362347,-666.185348,11103.089130
368.342548,0.000000,-2072.576638,12213.398043
368.342856,0.000000,-3775.050304,13545.768739
368.343164,-306.438199,-4071.132681,14211.954086
368.343472,229.828649,-4441.235652,13619.789333
368.343780,766.095498,-4071.132681,12731.542202
368.344087,2451.505594,-2960.823768,12361.439231
368.344395,4136.915689,-2220.617826,11029.068536
368.344703,5286.058936,-592.164754,8808.450710
368.345011,5745.716235,962.267725,7402.059420
368.345319,6435.202183,2146.597232,6513.812290
368.345627,6435.202183,3182.885551,5995.668130
368.345935,6435.202183,4071.132681,5773.606348
368.346243,6205.373534,3627.009116,5551.544565
368.346550,5286.058936,2516.700203,6513.812290
368.346858,4213.525239,1184.329507,7550.100608
368.347166,3064.381992,-740.205942,10214.842000
368.347474,1378.971896,-2886.803174,11473.192101
368.347782,612.876398,-4145.153275,13101.645173
368.348090,76.609550,-4145.153275,13471.748144
368.348398,1225.752797,-3478.967927,13249.686362
368.348706,3677.258390,-1406.391290,11695.253884
368.349013,5362.668486,1036.288319,9178.553681
368.349321,6971.469032,2664.741391,6439.791695
368.349629,8350.440928,4663.297435,4589.276840
368.349937,8197.221829,6217.729913,4145.153275
368.350245,7737.564530,5995.668130,5033.400406
368.350553,6741.640382,5551.544565,5551.544565
368.350861,4136.915689,1924.535449,8142.265362
368.351169,1302.362347,-888.247130,11547.212695
368.351476,-2834.553343,-3552.988522,13471.748144
368.351784,-2068.457845,-4293.194464,16580.613101
368.352092,-2528.115143,-6883.915261,16876.695478
368.352400,-3600.648841,-5921.647536,17024.736666
368.352708,766.095498,-4811.338623,15322.262999
368.353016,1455.581446,-1332.370696,9918.759623
368.353324,4903.011187,1036.288319,8512.368333
368.353632,7660.954980,3478.967927,5847.626942
368.353939,9576.193725,5773.606348,5107.421000
368.354247,9346.365076,5477.523971,4367.215058
368.354555,9269.755526,5699.585753,2812.782580
368.354863,7277.907231,3552.988522,6143.709319
368.355171,3830.477490,-518.144159,8364.327145
368.355479,1225.752797,-3108.864956,11621.233289
368.355787,-919.314598,-4589.276840,13249.686362
368.356095,-995.924147,-5921.647536,13989.892304
368.356402,-229.828649,-4219.173869,13027.624579
368.356710,2757.943793,-814.226536,11695.253884
368.357018,5745.716235,888.247130,9400.615463
368.357326,6665.030833,2738.761985,6587.832884
368.357634,8886.707777,4293.194464,7031.956449
368.357942,7967.393179,4885.359217,5995.668130
368.358250,6511.811733,4367.215058,7105.977043
368.358558,5362.668486,1702.473667,9326.594869
368.358865,1915.238745,-148.041188,10658.965565
368.359173,0.000000,-1554.432478,12657.521608
368.359481,-1762.019645,-3256.906145,13175.665768
368.359789,-2298.286494,-3330.926739,14285.974681
368.360097,-1149.143247,-3478.967927,13767.830521
368.360405,1225.752797,-2442.679609,12065.356855
368.360713,3370.820191,-1776.494261,10362.883188
368.361021,5975.544884,-888.247130,8512.368333
368.361329,6588.421283,-148.041188,7920.203579
368.361637,6741.640382,1702.473667,7920.203579
368.361945,6588.421283,2146.597232,7698.141797
368.362253,5975.544884,3552.988522,7402.059420
368.362561,5822.325785,5107.421000,6217.729913
368.362869,6281.983084,6439.791695,4885.359217
368.363177,6435.202183,5773.606348,6069.688724
368.363485,5669.106685,3701.029710,7179.997637
368.363793,4596.572988,1110.308913,8882.471304
368.364101,2528.115143,-962.267725,11695.253884
368.364409,536.266849,-4219.173869,13471.748144
368.364717,-1302.362347,-5329.482782,14063.912898
368.365025,-2451.505594,-4737.318029,13841.851115
368.365333,-1225.752797,-3404.947333,12879.583391
368.365641,229.828649,-1036.288319,10288.862594
368.365949,1991.848295,1184.329507,10288.862594
368.366257,3600.648841,1036.288319,8734.430116
368.366565,4366.744339,2072.576638,6957.935855
368.366873,3830.477490,2146.597232,7624.121203
368.367181,4596.572988,1628.453072,7105.977043
368.367489,2834.553343,2368.659014,7624.121203
368.367797,2757.943793,1184.329507,10214.842000
368.368105,2298.286494,1332.370696,8808.450710
368.368413,1991.848295,1406.391290,9326.594869
368.368721,2451.505594,-0.000000,10214.842000
368.369029,2987.772442,-296.082377,9326.594869
368.369337,2145.067394,-1998.556043,10510.924376
368.369645,1608.800546,-2738.761985,10658.965565
368.369953,766.095498,-3330.926739,10288.862594
368.370261,-153.219100,-2960.823768,10955.047942
368.370569,383.047749,-740.205942,10214.842000
368.370877,2221.676944,814.226536,9474.636058
368.371186,2987.772442,1776.494261,8512.368333
368.371494,3753.867940,814.226536,8512.368333
368.371802,1991.848295,-0.000000,8290.306550
368.372110,1302.362347,-1258.350101,10955.047942
368.372418,-612.876398,-1258.350101,11695.253884
368.372726,-306.438199,-370.102971,11547.212695
368.373034,306.438199,962.267725,10732.986159
368.373342,1378.971896,2590.720797,8586.388927
368.373650,4366.744339,3182.885551,8882.471304
368.373958,4903.011187,2960.823768,8364.327145
368.374266,3753.867940,666.185348,7920.203579
368.374574,2451.505594,-1184.329507,9696.697840
368.374882,459.657299,-2146.597232,10658.965565
368.375190,-536.266849,-2072.576638,11399.171507
368.375498,-383.047749,-1332.370696,10436.903782
368.375806,766.095498,296.082377,9400.615463
368.376114,1838.629195,740.205942,9400.615463
368.376422,2911.162892,1184.329507,8660.409521
368.376730,2528.115143,-0.000000,9474.636058
368.377038,1149.143247,-666.185348,9400.615463
368.377346,383.047749,-666.185348,10362.883188
368.377654,689.485948,518.144159,10510.924376
368.377962,1378.971896,2590.720797,9474.636058
368.378270,3600.648841,4811.338623,8290.306550
368.378578,5898.935335,5255.462188,6587.832884
368.378886,4903.011187,4367.215058,7698.141797
368.379194,4136.915689,1036.288319,9252.574275
368.379502,1455.581446,-740.205942,10140.821405
368.379810,-1455.581446,-3256.906145,11843.295072
368.380118,-2145.067394,-4663.297435,12731.542202
368.380426,-2681.334243,-3627.009116,11473.192101
368.380734,-1149.143247,-2664.741391,10658.965565
368.381042,383.047749,-2590.720797,9992.780217
368.381350,1455.581446,-1036.288319,10658.965565
368.381659,1838.629195,-1110.308913,9622.677246
368.381967,689.485948,-444.123565,9474.636058
368.382275,383.047749,1406.391290,9326.594869
368.382583,2221.676944,3108.864956,9104.533087
368.382891,3830.477490,5477.523971,7476.080014
368.383199,4673.182538,5847.626942,6661.853478
368.383507,6052.154434,5329.482782,6883.915261
368.383815,3907.087040,2368.659014,8290.306550
368.384123,995.924147,-592.164754,9770.718434
368.384431,-1225.752797,-3034.844362,11917.315666
368.384739,-3983.696590,-5255.462188,12953.603985
368.385047,-4060.306139,-5403.503377,13027.624579
368.385355,-2145.067394,-4441.235652,11399.171507
368.385663,0.000000,-2072.576638,9992.780217
368.385971,1302.362347,-1628.453072,9400.615463
368.386279,2068.457845,-296.082377,8142.265362
368.386587,1455.581446,2146.597232,8142.265362
368.386895,1532.190996,2368.659014,8956.491898
368.387203,1915.238745,4885.359217,7698.141797
368.387511,2911.162892,6365.771101,7105.977043
368.387819,4443.353888,5773.606348,6883.915261
368.388127,3983.696590,3701.029710,8216.285956
368.388435,2681.334243,1036.288319,10140.821405
368.388743,-459.657299,-1036.288319,11251.130318
368.389051,-3370.820191,-3923.091493,12731.542202
368.389359,-4290.134789,-5255.462188,13619.789333
368.389667,-3983.696590,-4367.215058,11843.295072
368.389975,-2221.676944,-2590.720797,10288.862594
368.390283,842.705048,-1406.391290,9326.594869
368.390591,1762.019645,-0.000000,8068.244768
368.390899,2145.067394,666.185348,7031.956449
368.391207,2451.505594,1924.535449,8068.244768
368.391515,1225.752797,3034.844362,8364.327145
368.391823,1149.143247,3849.070898,8512.368333
368.392132,1685.410096,4071.132681,8882.471304
368.392440,1915.238745,3775.050304,8734.430116
368.392748,919.314598,962.267725,11769.274478
368.393056,-766.095498,-888.247130,11917.315666
368.393364,-2298.286494,-3701.029710,12361.439231
368.393672,-4826.401637,-4071.132681,13693.809927
368.393980,-4366.744339,-5107.421000,12287.418637
368.394288,-3524.039291,-3478.967927,11399.171507
368.394596,-383.047749,-1628.453072,10658.965565
368.394904,2451.505594,-0.000000,6735.874072
368.395212,3217.601092,1702.473667,5255.462188
368.395520,4290.134789,2516.700203,6143.709319
368.395828,3064.381992,2442.679609,7105.977043
368.396136,1762.019645,3552.988522,7920.203579
368.396444,1072.533697,3034.844362,8290.306550
368.396752,1608.800546,2812.782580,9252.574275
368.397060,2528.115143,1258.350101,10214.842000
368.397368,229.828649,888.247130,9918.759623
368.397676,612.876398,-2072.576638,11695.253884
368.397984,-1991.848295,-3330.926739,12139.377449
368.398292,-3677.258390,-4145.153275,13767.830521
368.398600,-3064.381992,-4589.276840,14137.933492
368.398908,-2068.457845,-2368.659014,10362.883188
368.399216,0.000000,-814.226536,9104.533087
368.399524,2451.505594,1406.391290,5625.565159
368.399832,3524.039291,1850.514855,6587.832884
368.400140,3064.381992,2294.638420,6735.874072
368.400448,2528.115143,1702.473667,7550.100608
368.400756,1532.190996,2664.741391,9178.553681
368.401064,536.266849,2220.617826,9548.656652
368.401372,2298.286494,2738.761985,9252.574275
368.401680,2681.334243,2738.761985,9622.677246
368.401988,2987.772442,1258.350101,10214.842000
368.402296,1685.410096,-222.061783,9696.697840
368.402605,-153.219100,-1776.494261,10732.986159
368.402913,-383.047749,-3552.988522,12731.542202
368.403221,-2068.457845,-2368.659014,11547.212695
368.403529,-229.828649,-1554.432478,10807.006753
368.403837,1302.362347,-740.205942,8512.368333
368.404145,2528.115143,1554.432478,7105.977043
368.404453,3600.648841,1924.535449,7254.018232
368.404761,3753.867940,1332.370696,7698.141797
368.405069,2298.286494,1554.432478,8512.368333
368.405377,536.266849,1036.288319,9548.656652
368.405685,689.485948,1776.494261,10214.842000
368.405993,1532.190996,1702.473667,10732.986159
368.406301,2528.115143,1332.370696,10362.883188
368.406609,2374.896044,444.123565,9844.739029
368.406917,766.095498,-1036.288319,10362.883188
368.407225,-536.266849,-2516.700203,11843.295072
368.407533,-1685.410096,-2738.761985,11695.253884
368.407841,-2145.067394,-3108.864956,12509.480420
368.408149,-383.047749,-1258.350101,9770.718434
368.408457,1149.143247,518.144159,7920.203579
368.408765,2145.067394,1924.535449,7698.141797
368.409073,3370.820191,1332.370696,6809.894666
368.409381,2834.553343,2072.576638,6883.915261
368.409689,1072.533697,1406.391290,8512.368333
368.409997,459.657299,962.267725,10140.821405
368.410305,153.219100,2146.597232,9400.615463
368.410613,1072.533697,2590.720797,10362.883188
368.410921,1455.581446,1184.329507,9918.759623
368.411229,1608.800546,1036.288319,9474.636058
368.411537,-536.266849,-740.205942,11547.212695
368.411845,-1685.410096,-2664.741391,11695.253884
368.412153,-2374.896044,-1702.473667,11917.315666
368.412461,-2374.896044,-2072.576638,12213.398043
368.412769,-1149.143247,-666.185348,9326.594869
368.413078,842.705048,814.226536,7254.018232
368.413386,1685.410096,1406.391290,7624.121203
368.413694,2145.067394,1702.473667,6957.935855
368.414002,1991.848295,1332.370696,7846.182985
368.414310,-306.438199,888.247130,9770.718434
368.414618,-842.705048,666.185348,9918.759623
368.414926,-536.266849,1702.473667,10214.842000
368.415234,689.485948,1702.473667,10140.821405
368.415542,2068.457845,1332.370696,9622.677246
368.415850,1225.752797,-0.000000,9474.636058
368.416158,0.000000,-1406.391290,11399.171507
368.416466,-1838.629195,-2738.761985,11769.274478
368.416774,-2681.334243,-2664.741391,12065.356855
368.417082,-2834.553343,-2368.659014,11621.233289
368.417390,-1225.752797,-1258.350101,9178.553681
368.417698,0.000000,296.082377,8068.244768
368.418006,2911.162892,740.205942,7402.059420
368.418314,1685.410096,1406.391290,6069.688724
368.418622,1455.581446,740.205942,7772.162391
368.418930,536.266849,296.082377,9326.594869
368.419238,-612.876398,962.267725,10214.842000
368.419546,612.876398,1628.453072,9844.739029
368.419854,2451.505594,2368.659014,9178.553681
368.420162,2604.724693,1924.535449,8512.368333
368.420470,1838.629195,-0.000000,9622.677246
368.420778,0.000000,-1998.556043,11103.089130
368.421086,-1915.238745,-2812.782580,12583.501014
368.421394,-3140.991542,-3330.926739,12435.459826
368.421702,-2911.162892,-2368.659014,11843.295072
368.422010,-689.485948,-962.267725,9548.656652
368.422318,1072.533697,518.144159,8660.409521
368.422626,3370.820191,1776.494261,7105.977043
368.422934,2451.505594,1776.494261,6661.853478
368.423242,2528.115143,1184.329507,8438.347739
368.423551,306.438199,1554.432478,7994.224174
368.423859,1455.581446,1480.411884,10288.862594
368.424167,766.095498,2886.803174,8512.368333
368.424475,2068.457845,3182.885551,7920.203579
368.424783,3140.991542,2220.617826,9400.615463
368.425091,1838.629195,888.247130,8956.491898
368.425399,1225.752797,-1110.308913,11843.295072
368.425707,-995.924147,-1924.535449,11843.295072
368.426015,-2221.676944,-3034.844362,12657.521608
368.426323,-2451.505594,-2294.638420,11177.109724
368.426631,-306.438199,-962.267725,10214.842000
368.426939,1991.848295,222.061783,8808.450710
368.427247,2604.724693,962.267725,6587.832884
368.427555,3294.210641,814.226536,7105.977043
368.427863,2068.457845,814.226536,8216.285956
368.428171,919.314598,814.226536,9696.697840
368.428479,459.657299,1554.432478,10066.800811
368.428787,1225.752797,2146.597232,9474.636058
368.429095,2374.896044,2516.700203,9474.636058
368.429403,2911.162892,1702.473667,9030.512492
368.429711,2221.676944,-222.061783,10436.903782
368.430019,-536.266849,-1628.453072,11843.295072
368.430327,-2451.505594,-3256.906145,13619.789333
368.430635,-2374.896044,-4071.132681,13323.706956
368.430943,-2068.457845,-2368.659014,11177.109724
368.431251,-229.828649,-1258.350101,9474.636058
368.431559,1915.238745,666.185348,8142.265362
368.431867,4136.915689,1332.370696,7328.038826
368.432175,3447.429741,1850.514855,7105.977043
368.432483,2528.115143,2072.576638,7105.977043
368.432791,2221.676944,1702.473667,8142.265362
368.433099,689.485948,2738.761985,8808.450710
368.433407,1072.533697,2368.659014,9844.739029
368.433715,1225.752797,2516.700203,9548.656652
368.434024,2068.457845,1850.514855,9252.574275
368.434332,612.876398,-0.000000,9844.739029
368.434640,0.000000,-1850.514855,11547.212695
368.434948,-1378.971896,-3108.864956,12213.398043
368.435256,-2987.772442,-2960.823768,12065.356855
368.435564,-1915.238745,-2368.659014,11473.192101
368.435872,-306.438199,-666.185348,9326.594869
368.436180,1455.581446,740.205942,8290.306550
368.436488,2911.162892,814.226536,7031.956449
368.436796,2604.724693,1406.391290,6587.832884
368.437104,1991.848295,1702.473667,7846.182985
368.437412,1302.362347,1184.329507,9178.553681
368.437720,536.266849,1850.514855,9474.636058
368.438028,995.924147,2368.659014,9622.677246
368.438336,1685.410096,2294.638420,9178.553681
368.438644,1991.848295,814.226536,9696.697840
368.438952,1149.143247,-518.144159,10066.800811
368.439260,-306.438199,-2294.638420,11843.295072
368.439568,-2068.457845,-3997.112087,12953.603985
368.439876,-2374.896044,-3849.070898,12509.480420
368.440184,-2068.457845,-2812.782580,11177.109724
368.440492,383.047749,-1184.329507,9178.553681
368.440800,2145.067394,518.144159,7254.018232
368.441108,2681.334243,1554.432478,6809.894666
368.441416,3217.601092,1184.329507,7328.038826
368.441724,1915.238745,2072.576638,8142.265362
368.442032,1149.143247,2294.638420,9252.574275
368.442340,995.924147,2442.679609,9992.780217
368.442648,2068.457845,3182.885551,9326.594869
368.442956,1762.019645,2738.761985,9400.615463
368.443264,1915.238745,888.247130,9770.718434
368.443572,0.000000,-444.123565,10584.944971
368.443880,-1608.800546,-2738.761985,13397.727550
368.444188,-2834.553343,-4293.194464,13767.830521
368.444497,-3677.258390,-4219.173869,12509.480420
368.444805,-2604.724693,-3256.906145,11547.212695
368.445113,-995.924147,-592.164754,9326.594869
368.445421,2145.067394,814.226536,7920.203579
368.445729,2528.115143,1776.494261,6513.812290
368.446037,3064.381992,2220.617826,6661.853478
368.446345,2451.505594,2738.761985,7698.141797
368.446653,2145.067394,3627.009116,7920.203579
368.446961,2145.067394,4663.297435,7772.162391
368.447269,2451.505594,3997.112087,8364.327145
368.447577,1991.848295,3404.947333,9030.512492
368.447885,1915.238745,1776.494261,9252.574275
368.448193,689.485948,-0.000000,10510.924376
368.448501,-1685.410096,-2738.761985,12583.501014
368.448809,-2604.724693,-3849.070898,12953.603985
368.449117,-2911.162892,-4219.173869,11991.336260
368.449425,-2374.896044,-2590.720797,11473.192101
368.449733,76.609550,-1554.432478,9548.656652
368.450041,1838.629195,-0.000000,8438.347739
368.450349,2834.553343,740.205942,7624.121203
368.450657,2451.505594,1184.329507,7105.977043
368.450965,1608.800546,1554.432478,7624.121203
368.451273,1302.362347,2220.617826,9252.574275
368.451581,995.924147,2738.761985,9400.615463
368.451889,1149.143247,2738.761985,9400.615463
368.452197,2298.286494,2220.617826,9622.677246
368.452505,1455.581446,-0.000000,9474.636058
368.452813,459.657299,-1184.329507,10807.006753
368.453121,-766.095498,-3775.050304,12361.439231
368.453429,-3217.601092,-4367.215058,12657.521608
368.453737,-2757.943793,-4515.256246,12435.459826
368.454045,-1302.362347,-2886.803174,10807.006753
368.454353,0.000000,-666.185348,9104.533087
368.454661,2681.334243,-0.000000,7031.956449
368.454970,3983.696590,2146.597232,5847.626942
368.455278,3294.210641,2294.638420,6513.812290
368.455586,2298.286494,2590.720797,7105.977043
368.455894,1532.190996,3552.988522,8068.244768
368.456202,689.485948,3701.029710,8808.450710
368.456510,1302.362347,2516.700203,9326.594869
368.456818,1838.629195,2072.576638,9252.574275
368.457126,995.924147,370.102971,9770.718434
368.457434,-306.438199,-1184.329507,11177.109724
368.457742,-1838.629195,-2960.823768,12139.377449
368.458050,-2987.772442,-3627.009116,14137.933492
368.458358,-3370.820191,-3923.091493,13101.645173
368.458666,-2298.286494,-1924.535449,10214.842000
368.458974,-153.219100,-0.000000,9474.636058
368.459282,2145.067394,740.205942,7476.080014
368.459590,3064.381992,1776.494261,6735.874072
368.459898,2681.334243,2368.659014,6809.894666
368.460206,2298.286494,2368.659014,7105.977043
368.460514,919.314598,3404.947333,8068.244768
368.460822,1915.238745,3330.926739,8586.388927
368.461130,2681.334243,2664.741391,9326.594869
368.461438,1838.629195,2220.617826,9622.677246
368.461746,2374.896044,-222.061783,10658.965565
368.462054,1149.143247,-1850.514855,11547.212695
368.462362,-1532.190996,-3478.967927,11843.295072
368.462670,-2145.067394,-4737.318029,12879.583391
368.462978,-3217.601092,-4071.132681,11991.336260
368.463286,-919.314598,-3034.844362,11843.295072
368.463594,76.609550,-962.267725,8586.388927
368.463903,2757.943793,444.123565,7698.141797
368.464211,2528.115143,1480.411884,7105.977043
368.464519,2987.772442,1850.514855,7179.997637
368.464827,2757.943793,2590.720797,7476.080014
368.465135,1225.752797,4219.173869,7179.997637
368.465443,2068.457845,2812.782580,9400.615463
368.465751,1991.848295,3701.029710,8364.327145
368.466059,2374.896044,1998.556043,10066.800811
368.466367,1302.362347,-148.041188,11251.130318
368.466675,766.095498,-1776.494261,11843.295072
368.466983,-1608.800546,-3256.906145,13397.727550
368.467291,-3600.648841,-3849.070898,12731.542202
368.467599,-2374.896044,-3256.906145,12879.583391
368.467907,-1225.752797,-1332.370696,10807.006753
368.468216,842.705048,296.082377,8734.430116
368.468524,2604.724693,1406.391290,6883.915261
368.468832,3524.039291,1998.556043,7328.038826
368.469140,3447.429741,2516.700203,6883.915261
368.469448,2221.676944,2886.803174,7402.059420
368.469756,1455.581446,3108.864956,8438.347739
368.470064,995.924147,3404.947333,8364.327145
368.470372,1838.629195,4293.194464,8290.306550
368.470680,2451.505594,2590.720797,9474.636058
368.470988,1378.971896,1110.308913,9548.656652
368.471296,0.000000,-1184.329507,11177.109724
368.471604,-2374.896044,-3404.947333,12657.521608
368.471912,-2681.334243,-4515.256246,13693.809927
368.472220,-3370.820191,-3997.112087,12953.603985
368.472529,-2451.505594,-2146.597232,11547.212695
368.472837,-153.219100,-1184.329507,9474.636058
368.473145,1685.410096,518.144159,7920.203579
368.473453,2451.505594,1554.432478,7402.059420
368.473761,2911.162892,1628.453072,6735.874072
368.474069,1685.410096,2146.597232,8364.327145
368.474377,995.924147,2368.659014,8882.471304
368.474685,919.314598,2590.720797,8882.471304
368.474993,1762.019645,2738.761985,9252.574275
368.475301,2374.896044,1628.453072,9474.636058
368.475609,1302.362347,-74.020594,9548.656652
368.475917,0.000000,-1702.473667,10881.027347
368.476225,-1225.752797,-3775.050304,12287.418637
368.476533,-3524.039291,-4515.256246,12805.562797
368.476842,-2604.724693,-3552.988522,12139.377449
368.477150,-995.924147,-2294.638420,10510.924376
368.477458,229.828649,-370.102971,8290.306550
368.477766,1991.848295,740.205942,7402.059420
368.478074,2681.334243,1776.494261,6513.812290
368.478382,2145.067394,2516.700203,8290.306550
368.478690,536.266849,2368.659014,9178.553681
368.478998,612.876398,2368.659014,9474.636058
368.479306,459.657299,2516.700203,10436.903782
368.479614,842.705048,3330.926739,9178.553681
368.479922,1762.019645,1480.411884,10140.821405
368.480230,766.095498,296.082377,9622.677246
368.480538,0.000000,-1776.494261,11251.130318
368.480846,-2145.067394,-3330.926739,11917.315666
368.481155,-3524.039291,-4219.173869,13619.789333
368.481463,-2298.286494,-3775.050304,12065.356855
368.481771,-1378.971896,-888.247130,9178.553681
368.482079,1149.143247,-222.061783,9178.553681
368.482387,2145.067394,666.185348,6809.894666
368.482695,3600.648841,1924.535449,6513.812290
368.483003,2374.896044,2294.638420,7031.956449
368.483311,2145.067394,2738.761985,7550.100608
368.483619,2528.115143,3478.967927,8512.368333
368.483927,1225.752797,3552.988522,8364.327145
368.484235,2681.334243,2368.659014,9400.615463
368.484543,2451.505594,1924.535449,8734.430116
368.484851,1991.848295,444.123565,10214.842000
368.485159,229.828649,-2220.617826,11621.233289
368.485468,-1608.800546,-3478.967927,12361.439231
368.485776,-2757.943793,-4367.215058,13915.871710
368.486084,-2757.943793,-4441.235652,11695.253884
368.486392,-919.314598,-2664.741391,10955.047942
368.486700,919.314598,-1332.370696,9474.636058
368.487008,2374.896044,-0.000000,7846.182985
368.487316,2145.067394,814.226536,7105.977043
368.487624,2451.505594,1332.370696,8216.285956
368.487932,1685.410096,2442.679609,8882.471304
368.488240,1149.143247,3552.988522,8068.244768
368.488548,2911.162892,3478.967927,9030.512492
368.488856,3140.991542,3627.009116,8290.306550
368.489164,3217.601092,2220.617826,9252.574275
368.489472,1991.848295,-0.000000,9400.615463
368.489781,459.657299,-1702.473667,11325.150913
368.490089,-1838.629195,-3923.091493,12287.418637
368.490397,-2681.334243,-4219.173869,12361.439231
368.490705,-2604.724693,-3552.988522,11917.315666
368.491013,-842.705048,-2220.617826,10436.903782
368.491321,1455.581446,-74.020594,8364.327145
368.491629,2757.943793,1110.308913,7698.141797
368.491937,3524.039291,1480.411884,7105.977043
368.492245,2451.505594,2368.659014,7328.038826
368.492553,2528.115143,3182.885551,8142.265362
368.492861,1455.581446,3775.050304,7846.182985
368.493169,1685.410096,4515.256246,7772.162391
368.493477,2451.505594,3404.947333,9178.553681
368.493785,2987.772442,2516.700203,9992.780217
368.494094,842.705048,222.061783,10140.821405
368.494402,-459.657299,-2146.597232,11621.233289
368.494710,-2298.286494,-3330.926739,12435.459826
368.495018,-3600.648841,-4737.318029,13915.871710
368.495326,-3907.087040,-3330.926739,12583.501014
368.495634,-919.314598,-2886.803174,10584.944971
368.495942,1149.143247,740.205942,8142.265362
368.496250,2681.334243,296.082377,7254.018232
368.496558,2911.162892,1480.411884,7402.059420
368.496866,2298.286494,1850.514855,8216.285956
368.497174,1378.971896,2664.741391,8438.347739
368.497482,842.705048,2368.659014,9104.533087
368.497790,1149.143247,3478.967927,8882.471304
368.498098,1991.848295,2368.659014,9844.739029
368.498407,2068.457845,814.226536,9474.636058
368.498715,1149.143247,-370.102971,10807.006753
368.499023,-919.314598,-2294.638420,11843.295072
368.499331,-842.705048,-4663.297435,13027.624579
368.499639,-4290.134789,-3997.112087,12213.398043
368.499947,-2528.115143,-3552.988522,11769.274478
368.500255,-1302.362347,-1776.494261,10066.800811
368.500563,766.095498,-222.061783,9178.553681
368.500871,2528.115143,518.144159,7254.018232
368.501179,2987.772442,1480.411884,6809.894666
368.501487,1455.581446,1628.453072,8512.368333
368.501795,612.876398,2960.823768,8438.347739
368.502103,1302.362347,2960.823768,9400.615463
368.502411,536.266849,3701.029710,9252.574275
368.502720,1378.971896,2368.659014,9474.636058
368.503028,2298.286494,1998.556043,9326.594869
368.503336,612.876398,296.082377,9548.656652
368.503644,-612.876398,-2220.617826,10510.924376
368.503952,-1532.190996,-3701.029710,12583.501014
368.504260,-3064.381992,-3404.947333,12953.603985
368.504568,-2604.724693,-2812.782580,11621.233289
368.504876,-153.219100,-444.123565,8956.491898
368.505184,1608.800546,1110.308913,7772.162391
368.505492,2987.772442,1480.411884,6883.915261
368.505800,4213.525239,2146.597232,7772.162391
368.506108,2451.505594,2220.617826,7920.203579
368.506416,1149.143247,1776.494261,8364.327145
368.506724,995.924147,2442.679609,8586.388927
368.507033,1149.143247,3034.844362,9474.636058
368.507341,2068.457845,1850.514855,9474.636058
368.507649,1915.238745,1258.350101,8512.368333
368.507957,919.314598,-1332.370696,9622.677246
368.508265,-536.266849,-3182.885551,11325.150913
368.508573,-1991.848295,-3182.885551,12287.418637
368.508881,-2834.553343,-3478.967927,12805.562797
368.509189,-1455.581446,-3256.906145,10807.006753
368.509497,-153.219100,-666.185348,8290.306550
368.509805,1762.019645,-148.041188,8882.471304
368.510113,2451.505594,370.102971,7846.182985
368.510421,2757.943793,1628.453072,7772.162391
368.510729,1225.752797,740.205942,9622.677246
368.511037,766.095498,1924.535449,9844.739029
368.511346,689.485948,2220.617826,9178.553681
368.511654,1991.848295,2960.823768,9918.759623
368.511962,2451.505594,2368.659014,7846.182985
368.512270,3217.601092,814.226536,9474.636058
368.512578,1685.410096,-296.082377,9770.718434
368.512886,153.219100,-2072.576638,10288.862594
368.513194,-2068.457845,-3552.988522,12953.603985
368.513502,-2604.724693,-2812.782580,13249.686362
368.513810,-2145.067394,-1924.535449,10214.842000
368.514118,-766.095498,-296.082377,9252.574275
368.514426,1838.629195,962.267725,8512.368333
368.514734,1762.019645,1406.391290,7254.018232
368.515042,1991.848295,1850.514855,7920.203579
368.515350,612.876398,1702.473667,9474.636058
368.515659,306.438199,2072.576638,9400.615463
368.515967,306.438199,3108.864956,9548.656652
368.516275,1532.190996,3182.885551,9474.636058
368.516583,2374.896044,3034.844362,9178.553681
368.516891,2451.505594,1480.411884,9622.677246
368.517199,1608.800546,-444.123565,9918.759623
368.517507,0.000000,-2072.576638,11547.212695
368.517815,-1455.581446,-3182.885551,12361.439231
368.518123,-2604.724693,-2886.803174,12805.562797
368.518431,-1378.971896,-2368.659014,11473.192101
368.518739,306.438199,-814.226536,7994.224174
368.519047,2145.067394,370.102971,7624.121203
368.519355,2374.896044,888.247130,7031.956449
368.519663,1762.019645,740.205942,7550.100608
368.519972,1149.143247,1258.350101,8808.450710
368.520280,459.657299,888.247130,9326.594869
368.520588,-229.828649,2294.638420,9474.636058
368.520896,1991.848295,2220.617826,9696.697840
368.521204,1838.629195,2368.659014,9474.636058
368.521512,2451.505594,296.082377,9326.594869
368.521820,1685.410096,-1258.350101,10066.800811
368.522128,-459.657299,-2886.803174,11473.192101
368.522436,-1838.629195,-4071.132681,11917.315666
368.522744,-2834.553343,-3627.009116,11917.315666
368.523052,-1532.190996,-2960.823768,10881.027347
368.523360,383.047749,-1628.453072,8216.285956
368.523668,2298.286494,-370.102971,7624.121203
368.523976,1915.238745,592.164754,7179.997637
368.524285,1838.629195,370.102971,7994.224174
368.524593,1225.752797,1628.453072,8438.347739
368.524901,76.609550,2368.659014,8734.430116
368.525209,919.314598,2738.761985,8808.450710
368.525517,1685.410096,3330.926739,8216.285956
368.525825,2757.943793,2886.803174,9178.553681
368.526133,2451.505594,592.164754,9844.739029
368.526441,689.485948,-518.144159,10140.821405
368.526749,-1455.581446,-2146.597232,11991.336260
368.527057,-2298.286494,-3775.050304,12657.521608
368.527365,-2757.943793,-2664.741391,11917.315666
368.527673,-2298.286494,-1258.350101,10362.883188
368.527981,76.609550,-0.000000,7994.224174
368.528289,2145.067394,1406.391290,7624.121203
368.528598,3677.258390,814.226536,7105.977043
368.528906,1762.019645,2812.782580,5995.668130
368.529214,2374.896044,1628.453072,9252.574275
368.529522,612.876398,2812.782580,8734.430116
368.529830,306.438199,3034.844362,9474.636058
368.530138,1455.581446,3256.906145,9770.718434
368.530446,2757.943793,2812.782580,9326.594869
368.530754,1991.848295,666.185348,10214.842000
368.531062,0.000000,-962.267725,11103.089130
368.531370,-842.705048,-2886.803174,13175.665768
368.531678,-3140.991542,-3701.029710,13471.748144
368.531986,-2834.553343,-3478.967927,12879.583391
368.532294,-1762.019645,-2072.576638,11177.109724
368.532602,229.828649,-740.205942,9918.759623
368.532911,2298.286494,148.041188,7920.203579
368.533219,3447.429741,1036.288319,5921.647536
368.533527,2451.505594,2072.576638,7402.059420
368.533835,995.924147,1554.432478,8512.368333
368.534143,306.438199,2072.576638,9326.594869
368.534451,612.876398,2738.761985,10140.821405
368.534759,1455.581446,2368.659014,8956.491898
368.535067,2451.505594,2368.659014,9178.553681
368.535375,1991.848295,222.061783,10214.842000
368.535683,842.705048,-1702.473667,10955.047942
368.535991,-1532.190996,-2886.803174,12139.377449
368.536299,-2604.724693,-4145.153275,13101.645173
368.536607,-2911.162892,-3330.926739,12065.356855
368.536915,-1455.581446,-1776.494261,10140.821405
368.537224,1302.362347,-74.020594,9104.533087
368.537532,2757.943793,888.247130,7254.018232
368.537840,2681.334243,962.267725,6365.771101
368.538148,1915.238745,2368.659014,7920.203579
368.538456,1762.019645,2368.659014,7994.224174
368.538764,0.000000,2960.823768,7994.224174
368.539072,1149.143247,2664.741391,10066.800811
368.539380,1608.800546,2960.823768,8882.471304
368.539688,2145.067394,1776.494261,9030.512492
368.539996,1685.410096,222.061783,10584.944971
368.540304,0.000000,-1924.535449,11029.068536
368.540612,-1685.410096,-3404.947333,12435.459826
368.540920,-3064.381992,-3923.091493,12805.562797
368.541228,-2604.724693,-3404.947333,11843.295072
368.541537,-995.924147,-1110.308913,9548.656652
368.541845,1991.848295,-148.041188,7994.224174
368.542153,2987.772442,1184.329507,6735.874072
368.542461,3524.039291,1332.370696,6365.771101
368.542769,3064.381992,1184.329507,7254.018232
368.543077,1608.800546,1776.494261,8290.306550
368.543385,459.657299,2072.576638,9252.574275
368.543693,459.657299,2294.638420,9548.656652
368.544001,1685.410096,2442.679609,9178.553681
368.544309,1991.848295,1332.370696,9030.512492
368.544617,1532.190996,-518.144159,10807.006753
368.544925,0.000000,-2146.597232,10955.047942
368.545233,-1378.971896,-3627.009116,12657.521608
368.545541,-2374.896044,-3923.091493,13323.706956
368.545850,-2681.334243,-3552.988522,11399.171507
368.546158,-689.485948,-1258.350101,10140.821405
368.546466,1149.143247,222.061783,8364.327145
368.546774,3294.210641,1258.350101,7254.018232
368.547082,3524.039291,2220.617826,6217.729913
368.547390,2528.115143,1998.556043,7328.038826
368.547698,1532.190996,1924.535449,8660.409521
368.548006,842.705048,2886.803174,9178.553681
368.548314,766.095498,2812.782580,9770.718434
368.548622,1532.190996,3034.844362,9326.594869
368.548930,2221.676944,2072.576638,9696.697840
368.549238,1608.800546,222.061783,10288.862594
368.549546,229.828649,-1554.432478,11325.150913
368.549854,-1455.581446,-3627.009116,12953.603985
368.550163,-3064.381992,-3108.864956,13175.665768
368.550471,-1762.019645,-2960.823768,12213.398043
368.550779,0.000000,-814.226536,9030.512492
368.551087,1685.410096,1110.308913,8068.244768
368.551395,3830.477490,1406.391290,7105.977043
368.551703,3600.648841,2368.659014,6365.771101
368.552011,2757.943793,2146.597232,7846.182985
368.552319,1608.800546,2442.679609,7846.182985
368.552627,919.314598,2442.679609,9474.636058
368.552935,1302.362347,3330.926739,9548.656652
368.553243,1838.629195,2590.720797,9030.512492
368.553551,2298.286494,1850.514855,9326.594869
368.553859,1378.971896,-740.205942,10584.944971
368.554167,0.000000,-1924.535449,11103.089130
368.554476,-2528.115143,-4367.215058,13693.809927
368.554784,-2451.505594,-4441.235652,13841.851115
368.555092,-2528.115143,-2664.741391,11473.192101
368.555400,-1532.190996,-888.247130,9992.780217
368.555708,1608.800546,-296.082377,9326.594869
368.556016,3294.210641,666.185348,7105.977043
368.556324,2681.334243,2294.638420,6365.771101
368.556632,1762.019645,1110.308913,7105.977043
368.556940,1225.752797,2220.617826,8956.491898
368.557248,-229.828649,2368.659014,9474.636058
368.557556,919.314598,3108.864956,8586.388927
368.557864,2451.505594,2960.823768,9178.553681
368.558172,2221.676944,1406.391290,8882.471304
368.558480,766.095498,-1184.329507,9918.759623
368.558789,-306.438199,-1850.514855,11769.274478
368.559097,-2298.286494,-4515.256246,13397.727550
368.559405,-3830.477490,-4811.338623,13175.665768
368.559713,-3370.820191,-3701.029710,11029.068536
368.560021,-842.705048,-2146.597232,10288.862594
368.560329,689.485948,296.082377,7476.080014
368.560637,2451.505594,1776.494261,7328.038826
368.560945,3294.210641,2220.617826,6291.750507
368.561253,1532.190996,2220.617826,7105.977043
368.561561,612.876398,2590.720797,8512.368333
368.561869,153.219100,3330.926739,9400.615463
368.562177,1455.581446,3182.885551,9474.636058
368.562485,1378.971896,2886.803174,8586.388927
368.562793,2145.067394,1554.432478,9548.656652
368.563102,919.314598,-370.102971,9770.718434
368.563410,-689.485948,-1924.535449,11399.171507
368.563718,-1991.848295,-3701.029710,13249.686362
368.564026,-2911.162892,-4737.318029,13767.830521
368.564334,-2834.553343,-3108.864956,11325.150913
368.564642,-459.657299,-1258.350101,8956.491898
368.564950,2681.334243,518.144159,8660.409521
368.565258,4060.306139,1184.329507,6809.894666
368.565565,3294.210641,2294.638420,5995.668130
368.565873,2451.505594,1554.432478,8216.285956
368.566181,919.314598,2812.782580,8808.450710
368.566489,919.314598,3182.885551,9178.553681
368.566797,1838.629195,2664.741391,9770.718434
368.567105,1072.533697,2368.659014,9474.636058
368.567413,1685.410096,592.164754,9844.739029
368.567721,995.924147,-1036.288319,11473.192101
368.568029,-612.876398,-2738.761985,12361.439231
368.568337,-1608.800546,-3478.967927,12583.501014
368.568645,-2298.286494,-3404.947333,12657.521608
368.568952,-2068.457845,-2886.803174,11547.212695
368.569260,-229.828649,-1110.308913,9104.533087
368.569568,2681.334243,814.226536,7994.224174
368.569876,3294.210641,1554.432478,6513.812290
368.570184,3064.381992,1850.514855,6809.894666
368.570492,2145.067394,2294.638420,8808.450710
368.570800,459.657299,2590.720797,8882.471304
368.571108,842.705048,3108.864956,9474.636058
368.571416,689.485948,3256.906145,9474.636058
368.571724,1838.629195,2368.659014,9622.677246
368.572031,1991.848295,740.205942,9992.780217
368.572339,383.047749,-0.000000,10362.883188
368.572647,-766.095498,-2812.782580,12139.377449
368.572955,-1838.629195,-3701.029710,12879.583391
368.573263,-2681.334243,-3108.864956,12435.459826
368.573571,-2374.896044,-2738.761985,11399.171507
368.573879,459.657299,-296.082377,8660.409521
368.574187,2987.772442,1110.308913,7624.121203
368.574495,3524.039291,1850.514855,6143.709319
368.574803,3064.381992,1776.494261,6661.853478
368.575111,2221.676944,1850.514855,7254.018232
368.575418,1532.190996,2590.720797,9178.553681
368.575726,919.314598,2368.659014,9178.553681
368.576034,1378.971896,2590.720797,9474.636058
368.576342,1991.848295,2368.659014,8734.430116
368.576650,1608.800546,370.102971,9622.677246
368.576958,229.828649,-1258.350101,11399.171507
368.577266,-995.924147,-3108.864956,12287.418637
368.577574,-2681.334243,-4219.173869,13027.624579
368.577882,-3677.258390,-4441.235652,13323.706956
368.578190,-2451.505594,-3034.844362,11547.212695
368.578497,-459.657299,-222.061783,9252.574275
368.578805,1762.019645,1036.288319,7698.141797
368.579113,4443.353888,1480.411884,5847.626942
368.579421,2604.724693,2294.638420,6143.709319
368.579729,2374.896044,2146.597232,7179.997637
368.580037,1455.581446,1850.514855,8364.327145
368.580345,919.314598,2664.741391,8586.388927
368.580653,1838.629195,2146.597232,9252.574275
368.580961,2068.457845,2812.782580,8734.430116
368.581269,2068.457845,740.205942,10066.800811
368.581577,1072.533697,-370.102971,10066.800811
368.581884,-536.266849,-2294.638420,10807.006753
368.582192,-2604.724693,-4071.132681,13027.624579
368.582500,-3600.648841,-4145.153275,13397.727550
368.582808,-1838.629195,-2664.741391,11103.089130
368.583116,-689.485948,-814.226536,9474.636058
368.583424,1838.629195,370.102971,8512.368333
368.583732,2604.724693,1406.391290,7031.956449
368.584040,1532.190996,1184.329507,7920.203579
368.584348,1225.752797,1702.473667,8290.306550
368.584656,536.266849,2146.597232,8290.306550
368.584963,1378.971896,2146.597232,9844.739029
368.585271,1608.800546,3701.029710,8586.388927
368.585579,2987.772442,3552.988522,8586.388927
368.585887,2451.505594,1702.473667,9474.636058
368.586195,995.924147,-0.000000,9770.718434
368.586503,0.000000,-1332.370696,11843.295072
368.586811,-2145.067394,-3182.885551,13027.624579
368.587119,-3217.601092,-4367.215058,12953.603985
368.587427,-1991.848295,-2516.700203,11695.253884
368.587735,0.000000,-370.102971,9622.677246
368.588043,1455.581446,962.267725,7772.162391
368.588350,2681.334243,1258.350101,7550.100608
368.588658,2374.896044,1628.453072,7402.059420
368.588966,995.924147,1480.411884,9104.533087
368.589274,0.000000,1924.535449,9252.574275
368.589582,1225.752797,2146.597232,9622.677246
368.589890,2145.067394,3775.050304,8956.491898
368.590198,1838.629195,3404.947333,7846.182985
368.590506,3370.820191,1258.350101,9696.697840
368.590814,1149.143247,370.102971,9992.780217
368.591122,-383.047749,-1776.494261,11917.315666
368.591429,-3064.381992,-3256.906145,13027.624579
368.591737,-3140.991542,-3627.009116,14211.954086
368.592045,-1991.848295,-2738.761985,11843.295072
368.592353,-1072.533697,-1480.411884,9030.512492
368.592661,1378.971896,-0.000000,9326.594869
368.592969,2068.457845,444.123565,6809.894666
368.593277,1838.629195,1924.535449,8068.244768
368.593585,229.828649,1332.370696,9770.718434
368.593893,306.438199,1850.514855,9622.677246
368.594201,919.314598,3330.926739,9696.697840
368.594509,1302.362347,2886.803174,9104.533087
368.594816,2451.505594,2960.823768,9400.615463
368.595124,2221.676944,1850.514855,9030.512492
368.595432,1608.800546,-370.102971,10066.800811
368.595740,-1225.752797,-1776.494261,10436.903782
368.596048,-2145.067394,-3182.885551,12361.439231
368.596356,-2987.772442,-3997.112087,12805.562797
368.596664,-2374.896044,-2442.679609,10584.944971
368.596972,-153.219100,-1702.473667,9326.594869
368.597280,2451.505594,-814.226536,7031.956449
368.597588,2374.896044,-0.000000,6365.771101
368.597895,2298.286494,444.123565,7476.080014
368.598203,1991.848295,1258.350101,8956.491898
368.598511,919.314598,1628.453072,8142.265362
368.598819,1608.800546,1850.514855,8734.430116
368.599127,2451.505594,2960.823768,8216.285956
368.599435,3370.820191,3256.906145,8660.409521
368.599743,3753.867940,592.164754,9400.615463
368.600051,842.705048,-296.082377,9622.677246
368.600359,-383.047749,-2960.823768,11473.192101
368.600667,-2221.676944,-3997.112087,12213.398043
368.600975,-2834.553343,-3552.988522,11843.295072
368.601282,-1762.019645,-2960.823768,10140.821405
368.601590,1225.752797,-1554.432478,9474.636058
368.601898,2374.896044,-666.185348,7994.224174
368.602206,2451.505594,-0.000000,6735.874072
368.602514,2528.115143,814.226536,7698.141797
368.602822,1455.581446,1850.514855,7698.141797
368.603130,1685.410096,2442.679609,9030.512492
368.603438,2221.676944,3256.906145,8438.347739
368.603746,3524.039291,4515.256246,7772.162391
368.604054,4596.572988,2960.823768,8290.306550
368.604361,3600.648841,1110.308913,9252.574275
368.604669,842.705048,-1184.329507,11177.109724
368.604977,-1991.848295,-3034.844362,12583.501014
368.605285,-3370.820191,-4219.173869,13027.624579
368.605593,-3753.867940,-3701.029710,12879.583391
368.605901,-2528.115143,-2368.659014,11547.212695
368.606209,229.828649,-1036.288319,9178.553681
368.606517,1149.143247,370.102971,7254.018232
368.606825,1455.581446,1628.453072,7624.121203
368.607133,1608.800546,1628.453072,7994.224174
368.607441,1685.410096,2960.823768,9178.553681
368.607748,995.924147,3330.926739,9030.512492
368.608056,2145.067394,3701.029710,8734.430116
368.608364,3294.210641,4959.379811,8290.306550
368.608672,3370.820191,2886.803174,9104.533087
368.608980,2451.505594,1332.370696,9622.677246
368.609288,1149.143247,-444.123565,11103.089130
368.609596,-1685.410096,-2590.720797,12731.542202
368.609904,-3294.210641,-3627.009116,12953.603985
368.610212,-2757.943793,-3256.906145,13101.645173
368.610520,-1532.190996,-1850.514855,11177.109724
368.610827,1149.143247,-74.020594,8734.430116
368.611135,2451.505594,1110.308913,7698.141797
368.611443,2528.115143,1036.288319,7624.121203
368.611751,1149.143247,1258.350101,8660.409521
368.612059,995.924147,2294.638420,9474.636058
368.612367,612.876398,2664.741391,9696.697840
368.612675,229.828649,2664.741391,9178.553681
368.612983,1762.019645,2590.720797,9548.656652
368.613291,2528.115143,2368.659014,10436.903782
368.613599,1455.581446,222.061783,9770.718434
368.613907,-612.876398,-2072.576638,11621.233289
368.614214,-1225.752797,-3923.091493,13027.624579
368.614522,-3294.210641,-3997.112087,12879.583391
368.614830,-3294.210641,-3775.050304,12287.418637
368.615138,-1225.752797,-1776.494261,10436.903782
368.615446,1072.533697,-0.000000,7994.224174
368.615754,2068.457845,1184.329507,6883.915261
368.616062,2374.896044,888.247130,7105.977043
368.616370,2451.505594,1406.391290,7920.203579
368.616678,383.047749,2072.576638,7254.018232
368.616986,612.876398,2368.659014,9252.574275
368.617293,1072.533697,2812.782580,9548.656652
368.617601,919.314598,2368.659014,9770.718434
368.617909,1762.019645,1036.288319,9474.636058
368.618217,1149.143247,-0.000000,9622.677246
368.618525,-536.266849,-2738.761985,11029.068536
368.618833,-1991.848295,-3627.009116,10807.006753
368.619141,-2298.286494,-3849.070898,11991.336260
368.619449,-2451.505594,-2738.761985,11325.150913
368.619757,-536.266849,-962.267725,8660.409521
368.620065,1915.238745,814.226536,7772.162391
368.620373,2221.676944,962.267725,7105.977043
368.620680,3217.601092,962.267725,7105.977043
368.620988,2145.067394,2072.576638,7179.997637
368.621296,919.314598,1924.535449,9326.594869
368.621604,536.266849,1332.370696,9326.594869
368.621912,766.095498,2516.700203,9474.636058
368.622220,2068.457845,1998.556043,9918.759623
368.622528,2298.286494,1184.329507,8586.388927
368.622836,2068.457845,-74.020594,9770.718434
368.623144,689.485948,-1850.514855,10881.027347
368.623452,-689.485948,-3034.844362,11769.274478
368.623760,-1455.581446,-2960.823768,12583.501014
368.624067,-1149.143247,-2516.700203,11843.295072
368.624375,76.609550,-814.226536,9104.533087
368.624683,1685.410096,148.041188,8068.244768
368.624991,3064.381992,1036.288319,7550.100608
368.625299,2374.896044,1406.391290,7476.080014
368.625607,2145.067394,1554.432478,8660.409521
368.625915,842.705048,1332.370696,9326.594869
368.626223,76.609550,2368.659014,9918.759623
368.626531,1225.752797,2146.597232,9696.697840
368.626839,2451.505594,3256.906145,9696.697840
368.627146,2757.943793,1554.432478,9326.594869
368.627454,1991.848295,222.061783,9696.697840
368.627762,383.047749,-1480.411884,10732.986159
368.628070,-1532.190996,-2886.803174,12065.356855
368.628378,-2374.896044,-3256.906145,12435.459826
368.628686,-2298.286494,-2072.576638,11991.336260
368.628994,-766.095498,-814.226536,9844.739029
368.629302,1072.533697,-0.000000,8660.409521
368.629610,2145.067394,1184.329507,7698.141797
368.629918,2221.676944,1110.308913,8142.265362
368.630226,1455.581446,1332.370696,8438.347739
368.630533,536.266849,1406.391290,9918.759623
368.630841,306.438199,2442.679609,9474.636058
368.631149,1225.752797,2442.679609,9474.636058
368.631457,2451.505594,3034.844362,10066.800811
368.631765,3217.601092,2146.597232,8882.471304
368.632073,2374.896044,1036.288319,8808.450710
368.632381,1072.533697,-888.247130,10288.862594
368.632689,-459.657299,-1628.453072,11621.233289
368.632997,-1608.800546,-2516.700203,11843.295072
368.633305,-1532.190996,-2368.659014,11695.253884
368.633612,-306.438199,-1184.329507,9474.636058
368.633920,459.657299,-888.247130,8290.306550
368.634228,1532.190996,-0.000000,7920.203579
368.634536,1149.143247,222.061783,7994.224174
368.634844,689.485948,-0.000000,9030.512492
368.635152,0.000000,370.102971,9696.697840
368.635460,0.000000,1628.453072,9696.697840
368.635768,919.314598,2812.782580,9696.697840
368.636076,2604.724693,2442.679609,9844.739029
368.636384,3294.210641,1628.453072,9400.615463
368.636692,2068.457845,518.144159,8956.491898
368.636999,306.438199,-962.267725,10584.944971
368.637307,-612.876398,-2442.679609,11621.233289
368.637615,-1915.238745,-2368.659014,11103.089130
368.637923,-1838.629195,-2220.617826,10807.006753
368.638231,536.266849,-1702.473667,9770.718434
368.638539,995.924147,148.041188,8364.327145
368.638847,1685.410096,-0.000000,8438.347739
368.639155,766.095498,370.102971,7994.224174
368.639463,919.314598,592.164754,8512.368333
368.639771,0.000000,1554.432478,8438.347739
368.640078,-306.438199,2072.576638,9252.574275
368.640386,1225.752797,3034.844362,9548.656652
368.640694,2528.115143,2738.761985,9326.594869
368.641002,2604.724693,1628.453072,9030.512492
368.641310,1149.143247,-148.041188,9178.553681
368.641618,-536.266849,-2294.638420,11251.130318
368.641926,-2374.896044,-3108.864956,12139.377449
368.642234,-2987.772442,-2812.782580,12213.398043
368.642542,-1991.848295,-2072.576638,10881.027347
368.642850,-229.828649,-296.082377,8808.450710
368.643158,1455.581446,888.247130,8882.471304
368.643465,2145.067394,518.144159,7254.018232
368.643773,1685.410096,1332.370696,6661.853478
368.644081,842.705048,1628.453072,8142.265362
368.644389,536.266849,2368.659014,8956.491898
368.644697,-229.828649,2738.761985,9178.553681
368.645005,1378.971896,2590.720797,10584.944971
368.645313,2374.896044,2368.659014,9474.636058
368.645621,2068.457845,1480.411884,9474.636058
368.645929,1149.143247,-1036.288319,10436.903782
368.646237,-383.047749,-1776.494261,11251.130318
368.646544,-2068.457845,-3182.885551,12731.542202
368.646852,-2987.772442,-2886.803174,11843.295072
368.647160,-995.924147,-1480.411884,10066.800811
368.647468,306.438199,-592.164754,9178.553681
368.647776,2068.457845,444.123565,8216.285956
368.648084,3524.039291,888.247130,7031.956449
368.648392,2451.505594,1554.432478,7254.018232
368.648700,766.095498,1110.308913,9030.512492
368.649008,0.000000,1998.556043,9770.718434
368.649316,-229.828649,2220.617826,11177.109724
368.649624,766.095498,2738.761985,10881.027347
368.649931,2604.724693,2368.659014,9548.656652
368.650239,2604.724693,1406.391290,9474.636058
368.650547,1149.143247,-1480.411884,10214.842000
368.650855,-383.047749,-2516.700203,11399.171507
368.651163,-2451.505594,-3256.906145,12361.439231
368.651471,-2604.724693,-3478.967927,12361.439231
368.651779,-995.924147,-1850.514855,10140.821405
368.652087,536.266849,-0.000000,9104.533087
368.652395,2221.676944,444.123565,7698.141797
368.652703,3140.991542,1332.370696,5847.626942
368.653010,2451.505594,1702.473667,7179.997637
368.653318,1685.410096,1702.473667,8142.265362
368.653626,842.705048,2294.638420,8586.388927
368.653934,306.438199,2590.720797,9696.697840
368.654242,1455.581446,2220.617826,9770.718434
368.654550,2374.896044,2516.700203,8882.471304
368.654858,2757.943793,222.061783,9770.718434
368.655166,1302.362347,-1480.411884,10510.924376
368.655474,-919.314598,-2664.741391,11547.212695
368.655782,-2068.457845,-3034.844362,12953.603985
368.656090,-2145.067394,-3256.906145,11991.336260
368.656397,-1225.752797,-1554.432478,9622.677246
368.656705,1072.533697,-296.082377,8882.471304
368.657013,2911.162892,1332.370696,6587.832884
368.657321,3370.820191,1480.411884,5477.523971
368.657629,3064.381992,370.102971,7698.141797
368.657937,1149.143247,1110.308913,8734.430116
368.658245,536.266849,1184.329507,9030.512492
368.658553,0.000000,1332.370696,10362.883188
368.658861,995.924147,1406.391290,10140.821405
368.659169,1762.019645,1850.514855,9770.718434
368.659476,1532.190996,-222.061783,9844.739029
368.659784,919.314598,-1850.514855,10362.883188
368.660092,-1225.752797,-2368.659014,11695.253884
368.660400,-1608.800546,-3701.029710,12583.501014
368.660708,-1991.848295,-3552.988522,12139.377449
368.661016,-1072.533697,-1036.288319,9770.718434
368.661324,1762.019645,-74.020594,9104.533087
368.661632,3064.381992,1628.453072,6439.791695
368.661940,3447.429741,1628.453072,6513.812290
368.662248,3217.601092,1332.370696,6439.791695
368.662556,1991.848295,1702.473667,7846.182985
368.662863,459.657299,2072.576638,9326.594869
368.663171,0.000000,2516.700203,9844.739029
368.663479,995.924147,2960.823768,10066.800811
368.663787,2221.676944,1628.453072,10288.862594
368.664095,1378.971896,1036.288319,9400.615463
368.664403,0.000000,-1036.288319,11103.089130
368.664711,-1302.362347,-3182.885551,12731.542202
368.665019,-1991.848295,-2738.761985,12953.603985
368.665327,-2757.943793,-2220.617826,11843.295072
368.665635,-229.828649,-1332.370696,10732.986159
368.665942,536.266849,592.164754,8290.306550
368.666250,2834.553343,1184.329507,8290.306550
368.666558,3677.258390,1332.370696,6513.812290
368.666866,2681.334243,2368.659014,6587.832884
368.667174,1302.362347,1480.411884,8438.347739
368.667482,76.609550,1184.329507,10362.883188
368.667790,-153.219100,2590.720797,10584.944971
368.668098,1455.581446,1924.535449,10584.944971
368.668406,2374.896044,1628.453072,9252.574275
368.668714,1225.752797,370.102971,9992.780217
368.669022,229.828649,-1702.473667,11325.150913
368.669329,-1378.971896,-2516.700203,12583.501014
368.669637,-1838.629195,-2886.803174,12731.542202
368.669945,-1225.752797,-3627.009116,12805.562797
368.670253,-1225.752797,-888.247130,9104.533087
368.670561,2298.286494,-1110.308913,8586.388927
368.670869,2451.505594,1184.329507,7698.141797
368.671177,2451.505594,1110.308913,6439.791695
368.671485,1685.410096,814.226536,7846.182985
368.671793,689.485948,2072.576638,7846.182985
368.672101,919.314598,1850.514855,9992.780217
368.672408,459.657299,2590.720797,9400.615463
368.672716,2221.676944,2220.617826,9844.739029
368.673024,2221.676944,1480.411884,9030.512492
368.673332,995.924147,-74.020594,9992.780217
368.673640,0.000000,-1776.494261,11991.336260
368.673948,-2068.457845,-2812.782580,12509.480420
368.674256,-2757.943793,-3034.844362,13027.624579
368.674564,-2451.505594,-2738.761985,11843.295072
368.674872,-995.924147,-1036.288319,10288.862594
368.675179,766.095498,-74.020594,8216.285956
368.675487,2834.553343,1776.494261,6883.915261
368.675795,3064.381992,1110.308913,7105.977043
368.676103,1532.190996,1554.432478,6513.812290
368.676411,919.314598,2442.679609,8290.306550
368.676719,1149.143247,2368.659014,8956.491898
368.677027,459.657299,2960.823768,8438.347739
368.677335,2298.286494,2368.659014,9844.739029
368.677643,2374.896044,1554.432478,9030.512492
368.677951,459.657299,-0.000000,9474.636058
368.678258,-229.828649,-1702.473667,11399.171507
368.678566,-1915.238745,-2590.720797,12361.439231
368.678874,-2451.505594,-3182.885551,12805.562797
368.679182,-2528.115143,-2960.823768,11251.130318
368.679490,-306.438199,-1406.391290,10066.800811
368.679798,1608.800546,-444.123565,7846.182985
368.680106,2681.334243,518.144159,8068.244768
368.680414,2451.505594,1258.350101,6957.935855
368.680722,1915.238745,1184.329507,7550.100608
368.681029,536.266849,1702.473667,9326.594869
368.681337,76.609550,2738.761985,8956.491898
368.681645,1991.848295,2738.761985,9918.759623
368.681953,1149.143247,2146.597232,9770.718434
368.682261,2528.115143,666.185348,10288.862594
368.682569,1149.143247,-666.185348,10288.862594
368.682877,-1532.190996,-1702.473667,12287.418637
368.683185,-1685.410096,-3701.029710,12953.603985
368.683493,-2604.724693,-3034.844362,12139.377449
368.683800,-2221.676944,-2812.782580,11769.274478
368.684108,-383.047749,-1480.411884,9252.574275
368.684416,2221.676944,814.226536,8068.244768
368.684724,3140.991542,1110.308913,7402.059420
368.685032,3294.210641,1480.411884,6143.709319
368.685340,2298.286494,2146.597232,7476.080014
368.685648,1762.019645,2812.782580,8142.265362
368.685956,1072.533697,3330.926739,8438.347739
368.686264,1302.362347,2960.823768,9918.759623
368.686572,2298.286494,1554.432478,10807.006753
368.686879,1378.971896,666.185348,9474.636058
368.687187,612.876398,-296.082377,10807.006753
368.687495,-689.485948,-2368.659014,11843.295072
368.687803,-2604.724693,-3627.009116,12435.459826
368.688111,-2681.334243,-3404.947333,13027.624579
368.688419,-2068.457845,-1850.514855,10510.924376
368.688727,-306.438199,-888.247130,9548.656652
368.689035,2451.505594,518.144159,8068.244768
368.689343,4060.306139,1776.494261,6217.729913
368.689650,2757.943793,1628.453072,6291.750507
368.689958,2451.505594,2146.597232,7772.162391
368.690266,1532.190996,2664.741391,7994.224174
368.690574,766.095498,3256.906145,9474.636058
368.690882,2298.286494,1998.556043,9696.697840
368.691190,2068.457845,2664.741391,7994.224174
368.691498,2145.067394,-222.061783,9992.780217
368.691806,995.924147,-1480.411884,10807.006753
368.692114,383.047749,-2590.720797,11399.171507
368.692421,-1915.238745,-3775.050304,12879.583391
368.692729,-2681.334243,-4663.297435,12657.521608
368.693037,-1838.629195,-2812.782580,11177.109724
368.693345,-383.047749,-1332.370696,9992.780217
368.693653,1685.410096,-222.061783,8364.327145
368.693961,3600.648841,1480.411884,6587.832884
368.694269,2987.772442,1554.432478,7476.080014
368.694577,2221.676944,1628.453072,7402.059420
368.694885,1378.971896,2516.700203,8956.491898
368.695192,1149.143247,3108.864956,9770.718434
368.695500,1915.238745,3182.885551,8882.471304
368.695808,2604.724693,3330.926739,8956.491898
368.696116,1915.238745,1036.288319,9696.697840
368.696424,1149.143247,-0.000000,9548.656652
368.696732,-919.314598,-1998.556043,11621.233289
368.697040,-2451.505594,-4071.132681,13175.665768
368.697348,-3677.258390,-3552.988522,12509.480420
368.697656,-2834.553343,-2738.761985,12361.439231
368.697964,-536.266849,-1258.350101,10362.883188
368.698271,1302.362347,962.267725,8142.265362
368.698579,2604.724693,1406.391290,7179.997637
368.698887,2757.943793,1924.535449,6513.812290
368.699195,2451.505594,2220.617826,7846.182985
368.699503,1225.752797,2368.659014,8068.244768
368.699811,995.924147,2664.741391,9474.636058
368.700119,1915.238745,3997.112087,8438.347739
368.700427,2911.162892,3182.885551,8956.491898
368.700735,1915.238745,2146.597232,9252.574275
368.701042,842.705048,-0.000000,10288.862594
368.701350,-1072.533697,-1776.494261,11473.192101
368.701658,-2374.896044,-3256.906145,12805.562797
368.701966,-3294.210641,-3182.885551,12731.542202
368.702274,-3447.429741,-2886.803174,12805.562797
368.702582,-1762.019645,-1998.556043,11177.109724
368.702890,1762.019645,-0.000000,9474.636058
368.703198,1915.238745,740.205942,6513.812290
368.703506,1302.362347,1184.329507,8068.244768
368.703813,1532.190996,740.205942,9474.636058
368.704121,1378.971896,2072.576638,8882.471304
368.704429,0.000000,2368.659014,9474.636058
368.704737,2298.286494,1998.556043,9178.553681
368.705045,2987.772442,2738.761985,9326.594869
368.705353,1532.190996,1184.329507,10140.821405
368.705661,842.705048,-0.000000,10214.842000
368.705969,-383.047749,-1480.411884,11991.336260
368.706277,-2834.553343,-3627.009116,12731.542202
368.706585,-3370.820191,-3330.926739,13175.665768
368.706892,-2145.067394,-2664.741391,11843.295072
368.707200,-306.438199,-592.164754,10510.924376
368.707508,1608.800546,888.247130,6809.894666
368.707816,2911.162892,2368.659014,7031.956449
368.708124,2911.162892,1332.370696,7698.141797
368.708432,1532.190996,2368.659014,6957.935855
368.708740,1915.238745,2146.597232,8660.409521
368.709048,1608.800546,2738.761985,9178.553681
368.709356,1532.190996,2738.761985,8068.244768
368.709663,2681.334243,1924.535449,9252.574275
368.709971,2221.676944,1332.370696,9770.718434
368.710279,766.095498,-592.164754,9770.718434
368.710587,-1149.143247,-2294.638420,11473.192101
368.710895,-2221.676944,-3627.009116,12287.418637
368.711203,-3447.429741,-3552.988522,11695.253884
368.711511,-1608.800546,-2442.679609,11473.192101
368.711819,0.000000,-814.226536,9400.615463
368.712127,2068.457845,-222.061783,8142.265362
368.712434,3217.601092,1184.329507,6883.915261
368.712742,2604.724693,1850.514855,6291.750507
368.713050,2145.067394,1332.370696,7624.121203
368.713358,1302.362347,2146.597232,8216.285956
368.713666,1685.410096,2442.679609,9030.512492
368.713974,1762.019645,1850.514855,9030.512492
368.714282,2681.334243,1850.514855,8734.430116
368.714590,2068.457845,-0.000000,9474.636058
368.714898,689.485948,-1406.391290,10066.800811
368.715206,-995.924147,-3404.947333,11621.233289
368.715513,-2451.505594,-3775.050304,12583.501014
368.715821,-2987.772442,-3997.112087,12287.418637
368.716129,-2145.067394,-3108.864956,10807.006753
368.716437,-306.438199,-1406.391290,10584.944971
368.716745,1455.581446,-0.000000,7994.224174
368.717053,2604.724693,370.102971,6661.853478
368.717361,2221.676944,1776.494261,6661.853478
368.717669,1302.362347,1850.514855,7846.182985
368.717977,1455.581446,2590.720797,8882.471304
368.718284,1225.752797,2738.761985,9696.697840
368.718592,2451.505594,3256.906145,8808.450710
368.718900,2681.334243,3034.844362,8438.347739
368.719208,2145.067394,814.226536,9844.739029
368.719516,383.047749,-666.185348,10214.842000
368.719824,-1532.190996,-1998.556043,11621.233289
368.720132,-2451.505594,-2960.823768,13027.624579
368.720440,-3370.820191,-3256.906145,12139.377449
368.720748,-1149.143247,-1702.473667,11103.089130
368.721055,0.000000,-592.164754,9770.718434
368.721363,2451.505594,444.123565,8660.409521
368.721671,2451.505594,1184.329507,7179.997637
368.721979,2451.505594,1924.535449,7105.977043
368.722287,1991.848295,2146.597232,8660.409521
368.722595,1149.143247,3034.844362,8882.471304
368.722903,1762.019645,3552.988522,9696.697840
368.723211,2834.553343,3182.885551,9400.615463
368.723519,2757.943793,2442.679609,8512.368333
368.723826,2145.067394,888.247130,10658.965565
368.724134,306.438199,-1036.288319,10658.965565
368.724442,-1838.629195,-2220.617826,12213.398043
368.724750,-2604.724693,-3034.844362,12805.562797
368.725058,-3217.601092,-3108.864956,13027.624579
368.725366,-2221.676944,-1628.453072,11399.171507
368.725674,1149.143247,-888.247130,9844.739029
368.725982,1608.800546,740.205942,7920.203579
368.726290,2451.505594,888.247130,7031.956449
368.726598,2451.505594,1628.453072,8068.244768
368.726905,995.924147,2146.597232,8364.327145
368.727213,919.314598,1702.473667,9326.594869
368.727521,1455.581446,3256.906145,9548.656652
368.727829,2221.676944,3182.885551,9474.636058
368.728137,1915.238745,1406.391290,9548.656652
368.728445,2221.676944,740.205942,9548.656652
368.728753,1072.533697,-1184.329507,10510.924376
368.729061,-1762.019645,-2960.823768,11399.171507
368.729369,-2528.115143,-3404.947333,12435.459826
368.729676,-2145.067394,-3552.988522,12361.439231
368.729984,-1532.190996,-1850.514855,9400.615463
368.730292,306.438199,-296.082377,8216.285956
368.730600,2681.334243,-0.000000,8808.450710
368.730908,2451.505594,666.185348,6883.915261
368.731216,842.705048,1036.288319,7105.977043
368.731524,1762.019645,1406.391290,8808.450710
368.731832,1149.143247,1924.535449,9326.594869
368.732140,689.485948,3034.844362,8660.409521
368.732447,2145.067394,2368.659014,9696.697840
368.732755,2987.772442,1924.535449,9326.594869
368.733063,1225.752797,962.267725,8734.430116
368.733371,459.657299,-1406.391290,10362.883188
368.733679,-1302.362347,-2738.761985,11843.295072
368.733987,-2681.334243,-2886.803174,12287.418637
368.734295,-2298.286494,-2220.617826,11103.089130
368.734603,-842.705048,-666.185348,9696.697840
368.734911,995.924147,-0.000000,9104.533087
368.735219,2757.943793,888.247130,7476.080014
368.735526,3447.429741,2146.597232,6217.729913
368.735834,1762.019645,1258.350101,7550.100608
368.736142,2374.896044,1554.432478,8586.388927
368.736450,536.266849,2220.617826,9548.656652
368.736758,919.314598,1628.453072,9844.739029
368.737066,1685.410096,2516.700203,9474.636058
368.737374,2451.505594,1258.350101,9178.553681
368.737682,1225.752797,-0.000000,9844.739029
368.737990,383.047749,-1406.391290,11177.109724
368.738297,-1608.800546,-2368.659014,12435.459826
368.738605,-2604.724693,-2812.782580,12953.603985
368.738913,-1838.629195,-1998.556043,11399.171507
368.739221,-842.705048,-1110.308913,10362.883188
368.739529,1225.752797,-0.000000,9326.594869
368.739837,2068.457845,666.185348,7254.018232
368.740145,1915.238745,740.205942,7476.080014
368.740453,1072.533697,592.164754,7624.121203
368.740761,459.657299,1110.308913,9400.615463
368.741068,0.000000,1850.514855,10214.842000
368.741376,1685.410096,2368.659014,9178.553681
368.741684,2374.896044,2664.741391,8956.491898
368.741992,2834.553343,1776.494261,9400.615463
368.742300,2757.943793,518.144159,9400.615463
368.742608,842.705048,-592.164754,9548.656652
368.742916,-1149.143247,-1702.473667,11695.253884
368.743224,-1762.019645,-3330.926739,12583.501014
368.743532,-1991.848295,-2220.617826,11843.295072
368.743839,-1532.190996,-1406.391290,10881.027347
368.744147,1225.752797,-74.020594,9178.553681
368.744455,2068.457845,518.144159,7476.080014
368.744763,1302.362347,740.205942,7328.038826
368.745071,1149.143247,666.185348,8364.327145
368.745379,0.000000,1110.308913,9474.636058
368.745687,-842.705048,1554.432478,10140.821405
368.745995,766.095498,2590.720797,9178.553681
368.746303,2834.553343,2442.679609,8808.450710
368.746611,2911.162892,1924.535449,8882.471304
368.746918,2451.505594,962.267725,8660.409521
368.747226,995.924147,-592.164754,9918.759623
368.747534,-919.314598,-1924.535449,11251.130318
368.747842,-2068.457845,-2738.761985,12065.356855
368.748150,-1762.019645,-2294.638420,11547.212695
368.748458,-383.047749,-1776.494261,10658.965565
368.748766,919.314598,-222.061783,8290.306550
368.749074,2298.286494,370.102971,7698.141797
368.749382,2298.286494,1110.308913,7105.977043
368.749689,1838.629195,592.164754,7920.203579
368.749997,1455.581446,1258.350101,9474.636058
368.750305,0.000000,1702.473667,8882.471304
368.750613,1378.971896,1554.432478,10436.903782
368.750921,1991.848295,2368.659014,9696.697840
368.751229,2451.505594,1406.391290,10066.800811
368.751537,1455.581446,370.102971,9770.718434
368.751845,229.828649,-1036.288319,10881.027347
368.752153,-1532.190996,-2368.659014,12657.521608
368.752460,-2528.115143,-2886.803174,12657.521608
368.752768,-1915.238745,-2294.638420,11695.253884
368.753076,-919.314598,-1332.370696,9548.656652
368.753384,1149.143247,-0.000000,8068.244768
368.753692,1991.848295,296.082377,7846.182985
368.754000,2528.115143,1258.350101,7328.038826
368.754308,1455.581446,1702.473667,7920.203579
368.754616,459.657299,1702.473667,8586.388927
368.754924,153.219100,1776.494261,9326.594869
368.755232,842.705048,2590.720797,9918.759623
368.755539,2145.067394,1850.514855,10140.821405
368.755847,2528.115143,1406.391290,9696.697840
368.756155,1149.143247,592.164754,10066.800811
368.756463,-612.876398,-1406.391290,11473.192101
368.756771,-1838.629195,-2516.700203,12509.480420
368.757079,-2451.505594,-2368.659014,11769.274478
368.757387,-1838.629195,-1332.370696,10362.883188
368.757695,0.000000,-592.164754,9474.636058
368.758003,2145.067394,740.205942,8142.265362
368.758310,2681.334243,2072.576638,7698.141797
368.758618,2451.505594,1184.329507,6661.853478
368.758926,1225.752797,1998.556043,7328.038826
368.759234,612.876398,1850.514855,9104.533087
368.759542,-383.047749,1850.514855,9696.697840
368.759850,229.828649,2146.597232,10732.986159
368.760158,1608.800546,1332.370696,9992.780217
368.760466,1225.752797,370.102971,9474.636058
368.760774,766.095498,-888.247130,10807.006753
368.761081,-612.876398,-2368.659014,12361.439231
368.761389,-1838.629195,-2664.741391,12435.459826
368.761697,-2298.286494,-2812.782580,11547.212695
368.762005,-1762.019645,-1480.411884,10362.883188
368.762313,0.000000,-740.205942,10066.800811
368.762621,2451.505594,370.102971,9104.533087
368.762929,1378.971896,1924.535449,5995.668130
368.763237,3830.477490,444.123565,8438.347739
368.763545,842.705048,1554.432478,5477.523971
368.763852,383.047749,1924.535449,9178.553681
368.764160,383.047749,1924.535449,10807.006753
368.764468,766.095498,2812.782580,9474.636058
368.764776,1072.533697,888.247130,10955.047942
368.765084,2451.505594,444.123565,9252.574275
368.765392,1915.238745,-1776.494261,10362.883188
368.765700,-1532.190996,-2146.597232,9548.656652
368.766008,-1378.971896,-3034.844362,12361.439231
368.766316,-2604.724693,-3108.864956,11251.130318
368.766624,-1378.971896,-2072.576638,11251.130318
368.766931,0.000000,-0.000000,9696.697840
368.767239,2221.676944,740.205942,8290.306550
368.767547,3294.210641,1776.494261,8142.265362
368.767855,2987.772442,1924.535449,6365.771101
368.768163,2298.286494,2072.576638,7698.141797
368.768471,153.219100,1776.494261,8216.285956
368.768779,919.314598,2368.659014,9770.718434
368.769087,2604.724693,2220.617826,9992.780217
368.769395,76.609550,1850.514855,8512.368333
368.769703,2681.334243,-888.247130,11621.233289
368.770010,842.705048,-1036.288319,9770.718434
368.770318,-1302.362347,-2294.638420,12879.583391
368.770626,-1149.143247,-3701.029710,13027.624579
368.770934,-1991.848295,-1628.453072,11399.171507
368.771242,-1378.971896,-1776.494261,10881.027347
368.771550,842.705048,-370.102971,8512.368333
368.771858,3600.648841,1184.329507,8142.265362
368.772166,3140.991542,1110.308913,6439.791695
368.772474,2528.115143,1554.432478,6883.915261
368.772782,2451.505594,2368.659014,7994.224174
368.773089,76.609550,1184.329507,9992.780217
368.773397,0.000000,2146.597232,10658.965565
368.773705,1455.581446,2072.576638,10066.800811
368.774013,2528.115143,1628.453072,10066.800811
368.774321,1072.533697,666.185348,8364.327145
368.774629,1915.238745,-1184.329507,10658.965565
368.774937,0.000000,-2146.597232,12065.356855
368.775245,-2604.724693,-2812.782580,11547.212695
368.775553,-2068.457845,-3330.926739,13249.686362
368.775861,-1915.238745,-1628.453072,10584.944971
368.776168,0.000000,-0.000000,9104.533087
368.776476,2451.505594,1036.288319,7994.224174
368.776784,3294.210641,1628.453072,7179.997637
368.777092,2145.067394,1924.535449,6365.771101
368.777400,2068.457845,1332.370696,7550.100608
368.777708,536.266849,1850.514855,9178.553681
368.778016,0.000000,1924.535449,9918.759623
368.778324,842.705048,1628.453072,10807.006753
368.778632,1608.800546,1184.329507,9918.759623
368.778939,1455.581446,-222.061783,9918.759623
368.779247,0.000000,-1036.288319,10362.883188
368.779555,-459.657299,-2516.700203,11769.274478
368.779863,-1685.410096,-2442.679609,12213.398043
368.780171,-2451.505594,-2072.576638,11547.212695
368.780479,-1455.581446,-1184.329507,10436.903782
368.780787,842.705048,222.061783,8882.471304
368.781095,2834.553343,1406.391290,7105.977043
368.781403,3370.820191,2368.659014,6217.729913
368.781711,2757.943793,2072.576638,6809.894666
368.782018,2068.457845,1702.473667,7920.203579
368.782326,612.876398,1850.514855,9474.636058
368.782634,536.266849,1924.535449,9992.780217
368.782942,766.095498,962.267725,10436.903782
368.783250,1915.238745,814.226536,10658.965565
368.783558,612.876398,-222.061783,10288.862594
368.783866,-306.438199,-1480.411884,11251.130318
368.784174,-1532.190996,-2738.761985,12879.583391
368.784482,-2221.676944,-3256.906145,12805.562797
368.784790,-2451.505594,-2368.659014,12287.418637
368.785097,-766.095498,-1628.453072,11029.068536
368.785405,842.705048,370.102971,9474.636058
368.785713,2528.115143,1036.288319,7994.224174
368.786021,3140.991542,1850.514855,6217.729913
368.786329,2604.724693,1850.514855,6809.894666
368.786637,1302.362347,2146.597232,7994.224174
368.786945,536.266849,1850.514855,9252.574275
368.787253,1149.143247,2368.659014,10066.800811
368.787561,1685.410096,1998.556043,9474.636058
368.787869,1378.971896,1406.391290,9548.656652
368.788176,1302.362347,-0.000000,10362.883188
368.788484,76.609550,-1332.370696,10955.047942
368.788792,-1608.800546,-2368.659014,11769.274478
368.789100,-2834.553343,-3182.885551,11843.295072
368.789408,-2528.115143,-3404.947333,11695.253884
368.789716,-1608.800546,-1776.494261,9474.636058
368.790024,306.438199,-370.102971,9770.718434
368.790332,2834.553343,370.102971,7624.121203
368.790640,2604.724693,1554.432478,5921.647536
368.790948,2757.943793,1258.350101,7031.956449
368.791255,1225.752797,2220.617826,7328.038826
368.791563,995.924147,2294.638420,8882.471304
368.791871,766.095498,2294.638420,9696.697840
368.792179,2298.286494,2146.597232,9178.553681
368.792487,2681.334243,888.247130,8734.430116
368.792795,1608.800546,-148.041188,9252.574275
368.793103,1072.533697,-1480.411884,9992.780217
368.793411,-766.095498,-2516.700203,11029.068536
368.793719,-1991.848295,-3256.906145,12287.418637
368.794026,-2298.286494,-3330.926739,11103.089130
368.794334,-306.438199,-1702.473667,10362.883188
368.794642,536.266849,-296.082377,9178.553681
368.794950,2145.067394,1258.350101,7031.956449
368.795258,3600.648841,2072.576638,7328.038826
368.795566,2834.553343,2590.720797,7105.977043
368.795874,1149.143247,2812.782580,7994.224174
368.796182,995.924147,2664.741391,9770.718434
368.796490,919.314598,2664.741391,10288.862594
368.796798,1608.800546,2368.659014,9992.780217
368.797105,1991.848295,1776.494261,9992.780217
368.797413,1302.362347,-814.226536,11473.192101
368.797721,-536.266849,-2220.617826,11103.089130
368.798029,-2221.676944,-2590.720797,12879.583391
368.798337,-1991.848295,-3404.947333,13619.789333
368.798645,-3064.381992,-2294.638420,11325.150913
368.798953,-766.095498,-1776.494261,11251.130318
368.799261,2298.286494,-148.041188,8586.388927
368.799569,2834.553343,1480.411884,7550.100608
368.799877,2987.772442,1998.556043,6291.750507
368.800184,3447.429741,1776.494261,7328.038826
368.800492,1378.971896,3552.988522,8290.306550
368.800800,-842.705048,2220.617826,10288.862594
368.801108,459.657299,3552.988522,10881.027347
368.801416,0.000000,2072.576638,10807.006753
368.801724,919.314598,740.205942,11473.192101
368.802032,459.657299,-0.000000,10510.924376
368.802340,-766.095498,-1332.370696,11473.192101
368.802648,-2757.943793,-3330.926739,12509.480420
368.802956,-2068.457845,-3034.844362,11547.212695
368.803263,-2681.334243,-2072.576638,10955.047942
368.803571,-919.314598,-1480.411884,10732.986159
368.803879,2374.896044,-0.000000,7550.100608
368.804187,2987.772442,1554.432478,6809.894666
368.804495,3830.477490,1554.432478,5847.626942
368.804803,2681.334243,2590.720797,5477.523971
368.805111,2528.115143,2590.720797,8290.306550
368.805419,1225.752797,2072.576638,7994.224174
368.805727,1532.190996,1924.535449,10140.821405
368.806035,2374.896044,814.226536,10140.821405
368.806342,0.000000,-74.020594,9178.553681
368.806650,1225.752797,-1850.514855,10436.903782
368.806958,-306.438199,-1924.535449,10807.006753
368.807266,-1838.629195,-3182.885551,12435.459826
368.807574,-2911.162892,-3256.906145,10881.027347
368.807882,-1532.190996,-2886.803174,11621.233289
368.808190,-1149.143247,-1554.432478,10732.986159
368.808498,919.314598,-0.000000,8142.265362
368.808806,4443.353888,740.205942,7476.080014
368.809114,2987.772442,1628.453072,5551.544565
368.809421,2145.067394,1480.411884,7254.018232
368.809729,2068.457845,1924.535449,8216.285956
368.810037,536.266849,2442.679609,9548.656652
368.810345,1149.143247,2220.617826,9696.697840
368.810653,2298.286494,2146.597232,8956.491898
368.810961,2145.067394,888.247130,9770.718434
368.811269,1149.143247,-1110.308913,9622.677246
368.811577,689.485948,-1776.494261,10807.006753
368.811885,-1915.238745,-2886.803174,12213.398043
368.812192,-3064.381992,-3849.070898,12361.439231
368.812500,-2374.896044,-2960.823768,11769.274478
368.812808,-1072.533697,-1110.308913,10510.924376
368.813116,1072.533697,-74.020594,9622.677246
368.813424,2145.067394,1554.432478,6513.812290
368.813732,2298.286494,2146.597232,7031.956449
368.814040,2221.676944,1850.514855,7698.141797
368.814348,1455.581446,3182.885551,7402.059420
368.814656,842.705048,2960.823768,9178.553681
368.814964,1455.581446,2590.720797,9844.739029
368.815271,2221.676944,2294.638420,9104.533087
368.815579,2374.896044,1628.453072,9696.697840
368.815887,1302.362347,-296.082377,9696.697840
368.816195,229.828649,-1332.370696,10214.842000
368.816503,-1532.190996,-2220.617826,11917.315666
368.816811,-2834.553343,-3182.885551,13175.665768
368.817119,-2451.505594,-2072.576638,12509.480420
368.817427,-536.266849,-888.247130,11325.150913
368.817735,919.314598,296.082377,9474.636058
368.818043,2604.724693,888.247130,7476.080014
368.818350,2834.553343,2072.576638,6809.894666
368.818658,2221.676944,1628.453072,8660.409521
368.818966,1915.238745,2442.679609,9178.553681
368.819274,1455.581446,2516.700203,9400.615463
368.819582,1685.410096,2368.659014,9622.677246
368.819890,1762.019645,2368.659014,10288.862594
368.820198,2374.896044,1110.308913,10362.883188
368.820506,919.314598,-0.000000,10140.821405
368.820814,0.000000,-1184.329507,11029.068536
368.821122,-2068.457845,-2368.659014,12657.521608
368.821429,-2145.067394,-3034.844362,13175.665768
368.821737,-2451.505594,-2368.659014,12213.398043
368.822045,-842.705048,-1480.411884,10214.842000
368.822353,612.876398,-148.041188,9474.636058
368.822661,1915.238745,888.247130,7402.059420
368.822969,1915.238745,1480.411884,7105.977043
368.823277,995.924147,2146.597232,7328.038826
368.823585,1149.143247,2146.597232,9400.615463
368.823893,689.485948,2664.741391,8956.491898
368.824201,1149.143247,2590.720797,9178.553681
368.824508,1532.190996,2072.576638,9474.636058
368.824816,1838.629195,370.102971,9992.780217
368.825124,689.485948,-222.061783,9548.656652
368.825432,-919.314598,-2294.638420,10066.800811
368.825740,-1762.019645,-3182.885551,11695.253884
368.826048,-2757.943793,-3330.926739,11769.274478
368.826356,-2298.286494,-2294.638420,11103.089130
368.826664,459.657299,-1776.494261,10214.842000
368.826972,1455.581446,370.102971,7550.100608
368.827279,2451.505594,296.082377,6809.894666
368.827587,2451.505594,1628.453072,5995.668130
368.827895,2145.067394,1998.556043,7550.100608
368.828203,612.876398,2072.576638,8512.368333
368.828511,1072.533697,2590.720797,8734.430116
368.828819,1455.581446,2072.576638,9622.677246
368.829127,2145.067394,1184.329507,10807.006753
368.829435,2068.457845,370.102971,9104.533087
368.829743,1072.533697,-962.267725,9918.759623
368.830051,-612.876398,-3108.864956,11325.150913
368.830358,-2221.676944,-2960.823768,11991.336260
368.830666,-2451.505594,-3034.844362,13249.686362
368.830974,-1532.190996,-2960.823768,12065.356855
368.831282,-689.485948,-1406.391290,10066.800811
368.831590,1685.410096,222.061783,8586.388927
368.831898,2834.553343,518.144159,7105.977043
368.832206,2374.896044,2368.659014,6439.791695
368.832514,1685.410096,2812.782580,7624.121203
368.832822,1378.971896,2960.823768,9178.553681
368.833130,995.924147,3330.926739,8660.409521
368.833437,1225.752797,2960.823768,9696.697840
368.833745,2221.676944,2294.638420,10362.883188
368.834053,2528.115143,962.267725,8586.388927
368.834361,1302.362347,-222.061783,9918.759623
368.834669,-459.657299,-1776.494261,11103.089130
368.834977,-1991.848295,-2664.741391,11621.233289
368.835285,-2604.724693,-2886.803174,12435.459826
368.835593,-1225.752797,-1924.535449,11917.315666
368.835901,153.219100,-1332.370696,9548.656652
368.836209,1838.629195,296.082377,8290.306550
368.836516,2068.457845,814.226536,7550.100608
368.836824,1838.629195,1480.411884,7402.059420
368.837132,842.705048,1480.411884,8660.409521
368.837440,689.485948,2664.741391,9992.780217
368.837748,612.876398,2368.659014,9992.780217
368.838056,1608.800546,1998.556043,10140.821405
368.838364,1915.238745,1332.370696,9474.636058
368.838672,2298.286494,148.041188,8660.409521
368.838980,1838.629195,-1110.308913,9622.677246
368.839288,383.047749,-1480.411884,10066.800811
368.839595,-689.485948,-2368.659014,11251.130318
368.839903,-2221.676944,-1776.494261,12139.377449
368.840211,-459.657299,-1480.411884,11399.171507
368.840519,459.657299,-74.020594,9178.553681
368.840827,1991.848295,296.082377,8142.265362
368.841135,1762.019645,-0.000000,7402.059420
368.841443,1762.019645,814.226536,7698.141797
368.841751,766.095498,1702.473667,9178.553681
368.842059,0.000000,1258.350101,9918.759623
368.842367,383.047749,1924.535449,10510.924376
368.842674,1302.362347,1850.514855,10658.965565
368.842982,2145.067394,1776.494261,9030.512492
368.843290,3140.991542,444.123565,9030.512492
368.843598,1915.238745,-222.061783,8660.409521
368.843906,-306.438199,-1406.391290,9696.697840
368.844214,-995.924147,-2294.638420,11843.295072
368.844522,-1915.238745,-1554.432478,11843.295072
368.844830,-766.095498,-1184.329507,11103.089130
368.845138,0.000000,-666.185348,9474.636058
368.845445,1302.362347,-0.000000,9030.512492
368.845753,1762.019645,370.102971,7550.100608
368.846061,1149.143247,1184.329507,7920.203579
368.846369,-153.219100,1036.288319,9474.636058
368.846677,-229.828649,1110.308913,9770.718434
368.846985,0.000000,2146.597232,9770.718434
368.847293,1302.362347,1628.453072,10214.842000
368.847601,2681.334243,1406.391290,8882.471304
368.847909,1915.238745,888.247130,8364.327145
368.848217,919.314598,-1110.308913,9178.553681
368.848524,306.438199,-1480.411884,9918.759623
368.848832,-842.705048,-1850.514855,11325.150913
368.849140,-1915.238745,-2146.597232,11325.150913
368.849448,-689.485948,-888.247130,10066.800811
368.849756,229.828649,-666.185348,9622.677246
368.850064,1225.752797,-148.041188,8068.244768
368.850372,1149.143247,814.226536,7254.018232
368.850680,1302.362347,740.205942,8512.368333
368.850988,1072.533697,1332.370696,9622.677246
368.851296,536.266849,1924.535449,9178.553681
368.851603,766.095498,1332.370696,10732.986159
368.851911,1302.362347,1776.494261,10140.821405
368.852219,2528.115143,1480.411884,8882.471304
368.852527,2374.896044,222.061783,8808.450710
368.852835,1302.362347,-296.082377,9474.636058
368.853143,0.000000,-1554.432478,10362.883188
368.853451,-1685.410096,-740.205942,10881.027347
368.853759,-1838.629195,-1628.453072,12509.480420
368.854067,-229.828649,-740.205942,11399.171507
368.854375,153.219100,370.102971,9326.594869
368.854682,1455.581446,148.041188,8438.347739
368.854990,1608.800546,1036.288319,7624.121203
368.855298,1225.752797,1184.329507,9252.574275
368.855606,766.095498,1184.329507,9548.656652
368.855914,0.000000,1628.453072,9918.759623
368.856222,766.095498,2294.638420,10288.862594
368.856530,1149.143247,2368.659014,9400.615463
368.856838,2528.115143,1850.514855,9696.697840
368.857146,2298.286494,444.123565,8364.327145
368.857454,995.924147,-296.082377,9400.615463
368.857761,0.000000,-1258.350101,11103.089130
368.858069,-1149.143247,-2146.597232,12139.377449
368.858377,-2374.896044,-1850.514855,12213.398043
368.858685,-229.828649,-2146.597232,11325.150913
368.858993,76.609550,296.082377,9104.533087
368.859301,1302.362347,370.102971,8364.327145
368.859609,2145.067394,296.082377,7254.018232
368.859917,1149.143247,1554.432478,7254.018232
368.860225,1225.752797,962.267725,9030.512492
368.860532,612.876398,962.267725,8734.430116
368.860840,842.705048,1998.556043,9326.594869
368.861148,2298.286494,1554.432478,9918.759623
368.861456,2681.334243,1850.514855,7994.224174
368.861764,2757.943793,444.123565,7846.182985
368.862072,1608.800546,-1036.288319,8882.471304
368.862380,306.438199,-1406.391290,9992.780217
368.862688,-919.314598,-2516.700203,11843.295072
368.862996,-995.924147,-2368.659014,12213.398043
368.863304,-383.047749,-1628.453072,9918.759623
368.863611,1302.362347,-888.247130,9326.594869
368.863919,1225.752797,-74.020594,9104.533087
368.864227,2374.896044,-0.000000,7254.018232
368.864535,995.924147,962.267725,8364.327145
368.864843,0.000000,296.082377,9474.636058
368.865151,0.000000,1702.473667,8956.491898
368.865459,612.876398,2146.597232,10362.883188
368.865767,1608.800546,1924.535449,9696.697840
368.866075,3064.381992,1702.473667,8438.347739
368.866383,2451.505594,1036.288319,9030.512492
368.866691,919.314598,-444.123565,9252.574275
368.866999,0.000000,-1850.514855,10881.027347
368.867307,-1685.410096,-1406.391290,11769.274478
368.867615,-1378.971896,-2442.679609,11843.295072
368.867923,-1302.362347,-888.247130,9918.759623
368.868231,919.314598,-740.205942,10214.842000
368.868539,1378.971896,814.226536,7550.100608
368.868847,1685.410096,1332.370696,7031.956449
368.869155,919.314598,1258.350101,8142.265362
368.869463,229.828649,1776.494261,8956.491898
368.869771,0.000000,2072.576638,9770.718434
368.870079,0.000000,2220.617826,10436.903782
368.870387,1838.629195,2368.659014,10436.903782
368.870695,1838.629195,1332.370696,8882.471304
368.871003,1302.362347,296.082377,9252.574275
368.871311,153.219100,-1110.308913,10140.821405
368.871619,-1302.362347,-2072.576638,11399.171507
368.871927,-1608.800546,-1776.494261,11251.130318
368.872235,-1915.238745,-1924.535449,11177.109724
368.872543,0.000000,-1110.308913,10584.944971
368.872851,1149.143247,-296.082377,9030.512492
368.873159,1685.410096,814.226536,8216.285956
368.873467,2451.505594,814.226536,7402.059420
368.873775,1991.848295,962.267725,8142.265362
368.874083,-383.047749,1554.432478,9474.636058
368.874391,153.219100,1332.370696,10436.903782
368.874699,229.828649,1776.494261,10362.883188
368.875007,1455.581446,1184.329507,10362.883188
368.875315,2757.943793,518.144159,9992.780217
368.875623,1455.581446,-444.123565,8734.430116
368.875931,229.828649,-1628.453072,10732.986159
368.876239,-995.924147,-2442.679609,11621.233289
368.876547,-1685.410096,-2072.576638,12287.418637
368.876855,-1378.971896,-1850.514855,11991.336260
368.877163,-229.828649,-444.123565,9474.636058
368.877471,1838.629195,-0.000000,8882.471304
368.877779,2221.676944,592.164754,7550.100608
368.878087,1838.629195,1406.391290,6809.894666
368.878395,1685.410096,1110.308913,8216.285956
368.878703,842.705048,2072.576638,8882.471304
368.879011,383.047749,2368.659014,9178.553681
368.879319,1685.410096,2368.659014,10362.883188
368.879627,1838.629195,1406.391290,10140.821405
368.879935,1838.629195,444.123565,8734.430116
368.880243,1455.581446,-1110.308913,9548.656652
368.880551,-612.876398,-2294.638420,10362.883188
368.880859,-1532.190996,-2886.803174,11769.274478
368.881167,-1915.238745,-1776.494261,11325.150913
368.881475,-1532.190996,-518.144159,10510.924376
368.881783,0.000000,-0.000000,9400.615463
368.882091,1455.581446,2294.638420,7624.121203
368.882399,2451.505594,2294.638420,7328.038826
368.882707,1838.629195,2220.617826,6365.771101
368.883015,153.219100,2072.576638,7772.162391
368.883323,-536.266849,1554.432478,9770.718434
368.883631,-2145.067394,1406.391290,10732.986159
368.883939,-1838.629195,1332.370696,11177.109724
368.884247,-612.876398,370.102971,10732.986159
368.884555,0.000000,-222.061783,9844.739029
368.884863,-995.924147,-1628.453072,10288.862594
368.885171,-1532.190996,-2960.823768,11251.130318
368.885479,-2604.724693,-2664.741391,11843.295072
368.885787,-3753.867940,-2294.638420,12287.418637
368.886095,-1915.238745,-1702.473667,10436.903782
368.886403,-995.924147,444.123565,8956.491898
368.886711,1608.800546,1628.453072,7920.203579
368.887019,2451.505594,3182.885551,5995.668130
368.887327,1838.629195,3330.926739,6365.771101
368.887635,689.485948,1998.556043,7179.997637
368.887943,-995.924147,1480.411884,9474.636058
368.888251,-2987.772442,1258.350101,10362.883188
368.888559,-3140.991542,222.061783,11917.315666
368.888867,-2451.505594,-148.041188,11843.295072
368.889175,-2451.505594,-666.185348,10807.006753
368.889483,-1838.629195,-2294.638420,11325.150913
368.889791,-1532.190996,-2738.761985,11177.109724
368.890099,-2451.505594,-2738.761985,11843.295072
368.890407,-2911.162892,-2960.823768,11695.253884
368.890715,-2834.553343,-1850.514855,10658.965565
368.891023,-1302.362347,-296.082377,10140.821405
368.891331,612.876398,2442.679609,7624.121203
368.891639,2681.334243,3627.009116,6291.750507
368.891947,2604.724693,3775.050304,4959.379811
368.892255,2221.676944,3034.844362,5847.626942
368.892563,-229.828649,1776.494261,8364.327145
368.892871,-2451.505594,666.185348,9548.656652
368.893179,-3830.477490,-0.000000,11547.212695
368.893487,-4136.915689,-0.000000,11325.150913
368.893795,-3294.210641,222.061783,10732.986159
368.894103,-1608.800546,370.102971,10955.047942
368.894411,-1225.752797,-0.000000,9992.780217
368.894719,-1608.800546,-814.226536,10066.800811
368.895027,-2221.676944,-2738.761985,11473.192101
368.895335,-3294.210641,-2516.700203,12065.356855
368.895643,-3677.258390,-2220.617826,11695.253884
368.895951,-2987.772442,-1332.370696,11103.089130
368.896259,-1608.800546,148.041188,9326.594869
368.896567,153.219100,2146.597232,7698.141797
368.896875,1149.143247,2812.782580,6809.894666
368.897183,1302.362347,2664.741391,5699.585753
368.897491,766.095498,1406.391290,6809.894666
368.897799,-612.876398,148.041188,7846.182985
368.898107,-2757.943793,-0.000000,9770.718434
368.898415,-2757.943793,-888.247130,10584.944971
368.898723,-3524.039291,814.226536,9696.697840
368.899031,-2298.286494,1702.473667,10066.800811
368.899339,-919.314598,1924.535449,9252.574275
368.899647,-536.266849,1702.473667,9474.636058
368.899955,-1225.752797,-148.041188,9326.594869
368.900263,-2681.334243,-1258.350101,10510.924376
368.900571,-3830.477490,-3404.947333,12731.542202
368.900879,-5056.230287,-4367.215058,13175.665768
368.901187,-5822.325785,-3108.864956,13175.665768
368.901495,-4443.353888,-1998.556043,11843.295072
368.901803,-2757.943793,-370.102971,9992.780217
368.902111,-919.314598,1036.288319,8882.471304
368.902419,-153.219100,1998.556043,7105.977043
368.902727,153.219100,1776.494261,6735.874072
368.903035,-383.047749,1258.350101,7550.100608
368.903343,-1149.143247,666.185348,8734.430116
368.903651,-2451.505594,296.082377,9474.636058
368.903959,-2451.505594,888.247130,9474.636058
368.904267,-1532.190996,1850.514855,9400.615463
368.904575,-229.828649,3404.947333,8586.388927
368.904883,229.828649,3701.029710,8216.285956
368.905191,1225.752797,3552.988522,7105.977043
368.905499,306.438199,3256.906145,7105.977043
368.905807,-306.438199,1332.370696,8290.306550
368.906115,-2145.067394,-888.247130,10510.924376
368.906423,-4596.572988,-2886.803174,12287.418637
368.906731,-6435.202183,-4959.379811,14211.954086
368.907039,-6741.640382,-4663.297435,14285.974681
368.907347,-6435.202183,-3923.091493,13471.748144
368.907655,-5898.935335,-2368.659014,12879.583391
368.907963,-4366.744339,-0.000000,10881.027347
368.908271,-2911.162892,1850.514855,9104.533087
368.908579,-1532.190996,2738.761985,7402.059420
368.908887,-459.657299,3404.947333,7179.997637
368.909195,153.219100,2886.803174,7179.997637
368.909503,-306.438199,1776.494261,7994.224174
368.909811,-842.705048,148.041188,9104.533087
368.910119,-1838.629195,-962.267725,9844.739029
368.910427,-2757.943793,-1036.288319,9918.759623
368.910735,-3140.991542,-740.205942,9918.759623
368.911043,-2987.772442,-148.041188,9844.739029
368.911351,-1302.362347,888.247130,9252.574275
368.911659,383.047749,2072.576638,7846.182985
368.911967,766.095498,2960.823768,6217.729913
368.912275,1378.971896,3182.885551,6513.812290
368.912583,842.705048,2220.617826,7105.977043
368.912891,-1608.800546,296.082377,9400.615463
368.913199,-3447.429741,-1110.308913,11103.089130
368.913507,-5975.544884,-2738.761985,12731.542202
368.913815,-8197.221829,-3997.112087,14285.974681
368.914123,-8120.612279,-4663.297435,15396.283594
368.914431,-7507.735880,-3552.988522,14359.995275
368.914739,-7124.688131,-2072.576638,12213.398043
368.915047,-3830.477490,-148.041188,10140.821405
368.915355,-995.924147,2368.659014,7920.203579
368.915663,995.924147,4071.132681,5921.647536
368.915971,2451.505594,4737.318029,4737.318029
368.916279,2451.505594,4737.318029,4515.256246
368.916587,1225.752797,2738.761985,5181.441594
368.916895,-612.876398,1332.370696,7550.100608
368.917203,-2145.067394,-888.247130,10510.924376
368.917511,-3983.696590,-2590.720797,12213.398043
368.917819,-5362.668486,-3849.070898,12731.542202
368.918127,-4903.011187,-4219.173869,13175.665768
368.918435,-4060.306139,-3478.967927,12361.439231
368.918743,-1685.410096,-1628.453072,10584.944971
368.919051,383.047749,592.164754,7698.141797
368.919359,383.047749,2590.720797,6439.791695
368.919667,2298.286494,4515.256246,5773.606348
368.919975,2374.896044,6217.729913,5847.626942
368.920283,1302.362347,6217.729913,6069.688724
368.920591,-536.266849,4737.318029,7328.038826
368.920899,-2451.505594,2368.659014,10214.842000
368.921207,-6281.983084,-1184.329507,11991.336260
368.921515,-8733.488677,-3923.091493,15322.262999
368.921823,-9652.803275,-6661.853478,16802.674883
368.922131,-10112.460574,-7105.977043,16802.674883
368.922439,-8273.831378,-6513.812290,16580.613101
368.922747,-5439.278036,-5255.462188,13619.789333
368.923055,-2834.553343,-2960.823768,10658.965565
368.923363,0.000000,370.102971,6587.832884
368.923671,2451.505594,2516.700203,5921.647536
368.923979,4673.182538,4441.235652,5847.626942
368.924287,4826.401637,6809.894666,2072.576638
368.924595,5286.058936,8290.306550,1850.514855
368.924903,4519.963438,7179.997637,4145.153275
368.925211,2374.896044,5773.606348,5921.647536
368.925519,-1225.752797,3701.029710,8734.430116
368.925827,-3983.696590,-148.041188,11769.274478
368.926135,-6128.763984,-2738.761985,13249.686362
368.926443,-7277.907231,-3552.988522,13767.830521
368.926751,-7431.126331,-3997.112087,13915.871710
368.927059,-5822.325785,-4737.318029,13989.892304
368.927367,-5515.887586,-3775.050304,12065.356855
368.927675,-4673.182538,-1776.494261,9474.636058
368.927983,-2451.505594,-444.123565,9252.574275
368.928291,-842.705048,962.267725,8290.306550
368.928599,-229.828649,3034.844362,7550.100608
368.928907,459.657299,2368.659014,7772.162391
368.929215,153.219100,1924.535449,7994.224174
368.929523,-766.095498,1184.329507,9178.553681
368.929831,-1072.533697,740.205942,9178.553681
368.930139,-1685.410096,-296.082377,10584.944971
368.930447,-2528.115143,-1036.288319,10807.006753
368.930755,-2221.676944,-666.185348,9992.780217
368.931063,-2145.067394,-444.123565,9474.636058
368.931371,-1532.190996,-74.020594,8216.285956
368.931679,-612.876398,962.267725,7624.121203
368.931987,-612.876398,1184.329507,7550.100608
368.932295,-1302.362347,592.164754,8290.306550
368.932603,-1991.848295,1850.514855,8660.409521
368.932911,-2681.334243,1628.453072,9696.697840
368.933219,-3907.087040,666.185348,11177.109724
368.933527,-5669.106685,-0.000000,11843.295072
368.933835,-6894.859482,-1480.411884,13027.624579
368.934143,-6818.249932,-2072.576638,13841.851115
368.934451,-7201.297681,-2738.761985,13471.748144
368.934759,-6665.030833,-2294.638420,12953.603985
368.935067,-5286.058936,-1924.535449,11621.233289
368.935375,-3447.429741,-1332.370696,10288.862594
368.935683,-1991.848295,-518.144159,8808.450710
368.935991,0.000000,444.123565,6883.915261
368.936299,1149.143247,1480.411884,6143.709319
368.936607,1532.190996,2516.700203,5847.626942
368.936915,1915.238745,2812.782580,5921.647536
368.937223,1378.971896,2294.638420,6957.935855
368.937531,153.219100,1554.432478,7624.121203
368.937839,-766.095498,1406.391290,8660.409521
368.938147,-1302.362347,444.123565,9992.780217
368.938455,-2451.505594,-444.123565,10584.944971
368.938763,-2681.334243,-0.000000,10881.027347
368.939071,-2681.334243,-666.185348,10955.047942
368.939379,-1991.848295,-222.061783,11029.068536
368.939687,-2068.457845,-0.000000,9992.780217
368.939995,-1608.800546,-74.020594,9696.697840
368.940303,-1838.629195,-74.020594,9474.636058
368.940611,-1532.190996,370.102971,9326.594869
368.940919,-1302.362347,592.164754,9400.615463
368.941227,-1685.410096,888.247130,9770.718434
368.941535,-919.314598,370.102971,10066.800811
368.941843,-2068.457845,296.082377,10436.903782
368.942151,-2374.896044,-0.000000,10510.924376
368.942459,-2834.553343,-0.000000,10584.944971
368.942767,-2528.115143,148.041188,10955.047942
368.943075,-2298.286494,296.082377,10214.842000
368.943383,-1378.971896,666.185348,9474.636058
368.943691,-919.314598,666.185348,8882.471304
368.943999,-153.219100,666.185348,8734.430116
368.944307,-612.876398,740.205942,8586.388927
368.944615,-383.047749,1702.473667,8142.265362
368.944923,-766.095498,1258.350101,8290.306550
368.945231,-1455.581446,1406.391290,8512.368333
368.945539,-2145.067394,962.267725,9326.594869
368.945847,-2757.943793,222.061783,9770.718434
368.946155,-3217.601092,-444.123565,10436.903782
368.946463,-4060.306139,-1480.411884,10436.903782
368.946771,-4136.915689,-1406.391290,11399.171507
368.947079,-4443.353888,-1332.370696,11177.109724
368.947387,-3983.696590,-1110.308913,11029.068536
368.947695,-3447.429741,-814.226536,10584.944971
368.948003,-2681.334243,-666.185348,10140.821405
368.948311,-1991.848295,-962.267725,9844.739029
368.948619,-1762.019645,-518.144159,9400.615463
368.948927,-1302.362347,-518.144159,9030.512492
368.949235,-919.314598,-370.102971,9400.615463
368.949543,-842.705048,-0.000000,8882.471304
368.949851,-536.266849,-0.000000,9030.512492
368.950159,-383.047749,222.061783,8512.368333
368.950467,-153.219100,1110.308913,7994.224174
368.950775,612.876398,666.185348,7772.162391
368.951083,153.219100,1480.411884,8216.285956
368.951391,306.438199,1554.432478,7624.121203
368.951699,0.000000,1776.494261,8068.244768
368.952007,-1072.533697,1258.350101,9104.533087
368.952315,-1991.848295,814.226536,9696.697840
368.952623,-2681.334243,296.082377,10510.924376
368.952931,-3447.429741,148.041188,11251.130318
368.953239,-4060.306139,-222.061783,11177.109724
368.953547,-3983.696590,222.061783,11473.192101
368.953855,-3907.087040,148.041188,11695.253884
368.954163,-4519.963438,148.041188,11177.109724
368.954471,-3907.087040,222.061783,11029.068536
368.954779,-3830.477490,222.061783,10881.027347
368.955087,-3524.039291,222.061783,10140.821405
368.955395,-2987.772442,592.164754,9696.697840
368.955703,-2681.334243,592.164754,9326.594869
368.956011,-2374.896044,740.205942,8956.491898
368.956319,-2528.115143,740.205942,8956.491898
368.956627,-2757.943793,962.267725,8808.450710
368.956935,-3064.381992,814.226536,8882.471304
368.957243,-3064.381992,740.205942,9030.512492
368.957551,-3524.039291,370.102971,9474.636058
368.957859,-3907.087040,-74.020594,9622.677246
368.958167,-3830.477490,-148.041188,9992.780217
368.958475,-4213.525239,-0.000000,10362.883188
368.958783,-3983.696590,-740.205942,9918.759623
368.959091,-4060.306139,-888.247130,9474.636058
368.959399,-3983.696590,-592.164754,9696.697840
368.959707,-3600.648841,-740.205942,9474.636058
368.960015,-3600.648841,-666.185348,9548.656652
368.960323,-3447.429741,-444.123565,9326.594869
368.960631,-3064.381992,-740.205942,9918.759623
368.960939,-3524.039291,-962.267725,9548.656652
368.961247,-2451.505594,-1184.329507,9548.656652
368.961555,-2681.334243,-1406.391290,9918.759623
368.961863,-2987.772442,-1406.391290,10140.821405
368.962171,-2604.724693,-1258.350101,10436.903782
368.962479,-2221.676944,-1184.329507,10362.883188
368.962787,-1608.800546,-962.267725,10066.800811
368.963095,-1149.143247,-666.185348,9622.677246
368.963403,-229.828649,-0.000000,8956.491898
368.963711,536.266849,740.205942,7772.162391
368.964019,919.314598,1702.473667,7550.100608
368.964327,1608.800546,2146.597232,7105.977043
368.964635,1225.752797,3034.844362,6587.832884
368.964943,842.705048,3627.009116,6661.853478
368.965251,1455.581446,2960.823768,7772.162391
368.965559,-612.876398,3627.009116,7550.100608
368.965867,-1072.533697,2590.720797,9474.636058
368.966175,-1838.629195,1406.391290,10140.821405
368.966483,-3447.429741,1036.288319,11325.150913
368.966791,-4060.306139,222.061783,12435.459826
368.967099,-4519.963438,-0.000000,12287.418637
368.967407,-4903.011187,-740.205942,13101.645173
368.967715,-4979.620737,-1258.350101,12583.501014
368.968024,-4519.963438,-1258.350101,12361.439231
368.968332,-3830.477490,-1998.556043,11917.315666
368.968640,-3830.477490,-1702.473667,11251.130318
368.968948,-3370.820191,-814.226536,11843.295072
368.969256,-2604.724693,-814.226536,10955.047942
368.969564,-2221.676944,-222.061783,9548.656652
368.969872,-1378.971896,296.082377,9178.553681
368.970180,-459.657299,296.082377,8660.409521
368.970488,-306.438199,1184.329507,8142.265362
368.970796,229.828649,1776.494261,8216.285956
368.971104,1455.581446,2294.638420,7624.121203
368.971412,536.266849,2886.803174,6365.771101
368.971721,689.485948,3256.906145,6809.894666
368.972029,689.485948,3034.844362,7550.100608
368.972337,-689.485948,2368.659014,7846.182985
368.972645,-2298.286494,1702.473667,9252.574275
368.972953,-2911.162892,-0.000000,10584.944971
368.973261,-4673.182538,-1036.288319,11547.212695
368.973569,-5975.544884,-1998.556043,11917.315666
368.973877,-6818.249932,-2812.782580,12213.398043
368.974185,-6818.249932,-3627.009116,13767.830521
368.974493,-6205.373534,-3701.029710,13249.686362
368.974801,-5745.716235,-3034.844362,12065.356855
368.975110,-4136.915689,-2590.720797,11621.233289
368.975418,-3447.429741,-2368.659014,10732.986159
368.975726,-1991.848295,-296.082377,9622.677246
368.976034,-76.609550,1258.350101,8364.327145
368.976342,1149.143247,2590.720797,6069.688724
368.976650,2374.896044,4737.318029,5255.462188
368.976958,3370.820191,5107.421000,4293.194464
368.977266,3140.991542,5255.462188,3849.070898
368.977574,2451.505594,4293.194464,5107.421000
368.977882,995.924147,3404.947333,7254.018232
368.978190,-2145.067394,1110.308913,8882.471304
368.978498,-4213.525239,-1036.288319,11251.130318
368.978807,-5669.106685,-3034.844362,12731.542202
368.979115,-6894.859482,-4441.235652,13767.830521
368.979423,-7431.126331,-5773.606348,14434.015869
368.979731,-6741.640382,-6217.729913,14656.077652
368.980039,-6052.154434,-4367.215058,12435.459826
368.980347,-4596.572988,-2886.803174,11103.089130
368.980655,-2757.943793,-296.082377,9622.677246
368.980963,76.609550,2886.803174,7920.203579
368.981271,1072.533697,5329.482782,5551.544565
368.981579,2987.772442,6661.853478,4367.215058
368.981887,2834.553343,6883.915261,4367.215058
368.982195,459.657299,4589.276840,5921.647536
368.982504,-1762.019645,1628.453072,8956.491898
368.982812,-4443.353888,-1184.329507,11473.192101
368.983120,-7124.688131,-4959.379811,13989.892304
368.983428,-7967.393179,-6883.915261,14878.139434
368.983736,-8120.612279,-6513.812290,14211.954086
368.984044,-6741.640382,-6217.729913,13323.706956
368.984352,-4673.182538,-3256.906145,10214.842000
368.984660,-1378.971896,-0.000000,8586.388927
368.984968,1072.533697,1924.535449,6587.832884
368.985276,3830.477490,6439.791695,4219.173869
368.985584,5132.839837,7550.100608,3849.070898
368.985893,4903.011187,7920.203579,3923.091493
368.986201,3064.381992,7402.059420,4441.235652
368.986509,536.266849,3478.967927,8586.388927
368.986817,-3370.820191,-0.000000,11991.336260
368.987125,-6971.469032,-3478.967927,14878.139434
368.987433,-9499.584175,-6291.750507,17394.839637
368.987741,-10189.070123,-7031.956449,17764.942608
368.988049,-9499.584175,-5847.626942,16358.551318
368.988357,-6358.592633,-3256.906145,12879.583391
368.988665,-2298.286494,518.144159,9622.677246
368.988973,459.657299,2294.638420,6661.853478
368.989281,1838.629195,4367.215058,5403.503377
368.989590,2987.772442,6217.729913,4441.235652
368.989898,2528.115143,5033.400406,4959.379811
368.990206,306.438199,4441.235652,6513.812290
368.990514,-1991.848295,2072.576638,8512.368333
368.990822,-4749.792088,-148.041188,11325.150913
368.991130,-6971.469032,-1258.350101,13175.665768
368.991438,-7507.735880,-2664.741391,14137.933492
368.991746,-7048.078582,-2368.659014,13323.706956
368.992054,-4519.963438,-74.020594,11177.109724
368.992362,-766.095498,444.123565,8956.491898
368.992670,1838.629195,1110.308913,6513.812290
368.992978,2221.676944,740.205942,6957.935855
368.993287,2451.505594,-0.000000,7105.977043
368.993595,1225.752797,-74.020594,7476.080014
368.993903,-1378.971896,-222.061783,8512.368333
368.994211,-2604.724693,-222.061783,10066.800811
368.994519,-3064.381992,370.102971,10732.986159
368.994827,-3064.381992,592.164754,10362.883188
368.995135,-2987.772442,592.164754,10214.842000
368.995443,-3140.991542,-296.082377,10436.903782
368.995751,-3983.696590,-1998.556043,11769.274478
368.996059,-4366.744339,-2886.803174,12361.439231
368.996367,-4979.620737,-3627.009116,11695.253884
368.996676,-5209.449386,-3034.844362,10881.027347
368.996984,-4366.744339,-1480.411884,10362.883188
368.997292,-2068.457845,222.061783,9104.533087
368.997600,459.657299,2368.659014,7105.977043
368.997908,1532.190996,4071.132681,4885.359217
368.998216,2911.162892,4515.256246,5255.462188
368.998524,2604.724693,2960.823768,7254.018232
368.998832,1149.143247,1036.288319,9178.553681
368.999140,-306.438199,-666.185348,10288.862594
368.999448,-2451.505594,-2442.679609,10658.965565
368.999756,-5056.230287,-1850.514855,11473.192101
369.000064,-1685.410096,-3108.864956,15396.283594
369.000373,-1378.971896,-0.000000,10584.944971
369.000681,-1532.190996,148.041188,7772.162391
369.000989,1072.533697,296.082377,8512.368333
369.001297,-229.828649,444.123565,7846.182985
369.001605,-919.314598,-740.205942,10658.965565
369.001913,-1685.410096,666.185348,8438.347739
369.002221,-1455.581446,814.226536,9326.594869
369.002529,-1378.971896,1702.473667,10658.965565
369.002837,-153.219100,3108.864956,9548.656652
369.003145,0.000000,4145.153275,8512.368333
369.003453,1072.533697,2516.700203,8290.306550
369.003761,459.657299,1850.514855,8586.388927
369.004070,-1455.581446,-962.267725,11029.068536
369.004378,-1608.800546,-2960.823768,13471.748144
369.004686,-3370.820191,-2146.597232,11177.109724
369.004994,-1378.971896,-1406.391290,10807.006753
369.005302,0.000000,-444.123565,11695.253884
369.005610,842.705048,592.164754,9178.553681
369.005918,1915.238745,592.164754,8290.306550
369.006226,1762.019645,1184.329507,6365.771101
369.006534,536.266849,-370.102971,8586.388927
369.006842,-1072.533697,-962.267725,10066.800811
369.007150,-2068.457845,-518.144159,11325.150913
369.007459,-1762.019645,-222.061783,10732.986159
369.007767,-1072.533697,1998.556043,9548.656652
369.008075,1455.581446,3627.009116,8808.450710
369.008383,2911.162892,3627.009116,7920.203579
369.008691,2298.286494,2368.659014,8068.244768
369.008999,1072.533697,740.205942,8882.471304
369.009307,-919.314598,-1480.411884,11103.089130
369.009615,-2221.676944,-1998.556043,11473.192101
369.009923,-2681.334243,-1332.370696,10732.986159
369.010231,-919.314598,-1406.391290,13175.665768
369.010539,-153.219100,-1332.370696,10807.006753
369.010847,153.219100,-1480.411884,9178.553681
369.011156,383.047749,-2294.638420,9622.677246
369.011464,-842.705048,-2294.638420,9770.718434
369.011772,-2068.457845,-1924.535449,11843.295072
369.012080,-2451.505594,-666.185348,11325.150913
369.012388,-153.219100,1702.473667,9252.574275
369.012696,2451.505594,3108.864956,7698.141797
369.013004,4213.525239,5255.462188,5625.565159
369.013312,5362.668486,5551.544565,5773.606348
369.013620,4596.572988,4219.173869,6365.771101
369.013928,2451.505594,2664.741391,7994.224174
369.014236,-153.219100,740.205942,9696.697840
369.014544,-1991.848295,-666.185348,11843.295072
369.014853,-3064.381992,-1998.556043,12435.459826
369.015161,-2528.115143,-2368.659014,12361.439231
369.015469,-2145.067394,-3478.967927,11991.336260
369.015777,-2298.286494,-3701.029710,11547.212695
369.016085,-1762.019645,-3404.947333,10658.965565
369.016393,-1608.800546,-3256.906145,10955.047942
369.016701,-1762.019645,-1036.288319,10584.944971
369.017009,-229.828649,666.185348,9252.574275
369.017317,1991.848295,2960.823768,7105.977043
369.017625,3600.648841,5107.421000,5403.503377
369.017933,5056.230287,5403.503377,5255.462188
369.018242,4213.525239,4071.132681,5995.668130
369.018550,1838.629195,1924.535449,8290.306550
369.018858,-766.095498,-0.000000,10288.862594
369.019166,-2911.162892,-1110.308913,12435.459826
369.019474,-2987.772442,-2812.782580,13323.706956
369.019782,-2528.115143,-3552.988522,12879.583391
369.020090,-2068.457845,-3552.988522,12213.398043
369.020398,-1225.752797,-4367.215058,10732.986159
369.020706,-536.266849,-3330.926739,9918.759623
369.021014,-1302.362347,-2294.638420,9992.780217
369.021322,-536.266849,-962.267725,9400.615463
369.021630,76.609550,814.226536,8956.491898
369.021939,3294.210641,2886.803174,7550.100608
369.022247,4749.792088,4737.318029,5699.585753
369.022555,4673.182538,4885.359217,6513.812290
369.022863,4213.525239,3478.967927,7846.182985
369.023171,2298.286494,1924.535449,8882.471304
369.023479,-229.828649,666.185348,10955.047942
369.023787,-1685.410096,-1258.350101,12731.542202
369.024095,-1915.238745,-1258.350101,12953.603985
369.024403,-229.828649,-1258.350101,11917.315666
369.024711,919.314598,-1924.535449,9770.718434
369.025019,536.266849,-2368.659014,9178.553681
369.025327,689.485948,-2072.576638,10066.800811
369.025636,-153.219100,-1184.329507,10288.862594
369.025944,0.000000,222.061783,9844.739029
369.026252,1149.143247,1332.370696,8808.450710
369.026560,1838.629195,3256.906145,7254.018232
369.026868,4443.353888,4293.194464,7105.977043
369.027176,4749.792088,3775.050304,7328.038826
369.027484,3524.039291,3478.967927,8290.306550
369.027792,2145.067394,1332.370696,9622.677246
369.028100,-766.095498,296.082377,11029.068536
369.028408,-1072.533697,-740.205942,13693.809927
369.028716,-1762.019645,-518.144159,13471.748144
369.029025,-1225.752797,-1702.473667,11547.212695
369.029333,995.924147,-1480.411884,10584.944971
369.029641,-229.828649,-1702.473667,9252.574275
369.029949,229.828649,-2442.679609,10881.027347
369.030257,76.609550,-1184.329507,9548.656652
369.030565,0.000000,814.226536,8956.491898
369.030873,919.314598,1110.308913,9178.553681
369.031181,3294.210641,3034.844362,6883.915261
369.031489,4213.525239,3478.967927,7698.141797
369.031797,4596.572988,3701.029710,7328.038826
369.032105,4060.306139,2294.638420,7698.141797
369.032413,1072.533697,370.102971,9326.594869
369.032722,-536.266849,-1258.350101,11695.253884
369.033030,-1838.629195,-1776.494261,12213.398043
369.033338,-2068.457845,-1924.535449,12287.418637
369.033646,-689.485948,-2146.597232,11917.315666
369.033954,306.438199,-2146.597232,9252.574275
369.034262,1225.752797,-2886.803174,10584.944971
369.034570,-995.924147,-1406.391290,8734.430116
369.034878,-612.876398,-888.247130,10436.903782
369.035186,306.438199,-592.164754,10214.842000
369.035494,-689.485948,2812.782580,7402.059420
369.035802,3140.991542,2294.638420,9400.615463
369.036110,4290.134789,4219.173869,5625.565159
369.036419,3140.991542,2442.679609,7994.224174
369.036727,3830.477490,1850.514855,9474.636058
369.037035,995.924147,888.247130,9770.718434
369.037343,-1685.410096,-1702.473667,12583.501014
369.037651,-2681.334243,-1998.556043,12065.356855
369.037959,-1915.238745,-1184.329507,12509.480420
369.038267,-1302.362347,-2146.597232,11177.109724
369.038575,536.266849,-1776.494261,9474.636058
369.038883,-153.219100,-888.247130,8734.430116
369.039191,153.219100,-1406.391290,9918.759623
369.039499,-612.876398,-148.041188,8808.450710
369.039808,-1302.362347,1628.453072,9252.574275
369.040116,842.705048,1850.514855,9622.677246
369.040424,1532.190996,3552.988522,6587.832884
369.040732,3370.820191,3849.070898,7254.018232
369.041040,3753.867940,2812.782580,7105.977043
369.041348,3140.991542,1554.432478,7550.100608
369.041656,995.924147,-0.000000,10510.924376
369.041964,-689.485948,-1998.556043,12065.356855
369.042272,-2145.067394,-1850.514855,12139.377449
369.042580,-1838.629195,-1924.535449,12139.377449
369.042888,76.609550,-2368.659014,11029.068536
369.043196,229.828649,-888.247130,8734.430116
369.043505,1455.581446,-1406.391290,9548.656652
369.043813,689.485948,-1332.370696,9178.553681
369.044121,-536.266849,-0.000000,9548.656652
369.044429,-306.438199,518.144159,9992.780217
369.044737,536.266849,1628.453072,9474.636058
369.045045,1991.848295,3182.885551,8512.368333
369.045353,3600.648841,3108.864956,7624.121203
369.045661,3830.477490,3552.988522,7402.059420
369.045969,2528.115143,1406.391290,8882.471304
369.046277,689.485948,-222.061783,10362.883188
369.046585,-1532.190996,-1776.494261,12583.501014
369.046893,-1991.848295,-2146.597232,12879.583391
369.047202,-1838.629195,-2442.679609,11917.315666
369.047510,-842.705048,-1554.432478,10584.944971
369.047818,459.657299,-1702.473667,9918.759623
369.048126,306.438199,-2072.576638,9622.677246
369.048434,536.266849,-370.102971,9696.697840
369.048742,0.000000,444.123565,9326.594869
369.049050,383.047749,814.226536,8956.491898
369.049358,842.705048,2738.761985,8438.347739
369.049666,2757.943793,3627.009116,7402.059420
369.049974,3753.867940,3849.070898,6883.915261
369.050282,3907.087040,3256.906145,6957.935855
369.050591,2757.943793,1924.535449,8142.265362
369.050899,0.000000,222.061783,9696.697840
369.051207,-1225.752797,-888.247130,12287.418637
369.051515,-1915.238745,-1702.473667,12953.603985
369.051823,-995.924147,-1184.329507,11399.171507
369.052131,0.000000,-1480.411884,10288.862594
369.052439,766.095498,-888.247130,9400.615463
369.052747,689.485948,-1702.473667,9474.636058
369.053055,383.047749,-1406.391290,9696.697840
369.053363,-153.219100,-1110.308913,9474.636058
369.053671,-766.095498,-148.041188,9696.697840
369.053979,919.314598,666.185348,8882.471304
369.054288,2834.553343,2442.679609,7846.182985
369.054596,3370.820191,3034.844362,6661.853478
369.054904,4213.525239,2368.659014,7920.203579
369.055212,3217.601092,1184.329507,8734.430116
369.055520,459.657299,-0.000000,9918.759623
369.055828,-689.485948,-1702.473667,11843.295072
369.056136,-2068.457845,-1036.288319,11473.192101
369.056444,0.000000,-1480.411884,12509.480420
369.056752,76.609550,-888.247130,10658.965565
369.057060,919.314598,-1480.411884,9030.512492
369.057368,1149.143247,-1924.535449,9178.553681
369.057676,383.047749,-1628.453072,9474.636058
369.057985,-689.485948,-1406.391290,10362.883188
369.058293,-229.828649,-740.205942,9696.697840
369.058601,689.485948,1184.329507,9178.553681
369.058909,2451.505594,2368.659014,7698.141797
369.059217,4903.011187,3330.926739,6661.853478
369.059525,4213.525239,2960.823768,7031.956449
369.059833,2681.334243,1702.473667,8660.409521
369.060141,383.047749,296.082377,10288.862594
369.060449,-1685.410096,-666.185348,12287.418637
369.060757,-2221.676944,-740.205942,12657.521608
369.061065,-1532.190996,-1036.288319,12065.356855
369.061374,-1225.752797,-666.185348,10584.944971
369.061682,0.000000,-814.226536,10214.842000
369.061990,459.657299,-1554.432478,9622.677246
369.062298,-689.485948,-666.185348,9696.697840
369.062606,-383.047749,-444.123565,9844.739029
369.062914,-536.266849,814.226536,9326.594869
369.063222,1225.752797,1628.453072,8882.471304
369.063530,2298.286494,2886.803174,7105.977043
369.063838,4443.353888,3256.906145,6143.709319
369.064146,4596.572988,3330.926739,7402.059420
369.064454,2451.505594,2146.597232,7846.182985
369.064762,689.485948,666.185348,10288.862594
369.065071,-1378.971896,-370.102971,11991.336260
369.065379,-1915.238745,-1110.308913,13027.624579
369.065687,-1532.190996,-1258.350101,12361.439231
369.065995,-842.705048,-2072.576638,11325.150913
369.066303,76.609550,-2220.617826,11029.068536
369.066611,-153.219100,-2590.720797,9770.718434
369.066919,-1149.143247,-2146.597232,10362.883188
369.067227,-459.657299,-1184.329507,10436.903782
369.067535,-153.219100,148.041188,8882.471304
369.067843,1532.190996,2294.638420,8956.491898
369.068151,4060.306139,2516.700203,7920.203579
369.068459,4826.401637,3849.070898,5107.421000
369.068767,4213.525239,2738.761985,7254.018232
369.069075,4903.011187,666.185348,9992.780217
369.069383,-1838.629195,1036.288319,7328.038826
369.069691,-1378.971896,-1110.308913,14656.077652
369.069999,0.000000,-2294.638420,11991.336260
369.070307,-2834.553343,-148.041188,8956.491898
369.070615,229.828649,-3552.988522,13767.830521
369.070923,766.095498,-1702.473667,8290.306550
369.071231,-1225.752797,-2368.659014,11177.109724
369.071539,-1225.752797,-1776.494261,10510.924376
369.071847,229.828649,-148.041188,9104.533087
369.072155,-1072.533697,1110.308913,8808.450710
369.072463,1225.752797,2590.720797,7624.121203
369.072771,4136.915689,4885.359217,6587.832884
369.073079,4519.963438,4589.276840,5033.400406
369.073387,3600.648841,3256.906145,7328.038826
369.073695,2068.457845,2516.700203,7179.997637
369.074003,0.000000,-222.061783,11991.336260
369.074311,-2604.724693,-1554.432478,12953.603985
369.074619,-3064.381992,-1110.308913,12065.356855
369.074927,-1685.410096,-2590.720797,13767.830521
369.075235,-1915.238745,-3404.947333,10362.883188
369.075543,-229.828649,-2368.659014,10140.821405
