#time,accel_x,accel_y,accel_z
272.749674,612.876398,370.102971,9622.677246
272.749982,842.705048,444.123565,9622.677246
272.750290,612.876398,296.082377,9548.656652
272.750598,689.485948,-0.000000,9474.636058
272.750906,612.876398,-0.000000,9622.677246
272.751214,459.657299,296.082377,9622.677246
272.751522,459.657299,-74.020594,9548.656652
272.751830,689.485948,222.061783,9770.718434
272.752138,689.485948,222.061783,9474.636058
272.752445,612.876398,148.041188,9548.656652
272.752753,536.266849,370.102971,9474.636058
272.753061,842.705048,148.041188,9696.697840
272.753369,459.657299,-0.000000,9252.574275
272.753677,842.705048,-0.000000,9474.636058
272.753985,1149.143247,-0.000000,9474.636058
272.754293,689.485948,-0.000000,9548.656652
272.754601,612.876398,-0.000000,9474.636058
272.754909,612.876398,-0.000000,9548.656652
272.755217,383.047749,222.061783,9474.636058
272.755524,995.924147,-0.000000,9696.697840
272.755832,842.705048,-0.000000,9696.697840
272.756140,842.705048,-148.041188,9326.594869
272.756448,229.828649,-74.020594,9548.656652
272.756756,612.876398,148.041188,9474.636058
272.757064,536.266849,222.061783,9548.656652
272.757372,612.876398,222.061783,9696.697840
272.757680,689.485948,296.082377,9770.718434
272.757988,689.485948,-0.000000,9474.636058
272.758295,919.314598,148.041188,9844.739029
272.758603,766.095498,222.061783,9918.759623
272.758911,306.438199,-0.000000,9770.718434
272.759219,842.705048,-0.000000,9474.636058
272.759527,459.657299,222.061783,9770.718434
272.759835,689.485948,296.082377,9548.656652
272.760143,536.266849,296.082377,9548.656652
272.760451,459.657299,148.041188,9770.718434
272.760759,689.485948,-0.000000,9696.697840
272.761067,536.266849,-0.000000,9622.677246
272.761374,919.314598,-148.041188,9326.594869
272.761682,612.876398,296.082377,9474.636058
272.761990,536.266849,222.061783,9548.656652
272.762298,689.485948,-0.000000,9474.636058
272.762606,536.266849,-0.000000,9548.656652
272.762914,1072.533697,-0.000000,9474.636058
272.763222,459.657299,-0.000000,9474.636058
272.763530,306.438199,-74.020594,9696.697840
272.763838,766.095498,518.144159,9622.677246
272.764146,536.266849,222.061783,9548.656652
272.764453,766.095498,222.061783,9548.656652
272.764761,459.657299,222.061783,9548.656652
272.765069,766.095498,-0.000000,9474.636058
272.765377,689.485948,-0.000000,9622.677246
272.765685,-229.828649,444.123565,9622.677246
272.765993,459.657299,-222.061783,9474.636058
272.766301,842.705048,-0.000000,9992.780217
272.766609,919.314598,-74.020594,9844.739029
272.766917,612.876398,-370.102971,10066.800811
272.767224,766.095498,-592.164754,10066.800811
272.767532,612.876398,-592.164754,9918.759623
272.767840,1072.533697,-814.226536,10066.800811
272.768148,689.485948,-0.000000,10066.800811
272.768456,1762.019645,-74.020594,9474.636058
272.768764,1915.238745,444.123565,9178.553681
272.769072,2068.457845,444.123565,8734.430116
272.769380,2374.896044,814.226536,8882.471304
272.769688,1991.848295,592.164754,9326.594869
272.769996,2221.676944,666.185348,9326.594869
272.770303,1532.190996,-0.000000,9474.636058
272.770611,1378.971896,74.020594,9696.697840
272.770919,1685.410096,-148.041188,10066.800811
272.771227,1532.190996,-74.020594,10140.821405
272.771535,1685.410096,-74.020594,9844.739029
272.771843,1608.800546,-296.082377,10140.821405
272.772151,1915.238745,-74.020594,9992.780217
272.772459,2298.286494,148.041188,9992.780217
272.772767,2374.896044,518.144159,9696.697840
272.773075,2451.505594,222.061783,9326.594869
272.773382,3294.210641,222.061783,9178.553681
272.773690,2451.505594,444.123565,9548.656652
272.773998,2604.724693,592.164754,9474.636058
272.774306,2451.505594,148.041188,9474.636058
272.774614,2451.505594,-0.000000,9696.697840
272.774922,2451.505594,-0.000000,9770.718434
272.775230,2528.115143,-0.000000,9844.739029
272.775538,2604.724693,148.041188,9844.739029
272.775846,2451.505594,-0.000000,10066.800811
272.776153,2987.772442,-74.020594,10214.842000
272.776461,2987.772442,-74.020594,10066.800811
272.776769,2911.162892,-0.000000,10140.821405
272.777077,3064.381992,-0.000000,9844.739029
272.777385,3677.258390,148.041188,9770.718434
272.777693,4060.306139,222.061783,9548.656652
272.778001,4290.134789,222.061783,9474.636058
272.778309,3830.477490,592.164754,9696.697840
272.778617,4290.134789,592.164754,9252.574275
272.778925,4519.963438,518.144159,9326.594869
272.779232,4290.134789,296.082377,9104.533087
272.779540,4290.134789,-0.000000,9474.636058
272.779848,3677.258390,-0.000000,9548.656652
272.780156,4596.572988,-0.000000,9474.636058
272.780464,4519.963438,-296.082377,9474.636058
272.780772,4673.182538,296.082377,9474.636058
272.781080,4826.401637,888.247130,9400.615463
272.781388,4673.182538,1036.288319,9030.512492
272.781696,4903.011187,1110.308913,8882.471304
272.782003,4673.182538,1406.391290,8956.491898
272.782311,5132.839837,1332.370696,9030.512492
272.782619,4519.963438,1110.308913,9252.574275
272.782927,3907.087040,814.226536,8956.491898
272.783235,4060.306139,1184.329507,9252.574275
272.783543,3140.991542,-0.000000,9918.759623
272.783851,3524.039291,518.144159,9992.780217
272.784159,2834.553343,222.061783,9770.718434
272.784467,2987.772442,592.164754,10362.883188
272.784775,2987.772442,518.144159,9992.780217
272.785082,3217.601092,592.164754,9474.636058
272.785390,2987.772442,888.247130,10066.800811
272.785698,2834.553343,222.061783,9622.677246
272.786006,2451.505594,666.185348,9992.780217
272.786314,1608.800546,-0.000000,9918.759623
272.786622,1608.800546,-0.000000,9844.739029
272.786930,1378.971896,-74.020594,10288.862594
272.787238,1378.971896,-888.247130,10658.965565
272.787546,1149.143247,-1258.350101,10732.986159
272.787854,1302.362347,-1480.411884,10881.027347
272.788161,1762.019645,-1628.453072,11103.089130
272.788469,2221.676944,-2146.597232,10732.986159
272.788777,2528.115143,-1554.432478,10214.842000
272.789085,3524.039291,-1480.411884,9844.739029
272.789393,3983.696590,-1036.288319,9178.553681
272.789701,4519.963438,-1036.288319,9030.512492
272.790009,4749.792088,-296.082377,9178.553681
272.790317,4519.963438,592.164754,8364.327145
272.790625,5286.058936,592.164754,8364.327145
272.790932,4979.620737,962.267725,8216.285956
272.791240,4749.792088,888.247130,8290.306550
272.791548,4673.182538,666.185348,8512.368333
272.791856,4290.134789,444.123565,8438.347739
272.792164,3600.648841,-222.061783,9548.656652
272.792472,2987.772442,-0.000000,9696.697840
272.792780,3447.429741,-0.000000,9918.759623
272.793088,2604.724693,-0.000000,9918.759623
272.793396,3294.210641,962.267725,9030.512492
272.793704,3983.696590,2220.617826,8734.430116
272.794011,4443.353888,2886.803174,8290.306550
272.794319,4826.401637,3108.864956,8290.306550
272.794627,4443.353888,2664.741391,8216.285956
272.794935,4060.306139,1628.453072,9474.636058
272.795243,3370.820191,666.185348,10214.842000
272.795551,2145.067394,-666.185348,11547.212695
272.795859,766.095498,-2072.576638,12435.459826
272.796167,612.876398,-3256.906145,13545.768739
272.796475,306.438199,-3552.988522,13471.748144
272.796783,1149.143247,-3627.009116,13545.768739
272.797090,2451.505594,-2812.782580,12287.418637
272.797398,3830.477490,-1776.494261,9918.759623
272.797706,4673.182538,222.061783,9178.553681
272.798014,7277.907231,1332.370696,7624.121203
272.798322,7124.688131,2960.823768,5699.585753
272.798630,8044.002729,4145.153275,5921.647536
272.798938,7890.783629,4737.318029,5477.523971
272.799246,6741.640382,5107.421000,5107.421000
272.799554,5822.325785,4367.215058,6217.729913
272.799861,4290.134789,3182.885551,7105.977043
272.800169,2911.162892,1998.556043,8512.368333
272.800477,1762.019645,-0.000000,9770.718434
272.800785,919.314598,-888.247130,11103.089130
272.801093,0.000000,-2590.720797,12287.418637
272.801401,-536.266849,-3404.947333,13767.830521
272.801709,-306.438199,-3478.967927,13619.789333
272.802017,76.609550,-3701.029710,13471.748144
272.802325,1302.362347,-2960.823768,12879.583391
272.802633,2068.457845,-2220.617826,11621.233289
272.802940,3983.696590,-1702.473667,10066.800811
272.803248,4366.744339,370.102971,8586.388927
272.803556,5132.839837,1554.432478,7476.080014
272.803864,5362.668486,2368.659014,6957.935855
272.804172,5132.839837,3256.906145,6365.771101
272.804480,4673.182538,3627.009116,5773.606348
272.804788,4443.353888,3108.864956,6661.853478
272.805096,3983.696590,2294.638420,7105.977043
272.805404,1838.629195,740.205942,8364.327145
272.805712,766.095498,-962.267725,10436.903782
272.806019,-612.876398,-2590.720797,12065.356855
272.806327,-1302.362347,-3849.070898,13101.645173
272.806635,-1302.362347,-3849.070898,13545.768739
272.806943,229.828649,-3404.947333,13027.624579
272.807251,1915.238745,-1924.535449,11769.274478
272.807559,3294.210641,-740.205942,9696.697840
272.807867,4213.525239,1480.411884,7179.997637
272.808175,5132.839837,3108.864956,5921.647536
272.808483,6128.763984,4441.235652,5477.523971
272.808790,5745.716235,4959.379811,4959.379811
272.809098,5132.839837,4811.338623,5551.544565
272.809406,3753.867940,2368.659014,7031.956449
272.809714,1532.190996,444.123565,9400.615463
272.810022,-1225.752797,-1406.391290,10881.027347
272.810330,-2451.505594,-3627.009116,13693.809927
272.810638,-3830.477490,-5773.606348,15618.345376
272.810946,-4136.915689,-5921.647536,16210.510130
272.811254,-2834.553343,-4959.379811,15470.304188
272.811562,-459.657299,-3478.967927,13397.727550
272.811869,1991.848295,-888.247130,9770.718434
272.812177,4060.306139,2368.659014,7105.977043
272.812485,6052.154434,4145.153275,5625.565159
272.812793,6128.763984,5403.503377,4145.153275
272.813101,6665.030833,6883.915261,3701.029710
272.813409,5898.935335,5773.606348,4663.297435
272.813717,4443.353888,3182.885551,6069.688724
272.814025,1225.752797,-0.000000,9178.553681
272.814333,-1762.019645,-2960.823768,12287.418637
272.814640,-3677.258390,-5033.400406,14878.139434
272.814948,-4673.182538,-5699.585753,15544.324782
272.815256,-3524.039291,-5181.441594,14804.118840
272.815564,-1072.533697,-2738.761985,12953.603985
272.815872,1915.238745,444.123565,9918.759623
272.816180,4136.915689,2812.782580,7328.038826
272.816488,5898.935335,5477.523971,5403.503377
272.816796,6818.249932,7254.018232,4293.194464
272.817104,6205.373534,6883.915261,4441.235652
272.817412,5362.668486,6143.709319,5181.441594
272.817719,3447.429741,3330.926739,7328.038826
272.818027,-383.047749,-222.061783,10658.965565
272.818335,-3140.991542,-4071.132681,14137.933492
272.818643,-6128.763984,-6513.812290,16358.551318
272.818951,-7507.735880,-8364.327145,17542.880825
272.819259,-6128.763984,-8512.368333,17690.922014
272.819567,-4060.306139,-5477.523971,15322.262999
272.819875,-995.924147,-1924.535449,11325.150913
272.820183,2528.115143,222.061783,7031.956449
272.820491,5132.839837,4367.215058,4441.235652
272.820798,7201.297681,6587.832884,3849.070898
272.821106,8120.612279,7105.977043,3108.864956
272.821414,6818.249932,7772.162391,2738.761985
272.821722,5209.449386,4885.359217,4589.276840
272.822030,2604.724693,1406.391290,8290.306550
272.822338,-1072.533697,-2442.679609,11621.233289
272.822646,-3370.820191,-4663.297435,13767.830521
272.822954,-4596.572988,-5255.462188,13471.748144
272.823262,-3677.258390,-5477.523971,14137.933492
272.823570,-1225.752797,-3108.864956,13249.686362
272.823878,1608.800546,296.082377,9770.718434
272.824186,2834.553343,1110.308913,6883.915261
272.824494,5362.668486,3404.947333,5403.503377
272.824803,5132.839837,5477.523971,5255.462188
272.825111,4366.744339,4589.276840,6513.812290
272.825419,3294.210641,3478.967927,7624.121203
272.825727,383.047749,1998.556043,9178.553681
272.826035,-1991.848295,-1332.370696,11547.212695
272.826343,-3907.087040,-3108.864956,13767.830521
272.826651,-5286.058936,-4367.215058,15026.180623
272.826959,-6281.983084,-5033.400406,15544.324782
272.827267,-4596.572988,-4663.297435,14434.015869
272.827575,-1991.848295,-2072.576638,11843.295072
272.827883,612.876398,888.247130,8068.244768
272.828191,4366.744339,1702.473667,6883.915261
272.828499,4136.915689,3552.988522,3923.091493
272.828807,5286.058936,4515.256246,4885.359217
272.829115,4673.182538,2812.782580,6809.894666
272.829423,2068.457845,2738.761985,6957.935855
272.829731,995.924147,-0.000000,9548.656652
272.830040,0.000000,-148.041188,9400.615463
272.830348,-1455.581446,-1406.391290,10436.903782
272.830656,-1838.629195,-1628.453072,11621.233289
272.830964,-1149.143247,-666.185348,11547.212695
272.831272,-306.438199,-222.061783,11251.130318
272.831580,306.438199,148.041188,9252.574275
272.831888,919.314598,222.061783,8956.491898
272.832196,689.485948,-0.000000,9548.656652
272.832504,536.266849,-814.226536,9918.759623
272.832812,-919.314598,-740.205942,10807.006753
272.833120,-1838.629195,-1850.514855,12065.356855
272.833428,-2528.115143,-2220.617826,12509.480420
272.833736,-2757.943793,-1850.514855,12287.418637
272.834044,-2068.457845,-1036.288319,11621.233289
272.834352,-919.314598,-296.082377,10140.821405
272.834660,919.314598,1184.329507,9030.512492
272.834968,2298.286494,2146.597232,7920.203579
272.835277,3677.258390,3552.988522,6587.832884
272.835585,4136.915689,2960.823768,5995.668130
272.835893,3830.477490,2294.638420,6291.750507
272.836201,2911.162892,962.267725,7550.100608
272.836509,1608.800546,-74.020594,10362.883188
272.836817,536.266849,-2146.597232,11251.130318
272.837125,-919.314598,-1702.473667,11177.109724
272.837433,-306.438199,-1332.370696,10955.047942
272.837741,536.266849,-0.000000,9992.780217
272.838049,1762.019645,1480.411884,9104.533087
272.838357,2757.943793,3034.844362,8142.265362
272.838665,3064.381992,3701.029710,6883.915261
272.838973,2987.772442,2738.761985,7698.141797
272.839281,2221.676944,1406.391290,9104.533087
272.839589,689.485948,-0.000000,9844.739029
272.839897,-1072.533697,-2294.638420,11917.315666
272.840205,-3064.381992,-4441.235652,14063.912898
272.840514,-4290.134789,-4737.318029,14508.036463
272.840822,-4136.915689,-4737.318029,14285.974681
272.841130,-3677.258390,-3997.112087,13397.727550
272.841438,-1608.800546,-1850.514855,11325.150913
272.841746,1608.800546,1036.288319,8660.409521
272.842054,4136.915689,3701.029710,6069.688724
272.842362,6511.811733,5181.441594,5033.400406
272.842670,7201.297681,6365.771101,2886.803174
272.842978,6281.983084,6069.688724,2886.803174
272.843286,4979.620737,3701.029710,5551.544565
272.843594,3294.210641,740.205942,8364.327145
272.843902,-383.047749,-1480.411884,11621.233289
272.844210,-2834.553343,-4293.194464,12805.562797
272.844518,-2911.162892,-4367.215058,13101.645173
272.844826,-3370.820191,-3627.009116,12805.562797
272.845134,-1991.848295,-2368.659014,11991.336260
272.845442,229.828649,-0.000000,10584.944971
272.845751,2145.067394,1776.494261,8808.450710
272.846059,3140.991542,3330.926739,6883.915261
272.846367,4903.011187,4441.235652,6069.688724
272.846675,4060.306139,3849.070898,6883.915261
272.846983,2298.286494,2220.617826,8142.265362
272.847291,-383.047749,-0.000000,10510.924376
272.847599,-2298.286494,-2590.720797,13175.665768
272.847907,-4519.963438,-4441.235652,14508.036463
272.848215,-5209.449386,-5033.400406,14952.160028
272.848523,-4979.620737,-4737.318029,14582.057057
272.848831,-3217.601092,-3034.844362,12509.480420
272.849139,0.000000,-222.061783,9622.677246
272.849447,2681.334243,2590.720797,7550.100608
272.849755,4979.620737,4071.132681,4737.318029
272.850063,6128.763984,5477.523971,3182.885551
272.850371,5975.544884,5403.503377,3627.009116
272.850679,4979.620737,3997.112087,5773.606348
272.850988,2374.896044,2294.638420,7698.141797
272.851296,0.000000,-74.020594,10362.883188
272.851604,-1762.019645,-2738.761985,11991.336260
272.851912,-2834.553343,-2886.803174,12435.459826
272.852220,-3524.039291,-3404.947333,13323.706956
272.852528,-2451.505594,-2516.700203,12509.480420
272.852836,-1072.533697,-740.205942,10955.047942
272.853144,766.095498,962.267725,9770.718434
272.853452,2681.334243,1332.370696,8586.388927
272.853760,2604.724693,2368.659014,6661.853478
272.854068,2987.772442,1184.329507,8068.244768
272.854376,1378.971896,1184.329507,9178.553681
272.854684,-153.219100,-222.061783,10881.027347
272.854992,-1991.848295,-1998.556043,12805.562797
272.855300,-3140.991542,-2664.741391,12805.562797
272.855608,-3830.477490,-3478.967927,13249.686362
272.855916,-2911.162892,-2442.679609,12361.439231
272.856224,-1608.800546,-518.144159,11029.068536
272.856533,1149.143247,518.144159,9030.512492
272.856841,3064.381992,2442.679609,6365.771101
272.857149,4903.011187,4219.173869,5181.441594
272.857457,5362.668486,3923.091493,4515.256246
272.857765,4673.182538,2886.803174,5477.523971
272.858073,3217.601092,1776.494261,7254.018232
272.858381,1532.190996,-0.000000,9696.697840
272.858689,-612.876398,-1628.453072,10955.047942
272.858997,-1838.629195,-2590.720797,11695.253884
272.859305,-2221.676944,-2442.679609,12731.542202
272.859613,-1915.238745,-2146.597232,11843.295072
272.859921,-766.095498,-592.164754,11177.109724
272.860229,612.876398,740.205942,10214.842000
272.860537,2068.457845,2294.638420,8512.368333
272.860845,2834.553343,2590.720797,7328.038826
272.861153,3294.210641,1628.453072,7846.182985
272.861461,2298.286494,1184.329507,8882.471304
272.861770,919.314598,-74.020594,10140.821405
272.862078,-536.266849,-1258.350101,11251.130318
272.862386,-1532.190996,-2590.720797,13027.624579
272.862694,-2604.724693,-3256.906145,13249.686362
272.863002,-2834.553343,-2368.659014,12065.356855
272.863310,-1378.971896,-1036.288319,11029.068536
272.863618,612.876398,1184.329507,9326.594869
272.863926,3370.820191,2146.597232,7254.018232
272.864234,4596.572988,4737.318029,5847.626942
272.864542,5592.497135,4293.194464,4515.256246
272.864850,4979.620737,3182.885551,4737.318029
272.865158,3983.696590,2072.576638,7105.977043
272.865466,1838.629195,296.082377,8808.450710
272.865774,229.828649,-1406.391290,11473.192101
272.866082,-1378.971896,-3034.844362,12583.501014
272.866390,-2757.943793,-3182.885551,12139.377449
272.866698,-2374.896044,-2368.659014,12731.542202
272.867007,-919.314598,-1406.391290,11473.192101
272.867315,229.828649,296.082377,10732.986159
272.867623,1915.238745,1702.473667,8808.450710
272.867931,3524.039291,3034.844362,6957.935855
272.868239,3370.820191,3108.864956,6883.915261
272.868547,3140.991542,2146.597232,7254.018232
272.868855,1915.238745,1554.432478,8512.368333
272.869163,842.705048,-444.123565,11325.150913
272.869471,-1762.019645,-2664.741391,13027.624579
272.869779,-3524.039291,-3404.947333,13323.706956
272.870087,-3524.039291,-3923.091493,13915.871710
272.870395,-3217.601092,-3034.844362,12509.480420
272.870703,-1762.019645,-518.144159,10510.924376
272.871011,689.485948,888.247130,8956.491898
272.871319,2834.553343,3182.885551,7031.956449
272.871627,4290.134789,4589.276840,4589.276840
272.871935,5056.230287,3775.050304,5033.400406
272.872244,4443.353888,3552.988522,5181.441594
272.872552,3140.991542,2294.638420,7031.956449
272.872860,1225.752797,370.102971,9622.677246
272.873168,-612.876398,-1406.391290,11399.171507
272.873476,-2145.067394,-3108.864956,12583.501014
272.873784,-2757.943793,-2886.803174,13323.706956
272.874092,-2604.724693,-2590.720797,12731.542202
272.874400,-1608.800546,-1406.391290,11991.336260
272.874708,0.000000,-0.000000,10807.006753
272.875016,1608.800546,1924.535449,8660.409521
272.875324,2451.505594,2886.803174,6809.894666
272.875632,3217.601092,2294.638420,7105.977043
272.875940,2681.334243,2294.638420,7994.224174
272.876248,1608.800546,1332.370696,8956.491898
272.876556,0.000000,-518.144159,10584.944971
272.876864,-2068.457845,-2886.803174,12065.356855
272.877172,-3217.601092,-3849.070898,13619.789333
272.877481,-4136.915689,-3552.988522,13323.706956
272.877789,-3294.210641,-2516.700203,12509.480420
272.878097,-1378.971896,-592.164754,10510.924376
272.878405,1838.629195,1258.350101,8956.491898
272.878713,3753.867940,3034.844362,6143.709319
272.879021,4903.011187,4071.132681,3997.112087
272.879329,5439.278036,3108.864956,5329.482782
272.879637,4060.306139,2886.803174,5699.585753
272.879945,3217.601092,1998.556043,7698.141797
272.880253,1455.581446,444.123565,9326.594869
272.880561,459.657299,-1184.329507,10658.965565
272.880869,-1149.143247,-2368.659014,12287.418637
272.881177,-1762.019645,-2442.679609,12139.377449
272.881485,-1685.410096,-1554.432478,12361.439231
272.881793,-153.219100,-1110.308913,11177.109724
272.882101,842.705048,740.205942,9696.697840
272.882409,2145.067394,1924.535449,8438.347739
272.882718,2987.772442,2072.576638,7624.121203
272.883026,3064.381992,2146.597232,7254.018232
272.883334,2221.676944,1036.288319,8512.368333
272.883642,1302.362347,-0.000000,10214.842000
272.883950,306.438199,-1184.329507,11695.253884
272.884258,-1915.238745,-2146.597232,12805.562797
272.884566,-3064.381992,-2738.761985,13397.727550
272.884874,-2604.724693,-2220.617826,12435.459826
272.885182,-1532.190996,-518.144159,11325.150913
272.885490,612.876398,1110.308913,9770.718434
272.885798,2374.896044,2294.638420,7402.059420
272.886106,4673.182538,3478.967927,6069.688724
272.886414,4443.353888,3404.947333,5329.482782
272.886722,4136.915689,2516.700203,5847.626942
272.887030,3140.991542,1628.453072,7328.038826
272.887338,1838.629195,962.267725,8512.368333
272.887646,229.828649,-888.247130,10510.924376
272.887955,-995.924147,-2072.576638,11103.089130
272.888263,-1225.752797,-2294.638420,12213.398043
272.888571,-1991.848295,-1702.473667,11843.295072
272.888879,-612.876398,-814.226536,11843.295072
272.889187,306.438199,444.123565,10288.862594
272.889495,1378.971896,1924.535449,8364.327145
272.889803,2528.115143,2368.659014,7698.141797
272.890111,3140.991542,2294.638420,7476.080014
272.890419,2374.896044,1628.453072,7846.182985
272.890727,1302.362347,444.123565,8808.450710
272.891035,-383.047749,-1110.308913,11325.150913
272.891343,-2221.676944,-2960.823768,12509.480420
272.891651,-3524.039291,-3478.967927,13175.665768
272.891959,-3524.039291,-3627.009116,13397.727550
272.892267,-2987.772442,-2072.576638,12213.398043
272.892575,-1225.752797,-518.144159,10732.986159
272.892883,1532.190996,1184.329507,8290.306550
272.893192,3217.601092,2738.761985,5995.668130
272.893500,4366.744339,3849.070898,4737.318029
272.893808,4596.572988,3701.029710,5773.606348
272.894116,3753.867940,3256.906145,6069.688724
272.894424,2681.334243,2220.617826,7105.977043
272.894732,1608.800546,518.144159,9326.594869
272.895040,-612.876398,-1110.308913,11029.068536
272.895348,-1991.848295,-3182.885551,12139.377449
272.895656,-2451.505594,-2886.803174,12657.521608
272.895964,-2604.724693,-2368.659014,12879.583391
272.896272,-1685.410096,-1110.308913,11621.233289
272.896580,0.000000,814.226536,9844.739029
272.896888,1915.238745,2072.576638,8586.388927
272.897196,3140.991542,2590.720797,6587.832884
272.897504,3370.820191,2738.761985,7254.018232
272.897812,2604.724693,1776.494261,8438.347739
272.898120,1149.143247,518.144159,9474.636058
272.898429,-1149.143247,-1776.494261,11991.336260
272.898737,-2221.676944,-3478.967927,13397.727550
272.899045,-3370.820191,-3478.967927,13027.624579
272.899353,-3370.820191,-3182.885551,13027.624579
272.899661,-1838.629195,-1776.494261,11547.212695
272.899969,0.000000,222.061783,9474.636058
272.900277,2374.896044,1554.432478,7994.224174
272.900585,4443.353888,3330.926739,4959.379811
272.900893,4903.011187,4145.153275,4737.318029
272.901201,4903.011187,3478.967927,5255.462188
272.901509,4519.963438,3330.926739,5847.626942
272.901817,2911.162892,2220.617826,7772.162391
272.902125,1225.752797,-0.000000,10140.821405
272.902433,-306.438199,-1406.391290,11251.130318
272.902741,-1991.848295,-2368.659014,12065.356855
272.903049,-2145.067394,-3330.926739,13175.665768
272.903357,-1762.019645,-1998.556043,12139.377449
272.903666,-1072.533697,-592.164754,11917.315666
272.903974,459.657299,-0.000000,10658.965565
272.904282,1991.848295,1332.370696,8364.327145
272.904590,2604.724693,2442.679609,7994.224174
272.904898,2987.772442,1850.514855,8216.285956
272.905206,1915.238745,1480.411884,9030.512492
272.905514,919.314598,-296.082377,10362.883188
272.905822,-459.657299,-1554.432478,11473.192101
272.906130,-2145.067394,-2368.659014,12361.439231
272.906438,-2298.286494,-2442.679609,12879.583391
272.906746,-2374.896044,-1554.432478,11843.295072
272.907054,-612.876398,-296.082377,10807.006753
272.907362,1685.410096,1110.308913,8660.409521
272.907670,2911.162892,2886.803174,6735.874072
272.907978,4519.963438,3552.988522,5551.544565
272.908286,4979.620737,3849.070898,4811.338623
272.908594,4366.744339,3552.988522,5477.523971
272.908903,3677.258390,2294.638420,7031.956449
272.909211,1991.848295,814.226536,9104.533087
272.909519,-153.219100,-962.267725,10881.027347
272.909827,-1838.629195,-1924.535449,11991.336260
272.910135,-2834.553343,-2738.761985,13101.645173
272.910443,-2911.162892,-2738.761985,13397.727550
272.910751,-2528.115143,-1628.453072,12583.501014
272.911059,-919.314598,-444.123565,11177.109724
272.911367,842.705048,1110.308913,9252.574275
272.911675,2068.457845,2146.597232,7476.080014
272.911983,2451.505594,2442.679609,7698.141797
272.912291,2681.334243,1184.329507,8216.285956
272.912599,1608.800546,518.144159,9252.574275
272.912907,0.000000,-740.205942,10658.965565
272.913215,-1685.410096,-2590.720797,12509.480420
272.913523,-2681.334243,-3108.864956,12509.480420
272.913831,-2681.334243,-3034.844362,12287.418637
272.914140,-2068.457845,-1406.391290,11029.068536
272.914448,-153.219100,-148.041188,9548.656652
272.914756,1915.238745,1480.411884,7624.121203
272.915064,3830.477490,3330.926739,5921.647536
272.915372,5132.839837,4071.132681,4737.318029
272.915680,5132.839837,3552.988522,4811.338623
272.915988,4519.963438,3256.906145,5329.482782
272.916296,3140.991542,1924.535449,7105.977043
272.916604,1149.143247,-0.000000,9548.656652
272.916912,-919.314598,-1702.473667,11251.130318
272.917220,-2911.162892,-2368.659014,12879.583391
272.917528,-3217.601092,-3478.967927,13619.789333
272.917836,-2757.943793,-2812.782580,12879.583391
272.918144,-1991.848295,-1406.391290,11917.315666
272.918452,0.000000,-0.000000,10584.944971
272.918760,1608.800546,1702.473667,8364.327145
272.919068,2681.334243,2368.659014,7624.121203
272.919377,3447.429741,2368.659014,7328.038826
272.919685,2757.943793,2146.597232,7772.162391
272.919993,1762.019645,222.061783,9770.718434
272.920301,76.609550,-1406.391290,11177.109724
272.920609,-1378.971896,-2664.741391,12361.439231
272.920917,-2604.724693,-3404.947333,13693.809927
272.921225,-2987.772442,-2738.761985,12509.480420
272.921532,-1915.238745,-1406.391290,11547.212695
272.921840,0.000000,-74.020594,9474.636058
272.922148,2528.115143,2146.597232,7624.121203
272.922456,4060.306139,3478.967927,5847.626942
272.922764,5439.278036,4145.153275,4885.359217
272.923072,4826.401637,3478.967927,5329.482782
272.923380,4596.572988,3034.844362,6143.709319
272.923688,2757.943793,1924.535449,7254.018232
272.923996,995.924147,-0.000000,9918.759623
272.924303,-1455.581446,-1776.494261,11917.315666
272.924611,-2604.724693,-2590.720797,12805.562797
272.924919,-3064.381992,-2516.700203,13545.768739
272.925227,-2757.943793,-2146.597232,12953.603985
272.925535,-1149.143247,-592.164754,11695.253884
272.925843,76.609550,666.185348,9696.697840
272.926151,2451.505594,2146.597232,8438.347739
272.926459,3447.429741,2590.720797,7624.121203
272.926767,3600.648841,1924.535449,7328.038826
272.927074,3217.601092,1480.411884,8808.450710
272.927382,1762.019645,-74.020594,9918.759623
272.927690,-995.924147,-1554.432478,11695.253884
272.927998,-2145.067394,-2886.803174,13323.706956
272.928306,-3064.381992,-2664.741391,12731.542202
272.928614,-2834.553343,-1998.556043,12287.418637
272.928922,-1225.752797,-444.123565,10955.047942
272.929230,1302.362347,1258.350101,8512.368333
272.929538,3447.429741,3256.906145,6291.750507
272.929845,5056.230287,4071.132681,5551.544565
272.930153,4903.011187,3627.009116,5773.606348
272.930461,4826.401637,3256.906145,5995.668130
272.930769,3600.648841,2146.597232,7328.038826
272.931077,1455.581446,592.164754,8882.471304
272.931385,-842.705048,-1480.411884,11103.089130
272.931693,-2145.067394,-2812.782580,12731.542202
272.932001,-3447.429741,-3034.844362,12583.501014
272.932309,-3217.601092,-3108.864956,13249.686362
272.932617,-1915.238745,-1628.453072,12657.521608
272.932924,0.000000,148.041188,9992.780217
272.933232,1991.848295,1850.514855,8512.368333
272.933540,3524.039291,2738.761985,6735.874072
272.933848,3600.648841,2886.803174,7031.956449
272.934156,3140.991542,1776.494261,7772.162391
272.934464,1685.410096,592.164754,9178.553681
272.934772,-536.266849,-1184.329507,10955.047942
272.935080,-2757.943793,-3034.844362,12805.562797
272.935388,-3140.991542,-3701.029710,13471.748144
272.935695,-4060.306139,-3330.926739,12953.603985
272.936003,-2068.457845,-2368.659014,11769.274478
272.936311,-306.438199,-148.041188,9252.574275
272.936619,2298.286494,1850.514855,7550.100608
272.936927,4290.134789,3256.906145,5625.565159
272.937235,5132.839837,4885.359217,4441.235652
272.937543,5592.497135,3849.070898,4811.338623
272.937851,4519.963438,3627.009116,5107.421000
272.938159,3064.381992,2146.597232,7550.100608
272.938466,689.485948,-444.123565,10140.821405
272.938774,-2374.896044,-2220.617826,11991.336260
272.939082,-3370.820191,-3552.988522,13841.851115
272.939390,-4213.525239,-4219.173869,13915.871710
272.939698,-3217.601092,-2368.659014,13175.665768
272.940006,-1838.629195,-1258.350101,11843.295072
272.940314,842.705048,888.247130,9696.697840
272.940622,2604.724693,2368.659014,7698.141797
272.940930,3140.991542,2516.700203,7105.977043
272.941237,3370.820191,2220.617826,7772.162391
272.941545,2298.286494,1628.453072,7920.203579
272.941853,536.266849,-0.000000,10288.862594
272.942161,-459.657299,-1924.535449,11843.295072
272.942469,-2987.772442,-2886.803174,12435.459826
272.942777,-3064.381992,-3182.885551,13249.686362
272.943085,-2834.553343,-2664.741391,12435.459826
272.943393,-1532.190996,-1480.411884,11473.192101
272.943701,229.828649,444.123565,9622.677246
272.944008,3064.381992,1924.535449,7328.038826
272.944316,4519.963438,3627.009116,4959.379811
272.944624,4979.620737,4367.215058,4885.359217
272.944932,5286.058936,3775.050304,5329.482782
272.945240,4290.134789,3552.988522,6143.709319
272.945548,2451.505594,1702.473667,8364.327145
272.945856,612.876398,-0.000000,10436.903782
272.946164,-1455.581446,-1702.473667,11991.336260
272.946472,-3140.991542,-2960.823768,13027.624579
272.946780,-3217.601092,-2220.617826,12657.521608
272.947087,-2374.896044,-1258.350101,13397.727550
272.947395,-1072.533697,-518.144159,12139.377449
272.947703,536.266849,1332.370696,9548.656652
272.948011,2374.896044,2368.659014,8438.347739
272.948319,3140.991542,2072.576638,7550.100608
272.948627,2451.505594,1258.350101,7476.080014
272.948935,2681.334243,740.205942,9770.718434
272.949243,766.095498,-592.164754,11029.068536
272.949551,-1608.800546,-2442.679609,11991.336260
272.949858,-2451.505594,-3256.906145,13471.748144
272.950166,-2834.553343,-2812.782580,12731.542202
272.950474,-2528.115143,-1702.473667,11695.253884
272.950782,-383.047749,-222.061783,10807.006753
272.951090,1532.190996,1776.494261,8142.265362
272.951398,3524.039291,2960.823768,5921.647536
272.951706,4749.792088,3627.009116,5107.421000
272.952014,5898.935335,3330.926739,4737.318029
272.952322,5439.278036,2960.823768,5033.400406
272.952629,3983.696590,2294.638420,6883.915261
272.952937,1685.410096,222.061783,8882.471304
272.953245,-536.266849,-1554.432478,10955.047942
272.953553,-2451.505594,-2368.659014,12287.418637
272.953861,-2911.162892,-2738.761985,12435.459826
272.954169,-2528.115143,-2368.659014,12065.356855
272.954477,-1532.190996,-962.267725,11251.130318
272.954785,229.828649,296.082377,10214.842000
272.955093,2298.286494,1702.473667,8290.306550
272.955400,3064.381992,2220.617826,7254.018232
272.955708,2987.772442,2072.576638,7624.121203
272.956016,2374.896044,1332.370696,8364.327145
272.956324,1072.533697,-148.041188,9918.759623
272.956632,-1455.581446,-1702.473667,11991.336260
272.956940,-2451.505594,-2960.823768,13249.686362
272.957248,-3600.648841,-3552.988522,13767.830521
272.957556,-3140.991542,-2960.823768,13101.645173
272.957864,-1991.848295,-1406.391290,11177.109724
272.958171,612.876398,222.061783,9104.533087
272.958479,2911.162892,2220.617826,6735.874072
272.958787,4443.353888,3552.988522,5033.400406
272.959095,5745.716235,3775.050304,5181.441594
272.959403,5515.887586,3256.906145,4885.359217
272.959711,4213.525239,3182.885551,5699.585753
272.960019,2451.505594,1776.494261,7550.100608
272.960327,306.438199,-296.082377,10288.862594
272.960635,-1838.629195,-1924.535449,12139.377449
272.960943,-2987.772442,-2886.803174,13249.686362
272.961250,-3830.477490,-2590.720797,13545.768739
272.961558,-2374.896044,-1924.535449,12657.521608
272.961866,-689.485948,-296.082377,11325.150913
272.962174,1149.143247,1184.329507,9696.697840
272.962482,2068.457845,2368.659014,8734.430116
272.962790,2911.162892,2220.617826,7772.162391
272.963098,2451.505594,2146.597232,7920.203579
272.963406,1149.143247,888.247130,9326.594869
272.963714,76.609550,-222.061783,10881.027347
272.964021,-1532.190996,-1776.494261,12657.521608
272.964329,-2987.772442,-2960.823768,13175.665768
272.964637,-3447.429741,-3034.844362,13545.768739
272.964945,-2604.724693,-2146.597232,12731.542202
272.965253,-1302.362347,-666.185348,11029.068536
272.965561,1225.752797,1184.329507,8882.471304
272.965869,3447.429741,3108.864956,6365.771101
272.966177,4979.620737,3627.009116,5551.544565
272.966485,5592.497135,4071.132681,4515.256246
272.966792,5439.278036,4515.256246,5107.421000
272.967100,4136.915689,3552.988522,6291.750507
272.967408,2451.505594,1480.411884,8290.306550
272.967716,-306.438199,-444.123565,10807.006753
272.968024,-2145.067394,-2220.617826,12509.480420
272.968332,-3064.381992,-3404.947333,13101.645173
272.968640,-2528.115143,-2368.659014,12583.501014
272.968948,-1915.238745,-1406.391290,12287.418637
272.969256,229.828649,-222.061783,10584.944971
272.969563,1838.629195,1184.329507,8734.430116
272.969871,2757.943793,1628.453072,8068.244768
272.970179,2604.724693,1776.494261,7476.080014
272.970487,2221.676944,1184.329507,8216.285956
272.970795,1149.143247,-148.041188,9474.636058
272.971103,0.000000,-888.247130,10732.986159
272.971411,-1762.019645,-2738.761985,12361.439231
272.971719,-2834.553343,-3627.009116,13693.809927
272.972027,-2757.943793,-3478.967927,12657.521608
272.972334,-2451.505594,-2368.659014,11991.336260
272.972642,-536.266849,-518.144159,10362.883188
272.972950,2221.676944,1332.370696,7476.080014
272.973258,3753.867940,3552.988522,4959.379811
272.973566,5669.106685,3552.988522,5477.523971
272.973874,5286.058936,3701.029710,4367.215058
272.974182,4673.182538,3701.029710,4885.359217
272.974490,3907.087040,2442.679609,6439.791695
272.974798,1685.410096,370.102971,8512.368333
272.975106,-842.705048,-1258.350101,11177.109724
272.975413,-2911.162892,-2516.700203,12731.542202
272.975721,-3370.820191,-2812.782580,13027.624579
272.976029,-2604.724693,-2368.659014,12435.459826
272.976337,-1608.800546,-814.226536,11621.233289
272.976645,1072.533697,-296.082377,10140.821405
272.976953,2221.676944,1924.535449,8882.471304
272.977261,2451.505594,1850.514855,8290.306550
272.977569,2374.896044,1850.514855,8068.244768
272.977877,1762.019645,888.247130,9030.512492
272.978184,0.000000,-0.000000,9992.780217
272.978492,-1302.362347,-1628.453072,12065.356855
272.978800,-2604.724693,-3108.864956,13249.686362
272.979108,-3447.429741,-3256.906145,13323.706956
272.979416,-3447.429741,-3034.844362,12805.562797
272.979724,-1915.238745,-1850.514855,12287.418637
272.980032,383.047749,518.144159,9474.636058
272.980340,2757.943793,2664.741391,6809.894666
272.980648,4903.011187,3923.091493,5773.606348
272.980955,6128.763984,4219.173869,4959.379811
272.981263,6205.373534,4367.215058,5033.400406
272.981571,5362.668486,3849.070898,5255.462188
272.981879,3370.820191,1924.535449,7550.100608
272.982187,1072.533697,-74.020594,10214.842000
272.982495,-1072.533697,-1110.308913,11325.150913
272.982803,-2298.286494,-2220.617826,12879.583391
272.983111,-2451.505594,-2368.659014,12731.542202
272.983419,-1072.533697,-888.247130,11843.295072
272.983726,306.438199,-0.000000,10214.842000
272.984034,1762.019645,1554.432478,9474.636058
272.984342,2528.115143,2146.597232,7846.182985
272.984650,2528.115143,1998.556043,8438.347739
272.984958,2145.067394,1036.288319,9326.594869
272.985266,459.657299,-0.000000,9770.718434
272.985574,-1225.752797,-1480.411884,11547.212695
272.985882,-2451.505594,-2812.782580,13027.624579
272.986190,-2911.162892,-3256.906145,14137.933492
272.986498,-3140.991542,-3404.947333,14211.954086
272.986805,-2681.334243,-2368.659014,12509.480420
272.987113,-842.705048,-814.226536,10288.862594
272.987421,1302.362347,1258.350101,7994.224174
272.987729,3830.477490,3256.906145,6069.688724
272.988037,5439.278036,4367.215058,4811.338623
272.988345,6052.154434,4071.132681,4589.276840
272.988653,6052.154434,3775.050304,4737.318029
272.988961,4060.306139,3256.906145,5699.585753
272.989269,2145.067394,814.226536,8438.347739
272.989576,0.000000,-962.267725,10807.006753
272.989884,-1685.410096,-2072.576638,11473.192101
272.990192,-2604.724693,-2442.679609,11843.295072
272.990500,-2068.457845,-1776.494261,11621.233289
272.990808,-766.095498,-1110.308913,10732.986159
272.991116,842.705048,592.164754,9770.718434
272.991424,2681.334243,1480.411884,8216.285956
272.991732,2911.162892,2072.576638,7550.100608
272.992040,2221.676944,1628.453072,8142.265362
272.992347,1608.800546,814.226536,8882.471304
272.992655,153.219100,-518.144159,9992.780217
272.992963,-2374.896044,-1924.535449,12657.521608
272.993271,-3753.867940,-3923.091493,13619.789333
272.993579,-4290.134789,-4515.256246,14211.954086
272.993887,-4366.744339,-4145.153275,14137.933492
272.994195,-2757.943793,-2664.741391,12435.459826
272.994503,-612.876398,-74.020594,9844.739029
272.994811,2145.067394,1554.432478,7476.080014
272.995118,4519.963438,3701.029710,4737.318029
272.995426,5745.716235,4589.276840,3849.070898
272.995734,6052.154434,4367.215058,4219.173869
272.996042,5056.230287,4441.235652,4811.338623
272.996350,3753.867940,2664.741391,7105.977043
272.996658,1378.971896,222.061783,9474.636058
272.996966,-842.705048,-1036.288319,10881.027347
272.997274,-2374.896044,-2220.617826,12213.398043
272.997582,-2681.334243,-2368.659014,12509.480420
272.997889,-1915.238745,-1850.514855,11325.150913
272.998197,229.828649,-296.082377,11251.130318
272.998505,1762.019645,1110.308913,9696.697840
272.998813,2451.505594,2220.617826,7994.224174
272.999121,2528.115143,2146.597232,8216.285956
272.999429,2145.067394,1554.432478,8660.409521
272.999737,1149.143247,1036.288319,9400.615463
273.000045,-689.485948,-444.123565,11473.192101
273.000353,-2451.505594,-2294.638420,13175.665768
273.000661,-3677.258390,-2886.803174,14211.954086
273.000968,-4979.620737,-3478.967927,14508.036463
273.001276,-3447.429741,-2812.782580,13545.768739
273.001584,-2145.067394,-1332.370696,11843.295072
273.001892,383.047749,592.164754,9474.636058
273.002200,2681.334243,2664.741391,6735.874072
273.002508,5056.230287,4145.153275,5477.523971
273.002816,5745.716235,4515.256246,4071.132681
273.003124,6281.983084,4293.194464,4145.153275
273.003432,4903.011187,3627.009116,5107.421000
273.003739,2604.724693,1850.514855,8438.347739
273.004047,459.657299,-444.123565,10288.862594
273.004355,-1685.410096,-1998.556043,11769.274478
273.004663,-2681.334243,-2664.741391,12879.583391
273.004971,-2681.334243,-2294.638420,11843.295072
273.005279,-1302.362347,-962.267725,11695.253884
273.005587,995.924147,-370.102971,10214.842000
273.005895,1608.800546,1924.535449,7476.080014
273.006203,3064.381992,1628.453072,8142.265362
273.006510,2604.724693,1850.514855,7476.080014
273.006818,1685.410096,1554.432478,8586.388927
273.007126,919.314598,-74.020594,9992.780217
273.007434,-1225.752797,-1110.308913,11029.068536
273.007742,-3140.991542,-3108.864956,13693.809927
273.008050,-3907.087040,-3775.050304,13101.645173
273.008358,-3753.867940,-3552.988522,13989.892304
273.008666,-3524.039291,-3182.885551,13175.665768
273.008974,-1302.362347,-962.267725,9992.780217
273.009281,1608.800546,888.247130,8438.347739
273.009589,4060.306139,2664.741391,5847.626942
273.009897,5592.497135,4367.215058,4145.153275
273.010205,6205.373534,4811.338623,4367.215058
273.010513,6205.373534,4071.132681,4071.132681
273.010821,4213.525239,2664.741391,5995.668130
273.011129,2221.676944,888.247130,8290.306550
273.011437,153.219100,-1258.350101,11251.130318
273.011745,-2145.067394,-2072.576638,11325.150913
273.012052,-2451.505594,-2368.659014,12287.418637
273.012360,-2068.457845,-1776.494261,12065.356855
273.012668,-153.219100,-444.123565,11103.089130
273.012976,2068.457845,1036.288319,9992.780217
273.013284,1991.848295,1850.514855,8808.450710
273.013592,2451.505594,1184.329507,8142.265362
273.013900,1991.848295,1258.350101,8512.368333
273.014208,766.095498,814.226536,9474.636058
273.014516,-459.657299,-740.205942,10881.027347
273.014824,-2374.896044,-1998.556043,12435.459826
273.015131,-3983.696590,-2664.741391,13545.768739
273.015439,-4290.134789,-4145.153275,14211.954086
273.015747,-3524.039291,-3256.906145,13693.809927
273.016055,-2834.553343,-1776.494261,12139.377449
273.016363,0.000000,-0.000000,9992.780217
273.016671,2451.505594,2516.700203,6661.853478
273.016979,4443.353888,3552.988522,5995.668130
273.017287,5669.106685,4515.256246,4367.215058
273.017595,6128.763984,4441.235652,3997.112087
273.017902,5132.839837,3701.029710,5329.482782
273.018210,3140.991542,2294.638420,6809.894666
273.018518,1378.971896,148.041188,9918.759623
273.018826,-919.314598,-1406.391290,11621.233289
273.019134,-1991.848295,-2072.576638,12509.480420
273.019442,-2068.457845,-2146.597232,11917.315666
273.019750,-995.924147,-1480.411884,11473.192101
273.020058,842.705048,518.144159,10288.862594
273.020366,2221.676944,1036.288319,9104.533087
273.020673,2757.943793,1850.514855,8586.388927
273.020981,2068.457845,2146.597232,7846.182985
273.021289,1762.019645,1258.350101,9178.553681
273.021597,229.828649,296.082377,9992.780217
273.021905,-1378.971896,-1036.288319,11769.274478
273.022213,-2451.505594,-2886.803174,13323.706956
273.022516,-4443.353888,-3256.906145,14211.954086
273.022824,-4060.306139,-4145.153275,14582.057057
273.023132,-3447.429741,-2812.782580,13027.624579
273.023440,-1838.629195,-1184.329507,10510.924376
273.023748,1685.410096,888.247130,8364.327145
273.024056,3983.696590,3108.864956,5995.668130
273.024364,5439.278036,4071.132681,4663.297435
273.024672,6511.811733,4515.256246,3701.029710
273.024980,5822.325785,4515.256246,4145.153275
273.025288,4826.401637,2516.700203,5773.606348
273.025596,2528.115143,1110.308913,7846.182985
273.025904,306.438199,-814.226536,10362.883188
273.026212,-1762.019645,-2220.617826,11843.295072
273.026520,-2451.505594,-2738.761985,11695.253884
273.026828,-2451.505594,-2368.659014,11843.295072
273.027136,-459.657299,-888.247130,11399.171507
273.027443,1762.019645,592.164754,9548.656652
273.027751,2374.896044,1480.411884,8364.327145
273.028059,3140.991542,2072.576638,7476.080014
273.028367,2834.553343,2072.576638,7254.018232
273.028675,1685.410096,1406.391290,8734.430116
273.028983,76.609550,-74.020594,10140.821405
273.029291,-1838.629195,-1850.514855,11695.253884
273.029599,-3370.820191,-3330.926739,13841.851115
273.029907,-4749.792088,-4145.153275,14878.139434
273.030215,-4213.525239,-4071.132681,14137.933492
273.030523,-3907.087040,-2886.803174,12805.562797
273.030831,-1072.533697,-740.205942,10436.903782
273.031139,1915.238745,1702.473667,7920.203579
273.031447,3830.477490,3182.885551,6143.709319
273.031755,5515.887586,4145.153275,4811.338623
273.032063,5515.887586,4293.194464,3552.988522
273.032371,5209.449386,3923.091493,4959.379811
273.032678,3524.039291,3034.844362,7105.977043
273.032986,1455.581446,666.185348,9474.636058
273.033294,-383.047749,-666.185348,10807.006753
273.033602,-2068.457845,-2072.576638,11917.315666
273.033910,-2451.505594,-2442.679609,12361.439231
273.034218,-2221.676944,-1702.473667,11917.315666
273.034526,0.000000,-444.123565,11103.089130
273.034834,2221.676944,740.205942,9178.553681
273.035142,2987.772442,1776.494261,8216.285956
273.035450,2834.553343,1924.535449,8290.306550
273.035758,2221.676944,1406.391290,8364.327145
273.036066,995.924147,740.205942,9178.553681
273.036374,-612.876398,-370.102971,11251.130318
273.036682,-2145.067394,-2368.659014,12509.480420
273.036990,-3524.039291,-2886.803174,13767.830521
273.037298,-3600.648841,-3404.947333,14211.954086
273.037605,-3524.039291,-3256.906145,13249.686362
273.037913,-1762.019645,-1776.494261,11621.233289
273.038221,536.266849,222.061783,9622.677246
273.038529,3217.601092,2516.700203,6661.853478
273.038837,4979.620737,3627.009116,5255.462188
273.039145,5898.935335,4071.132681,4589.276840
273.039453,5515.887586,4145.153275,4589.276840
273.039761,4673.182538,2960.823768,5625.565159
273.040069,2604.724693,1406.391290,7772.162391
273.040377,1302.362347,-148.041188,9918.759623
273.040685,-995.924147,-1258.350101,11621.233289
273.040993,-2374.896044,-2590.720797,12435.459826
273.041301,-2374.896044,-2220.617826,12435.459826
273.041609,-1532.190996,-1628.453072,11917.315666
273.041917,536.266849,-148.041188,10881.027347
273.042225,2221.676944,1110.308913,9474.636058
273.042532,2451.505594,1776.494261,7698.141797
273.042840,3140.991542,1776.494261,7624.121203
273.043148,2451.505594,1480.411884,8438.347739
273.043456,919.314598,666.185348,9474.636058
273.043764,-383.047749,-444.123565,11177.109724
273.044072,-1685.410096,-1702.473667,12435.459826
273.044380,-2987.772442,-2886.803174,13249.686362
273.044688,-3677.258390,-2960.823768,13471.748144
273.044996,-2221.676944,-2146.597232,12139.377449
273.045304,-536.266849,-296.082377,10881.027347
273.045612,1838.629195,1332.370696,7846.182985
273.045920,4060.306139,3182.885551,6143.709319
273.046228,5745.716235,3627.009116,5699.585753
273.046536,5592.497135,3775.050304,4515.256246
273.046844,4596.572988,3552.988522,4885.359217
273.047152,3753.867940,1850.514855,7179.997637
273.047459,1532.190996,814.226536,8734.430116
273.047767,-612.876398,-1036.288319,10584.944971
273.048075,-2145.067394,-1776.494261,12065.356855
273.048383,-2604.724693,-2442.679609,12731.542202
273.048691,-2604.724693,-2072.576638,12139.377449
273.048999,-842.705048,-666.185348,11695.253884
273.049307,766.095498,-0.000000,10288.862594
273.049615,1915.238745,1406.391290,8734.430116
273.049923,2451.505594,1332.370696,8586.388927
273.050231,2068.457845,1184.329507,8290.306550
273.050539,689.485948,666.185348,8512.368333
273.050847,-229.828649,-370.102971,10584.944971
273.051155,-1762.019645,-1702.473667,11399.171507
273.051463,-3447.429741,-2886.803174,13249.686362
273.051771,-3983.696590,-3478.967927,13323.706956
273.052079,-3140.991542,-2294.638420,12509.480420
273.052387,-2221.676944,-1258.350101,11029.068536
273.052694,612.876398,518.144159,9030.512492
273.053002,2987.772442,2812.782580,7105.977043
273.053310,4903.011187,3923.091493,5699.585753
273.053618,5286.058936,4293.194464,4737.318029
273.053926,4903.011187,3997.112087,4811.338623
273.054234,4136.915689,2812.782580,6513.812290
273.054542,2068.457845,1554.432478,7920.203579
273.054850,306.438199,-518.144159,10288.862594
273.055158,-2221.676944,-2294.638420,11769.274478
273.055466,-3064.381992,-2738.761985,12731.542202
273.055774,-3064.381992,-2368.659014,13175.665768
273.056082,-1915.238745,-1924.535449,12509.480420
273.056390,459.657299,-222.061783,11325.150913
273.056698,1685.410096,888.247130,9548.656652
273.057006,3217.601092,1998.556043,7994.224174
273.057314,3140.991542,1850.514855,7846.182985
273.057621,2298.286494,1850.514855,7624.121203
273.057929,1762.019645,962.267725,9326.594869
273.058237,-229.828649,-296.082377,10140.821405
273.058545,-1915.238745,-1850.514855,12509.480420
273.058853,-2834.553343,-2960.823768,13249.686362
273.059161,-3907.087040,-3478.967927,13175.665768
273.059469,-2451.505594,-2590.720797,12583.501014
273.059777,-536.266849,-814.226536,10732.986159
273.060085,1685.410096,888.247130,8512.368333
273.060393,3907.087040,2664.741391,6217.729913
273.060701,5592.497135,3701.029710,4959.379811
273.061009,5822.325785,3997.112087,4663.297435
273.061317,5515.887586,3552.988522,4737.318029
273.061625,4136.915689,3108.864956,6735.874072
273.061933,1838.629195,1332.370696,8364.327145
273.062241,76.609550,-740.205942,10732.986159
273.062548,-1991.848295,-1776.494261,11769.274478
273.062856,-2604.724693,-2960.823768,12731.542202
273.063164,-2604.724693,-2812.782580,13027.624579
273.063472,-1608.800546,-1628.453072,12139.377449
273.063780,306.438199,-296.082377,11029.068536
273.064088,2374.896044,962.267725,8882.471304
273.064396,3370.820191,1628.453072,8216.285956
273.064704,3140.991542,1998.556043,7105.977043
273.065012,2298.286494,2072.576638,7846.182985
273.065320,1838.629195,666.185348,9474.636058
273.065628,-383.047749,-740.205942,10732.986159
273.065936,-2374.896044,-2072.576638,12509.480420
273.066244,-2604.724693,-3108.864956,14063.912898
273.066552,-3064.381992,-2664.741391,12731.542202
273.066860,-2298.286494,-1998.556043,11621.233289
273.067168,0.000000,-222.061783,9992.780217
273.067475,1762.019645,1406.391290,7994.224174
273.067783,4060.306139,2886.803174,6365.771101
273.068091,4903.011187,3849.070898,4885.359217
273.068399,4979.620737,3330.926739,5329.482782
273.068707,4060.306139,2738.761985,6069.688724
273.069015,2528.115143,1480.411884,7624.121203
273.069323,995.924147,296.082377,9400.615463
273.069631,-919.314598,-1110.308913,11177.109724
273.069939,-2451.505594,-1850.514855,12065.356855
273.070247,-2987.772442,-2516.700203,12731.542202
273.070555,-2451.505594,-2146.597232,12805.562797
273.070863,-1225.752797,-814.226536,11547.212695
273.071171,919.314598,592.164754,9548.656652
273.071479,2374.896044,1332.370696,8438.347739
273.071787,3447.429741,1776.494261,7402.059420
273.072095,2145.067394,1702.473667,7698.141797
273.072403,1685.410096,1036.288319,9030.512492
273.072710,153.219100,-148.041188,10214.842000
273.073018,-1685.410096,-1406.391290,11695.253884
273.073326,-2911.162892,-2664.741391,13471.748144
273.073634,-3447.429741,-3256.906145,13249.686362
273.073942,-2987.772442,-1998.556043,12583.501014
273.074250,-1915.238745,-1406.391290,11103.089130
273.074558,1225.752797,592.164754,8808.450710
273.074866,2987.772442,2368.659014,6809.894666
273.075174,4673.182538,3404.947333,5699.585753
273.075482,4979.620737,3997.112087,4885.359217
273.075790,4596.572988,3404.947333,5255.462188
273.076098,3447.429741,2368.659014,6439.791695
273.076406,1915.238745,1406.391290,8216.285956
273.076714,612.876398,-888.247130,10288.862594
273.077022,-1838.629195,-2220.617826,12139.377449
273.077330,-2451.505594,-2442.679609,13027.624579
273.077637,-2834.553343,-2738.761985,13027.624579
273.077945,-1838.629195,-1480.411884,12065.356855
273.078253,0.000000,-0.000000,10584.944971
273.078561,1991.848295,1036.288319,9252.574275
273.078869,3294.210641,1924.535449,7624.121203
273.079177,3140.991542,1998.556043,7402.059420
273.079485,3064.381992,1258.350101,8290.306550
273.079793,1608.800546,814.226536,9252.574275
273.080101,76.609550,-592.164754,10510.924376
273.080409,-1455.581446,-1850.514855,12287.418637
273.080717,-2987.772442,-2960.823768,13175.665768
273.081025,-2834.553343,-2886.803174,13175.665768
273.081333,-2451.505594,-2294.638420,11917.315666
273.081641,-1149.143247,-814.226536,10140.821405
273.081949,2068.457845,1406.391290,8364.327145
273.082257,3600.648841,3034.844362,5921.647536
273.082564,5132.839837,3701.029710,5033.400406
273.082872,5592.497135,3478.967927,4441.235652
273.083180,4749.792088,3627.009116,5181.441594
273.083488,3370.820191,2442.679609,6661.853478
273.083796,1838.629195,666.185348,8438.347739
273.084104,153.219100,-1184.329507,11177.109724
273.084412,-1685.410096,-2442.679609,11843.295072
273.084720,-2757.943793,-3034.844362,12879.583391
273.085028,-2604.724693,-2664.741391,12953.603985
273.085336,-1455.581446,-962.267725,11695.253884
273.085644,1072.533697,444.123565,10584.944971
273.085952,1685.410096,1850.514855,9548.656652
273.086260,2911.162892,2072.576638,7846.182985
273.086568,2757.943793,2368.659014,7476.080014
273.086876,2145.067394,1332.370696,9178.553681
273.087184,766.095498,888.247130,9548.656652
273.087491,-766.095498,-962.267725,11547.212695
273.087799,-2374.896044,-2146.597232,13175.665768
273.088107,-3217.601092,-3404.947333,13249.686362
273.088415,-3294.210641,-3256.906145,13175.665768
273.088723,-2604.724693,-1998.556043,11917.315666
273.089031,153.219100,-0.000000,9622.677246
273.089339,2068.457845,2072.576638,7772.162391
273.089647,3983.696590,3330.926739,5477.523971
273.089955,5209.449386,4071.132681,4885.359217
273.090263,5132.839837,3849.070898,4737.318029
273.090571,4136.915689,3256.906145,5403.503377
273.090879,2757.943793,1998.556043,7328.038826
273.091187,1378.971896,444.123565,10066.800811
273.091495,-995.924147,-1850.514855,12287.418637
273.091803,-2681.334243,-2220.617826,12435.459826
273.092111,-3064.381992,-2886.803174,13249.686362
273.092418,-2528.115143,-2368.659014,12731.542202
273.092726,-1072.533697,-518.144159,11547.212695
273.093034,919.314598,740.205942,10288.862594
273.093342,1838.629195,1332.370696,8364.327145
273.093650,2911.162892,1776.494261,7772.162391
273.093958,2374.896044,1036.288319,8512.368333
273.094266,1378.971896,444.123565,8956.491898
273.094574,-229.828649,-296.082377,10288.862594
273.094882,-1685.410096,-2072.576638,12583.501014
273.095190,-2757.943793,-2738.761985,13323.706956
273.095498,-2987.772442,-2738.761985,13249.686362
273.095806,-2528.115143,-2368.659014,12805.562797
273.096114,0.000000,-666.185348,10510.924376
273.096422,1838.629195,1702.473667,8216.285956
273.096730,3677.258390,2960.823768,6069.688724
273.097038,5439.278036,3849.070898,5107.421000
273.097346,5362.668486,3923.091493,4737.318029
273.097653,5132.839837,3478.967927,4959.379811
273.097961,4213.525239,2664.741391,5921.647536
273.098269,2145.067394,1924.535449,8290.306550
273.098577,383.047749,-592.164754,10214.842000
273.098885,-1608.800546,-1998.556043,11843.295072
273.099193,-2604.724693,-3034.844362,13175.665768
273.099501,-2834.553343,-2738.761985,12583.501014
273.099809,-1685.410096,-1480.411884,12065.356855
273.100117,459.657299,-148.041188,11251.130318
273.100425,2298.286494,1184.329507,9400.615463
273.100733,3140.991542,1850.514855,7550.100608
273.101041,3217.601092,1850.514855,7846.182985
273.101349,2451.505594,1184.329507,8142.265362
273.101657,1455.581446,222.061783,9474.636058
273.101965,0.000000,-740.205942,10881.027347
273.102273,-1608.800546,-2368.659014,12361.439231
273.102580,-2757.943793,-2886.803174,13101.645173
273.102888,-2451.505594,-2590.720797,12213.398043
273.103196,-1685.410096,-1924.535449,11695.253884
273.103504,612.876398,-0.000000,9770.718434
273.103812,2987.772442,2294.638420,7254.018232
273.104120,4596.572988,3552.988522,6291.750507
273.104428,5515.887586,3923.091493,5107.421000
273.104736,4903.011187,4293.194464,4441.235652
273.105044,4443.353888,3552.988522,5625.565159
273.105352,2834.553343,1850.514855,7698.141797
273.105660,1149.143247,-0.000000,10066.800811
273.105968,-1838.629195,-1480.411884,11769.274478
273.106276,-3217.601092,-2812.782580,13027.624579
273.106584,-3447.429741,-3330.926739,13101.645173
273.106892,-3140.991542,-2590.720797,12953.603985
273.107200,-1532.190996,-888.247130,11843.295072
273.107507,842.705048,1184.329507,9696.697840
273.107815,2757.943793,1998.556043,7920.203579
273.108123,3217.601092,2294.638420,7254.018232
273.108431,3064.381992,2220.617826,7846.182985
273.108739,1991.848295,1628.453072,8438.347739
273.109047,229.828649,-74.020594,9918.759623
273.109355,-1225.752797,-1850.514855,12139.377449
273.109663,-2757.943793,-2664.741391,13175.665768
273.109971,-3753.867940,-3330.926739,13175.665768
273.110279,-3217.601092,-3256.906145,12879.583391
273.110587,-1608.800546,-1776.494261,11251.130318
273.110895,459.657299,518.144159,9548.656652
273.111203,3447.429741,2368.659014,7476.080014
273.111511,4136.915689,3701.029710,5699.585753
273.111819,4979.620737,3997.112087,4885.359217
273.112127,4979.620737,4219.173869,5255.462188
273.112434,3677.258390,3330.926739,5995.668130
273.112742,1302.362347,1258.350101,7994.224174
273.113050,306.438199,-222.061783,11177.109724
273.113358,-2068.457845,-2368.659014,12731.542202
273.113666,-3294.210641,-2960.823768,13027.624579
273.113974,-2987.772442,-3034.844362,13175.665768
273.114282,-2298.286494,-1850.514855,12361.439231
273.114590,-153.219100,-74.020594,11029.068536
273.114898,1991.848295,1554.432478,8808.450710
273.115206,2757.943793,2294.638420,7105.977043
273.115514,3140.991542,1628.453072,7328.038826
273.115822,2374.896044,1036.288319,7698.141797
273.116130,1225.752797,-0.000000,9474.636058
273.116438,-536.266849,-518.144159,10955.047942
273.116746,-1915.238745,-2072.576638,12583.501014
273.117054,-2834.553343,-2886.803174,12879.583391
273.117362,-2911.162892,-3034.844362,13249.686362
273.117669,-2604.724693,-2220.617826,12139.377449
273.117977,0.000000,-518.144159,10436.903782
273.118285,2757.943793,1332.370696,8142.265362
273.118593,4673.182538,2960.823768,5995.668130
273.118901,5822.325785,3997.112087,4885.359217
273.119209,5592.497135,4145.153275,4367.215058
273.119517,5056.230287,3775.050304,4885.359217
273.119825,3753.867940,2664.741391,6365.771101
273.120133,1762.019645,1258.350101,8808.450710
273.120441,0.000000,-962.267725,11103.089130
273.120749,-2221.676944,-1924.535449,12361.439231
273.121057,-2681.334243,-3256.906145,13101.645173
273.121365,-2834.553343,-2442.679609,12731.542202
273.121673,-919.314598,-518.144159,11621.233289
273.121981,1455.581446,814.226536,9992.780217
273.122289,2451.505594,2368.659014,8290.306550
273.122596,3294.210641,2368.659014,7550.100608
273.122904,3294.210641,1628.453072,7698.141797
273.123212,1685.410096,666.185348,8956.491898
273.123520,153.219100,-0.000000,9622.677246
273.123828,-1149.143247,-1924.535449,11991.336260
273.124136,-2987.772442,-2886.803174,13841.851115
273.124444,-3677.258390,-3627.009116,14211.954086
273.124752,-3677.258390,-3404.947333,13397.727550
273.125060,-1838.629195,-2368.659014,11769.274478
273.125368,689.485948,-370.102971,9474.636058
273.125676,2911.162892,2442.679609,7476.080014
273.125984,4749.792088,3552.988522,5699.585753
273.126292,5669.106685,4737.318029,4293.194464
273.126600,5286.058936,4515.256246,4441.235652
273.126908,4366.744339,3182.885551,5847.626942
273.127216,2757.943793,2220.617826,7105.977043
273.127524,1149.143247,592.164754,9918.759623
273.127832,-1302.362347,-1554.432478,11917.315666
273.128140,-2604.724693,-2294.638420,12509.480420
273.128448,-3983.696590,-2812.782580,12731.542202
273.128756,-2451.505594,-1628.453072,13027.624579
273.129064,-306.438199,-0.000000,10955.047942
273.129372,1225.752797,1850.514855,9030.512492
273.129680,2374.896044,2294.638420,8734.430116
273.129988,2451.505594,1998.556043,7994.224174
273.130295,1915.238745,1332.370696,8660.409521
273.130603,306.438199,-0.000000,9992.780217
273.130911,-995.924147,-1258.350101,11473.192101
273.131219,-3217.601092,-2368.659014,13027.624579
273.131527,-4060.306139,-3701.029710,14063.912898
273.131835,-4213.525239,-3627.009116,13027.624579
273.132143,-3064.381992,-3034.844362,12731.542202
273.132451,-1608.800546,-1184.329507,10658.965565
273.132759,1685.410096,592.164754,8438.347739
273.133067,3600.648841,2812.782580,7254.018232
273.133375,5439.278036,3849.070898,4737.318029
273.133683,6128.763984,4663.297435,3701.029710
273.133991,5515.887586,3849.070898,4663.297435
273.134299,4290.134789,2960.823768,6143.709319
273.134607,2528.115143,1924.535449,7550.100608
273.134915,536.266849,-444.123565,10362.883188
273.135223,-1072.533697,-1924.535449,11029.068536
273.135531,-1608.800546,-2442.679609,11769.274478
273.135839,-1991.848295,-2368.659014,12657.521608
273.136147,-919.314598,-1258.350101,11473.192101
273.136455,766.095498,592.164754,9770.718434
273.136763,2374.896044,1776.494261,8660.409521
273.137071,2911.162892,1850.514855,8068.244768
273.137379,2757.943793,1406.391290,7698.141797
273.137687,995.924147,1036.288319,9178.553681
273.137995,459.657299,-0.000000,10732.986159
273.138303,-1225.752797,-1924.535449,11695.253884
273.138611,-2298.286494,-2368.659014,13545.768739
273.138918,-3447.429741,-2886.803174,13545.768739
273.139226,-3140.991542,-3256.906145,13471.748144
273.139534,-2221.676944,-2220.617826,12139.377449
273.139842,76.609550,-518.144159,10214.842000
273.140150,2451.505594,1554.432478,7476.080014
273.140458,4903.011187,3256.906145,6291.750507
273.140766,5822.325785,4219.173869,4367.215058
273.141074,5669.106685,4293.194464,4145.153275
273.141382,5439.278036,3923.091493,5329.482782
273.141690,4060.306139,2960.823768,6365.771101
273.141998,1838.629195,1258.350101,8290.306550
273.142306,229.828649,-370.102971,10881.027347
273.142614,-1685.410096,-2146.597232,11843.295072
273.142922,-2221.676944,-2516.700203,12287.418637
273.143230,-2068.457845,-1924.535449,12509.480420
273.143538,-612.876398,-666.185348,11473.192101
273.143846,1072.533697,962.267725,9622.677246
273.144154,2528.115143,1998.556043,8438.347739
273.144462,2757.943793,1998.556043,7846.182985
273.144770,1915.238745,1332.370696,8586.388927
273.145078,766.095498,444.123565,9770.718434
273.145386,-383.047749,-888.247130,10881.027347
273.145694,-2068.457845,-1924.535449,12435.459826
273.146002,-3140.991542,-2664.741391,13545.768739
273.146310,-3830.477490,-3330.926739,13915.871710
273.146618,-3294.210641,-2738.761985,12953.603985
273.146926,-1838.629195,-1702.473667,11843.295072
273.147234,612.876398,296.082377,9178.553681
273.147541,2987.772442,1850.514855,7254.018232
273.147849,4673.182538,2812.782580,5921.647536
273.148157,5362.668486,4663.297435,4663.297435
273.148465,5056.230287,4219.173869,4737.318029
273.148773,3830.477490,3552.988522,5847.626942
273.149081,2911.162892,1850.514855,7698.141797
273.149389,612.876398,296.082377,9474.636058
273.149697,-1838.629195,-1554.432478,11473.192101
273.150005,-2068.457845,-2812.782580,12509.480420
273.150313,-3370.820191,-2812.782580,12509.480420
273.150621,-2374.896044,-1924.535449,12139.377449
273.150929,-459.657299,-370.102971,11103.089130
273.151237,1225.752797,1406.391290,9030.512492
273.151545,1915.238745,1628.453072,7994.224174
273.151853,2221.676944,1258.350101,7994.224174
273.152161,1455.581446,814.226536,8808.450710
273.152469,-383.047749,-666.185348,9696.697840
273.152777,-1455.581446,-1110.308913,10955.047942
273.153085,-2374.896044,-2294.638420,11991.336260
273.153393,-3294.210641,-2812.782580,13175.665768
273.153701,-2911.162892,-3108.864956,12879.583391
273.154009,-2221.676944,-2442.679609,11843.295072
273.154317,-536.266849,-1406.391290,10214.842000
273.154625,1915.238745,1184.329507,7624.121203
273.154933,4290.134789,2516.700203,6587.832884
273.155241,5439.278036,3552.988522,4959.379811
273.155549,5975.544884,4515.256246,4367.215058
273.155857,4903.011187,3627.009116,5107.421000
273.156165,3524.039291,2368.659014,6365.771101
273.156472,1608.800546,1184.329507,8586.388927
273.156780,153.219100,-666.185348,11177.109724
273.157088,-1608.800546,-1850.514855,12139.377449
273.157396,-2681.334243,-2368.659014,12435.459826
273.157704,-2068.457845,-2368.659014,12509.480420
273.158012,-995.924147,-814.226536,11473.192101
273.158320,612.876398,814.226536,10658.965565
273.158628,2451.505594,1850.514855,9474.636058
273.158936,2451.505594,2220.617826,7994.224174
273.159244,2145.067394,1702.473667,8734.430116
273.159552,1991.848295,666.185348,9400.615463
273.159860,459.657299,-518.144159,10362.883188
273.160168,-919.314598,-1628.453072,12139.377449
273.160476,-1762.019645,-1998.556043,12583.501014
273.160784,-2604.724693,-2442.679609,13101.645173
273.161092,-2298.286494,-2294.638420,12953.603985
273.161400,-766.095498,-1406.391290,11103.089130
273.161708,919.314598,148.041188,9326.594869
273.162016,3370.820191,2516.700203,7105.977043
273.162324,5132.839837,3256.906145,5403.503377
273.162632,6435.202183,4441.235652,4663.297435
273.162940,5975.544884,4219.173869,4145.153275
273.163248,4673.182538,3256.906145,5033.400406
273.163556,2681.334243,1998.556043,7105.977043
273.163864,1072.533697,-222.061783,9770.718434
273.164172,-1225.752797,-1850.514855,11621.233289
273.164480,-2681.334243,-2812.782580,12657.521608
273.164788,-2834.553343,-3552.988522,13841.851115
273.165095,-2374.896044,-2812.782580,12805.562797
273.165403,-1225.752797,-1036.288319,11917.315666
273.165711,842.705048,740.205942,9992.780217
273.166019,2221.676944,1776.494261,8512.368333
273.166327,2145.067394,1998.556043,7994.224174
273.166635,1762.019645,1480.411884,8216.285956
273.166943,1072.533697,1036.288319,9400.615463
273.167251,-153.219100,-0.000000,10288.862594
273.167559,-1915.238745,-1110.308913,11621.233289
273.167867,-2834.553343,-2368.659014,12509.480420
273.168175,-3524.039291,-3330.926739,13471.748144
273.168483,-3217.601092,-2442.679609,12361.439231
273.168791,-1608.800546,-1554.432478,11103.089130
273.169099,459.657299,148.041188,9252.574275
273.169407,3370.820191,2220.617826,7179.997637
273.169715,5056.230287,3404.947333,5625.565159
273.170023,5592.497135,4219.173869,4885.359217
273.170331,4673.182538,3923.091493,4441.235652
273.170639,3294.210641,2886.803174,6143.709319
273.170947,2221.676944,1184.329507,8512.368333
273.171255,-383.047749,-222.061783,10214.842000
273.171563,-1991.848295,-2442.679609,12435.459826
273.171871,-3370.820191,-2812.782580,13175.665768
273.172179,-3064.381992,-3108.864956,12879.583391
273.172487,-1762.019645,-2368.659014,12435.459826
273.172795,0.000000,-296.082377,10881.027347
273.173103,2221.676944,1850.514855,8956.491898
273.173411,2681.334243,2590.720797,7698.141797
273.173719,3294.210641,2072.576638,7698.141797
273.174026,1762.019645,1554.432478,7402.059420
273.174334,1455.581446,296.082377,9474.636058
273.174642,0.000000,-370.102971,10807.006753
273.174950,-1991.848295,-1998.556043,12509.480420
273.175258,-3294.210641,-2738.761985,13027.624579
273.175566,-3370.820191,-3627.009116,13841.851115
273.175874,-2604.724693,-3034.844362,12287.418637
273.176182,-1455.581446,-962.267725,9918.759623
273.176490,1685.410096,740.205942,8956.491898
273.176798,4136.915689,2516.700203,6587.832884
273.177106,5286.058936,3923.091493,5847.626942
273.177414,5975.544884,4071.132681,5033.400406
273.177722,4826.401637,3108.864956,4885.359217
273.178030,3447.429741,2442.679609,6957.935855
273.178338,1532.190996,740.205942,8660.409521
273.178646,0.000000,-592.164754,10955.047942
273.178954,-1991.848295,-2072.576638,12583.501014
273.179262,-2451.505594,-2886.803174,12953.603985
273.179570,-2451.505594,-2368.659014,12435.459826
273.179878,-689.485948,-740.205942,11695.253884
273.180186,1378.971896,1036.288319,9548.656652
273.180494,3064.381992,2738.761985,7920.203579
273.180802,3830.477490,2812.782580,7698.141797
273.181110,3370.820191,2442.679609,7105.977043
273.181418,1838.629195,1184.329507,8216.285956
273.181726,306.438199,518.144159,10584.944971
273.182034,-1072.533697,-666.185348,12065.356855
273.182342,-1991.848295,-2072.576638,12731.542202
273.182649,-3600.648841,-3034.844362,13545.768739
273.182957,-3677.258390,-3034.844362,13767.830521
273.183265,-2451.505594,-2072.576638,12287.418637
273.183573,-995.924147,-0.000000,10066.800811
273.183881,2145.067394,1628.453072,8364.327145
273.184189,4979.620737,3034.844362,6291.750507
273.184497,4826.401637,4293.194464,5329.482782
273.184805,4443.353888,3997.112087,4663.297435
273.185113,4136.915689,2960.823768,5625.565159
273.185421,2451.505594,1480.411884,7920.203579
273.185729,689.485948,-74.020594,9770.718434
273.186037,-1685.410096,-1480.411884,11325.150913
273.186345,-2911.162892,-2664.741391,12435.459826
273.186653,-2987.772442,-2960.823768,12731.542202
273.186961,-1915.238745,-2146.597232,12361.439231
273.187269,-612.876398,-0.000000,10881.027347
273.187577,1608.800546,1406.391290,8660.409521
273.187885,2834.553343,2368.659014,7624.121203
273.188193,2911.162892,2220.617826,7328.038826
273.188501,2374.896044,1480.411884,7698.141797
273.188809,1225.752797,962.267725,8586.388927
273.189117,-306.438199,-666.185348,10288.862594
273.189425,-1532.190996,-2368.659014,12361.439231
273.189733,-3294.210641,-3182.885551,13619.789333
273.190041,-4060.306139,-3997.112087,13249.686362
273.190349,-3370.820191,-3256.906145,12731.542202
273.190657,-1838.629195,-1850.514855,11251.130318
273.190965,842.705048,592.164754,8808.450710
273.191272,3600.648841,2886.803174,7105.977043
273.191580,5898.935335,3552.988522,5551.544565
273.191888,5822.325785,4219.173869,4367.215058
273.192196,5362.668486,3627.009116,4959.379811
273.192504,4060.306139,2442.679609,6365.771101
273.192812,1991.848295,592.164754,8438.347739
273.193120,0.000000,-592.164754,10214.842000
273.193428,-1225.752797,-2442.679609,12435.459826
273.193736,-2451.505594,-2590.720797,13027.624579
273.194044,-2374.896044,-2812.782580,12805.562797
273.194352,-842.705048,-1184.329507,11251.130318
273.194660,995.924147,592.164754,9918.759623
273.194968,2528.115143,2220.617826,8586.388927
273.195276,3524.039291,2442.679609,7476.080014
273.195584,2987.772442,2294.638420,7550.100608
273.195892,1991.848295,1184.329507,8142.265362
273.196200,689.485948,296.082377,9770.718434
273.196508,-1072.533697,-1554.432478,12287.418637
273.196816,-2987.772442,-2664.741391,13323.706956
273.197124,-3370.820191,-3404.947333,13767.830521
273.197432,-3907.087040,-3552.988522,13767.830521
273.197740,-3064.381992,-2590.720797,12879.583391
273.198048,-229.828649,-222.061783,10436.903782
273.198356,2604.724693,2146.597232,7624.121203
273.198664,5209.449386,3478.967927,5847.626942
273.198972,6588.421283,4515.256246,4589.276840
273.199280,5975.544884,4589.276840,4441.235652
273.199588,5056.230287,3256.906145,5107.421000
273.199896,3677.258390,2516.700203,6735.874072
273.200203,1532.190996,592.164754,9400.615463
273.200511,-153.219100,-888.247130,11547.212695
273.200819,-2068.457845,-2146.597232,11917.315666
273.201127,-2145.067394,-2368.659014,12657.521608
273.201435,-1302.362347,-1776.494261,12065.356855
273.201743,0.000000,-0.000000,11103.089130
273.202051,1685.410096,1258.350101,9844.739029
273.202359,2221.676944,2368.659014,8438.347739
273.202667,2528.115143,2294.638420,8216.285956
273.202975,2068.457845,2072.576638,8512.368333
273.203283,612.876398,814.226536,9178.553681
273.203591,-842.705048,-814.226536,11325.150913
273.203899,-2681.334243,-1998.556043,12953.603985
273.204207,-3217.601092,-3330.926739,14359.995275
273.204515,-4673.182538,-3997.112087,14211.954086
273.204823,-4213.525239,-3627.009116,13397.727550
273.205131,-2451.505594,-2294.638420,11103.089130
273.205439,76.609550,518.144159,8808.450710
273.205747,3370.820191,2516.700203,7179.997637
273.206055,5745.716235,4293.194464,4737.318029
273.206363,6435.202183,4885.359217,3552.988522
273.206671,5439.278036,4441.235652,4071.132681
273.206979,4903.011187,2960.823768,5181.441594
273.207287,2681.334243,1628.453072,7328.038826
273.207595,383.047749,-444.123565,9844.739029
273.207903,-1608.800546,-2220.617826,11621.233289
273.208211,-2757.943793,-3256.906145,12435.459826
273.208519,-2451.505594,-3108.864956,12879.583391
273.208826,-1915.238745,-2294.638420,12361.439231
273.209134,229.828649,-370.102971,10288.862594
273.209442,1838.629195,1406.391290,8734.430116
273.209750,2834.553343,1998.556043,8068.244768
273.210058,2451.505594,1776.494261,7402.059420
273.210366,1532.190996,1258.350101,8734.430116
273.210674,919.314598,296.082377,9474.636058
273.210982,-995.924147,-1554.432478,10584.944971
273.211290,-2528.115143,-2516.700203,13323.706956
273.211598,-3370.820191,-3701.029710,13693.809927
273.211906,-4290.134789,-3775.050304,13619.789333
273.212214,-3217.601092,-2960.823768,12805.562797
273.212522,-919.314598,-962.267725,10584.944971
273.212830,1991.848295,1332.370696,8216.285956
273.213138,4673.182538,3256.906145,6217.729913
273.213446,6281.983084,4441.235652,4737.318029
273.213754,6281.983084,4293.194464,4145.153275
273.214062,4903.011187,3849.070898,4589.276840
273.214370,3140.991542,2738.761985,6661.853478
273.214678,1685.410096,740.205942,8882.471304
273.214986,-842.705048,-370.102971,10584.944971
273.215294,-2221.676944,-1924.535449,12065.356855
273.215602,-2451.505594,-2072.576638,12657.521608
273.215910,-1608.800546,-2294.638420,12657.521608
273.216218,-766.095498,-1036.288319,11843.295072
273.216526,1532.190996,962.267725,10140.821405
273.216834,2451.505594,1924.535449,8882.471304
273.217142,2451.505594,1998.556043,8290.306550
273.217449,2681.334243,1850.514855,8142.265362
273.217757,1608.800546,888.247130,8808.450710
273.218065,306.438199,-148.041188,10362.883188
273.218373,-689.485948,-1332.370696,11547.212695
273.218681,-2604.724693,-2664.741391,13841.851115
273.218989,-3600.648841,-3330.926739,14285.974681
273.219297,-3064.381992,-2664.741391,12879.583391
273.219605,-2221.676944,-1258.350101,11621.233289
273.219913,153.219100,222.061783,9992.780217
273.220221,3370.820191,2664.741391,7476.080014
273.220529,5132.839837,4367.215058,6291.750507
273.220837,5745.716235,4811.338623,5107.421000
273.221145,5286.058936,3923.091493,4663.297435
273.221453,3294.210641,3182.885551,6439.791695
273.221761,1915.238745,1628.453072,7846.182985
273.222069,612.876398,-148.041188,10066.800811
273.222377,-1378.971896,-1406.391290,11843.295072
273.222685,-2221.676944,-2960.823768,12953.603985
273.222993,-2451.505594,-2812.782580,12731.542202
273.223301,-2068.457845,-2294.638420,12361.439231
273.223609,76.609550,-518.144159,11029.068536
273.223917,2145.067394,814.226536,9104.533087
273.224225,2451.505594,1998.556043,8068.244768
273.224534,2681.334243,2146.597232,7476.080014
273.224842,2528.115143,1850.514855,7772.162391
273.225150,1225.752797,962.267725,8808.450710
273.225458,0.000000,-222.061783,10362.883188
273.225766,-1149.143247,-2072.576638,11769.274478
273.226074,-2834.553343,-3034.844362,12731.542202
273.226382,-3907.087040,-3775.050304,13027.624579
273.226690,-3140.991542,-2590.720797,11843.295072
273.226998,-1149.143247,-1110.308913,10732.986159
273.227306,1762.019645,1036.288319,7920.203579
273.227614,3370.820191,3108.864956,5921.647536
273.227922,5362.668486,3775.050304,5329.482782
273.228230,5286.058936,3849.070898,4145.153275
273.228539,4213.525239,3034.844362,5255.462188
273.228847,3140.991542,962.267725,6587.832884
273.229155,1072.533697,370.102971,8438.347739
273.229463,-689.485948,-1924.535449,11399.171507
273.229771,-2221.676944,-2368.659014,12287.418637
273.230079,-2374.896044,-2886.803174,12879.583391
273.230387,-2604.724693,-2664.741391,12879.583391
273.230695,-536.266849,-1480.411884,12361.439231
273.231003,842.705048,592.164754,10288.862594
273.231311,2298.286494,1776.494261,8586.388927
273.231619,3140.991542,2368.659014,7476.080014
273.231927,3294.210641,2368.659014,7179.997637
273.232236,2451.505594,2072.576638,8216.285956
273.232544,1608.800546,666.185348,9104.533087
273.232852,-306.438199,-370.102971,10066.800811
273.233160,-1991.848295,-2368.659014,12287.418637
273.233468,-2911.162892,-3627.009116,13619.789333
273.233776,-3447.429741,-3552.988522,13545.768739
273.234084,-2451.505594,-2294.638420,11991.336260
273.234392,-459.657299,-0.000000,9622.677246
273.234700,2374.896044,2516.700203,8068.244768
273.235008,4366.744339,4145.153275,6143.709319
273.235316,5898.935335,4515.256246,5033.400406
273.235624,5209.449386,3627.009116,4885.359217
273.235933,3907.087040,2664.741391,6365.771101
273.236241,2298.286494,1998.556043,7920.203579
273.236549,229.828649,148.041188,10510.924376
273.236857,-1532.190996,-1332.370696,12361.439231
273.237165,-2834.553343,-2368.659014,13027.624579
273.237473,-2834.553343,-2738.761985,13545.768739
273.237781,-2298.286494,-2516.700203,13027.624579
273.238089,-1149.143247,-814.226536,11177.109724
273.238397,1149.143247,1036.288319,10288.862594
273.238705,2604.724693,1850.514855,8660.409521
273.239013,2987.772442,2368.659014,7698.141797
273.239321,2834.553343,2368.659014,7624.121203
273.239630,2068.457845,1850.514855,8364.327145
273.239938,153.219100,444.123565,9474.636058
273.240246,-766.095498,-888.247130,11177.109724
273.240554,-2298.286494,-2442.679609,13175.665768
273.240862,-3753.867940,-3330.926739,13693.809927
273.241170,-3217.601092,-2886.803174,12657.521608
273.241478,-2145.067394,-1554.432478,11547.212695
273.241786,0.000000,444.123565,9252.574275
273.242094,2451.505594,2368.659014,7254.018232
273.242402,4596.572988,3997.112087,6291.750507
273.242710,4979.620737,4293.194464,4589.276840
273.243018,4519.963438,3034.844362,4885.359217
273.243326,3140.991542,2368.659014,6513.812290
273.243635,2221.676944,518.144159,8142.265362
273.243943,0.000000,-592.164754,10362.883188
273.244251,-2145.067394,-2146.597232,11991.336260
273.244559,-2068.457845,-3034.844362,12509.480420
273.244867,-2834.553343,-3108.864956,12065.356855
273.245175,-1225.752797,-2368.659014,12139.377449
273.245483,0.000000,-518.144159,10288.862594
273.245791,2451.505594,1480.411884,8512.368333
273.246099,3217.601092,2368.659014,7328.038826
273.246407,3447.429741,2516.700203,7105.977043
273.246715,2834.553343,1850.514855,7550.100608
273.247023,1608.800546,740.205942,8290.306550
273.247332,229.828649,-814.226536,9918.759623
273.247640,-1608.800546,-1998.556043,12213.398043
273.247948,-2987.772442,-3775.050304,13619.789333
273.248256,-3907.087040,-3627.009116,13471.748144
273.248564,-2987.772442,-2368.659014,12731.542202
273.248872,-1225.752797,-1184.329507,10658.965565
273.249180,1302.362347,1110.308913,8438.347739
273.249488,3907.087040,2886.803174,6365.771101
273.249796,5132.839837,3627.009116,4515.256246
273.250104,5132.839837,3775.050304,5033.400406
273.250412,4060.306139,2368.659014,5551.544565
273.250720,2298.286494,1406.391290,7105.977043
273.251029,1149.143247,740.205942,8956.491898
273.251337,-536.266849,-1036.288319,11251.130318
273.251645,-2145.067394,-2146.597232,12731.542202
273.251953,-2528.115143,-2072.576638,12805.562797
273.252261,-1685.410096,-2220.617826,12509.480420
273.252569,-612.876398,-666.185348,11325.150913
273.252877,1532.190996,666.185348,9918.759623
273.253185,2834.553343,2072.576638,8438.347739
273.253493,3907.087040,2294.638420,7254.018232
273.253801,3600.648841,2146.597232,7550.100608
273.254109,2298.286494,1332.370696,8364.327145
273.254417,995.924147,-74.020594,10140.821405
273.254726,-766.095498,-1702.473667,11843.295072
273.255034,-2834.553343,-2664.741391,13397.727550
273.255342,-3217.601092,-3552.988522,14359.995275
273.255650,-3370.820191,-2812.782580,13323.706956
273.255958,-2451.505594,-1184.329507,12139.377449
273.256266,-229.828649,666.185348,10288.862594
273.256574,2987.772442,3478.967927,7698.141797
273.256882,4290.134789,4737.318029,5477.523971
273.257190,4903.011187,4441.235652,5181.441594
273.257498,4979.620737,3108.864956,5699.585753
273.257806,3140.991542,3108.864956,6217.729913
273.258114,1072.533697,1554.432478,8808.450710
273.258422,0.000000,-0.000000,10732.986159
273.258731,-2068.457845,-1776.494261,12065.356855
273.259039,-2987.772442,-2738.761985,13249.686362
273.259347,-2681.334243,-2812.782580,12731.542202
273.259655,-1455.581446,-1998.556043,12509.480420
273.259963,0.000000,-74.020594,10362.883188
273.260271,2298.286494,1480.411884,8438.347739
273.260579,3830.477490,1702.473667,7476.080014
273.260887,4136.915689,2294.638420,7105.977043
273.261195,3524.039291,1924.535449,6809.894666
273.261503,1762.019645,814.226536,8512.368333
273.261811,153.219100,-888.247130,10288.862594
273.262119,-1455.581446,-1850.514855,11473.192101
273.262428,-2757.943793,-3701.029710,13693.809927
273.262736,-4366.744339,-4071.132681,13323.706956
273.263044,-4366.744339,-2960.823768,12065.356855
273.263352,-1685.410096,-1406.391290,10955.047942
273.263660,995.924147,1036.288319,8216.285956
273.263968,3370.820191,3182.885551,6069.688724
273.264276,5056.230287,4367.215058,4811.338623
273.264584,4979.620737,3849.070898,4441.235652
273.264892,4826.401637,3775.050304,4959.379811
273.265200,3217.601092,2146.597232,6883.915261
273.265508,1225.752797,592.164754,8364.327145
273.265816,-766.095498,-1258.350101,10881.027347
273.266125,-2604.724693,-2812.782580,12583.501014
273.266433,-3140.991542,-3849.070898,13101.645173
273.266741,-3140.991542,-3182.885551,12805.562797
273.267049,-1915.238745,-2368.659014,11769.274478
273.267357,229.828649,-0.000000,9844.739029
273.267665,2221.676944,1258.350101,8956.491898
273.267973,3753.867940,2146.597232,7476.080014
273.268281,3370.820191,1776.494261,7179.997637
273.268589,2451.505594,1554.432478,7920.203579
273.268897,1455.581446,148.041188,9252.574275
273.269205,-536.266849,-518.144159,10732.986159
273.269513,-1685.410096,-2442.679609,12583.501014
273.269822,-2528.115143,-3108.864956,13323.706956
273.270130,-3753.867940,-2960.823768,13249.686362
273.270438,-2681.334243,-2072.576638,12065.356855
273.270746,0.000000,-0.000000,10288.862594
273.271054,2221.676944,2220.617826,7624.121203
273.271362,4290.134789,3552.988522,5625.565159
273.271670,5515.887586,3701.029710,5255.462188
273.271978,5209.449386,3849.070898,4589.276840
273.272286,3830.477490,3256.906145,5847.626942
273.272594,2604.724693,2664.741391,7105.977043
273.272902,1225.752797,518.144159,9844.739029
273.273210,-1149.143247,-962.267725,11843.295072
273.273518,-2145.067394,-2368.659014,12953.603985
273.273827,-2834.553343,-2516.700203,13249.686362
273.274135,-2374.896044,-2368.659014,12731.542202
273.274443,-689.485948,-1110.308913,12139.377449
273.274751,1149.143247,370.102971,10140.821405
273.275059,2911.162892,1776.494261,8586.388927
273.275367,3447.429741,2664.741391,7772.162391
273.275675,3370.820191,2368.659014,7624.121203
273.275983,2221.676944,1332.370696,8586.388927
273.276291,612.876398,148.041188,9770.718434
273.276599,-1072.533697,-1036.288319,12287.418637
273.276907,-3217.601092,-2442.679609,13027.624579
273.277215,-3217.601092,-3034.844362,14137.933492
273.277524,-3370.820191,-2812.782580,13175.665768
273.277832,-1991.848295,-1702.473667,11695.253884
273.278140,306.438199,518.144159,9696.697840
273.278448,2374.896044,2664.741391,6957.935855
273.278756,4903.011187,3627.009116,5921.647536
273.279064,5515.887586,4293.194464,4663.297435
273.279372,5286.058936,3775.050304,5107.421000
273.279680,4136.915689,2664.741391,6217.729913
273.279988,2451.505594,1850.514855,7698.141797
273.280296,919.314598,-0.000000,9770.718434
273.280604,-766.095498,-1480.411884,11177.109724
273.280912,-2221.676944,-2294.638420,12213.398043
273.281221,-2451.505594,-2738.761985,12361.439231
273.281529,-1838.629195,-2072.576638,11917.315666
273.281837,-383.047749,-222.061783,10807.006753
273.282145,1838.629195,666.185348,8808.450710
273.282453,2528.115143,1776.494261,7920.203579
273.282761,3753.867940,740.205942,7920.203579
273.283069,2451.505594,814.226536,8216.285956
273.283377,536.266849,-222.061783,9326.594869
273.283685,-766.095498,-1702.473667,11251.130318
273.283993,-2145.067394,-3034.844362,12435.459826
273.284301,-2911.162892,-3701.029710,13175.665768
273.284609,-3907.087040,-3552.988522,12509.480420
273.284918,-2221.676944,-2738.761985,11621.233289
273.285226,-612.876398,-666.185348,9992.780217
273.285534,1532.190996,1554.432478,7328.038826
273.285842,4290.134789,3478.967927,5477.523971
273.286150,5362.668486,4367.215058,4663.297435
273.286458,5822.325785,4293.194464,4589.276840
273.286766,4060.306139,3627.009116,5403.503377
273.287074,2604.724693,2072.576638,6957.935855
273.287382,536.266849,296.082377,8882.471304
273.287690,-1378.971896,-962.267725,11547.212695
273.287998,-2987.772442,-2590.720797,12879.583391
273.288306,-3600.648841,-2960.823768,13027.624579
273.288614,-3294.210641,-2368.659014,13027.624579
273.288923,-1225.752797,-962.267725,11917.315666
273.289231,1149.143247,1184.329507,9918.759623
273.289539,2604.724693,2886.803174,8586.388927
273.289847,3830.477490,3182.885551,7994.224174
273.290155,2987.772442,2220.617826,7994.224174
273.290463,1915.238745,1110.308913,8956.491898
273.290771,383.047749,-518.144159,10436.903782
273.291079,-1532.190996,-1776.494261,11621.233289
273.291387,-2834.553343,-2960.823768,13693.809927
273.291695,-3600.648841,-4145.153275,14211.954086
273.292003,-3064.381992,-2812.782580,12879.583391
273.292311,-1838.629195,-1406.391290,11843.295072
273.292620,612.876398,444.123565,8660.409521
273.292928,3524.039291,3034.844362,7105.977043
273.293236,4979.620737,4515.256246,5329.482782
273.293544,5975.544884,5255.462188,4737.318029
273.293852,5439.278036,5033.400406,4737.318029
273.294160,4673.182538,3997.112087,5773.606348
273.294468,2604.724693,2146.597232,8142.265362
273.294776,229.828649,-296.082377,10955.047942
273.295084,-1762.019645,-2368.659014,12583.501014
273.295392,-3524.039291,-3404.947333,13397.727550
273.295700,-3907.087040,-3404.947333,13693.809927
273.296008,-2528.115143,-2368.659014,12583.501014
273.296317,153.219100,-518.144159,10955.047942
273.296625,1762.019645,1628.453072,8882.471304
273.296933,3983.696590,2442.679609,6957.935855
273.297241,4443.353888,2146.597232,7031.956449
273.297549,3447.429741,1998.556043,7254.018232
273.297857,1991.848295,888.247130,8586.388927
273.298165,229.828649,-888.247130,10214.842000
273.298473,-1915.238745,-2368.659014,12213.398043
273.298781,-2987.772442,-3404.947333,13767.830521
273.299089,-3600.648841,-3997.112087,13323.706956
273.299397,-3217.601092,-2960.823768,13027.624579
273.299705,-612.876398,-1702.473667,11251.130318
273.300014,1378.971896,1110.308913,8216.285956
273.300322,3524.039291,3330.926739,6439.791695
273.300630,5439.278036,4145.153275,4959.379811
273.300938,5898.935335,4663.297435,3997.112087
273.301246,5439.278036,3775.050304,4737.318029
273.301554,4443.353888,2738.761985,6439.791695
273.301862,1608.800546,814.226536,7846.182985
273.302170,-766.095498,-1110.308913,10658.965565
273.302478,-2298.286494,-2664.741391,12361.439231
273.302786,-3370.820191,-3404.947333,13323.706956
273.303094,-3753.867940,-3404.947333,13027.624579
273.303402,-2528.115143,-2146.597232,12361.439231
273.303710,0.000000,-222.061783,10140.821405
273.304019,2298.286494,1998.556043,8808.450710
273.304327,3600.648841,2072.576638,7698.141797
273.304635,3600.648841,1924.535449,7328.038826
273.304943,2451.505594,1258.350101,8290.306550
273.305251,383.047749,222.061783,9474.636058
273.305559,-689.485948,-1406.391290,11177.109724
273.305867,-2451.505594,-2442.679609,12657.521608
273.306175,-3524.039291,-3330.926739,13767.830521
273.306483,-3983.696590,-3552.988522,13767.830521
273.306791,-2528.115143,-2220.617826,12361.439231
273.307099,0.000000,-74.020594,10362.883188
273.307407,1685.410096,1924.535449,7624.121203
273.307716,4443.353888,3775.050304,6291.750507
273.308024,5592.497135,4737.318029,4737.318029
273.308332,5898.935335,4367.215058,4515.256246
273.308640,5286.058936,3997.112087,4959.379811
273.308948,3294.210641,2516.700203,6735.874072
273.309256,1838.629195,592.164754,9104.533087
273.309564,-306.438199,-666.185348,11399.171507
273.309872,-2068.457845,-1850.514855,12583.501014
273.310180,-3140.991542,-2738.761985,13101.645173
273.310488,-2374.896044,-2146.597232,12731.542202
273.310796,-1072.533697,-814.226536,11843.295072
273.311104,766.095498,370.102971,10214.842000
273.311413,2987.772442,2146.597232,9252.574275
273.311721,2451.505594,2220.617826,8142.265362
273.312029,2528.115143,1850.514855,8142.265362
273.312337,1378.971896,592.164754,9400.615463
273.312645,0.000000,-518.144159,10955.047942
273.312953,-1608.800546,-2146.597232,12139.377449
273.313261,-2834.553343,-2960.823768,13027.624579
273.313569,-3600.648841,-3627.009116,13619.789333
273.313877,-2987.772442,-2812.782580,12953.603985
273.314185,-1991.848295,-2220.617826,11547.212695
273.314493,459.657299,-370.102971,9622.677246
273.314801,3064.381992,2220.617826,7031.956449
273.315110,4749.792088,3849.070898,5255.462188
273.315418,5822.325785,4515.256246,4441.235652
273.315726,5975.544884,4219.173869,4515.256246
273.316034,4903.011187,3478.967927,5477.523971
273.316342,2757.943793,1850.514855,6957.935855
273.316650,919.314598,444.123565,9400.615463
273.316958,-612.876398,-1554.432478,11103.089130
273.317266,-1838.629195,-1998.556043,11695.253884
273.317574,-2298.286494,-2072.576638,11843.295072
273.317882,-1915.238745,-1628.453072,11769.274478
273.318190,-306.438199,-148.041188,10658.965565
273.318498,1532.190996,1628.453072,9548.656652
273.318806,2298.286494,2368.659014,8216.285956
273.319115,2451.505594,1850.514855,7772.162391
273.319423,1762.019645,740.205942,8734.430116
273.319731,0.000000,-592.164754,10584.944971
273.320039,-1685.410096,-2220.617826,11843.295072
273.320347,-3753.867940,-3182.885551,13323.706956
273.320655,-4136.915689,-4071.132681,14211.954086
273.320963,-3907.087040,-4071.132681,13767.830521
273.321271,-2911.162892,-2442.679609,12139.377449
273.321579,-1225.752797,-1406.391290,10214.842000
273.321887,1608.800546,1554.432478,7920.203579
273.322195,3907.087040,3478.967927,5699.585753
273.322503,4979.620737,4811.338623,4219.173869
273.322812,6052.154434,4737.318029,4515.256246
273.323120,5439.278036,4293.194464,4515.256246
273.323428,3600.648841,2738.761985,5773.606348
273.323736,2145.067394,1184.329507,7920.203579
273.324044,-153.219100,-1184.329507,10140.821405
273.324352,-2451.505594,-2294.638420,12065.356855
273.324660,-3064.381992,-2886.803174,12509.480420
273.324968,-2911.162892,-2516.700203,12879.583391
273.325276,-1762.019645,-1480.411884,11695.253884
273.325584,536.266849,666.185348,10510.924376
273.325893,2451.505594,1998.556043,8808.450710
273.326201,2911.162892,2516.700203,7772.162391
273.326509,2528.115143,1554.432478,8216.285956
273.326817,1685.410096,370.102971,9252.574275
273.327125,-612.876398,-740.205942,10362.883188
273.327433,-2451.505594,-2368.659014,11843.295072
273.327741,-3447.429741,-3478.967927,14063.912898
273.328049,-4443.353888,-4145.153275,14211.954086
273.328358,-3677.258390,-3256.906145,13767.830521
273.328666,-2528.115143,-2442.679609,12509.480420
273.328974,-459.657299,-0.000000,10140.821405
273.329282,2604.724693,2146.597232,7179.997637
273.329590,4979.620737,4219.173869,5477.523971
273.329898,6052.154434,5329.482782,4293.194464
273.330206,6588.421283,5033.400406,4219.173869
273.330514,5362.668486,5329.482782,4293.194464
273.330823,3677.258390,2738.761985,6365.771101
273.331131,1455.581446,1332.370696,9252.574275
273.331439,0.000000,-222.061783,10955.047942
273.331747,-1838.629195,-1628.453072,12287.418637
273.332055,-3294.210641,-2738.761985,13249.686362
273.332363,-2451.505594,-1998.556043,12805.562797
273.332671,-536.266849,-148.041188,11251.130318
273.332979,1455.581446,888.247130,9918.759623
273.333287,2757.943793,1998.556043,8438.347739
273.333596,3370.820191,1924.535449,7920.203579
273.333904,2451.505594,1332.370696,8882.471304
273.334212,766.095498,-148.041188,9696.697840
273.334520,-689.485948,-1480.411884,11251.130318
273.334828,-2298.286494,-2590.720797,12509.480420
273.335136,-2757.943793,-3256.906145,13175.665768
273.335444,-2911.162892,-3923.091493,13397.727550
273.335752,-2298.286494,-3256.906145,12583.501014
273.336061,-766.095498,-1924.535449,10955.047942
273.336369,766.095498,296.082377,9104.533087
273.336677,3524.039291,2368.659014,7031.956449
273.336985,5362.668486,3923.091493,5033.400406
273.337293,6205.373534,4737.318029,4293.194464
273.337601,5822.325785,4367.215058,3923.091493
273.337909,4673.182538,3330.926739,5181.441594
273.338217,3447.429741,2146.597232,6809.894666
273.338525,1149.143247,-74.020594,9474.636058
273.338834,-1608.800546,-1110.308913,10436.903782
273.339142,-2298.286494,-2146.597232,12287.418637
273.339450,-2987.772442,-2368.659014,12287.418637
273.339758,-2298.286494,-1924.535449,12435.459826
273.340066,-459.657299,-148.041188,10881.027347
273.340374,1455.581446,1184.329507,9104.533087
273.340682,2911.162892,1480.411884,8364.327145
273.340990,2911.162892,962.267725,8512.368333
273.341299,1378.971896,148.041188,9326.594869
273.341607,-229.828649,-888.247130,9992.780217
273.341915,-1685.410096,-1628.453072,11473.192101
273.342223,-2757.943793,-2960.823768,12731.542202
273.342531,-3294.210641,-3627.009116,13619.789333
273.342839,-2681.334243,-3701.029710,13545.768739
273.343147,-2757.943793,-2664.741391,11843.295072
273.343455,-612.876398,-1258.350101,11177.109724
273.343764,1302.362347,740.205942,9252.574275
273.344072,3907.087040,3182.885551,6217.729913
273.344380,5209.449386,4737.318029,4663.297435
273.344688,6205.373534,4737.318029,4293.194464
273.344996,5209.449386,4219.173869,4663.297435
273.345304,3447.429741,3108.864956,6069.688724
273.345612,2911.162892,1258.350101,7994.224174
273.345920,76.609550,-296.082377,8290.306550
273.346228,-1378.971896,-2146.597232,11399.171507
273.346537,-2528.115143,-2442.679609,12435.459826
273.346845,-2374.896044,-1850.514855,11917.315666
273.347153,-842.705048,-1258.350101,12065.356855
273.347461,689.485948,814.226536,9696.697840
273.347769,1915.238745,1332.370696,9178.553681
273.348077,2374.896044,1480.411884,8216.285956
273.348385,2451.505594,814.226536,8808.450710
273.348693,919.314598,222.061783,9474.636058
273.349002,-919.314598,-888.247130,11473.192101
273.349310,-2221.676944,-2294.638420,13249.686362
273.349618,-3447.429741,-2812.782580,13323.706956
273.349926,-3524.039291,-3256.906145,14285.974681
273.350234,-3140.991542,-3330.926739,13249.686362
273.350542,-1762.019645,-1554.432478,12361.439231
273.350850,76.609550,-0.000000,9992.780217
273.351158,2604.724693,2590.720797,7624.121203
273.351466,4979.620737,4293.194464,5995.668130
273.351775,5975.544884,5181.441594,4441.235652
273.352083,6588.421283,5255.462188,3997.112087
273.352391,5669.106685,4293.194464,4441.235652
273.352699,4366.744339,2590.720797,6883.915261
273.353007,1685.410096,740.205942,9474.636058
273.353315,-229.828649,-1332.370696,12065.356855
273.353623,-1838.629195,-2442.679609,12953.603985
273.353931,-2757.943793,-2220.617826,12361.439231
273.354240,-1991.848295,-1406.391290,12583.501014
273.354548,-153.219100,222.061783,10881.027347
273.354856,1685.410096,1776.494261,9400.615463
273.355164,2911.162892,2738.761985,7624.121203
273.355472,3677.258390,2368.659014,7846.182985
273.355780,1915.238745,1480.411884,8438.347739
273.356088,-383.047749,-0.000000,10066.800811
273.356396,-995.924147,-1850.514855,11769.274478
273.356705,-3140.991542,-2960.823768,12435.459826
273.357013,-3600.648841,-4367.215058,14063.912898
273.357321,-4213.525239,-4441.235652,13767.830521
273.357629,-3294.210641,-3552.988522,13249.686362
273.357937,-1302.362347,-2516.700203,11917.315666
273.358245,383.047749,-74.020594,8290.306550
273.358553,2834.553343,1998.556043,7105.977043
273.358861,4903.011187,3775.050304,5033.400406
273.359169,5975.544884,4441.235652,3997.112087
273.359478,5669.106685,4441.235652,3627.009116
273.359786,4213.525239,3404.947333,5477.523971
273.360094,2757.943793,1480.411884,7179.997637
273.360402,383.047749,-148.041188,9178.553681
273.360710,-2298.286494,-1998.556043,11103.089130
273.361018,-2451.505594,-2812.782580,12583.501014
273.361326,-2681.334243,-2368.659014,12213.398043
273.361634,-1685.410096,-1628.453072,11399.171507
273.361943,536.266849,-0.000000,9844.739029
273.362251,1915.238745,2294.638420,7846.182985
273.362559,3370.820191,1850.514855,7031.956449
273.362867,3294.210641,2368.659014,7105.977043
273.363175,1149.143247,962.267725,8512.368333
273.363483,153.219100,-592.164754,10510.924376
273.363791,-1378.971896,-1702.473667,11843.295072
273.364099,-3447.429741,-2960.823768,12953.603985
273.364407,-4060.306139,-4145.153275,14211.954086
273.364716,-3524.039291,-3923.091493,14359.995275
273.365024,-3294.210641,-3034.844362,12879.583391
273.365332,-1685.410096,-1554.432478,11547.212695
273.365640,1149.143247,814.226536,8734.430116
273.365948,3447.429741,3256.906145,6513.812290
273.366256,5362.668486,4737.318029,5181.441594
273.366564,6052.154434,4885.359217,4145.153275
273.366872,5669.106685,4441.235652,4737.318029
273.367181,4060.306139,2812.782580,6217.729913
273.367489,2221.676944,1850.514855,7920.203579
273.367797,383.047749,-444.123565,11029.068536
273.368105,-1302.362347,-1554.432478,12657.521608
273.368413,-2145.067394,-2590.720797,12139.377449
273.368721,-1838.629195,-2220.617826,12287.418637
273.369029,-383.047749,-518.144159,11103.089130
273.369337,1685.410096,1406.391290,9696.697840
273.369646,3447.429741,2738.761985,8216.285956
273.369954,3370.820191,3330.926739,7179.997637
273.370262,3370.820191,2664.741391,7772.162391
273.370570,1838.629195,592.164754,9844.739029
273.370878,0.000000,-296.082377,11473.192101
273.371186,-1991.848295,-1998.556043,12361.439231
273.371494,-3447.429741,-3034.844362,13397.727550
273.371802,-4290.134789,-3849.070898,14359.995275
273.372110,-3524.039291,-3627.009116,14063.912898
273.372419,-2451.505594,-2146.597232,12657.521608
273.372727,0.000000,-296.082377,10140.821405
273.373035,3140.991542,2146.597232,7550.100608
273.373343,4903.011187,4145.153275,5921.647536
273.373651,6281.983084,4737.318029,4737.318029
273.373959,5515.887586,4367.215058,4219.173869
273.374267,4903.011187,3182.885551,5699.585753
273.374575,3140.991542,1850.514855,7179.997637
273.374884,842.705048,-0.000000,9474.636058
273.375192,-919.314598,-1554.432478,11621.233289
273.375500,-1838.629195,-2072.576638,11917.315666
273.375808,-1685.410096,-2368.659014,11769.274478
273.376116,-1225.752797,-1702.473667,11621.233289
273.376424,459.657299,-0.000000,9918.759623
273.376732,2374.896044,1998.556043,8438.347739
273.377040,2834.553343,2590.720797,6809.894666
273.377349,3370.820191,2812.782580,6883.915261
273.377657,2145.067394,814.226536,8586.388927
273.377965,383.047749,-74.020594,10436.903782
273.378273,-1991.848295,-1480.411884,11399.171507
273.378581,-3753.867940,-3478.967927,13027.624579
273.378889,-4903.011187,-4515.256246,14434.015869
273.379197,-5056.230287,-4959.379811,14582.057057
273.379505,-3830.477490,-3849.070898,13397.727550
273.379813,-2068.457845,-2294.638420,11473.192101
273.380122,1149.143247,444.123565,9178.553681
273.380430,2987.772442,3256.906145,6587.832884
273.380738,5592.497135,4515.256246,4515.256246
273.381046,6205.373534,5033.400406,3775.050304
273.381354,5975.544884,4367.215058,4071.132681
273.381662,4290.134789,3552.988522,5477.523971
273.381970,2145.067394,1036.288319,7402.059420
273.382278,689.485948,-1036.288319,10066.800811
273.382587,-1149.143247,-2146.597232,11547.212695
273.382895,-1838.629195,-3034.844362,12361.439231
273.383203,-1915.238745,-2442.679609,12065.356855
273.383511,-919.314598,-1332.370696,11251.130318
273.383819,766.095498,148.041188,10288.862594
273.384127,3064.381992,2442.679609,8142.265362
273.384435,3294.210641,3108.864956,7105.977043
273.384743,2681.334243,1924.535449,7920.203579
273.385051,2374.896044,1036.288319,9400.615463
273.385360,-306.438199,-148.041188,10881.027347
273.385668,-1225.752797,-1554.432478,12657.521608
273.385976,-3830.477490,-3108.864956,13323.706956
273.386284,-4519.963438,-3997.112087,14730.098246
273.386592,-4673.182538,-4145.153275,14434.015869
273.386900,-4060.306139,-2960.823768,12953.603985
273.387208,-1762.019645,-740.205942,11547.212695
273.387516,1149.143247,1702.473667,8216.285956
273.387825,5209.449386,3775.050304,5847.626942
273.388133,6205.373534,5329.482782,4219.173869
273.388441,6511.811733,5033.400406,3701.029710
273.388749,5669.106685,4071.132681,4589.276840
273.389057,3907.087040,2590.720797,6439.791695
273.389365,1532.190996,888.247130,8586.388927
273.389673,-306.438199,-1628.453072,10881.027347
273.389981,-1762.019645,-1850.514855,11621.233289
273.390290,-1455.581446,-1998.556043,11991.336260
273.390598,-919.314598,-1702.473667,11917.315666
273.390906,842.705048,-0.000000,10584.944971
273.391214,2681.334243,1998.556043,8808.450710
273.391522,3294.210641,3182.885551,7254.018232
273.391830,3294.210641,2516.700203,7624.121203
273.392138,2298.286494,1554.432478,8660.409521
273.392446,766.095498,518.144159,10066.800811
273.392754,-919.314598,-1628.453072,11473.192101
273.393063,-2911.162892,-3034.844362,12879.583391
273.393371,-4673.182538,-3775.050304,14359.995275
273.393679,-5056.230287,-4367.215058,14730.098246
273.393987,-4366.744339,-3330.926739,14137.933492
273.394295,-2221.676944,-2294.638420,12361.439231
273.394603,76.609550,-0.000000,9844.739029
273.394911,2681.334243,2072.576638,7476.080014
273.395219,4903.011187,4145.153275,5403.503377
273.395528,5515.887586,4811.338623,4367.215058
273.395836,5439.278036,3923.091493,4367.215058
273.396144,4290.134789,2960.823768,5551.544565
273.396452,2145.067394,1628.453072,7402.059420
273.396760,1072.533697,-222.061783,9474.636058
273.397068,-459.657299,-1628.453072,10584.944971
273.397376,-2221.676944,-1702.473667,11325.150913
273.397684,-1302.362347,-1998.556043,11547.212695
273.397992,-766.095498,-1110.308913,11621.233289
273.398301,536.266849,666.185348,9548.656652
273.398609,2757.943793,2146.597232,7920.203579
273.398917,3294.210641,2664.741391,7179.997637
273.399225,3370.820191,2294.638420,7476.080014
273.399533,2145.067394,1036.288319,8586.388927
273.399841,76.609550,-370.102971,10436.903782
273.400149,-2068.457845,-2516.700203,11917.315666
273.400457,-3753.867940,-3256.906145,13175.665768
273.400766,-4443.353888,-4071.132681,14434.015869
273.401074,-4519.963438,-4219.173869,14359.995275
273.401382,-3217.601092,-3108.864956,12953.603985
273.401690,-1455.581446,-1480.411884,11251.130318
273.401998,1915.238745,962.267725,8512.368333
273.402306,4749.792088,3330.926739,5847.626942
273.402614,6128.763984,4515.256246,4145.153275
273.402922,6205.373534,4663.297435,4515.256246
273.403231,5439.278036,3404.947333,4737.318029
273.403539,3447.429741,2812.782580,6439.791695
273.403847,919.314598,962.267725,9326.594869
273.404155,-536.266849,-1332.370696,11103.089130
273.404463,-1149.143247,-2072.576638,12435.459826
273.404771,-2681.334243,-2590.720797,12879.583391
273.405079,-2374.896044,-2220.617826,12953.603985
273.405387,-536.266849,-222.061783,12213.398043
273.405695,1072.533697,2146.597232,9918.759623
273.406004,2528.115143,2442.679609,8586.388927
273.406312,3600.648841,3627.009116,8142.265362
273.406620,2221.676944,2590.720797,8438.347739
273.406928,1532.190996,1554.432478,9474.636058
273.407236,383.047749,-0.000000,10955.047942
273.407544,-1378.971896,-1480.411884,11991.336260
273.407852,-3447.429741,-3256.906145,13175.665768
273.408160,-3524.039291,-3478.967927,14211.954086
273.408469,-3140.991542,-2960.823768,13249.686362
273.408777,-2221.676944,-2220.617826,11621.233289
273.409085,689.485948,-74.020594,9844.739029
273.409393,3907.087040,2294.638420,7698.141797
273.409701,5439.278036,4515.256246,5181.441594
273.410009,6511.811733,5107.421000,3330.926739
273.410317,6511.811733,4663.297435,4293.194464
273.410625,5056.230287,3552.988522,5403.503377
273.410933,3370.820191,1702.473667,7031.956449
273.411242,1149.143247,-74.020594,8956.491898
273.411550,-536.266849,-1702.473667,10584.944971
273.411858,-2145.067394,-3627.009116,11843.295072
273.412166,-2068.457845,-3478.967927,12583.501014
273.412474,-1838.629195,-2960.823768,12287.418637
273.412782,-766.095498,-1850.514855,10658.965565
273.413090,1378.971896,-74.020594,9178.553681
273.413398,2681.334243,962.267725,7772.162391
273.413707,2528.115143,1258.350101,7328.038826
273.414015,2145.067394,444.123565,7698.141797
273.414323,689.485948,-222.061783,8734.430116
273.414631,-1302.362347,-1406.391290,10955.047942
273.414939,-2298.286494,-2368.659014,11769.274478
273.415247,-3983.696590,-3627.009116,12657.521608
273.415555,-4290.134789,-3627.009116,13101.645173
273.415863,-3447.429741,-2590.720797,12509.480420
273.416172,-1455.581446,-1258.350101,10955.047942
273.416480,306.438199,666.185348,8660.409521
273.416788,2374.896044,3182.885551,6661.853478
273.417096,5745.716235,4885.359217,4885.359217
273.417404,5286.058936,4663.297435,3997.112087
273.417712,4749.792088,3923.091493,4071.132681
273.418020,3830.477490,3108.864956,6439.791695
273.418328,1762.019645,1554.432478,7994.224174
273.418636,-306.438199,-1110.308913,10584.944971
273.418945,-1991.848295,-1924.535449,12287.418637
273.419253,-2987.772442,-2960.823768,12583.501014
273.419561,-3600.648841,-2442.679609,13323.706956
273.419869,-1762.019645,-1998.556043,12805.562797
273.420177,0.000000,-0.000000,11251.130318
273.420485,1455.581446,1924.535449,9178.553681
273.420793,2604.724693,2590.720797,8216.285956
273.421101,2604.724693,2664.741391,8808.450710
273.421410,766.095498,1924.535449,9104.533087
273.421718,612.876398,370.102971,10955.047942
273.422026,0.000000,-1406.391290,11325.150913
273.422334,-3677.258390,-1554.432478,11621.233289
273.422642,-2757.943793,-3627.009116,14508.036463
273.422950,-3677.258390,-2442.679609,12879.583391
273.423258,-2681.334243,-1924.535449,12213.398043
273.423566,459.657299,-666.185348,11177.109724
273.423874,1608.800546,2368.659014,8216.285956
273.424183,4749.792088,2886.803174,7105.977043
273.424491,5056.230287,5329.482782,4293.194464
273.424799,6205.373534,4293.194464,5551.544565
273.425107,4443.353888,3108.864956,5921.647536
273.425415,3140.991542,1998.556043,7254.018232
273.425723,1072.533697,518.144159,9474.636058
273.426031,-383.047749,-1702.473667,11103.089130
273.426339,-1378.971896,-1924.535449,11843.295072
273.426647,-1838.629195,-2516.700203,12435.459826
273.426955,-1991.848295,-2368.659014,11843.295072
273.427263,383.047749,-962.267725,12213.398043
273.427571,1915.238745,1480.411884,8734.430116
273.427880,2528.115143,2738.761985,8142.265362
273.428188,4443.353888,1924.535449,8438.347739
273.428496,3064.381992,2738.761985,6957.935855
273.428804,1149.143247,222.061783,9622.677246
273.429112,536.266849,-814.226536,9622.677246
273.429420,-1838.629195,-2442.679609,11843.295072
273.429728,-3217.601092,-3627.009116,14285.974681
273.430036,-3524.039291,-3701.029710,13249.686362
273.430344,-2681.334243,-2664.741391,13249.686362
273.430652,-1915.238745,-1998.556043,11251.130318
273.430960,766.095498,296.082377,8734.430116
273.431268,3677.258390,2516.700203,7179.997637
273.431576,5362.668486,3701.029710,5181.441594
273.431884,6052.154434,4885.359217,3627.009116
273.432192,4979.620737,4515.256246,4737.318029
273.432500,3907.087040,2368.659014,6735.874072
273.432808,1838.629195,1036.288319,7254.018232
273.433116,0.000000,-518.144159,9918.759623
273.433424,-1378.971896,-2368.659014,11843.295072
273.433732,-2451.505594,-3034.844362,11843.295072
273.434040,-2298.286494,-3182.885551,12879.583391
273.434348,-1915.238745,-2812.782580,12657.521608
273.434657,-229.828649,-888.247130,10140.821405
273.434965,1455.581446,1776.494261,8956.491898
273.435273,2987.772442,2146.597232,7476.080014
273.435581,2834.553343,2368.659014,7031.956449
273.435889,2374.896044,1998.556043,8068.244768
273.436197,1072.533697,222.061783,9622.677246
273.436505,-1455.581446,-1184.329507,11325.150913
273.436813,-2528.115143,-2516.700203,13397.727550
273.437121,-3753.867940,-3256.906145,12879.583391
273.437429,-3907.087040,-3182.885551,13027.624579
273.437737,-3064.381992,-2368.659014,12509.480420
273.438045,-1378.971896,-1036.288319,11251.130318
273.438353,1302.362347,1258.350101,8216.285956
273.438661,4060.306139,3108.864956,5921.647536
273.438969,5362.668486,4515.256246,4515.256246
273.439277,5745.716235,4737.318029,4737.318029
273.439585,4826.401637,4367.215058,5625.565159
273.439893,2757.943793,2812.782580,7105.977043
273.440201,1149.143247,1110.308913,8956.491898
273.440509,-842.705048,-962.267725,11473.192101
273.440817,-2221.676944,-2368.659014,12805.562797
273.441125,-2298.286494,-3034.844362,13175.665768
273.441433,-2911.162892,-2738.761985,13027.624579
273.441742,-1838.629195,-1480.411884,12509.480420
273.442050,536.266849,370.102971,10288.862594
273.442358,2374.896044,2368.659014,8734.430116
273.442666,3447.429741,2960.823768,7179.997637
273.442974,3294.210641,2368.659014,7254.018232
273.443282,2145.067394,1258.350101,9252.574275
273.443590,612.876398,-0.000000,10807.006753
273.443898,-1225.752797,-1406.391290,11473.192101
273.444206,-2757.943793,-3034.844362,13027.624579
273.444514,-3753.867940,-3627.009116,13545.768739
273.444822,-3064.381992,-3404.947333,13249.686362
273.445130,-1838.629195,-2146.597232,11769.274478
273.445438,383.047749,-370.102971,9622.677246
273.445746,3447.429741,1924.535449,6957.935855
273.446054,5056.230287,4145.153275,4663.297435
273.446362,5898.935335,5329.482782,4663.297435
273.446670,5745.716235,4441.235652,4219.173869
273.446978,5209.449386,3478.967927,5255.462188
273.447286,3217.601092,1998.556043,7105.977043
273.447594,995.924147,-0.000000,9030.512492
273.447902,-766.095498,-962.267725,11473.192101
273.448210,-2145.067394,-2886.803174,12361.439231
273.448519,-3064.381992,-3182.885551,13175.665768
273.448827,-2451.505594,-3182.885551,13471.748144
273.449135,-1072.533697,-1110.308913,11621.233289
273.449443,919.314598,888.247130,9474.636058
273.449751,2987.772442,2294.638420,7698.141797
273.450059,3677.258390,2664.741391,7179.997637
273.450367,3140.991542,1776.494261,7772.162391
273.450675,1455.581446,-0.000000,9400.615463
273.450983,0.000000,-1036.288319,10436.903782
273.451291,-2068.457845,-1924.535449,12139.377449
273.451599,-3294.210641,-3256.906145,13101.645173
273.451907,-4060.306139,-3404.947333,13397.727550
273.452215,-3600.648841,-3108.864956,12953.603985
273.452523,-1685.410096,-1702.473667,10955.047942
273.452831,306.438199,444.123565,8586.388927
273.453139,3600.648841,2368.659014,6439.791695
273.453447,6052.154434,4145.153275,4737.318029
273.453755,6128.763984,4589.276840,4589.276840
273.454063,4979.620737,4145.153275,4515.256246
273.454371,3983.696590,3404.947333,5847.626942
273.454679,1915.238745,1850.514855,7772.162391
273.454987,-229.828649,-296.082377,10214.842000
273.455296,-1762.019645,-1332.370696,12287.418637
273.455604,-2834.553343,-2516.700203,13323.706956
273.455912,-3064.381992,-2812.782580,13101.645173
273.456220,-2068.457845,-1850.514855,12879.583391
273.456528,-689.485948,-518.144159,11103.089130
273.456836,1378.971896,1258.350101,9326.594869
273.457144,2681.334243,2072.576638,7846.182985
273.457452,3064.381992,1776.494261,7994.224174
273.457760,2221.676944,888.247130,8142.265362
273.458068,1072.533697,-444.123565,9844.739029
273.458376,-995.924147,-1406.391290,11399.171507
273.458684,-2604.724693,-2590.720797,12731.542202
273.458992,-3370.820191,-3478.967927,12953.603985
273.459300,-3370.820191,-2886.803174,12879.583391
273.459608,-2221.676944,-2368.659014,11769.274478
273.459916,-229.828649,-370.102971,9844.739029
273.460224,2911.162892,1850.514855,7550.100608
273.460532,4519.963438,4071.132681,5699.585753
273.460840,6128.763984,4663.297435,4737.318029
273.461148,6128.763984,4589.276840,4515.256246
273.461456,4826.401637,3923.091493,5477.523971
273.461764,3217.601092,2368.659014,7179.997637
273.462072,1072.533697,888.247130,9548.656652
273.462381,-842.705048,-1036.288319,11325.150913
273.462689,-2145.067394,-2590.720797,13175.665768
273.462997,-3064.381992,-2960.823768,13471.748144
273.463305,-2681.334243,-2738.761985,13397.727550
273.463613,-1302.362347,-1110.308913,12361.439231
273.463921,1149.143247,888.247130,10066.800811
273.464229,2987.772442,2368.659014,7846.182985
273.464537,3524.039291,2590.720797,7624.121203
273.464845,3447.429741,1924.535449,7994.224174
273.465153,1762.019645,962.267725,9030.512492
273.465461,229.828649,-888.247130,10362.883188
273.465769,-1302.362347,-2368.659014,12361.439231
273.466077,-2911.162892,-3552.988522,13027.624579
273.466385,-3294.210641,-3330.926739,13619.789333
273.466693,-2604.724693,-2886.803174,12731.542202
273.467001,-1072.533697,-1258.350101,10807.006753
273.467309,1532.190996,1036.288319,8438.347739
273.467617,4366.744339,2960.823768,5995.668130
273.467925,5056.230287,4663.297435,4737.318029
273.468233,6818.249932,4663.297435,3997.112087
273.468541,6205.373534,4589.276840,4219.173869
273.468849,4519.963438,3478.967927,5773.606348
273.469158,2298.286494,1406.391290,7920.203579
273.469466,-229.828649,-518.144159,10140.821405
273.469774,-2145.067394,-2442.679609,12361.439231
273.470082,-3983.696590,-3775.050304,13101.645173
273.470390,-4596.572988,-3849.070898,13471.748144
273.470698,-3217.601092,-2886.803174,13693.809927
273.471006,-1302.362347,-1406.391290,11843.295072
273.471314,842.705048,1406.391290,9548.656652
273.471622,3140.991542,2664.741391,7550.100608
273.471930,4519.963438,2516.700203,7550.100608
273.472238,2528.115143,2294.638420,6809.894666
273.472546,2298.286494,888.247130,9104.533087
273.472854,766.095498,-592.164754,10881.027347
273.473162,-2528.115143,-1924.535449,10955.047942
273.473470,-3294.210641,-2886.803174,13397.727550
273.473778,-3217.601092,-3034.844362,12731.542202
273.474086,-3524.039291,-2516.700203,11843.295072
273.474394,-1762.019645,-1036.288319,10584.944971
273.474702,1762.019645,962.267725,8660.409521
273.475010,3064.381992,3997.112087,6365.771101
273.475318,5975.544884,3627.009116,5403.503377
273.475626,5745.716235,3923.091493,4219.173869
273.475934,4596.572988,3256.906145,5625.565159
273.476243,3217.601092,2072.576638,7179.997637
273.476551,1072.533697,666.185348,8734.430116
273.476859,-1072.533697,-1406.391290,11547.212695
273.477167,-2911.162892,-2516.700203,12435.459826
273.477475,-3217.601092,-3182.885551,13767.830521
273.477783,-4136.915689,-3034.844362,12953.603985
273.478091,-2068.457845,-1850.514855,11991.336260
273.478399,76.609550,444.123565,10881.027347
273.478707,2145.067394,1628.453072,8882.471304
273.479015,2757.943793,2886.803174,6809.894666
273.479323,3217.601092,2072.576638,7328.038826
273.479631,2757.943793,740.205942,9104.533087
273.479939,766.095498,-296.082377,9548.656652
273.480247,-766.095498,-1480.411884,11177.109724
273.480555,-1532.190996,-2738.761985,12731.542202
273.480863,-2834.553343,-3108.864956,12361.439231
273.481171,-2604.724693,-2368.659014,12583.501014
273.481479,-1378.971896,-1628.453072,11473.192101
273.481787,536.266849,-0.000000,9400.615463
273.482095,2987.772442,2368.659014,6957.935855
273.482403,5592.497135,4071.132681,5773.606348
273.482711,5286.058936,4811.338623,4959.379811
273.483020,5592.497135,4145.153275,5107.421000
273.483328,3830.477490,3404.947333,6143.709319
273.483636,1991.848295,1702.473667,8512.368333
273.483944,0.000000,-0.000000,10140.821405
273.484252,-2145.067394,-1258.350101,12287.418637
273.484560,-2834.553343,-3330.926739,14063.912898
273.484868,-3217.601092,-3108.864956,13175.665768
273.485176,-2681.334243,-2368.659014,13323.706956
273.485484,0.000000,-1184.329507,11843.295072
273.485792,1685.410096,1184.329507,9548.656652
273.486100,3140.991542,2886.803174,7846.182985
273.486408,3907.087040,2664.741391,7772.162391
273.486716,3140.991542,2220.617826,7920.203579
273.487024,1685.410096,592.164754,9400.615463
273.487332,459.657299,-592.164754,10362.883188
273.487640,-1838.629195,-1998.556043,11695.253884
273.487948,-3294.210641,-2886.803174,12953.603985
273.488256,-2834.553343,-2812.782580,13027.624579
273.488564,-2145.067394,-2220.617826,11843.295072
273.488872,-995.924147,-814.226536,10288.862594
273.489180,1608.800546,1110.308913,7994.224174
273.489488,3983.696590,3404.947333,5921.647536
273.489797,5822.325785,4145.153275,4885.359217
273.490105,6435.202183,4219.173869,3701.029710
273.490413,5132.839837,3404.947333,5255.462188
273.490721,3600.648841,1998.556043,6513.812290
273.491029,1225.752797,-74.020594,8512.368333
273.491337,-842.705048,-1554.432478,10955.047942
273.491645,-2528.115143,-3182.885551,13027.624579
273.491953,-4290.134789,-4145.153275,13471.748144
273.492261,-3140.991542,-4071.132681,13619.789333
273.492569,-2298.286494,-2368.659014,12583.501014
273.492877,-306.438199,-962.267725,9918.759623
273.493185,1838.629195,1480.411884,8734.430116
273.493493,2987.772442,2590.720797,7402.059420
273.493801,2834.553343,2368.659014,7624.121203
273.494109,1991.848295,1406.391290,8290.306550
273.494417,383.047749,148.041188,9326.594869
273.494725,-995.924147,-1036.288319,11029.068536
273.495033,-2221.676944,-1998.556043,11769.274478
273.495341,-3294.210641,-2664.741391,12583.501014
273.495649,-3294.210641,-2886.803174,12879.583391
273.495957,-2451.505594,-2072.576638,11547.212695
273.496265,-536.266849,-444.123565,9844.739029
273.496573,1991.848295,1480.411884,7698.141797
273.496882,3753.867940,3478.967927,6069.688724
273.497190,5439.278036,4145.153275,5033.400406
273.497498,5745.716235,4145.153275,4515.256246
273.497806,4749.792088,3404.947333,5329.482782
273.498114,2757.943793,2368.659014,7105.977043
273.498422,919.314598,-0.000000,9696.697840
273.498730,-919.314598,-1110.308913,11251.130318
273.499038,-2298.286494,-2294.638420,12361.439231
273.499346,-2911.162892,-2590.720797,13693.809927
273.499654,-2451.505594,-2590.720797,13175.665768
273.499962,-536.266849,-740.205942,12213.398043
273.500270,1072.533697,1036.288319,9918.759623
273.500578,2834.553343,2220.617826,8290.306550
273.500886,3677.258390,2664.741391,7698.141797
273.501194,2987.772442,1924.535449,8216.285956
273.501502,1532.190996,518.144159,9474.636058
273.501810,306.438199,-444.123565,10584.944971
273.502118,-1225.752797,-1998.556043,12287.418637
273.502426,-2528.115143,-3034.844362,13027.624579
273.502734,-2911.162892,-3330.926739,13101.645173
273.503042,-2451.505594,-2442.679609,12435.459826
273.503350,-995.924147,-1406.391290,11177.109724
273.503659,919.314598,592.164754,9252.574275
273.503967,3370.820191,2664.741391,7031.956449
273.504275,4979.620737,4589.276840,5403.503377
273.504583,6435.202183,4885.359217,4293.194464
273.504891,5439.278036,4219.173869,5625.565159
273.505199,4443.353888,3034.844362,6513.812290
273.505507,2298.286494,1924.535449,7846.182985
273.505815,459.657299,-74.020594,10066.800811
273.506123,-1532.190996,-1628.453072,11843.295072
273.506431,-2911.162892,-2516.700203,12953.603985
273.506739,-2757.943793,-2590.720797,13693.809927
273.507047,-1762.019645,-1776.494261,12287.418637
273.507355,-689.485948,-222.061783,10955.047942
273.507663,1532.190996,1406.391290,9400.615463
273.507971,3140.991542,2368.659014,7772.162391
273.508279,2681.334243,2294.638420,8068.244768
273.508587,2068.457845,1184.329507,8734.430116
273.508895,689.485948,-148.041188,9548.656652
273.509203,-1302.362347,-1628.453072,11029.068536
273.509511,-2834.553343,-2812.782580,12657.521608
273.509819,-3983.696590,-3478.967927,13249.686362
273.510127,-3064.381992,-3627.009116,13175.665768
273.510435,-2604.724693,-2590.720797,11843.295072
273.510744,-766.095498,-1258.350101,10510.924376
273.511052,1378.971896,1036.288319,7920.203579
273.511360,3753.867940,2960.823768,5995.668130
273.511668,5822.325785,4071.132681,5107.421000
273.511976,6052.154434,4071.132681,3997.112087
273.512284,4826.401637,3552.988522,4219.173869
273.512592,3064.381992,2664.741391,6365.771101
273.512900,1302.362347,370.102971,9030.512492
273.513208,-1149.143247,-1480.411884,11251.130318
273.513516,-3294.210641,-2220.617826,12065.356855
273.513824,-3983.696590,-2886.803174,13545.768739
273.514132,-3447.429741,-3256.906145,13841.851115
273.514440,-1991.848295,-1628.453072,11843.295072
273.514748,0.000000,-296.082377,10362.883188
273.515056,1915.238745,1776.494261,8142.265362
273.515364,2834.553343,2294.638420,7476.080014
273.515672,2681.334243,2294.638420,8142.265362
273.515980,1608.800546,1184.329507,8808.450710
273.516288,229.828649,-0.000000,9992.780217
273.516596,-1608.800546,-1332.370696,10881.027347
273.516904,-2374.896044,-2516.700203,13101.645173
273.517212,-2987.772442,-3404.947333,13471.748144
273.517521,-2834.553343,-3478.967927,13027.624579
273.517829,-1838.629195,-2442.679609,11769.274478
273.518137,0.000000,-370.102971,9474.636058
273.518445,2681.334243,1628.453072,7698.141797
273.518753,5132.839837,3627.009116,5329.482782
273.519061,6741.640382,4811.338623,4293.194464
273.519369,7048.078582,4737.318029,4293.194464
273.519677,5898.935335,3849.070898,4737.318029
273.519985,3830.477490,2368.659014,6661.853478
273.520293,1608.800546,370.102971,9326.594869
273.520601,-612.876398,-888.247130,11177.109724
273.520909,-2068.457845,-1998.556043,12953.603985
273.521217,-2911.162892,-2664.741391,13545.768739
273.521525,-1608.800546,-2442.679609,12657.521608
273.521833,-459.657299,-666.185348,11917.315666
273.522141,383.047749,444.123565,10140.821405
273.522449,1991.848295,1554.432478,9178.553681
