#time,accel_x,accel_y,accel_z
717.163053,-842.273555,-3962.514226,-7580.461997
717.165641,153.140646,-7369.893608,-9399.007173
717.168229,-133.998066,-10662.417506,-9973.284597
717.170817,-880.558717,-7369.893608,-10585.847182
717.173405,440.279358,-3349.951640,-9877.571693
717.175994,-191.425808,-4153.940034,-7235.895542
717.178582,784.845813,-1473.978722,-11408.978157
717.181170,-248.853550,133.998066,-7867.600709
717.183758,-1052.841944,937.986459,-11983.255581
717.186346,957.129040,-2679.961312,-8039.883936
717.188935,-325.423874,-267.996131,-8097.311678
717.191523,574.277424,-2277.967115,-12672.388490
717.194111,-1091.127106,-1014.556782,-8690.731683
717.196699,38.285162,-3158.525832,-7503.891674
717.199287,555.134843,-1148.554848,-13514.662045
717.201876,-708.275490,1550.549045,-6891.329088
717.204464,899.701298,401.994197,-9092.725880
717.207052,-937.986459,440.279358,-10413.563955
717.209640,612.562586,-1186.840010,-9322.436850
717.212229,-401.994197,-1550.549045,-8001.598774
717.214817,-363.709035,-2699.103893,-12902.099459
717.217405,-57.427742,-2335.394858,-7503.891674
717.219993,363.709035,-1378.265818,-8059.026517
717.222581,-38.285162,287.138712,-11887.542677
717.225170,-2526.820666,2660.818731,-11313.265253
717.227758,899.701298,1186.840010,-4307.080680
717.230346,-803.988394,574.277424,-14529.218827
717.232934,-382.851616,-133.998066,-6374.479406
717.235522,421.136778,-4307.080680,-9705.288466
717.238111,-363.709035,-3254.238736,-12423.534939
717.240699,210.568389,-3713.660675,-6259.623922
717.243287,-19.142581,-248.853550,-12500.105262
717.245875,-267.996131,765.703232,-8920.442653
717.248463,459.421939,2756.531635,-9016.155557
717.251052,38.285162,306.281293,-8997.012976
717.253640,459.421939,-957.129040,-12672.388490
717.256228,153.140646,-3024.527766,-6451.049730
717.258816,382.851616,-2947.957443,-12748.958813
717.261405,-57.427742,-4192.225195,-9533.005238
717.263993,191.425808,-1722.832272,-9360.722011
717.266628,267.996131,-1052.841944,-10758.130410
717.269264,-133.998066,2143.969050,-9896.714274
717.271899,76.570323,1244.267752,-7982.456194
717.274534,-19.142581,-133.998066,-12136.396227
717.277170,-574.277424,-784.845813,-6412.764568
717.279805,-57.427742,-2833.101958,-10662.417506
717.282441,-1071.984525,-2622.533570,-9781.858789
717.285076,306.281293,-2909.672282,-9437.292334
717.287712,-516.849682,-459.421939,-8193.024582
717.290347,-497.707101,19.142581,-11045.269122
717.292982,-708.275490,1914.258080,-7484.749093
717.295618,325.423874,191.425808,-10700.702667
717.298253,-1186.840010,1378.265818,-10126.425243
717.300889,746.560651,-1129.412267,-6661.618118
717.303524,-861.416136,-1167.697429,-10317.851051
717.306159,401.994197,-4326.223261,-10298.708470
717.308795,-421.136778,-2699.103893,-7829.315547
717.311430,325.423874,-3522.234867,-9954.142016
717.314066,-153.140646,114.855485,-10968.698798
717.316701,650.847747,631.705166,-8250.452325
717.319337,-114.855485,1895.115499,-11830.114934
717.321972,535.992262,-478.564520,-8422.735552
717.324607,803.988394,-1550.549045,-9743.573627
717.327243,-1167.697429,-1588.834206,-11772.687192
717.329878,574.277424,-1416.550979,-9016.155557
717.332514,38.285162,-2450.250342,-7905.885870
717.335149,-803.988394,-1301.695494,-13399.806560
717.337785,727.418070,-1339.980656,-7484.749093
717.340420,95.712904,689.132909,-9877.571693
717.343055,-957.129040,1512.263883,-10911.271056
717.345691,76.570323,842.273555,-9341.579430
717.348326,-267.996131,-248.853550,-7044.469734
717.350962,-38.285162,-1952.543242,-11064.411702
717.353597,-1071.984525,-2622.533570,-7676.174901
717.356232,-229.710970,-3924.229064,-9437.292334
717.358868,-95.712904,-823.130974,-11868.400096
717.361503,-1665.404530,1952.543242,-9743.573627
717.364139,3254.238736,937.986459,-5627.918755
717.366774,-1167.697429,1148.554848,-11562.118803
717.369410,-1225.125171,746.560651,-10145.567824
717.372052,2143.969050,-4996.213589,-6431.907149
717.374694,-1473.978722,-2603.390989,-11906.685258
717.377337,172.283227,-4345.365842,-10413.563955
717.379979,612.562586,-2009.970984,-7599.604578
717.382622,-76.570323,-2411.965181,-9858.429112
717.385264,918.843878,248.853550,-11657.831707
717.387906,-2105.683888,3369.094221,-8173.882002
717.390549,2009.970984,1186.840010,-9820.143950
717.393191,-1493.121302,306.281293,-9207.581365
717.395834,-191.425808,-1837.687757,-10356.136213
717.398476,535.992262,-3828.516160,-8365.307810
717.401119,-861.416136,-1875.972918,-12098.111066
717.403761,-133.998066,-2431.107762,-7235.895542
717.406403,-57.427742,-1071.984525,-12059.825904
717.409046,-727.418070,1493.121302,-8518.448456
717.411688,421.136778,1071.984525,-8997.012976
717.414331,-1167.697429,1646.261949,-9839.286531
717.416973,-842.273555,-823.130974,-9360.722011
717.419615,-1416.550979,-363.709035,-7542.176835
717.422258,957.129040,-3598.805190,-12844.671717
717.424900,-1397.408398,-2967.100024,-11217.552349
717.427543,421.136778,-1933.400661,-7963.313613
717.430185,2354.537438,-1263.410333,-7523.034254
717.432827,-2852.244539,1588.834206,-13954.941403
717.435470,1646.261949,689.132909,-9284.151688
717.438112,746.560651,95.712904,-4192.225195
717.440755,-1761.117434,669.990328,-14299.507858
717.443397,1550.549045,-4689.932296,-9628.718142
717.446040,153.140646,-2833.101958,-6412.764568
717.448682,-1799.402595,-2201.396792,-12193.823970
717.451324,1512.263883,-1607.976787,-12653.245909
717.453967,-191.425808,-325.423874,-4173.082614
717.456609,-19.142581,133.998066,-12748.958813
717.459252,-478.564520,344.566454,-11370.692995
717.461894,1454.836141,19.142581,-6948.756830
717.464536,-57.427742,-995.414202,-7905.885870
717.467179,-937.986459,-899.701298,-15792.629160
717.469821,440.279358,-2450.250342,-4517.649069
717.472464,-306.281293,-2143.969050,-9609.575562
717.475106,-937.986459,-995.414202,-13993.226565
717.477748,229.710970,-746.560651,-7484.749093
717.480389,-593.420005,1129.412267,-6738.188442
717.483031,-19.142581,-765.703232,-13131.810429
717.485672,-535.992262,344.566454,-9188.438784
717.488314,-344.566454,-1052.841944,-5934.200048
717.490955,153.140646,-1225.125171,-12098.111066
717.493597,-1435.693560,-1014.556782,-10738.987829
717.496239,3981.656806,-1780.260014,-8327.022648
717.498880,-1780.260014,535.992262,-8365.307810
717.501522,-1971.685822,1110.269686,-9954.142016
717.504163,2622.533570,-4996.213589,-5857.629725
717.506805,-2947.957443,-1129.412267,-12308.679454
717.509446,76.570323,-3101.098090,-10202.995566
717.512088,516.849682,440.279358,-5398.207786
717.514729,-248.853550,172.283227,-14452.648504
717.517371,555.134843,823.130974,-8901.300072
717.520013,19.142581,287.138712,-6910.471669
717.522654,19.142581,-229.710970,-13610.374949
717.525296,-459.421939,-1607.976787,-7063.612315
717.527937,842.273555,-2526.820666,-10164.710405
717.530579,-555.134843,-2507.678085,-10604.989763
717.533220,-153.140646,-1301.695494,-10030.712339
717.535862,-0.000000,-1014.556782,-6776.473603
717.538503,-421.136778,0.000000,-14414.363342
717.541145,-57.427742,574.277424,-6719.045861
717.543787,267.996131,459.421939,-9169.296203
717.546428,-746.560651,612.562586,-11562.118803
717.549070,248.853550,-1512.263883,-6738.188442
717.551711,-669.990328,-1205.982590,-9647.860723
717.554353,95.712904,-3656.232933,-10949.556218
717.556994,-76.570323,-2067.398726,-7446.463931
717.559636,861.416136,-1818.545176,-11236.694930
717.562277,-2163.111630,1569.691626,-10241.280728
717.564919,2622.533570,-2967.100024,-4536.791650
717.567560,-1052.841944,-57.427742,-13495.519464
717.570202,-1282.552914,38.285162,-12729.816232
717.572844,1263.410333,133.998066,-2603.390989
717.575485,38.285162,-2086.541307,-14490.933666
717.578127,-995.414202,-727.418070,-10145.567824
717.580768,1684.547110,-3445.664544,-4996.213589
717.583399,-880.558717,-535.992262,-14433.505923
717.586031,114.855485,-1895.115499,-8709.874264
717.588662,133.998066,-363.709035,-9188.438784
717.591293,-593.420005,-76.570323,-12212.966550
717.593924,-459.421939,861.416136,-9667.003304
717.596555,-19.142581,-114.855485,-5781.059402
717.599187,478.564520,-2220.539373,-14854.642701
717.601818,-1186.840010,-1091.127106,-6508.477472
717.604449,861.416136,-2316.252277,-8977.870395
717.607080,-1473.978722,-344.566454,-11906.685258
717.609711,-76.570323,-440.279358,-8403.592971
717.612343,440.279358,-382.851616,-7408.178770
717.614974,-1033.699363,478.564520,-13418.949141
717.617605,-421.136778,325.423874,-5972.485210
717.620236,899.701298,-2009.970984,-9169.296203
717.622867,-2124.826469,-133.998066,-12040.683323
717.625499,1186.840010,-2986.242605,-7293.323285
717.628130,-1071.984525,-325.423874,-12136.396227
717.630761,1052.841944,-3273.381317,-10030.712339
717.633392,689.132909,-880.558717,-7140.182638
717.636023,-574.277424,-363.709035,-12825.529136
717.638655,-229.710970,1052.841944,-8767.302006
717.641286,1225.125171,-1435.693560,-7389.036189
717.643917,-1416.550979,765.703232,-13208.380752
717.646548,612.562586,-2794.816797,-7580.461997
717.649179,516.849682,-2258.824534,-9705.288466
717.651811,-459.421939,-1550.549045,-12921.242040
717.654442,880.558717,-421.136778,-7255.038123
717.657073,-612.562586,-708.275490,-8786.444587
717.659704,440.279358,-535.992262,-13840.085918
717.662335,-382.851616,172.283227,-4747.360038
717.664967,459.421939,-899.701298,-12576.675586
717.667598,-1493.121302,-38.285162,-9284.151688
717.670229,784.845813,-1569.691626,-7599.604578
717.672860,-937.986459,-325.423874,-11274.980091
717.675491,-191.425808,-1167.697429,-10049.854920
717.678123,-133.998066,535.992262,-7369.893608
717.680754,-918.843878,-478.564520,-11083.554283
717.683385,95.712904,-995.414202,-9245.866526
717.686016,-612.562586,-1588.834206,-6872.186507
717.688489,-593.420005,-1301.695494,-14088.939469
717.690962,650.847747,-3369.094221,-6948.756830
717.693435,210.568389,-1684.547110,-7503.891674
717.695909,-669.990328,-459.421939,-14414.363342
717.698382,-1359.123237,2277.967115,-5455.635528
717.700855,2029.113565,-1454.836141,-9073.583299
717.703328,-1952.543242,1397.408398,-14969.498186
717.705801,1320.838075,-1282.552914,-3483.949706
717.708274,-555.134843,-401.994197,-13418.949141
717.710747,440.279358,-3407.379382,-10011.569758
717.713220,861.416136,-3005.385186,-7044.469734
717.715693,-957.129040,-3024.527766,-10490.134278
717.718166,459.421939,-2009.970984,-13572.089787
717.720639,-95.712904,861.416136,-3771.088418
717.723112,210.568389,1837.687757,-13859.228499
717.725585,-842.273555,1780.260014,-9265.009107
717.728058,593.420005,229.710970,-7771.887805
717.730531,-612.562586,-842.273555,-10566.704602
717.733004,-421.136778,-1741.974853,-11370.692995
717.735477,-95.712904,-3101.098090,-5742.774240
717.737951,-708.275490,-2450.250342,-13150.953010
717.740424,-133.998066,-1033.699363,-7771.887805
717.742897,19.142581,-593.420005,-7791.030386
717.745370,-421.136778,593.420005,-12404.392358
717.747843,1225.125171,-1837.687757,-6967.899411
717.750316,-478.564520,574.277424,-9341.579430
717.752789,-1550.549045,267.996131,-12997.812363
717.755262,650.847747,-210.568389,-4268.795518
717.757735,-172.283227,-3005.385186,-12710.673651
717.760208,19.142581,-1703.689691,-11581.261384
717.762681,746.560651,-3369.094221,-4804.787781
717.765154,-2086.541307,957.129040,-13935.798822
717.767627,1856.830338,-2488.535504,-8767.302006
717.770100,497.707101,95.712904,-7408.178770
717.772573,-784.845813,-765.703232,-11944.970419
717.775046,957.129040,-1397.408398,-11964.113000
717.777519,-401.994197,-1837.687757,-5379.065205
717.779993,-0.000000,-1205.982590,-15945.769806
717.782466,-631.705166,-363.709035,-5589.633594
717.784939,708.275490,-1378.265818,-9169.296203
717.787456,-1110.269686,-153.140646,-12844.671717
717.789974,-76.570323,-133.998066,-7140.182638
717.792492,153.140646,-401.994197,-8518.448456
717.795009,-784.845813,-229.710970,-13361.521398
717.797527,76.570323,-344.566454,-5091.926493
717.800045,-210.568389,-1454.836141,-10451.849117
717.802562,-995.414202,-746.560651,-11581.261384
717.805080,1186.840010,-1741.974853,-7657.032320
717.807598,-2029.113565,267.996131,-8250.452325
717.810115,535.992262,-2124.826469,-12078.968485
717.812633,-1071.984525,-76.570323,-5551.348432
717.815151,1531.406464,-1033.699363,-13974.083984
717.817668,-765.703232,516.849682,-11064.411702
717.820186,899.701298,-612.562586,-3617.947771
717.822704,-76.570323,650.847747,-15428.920125
717.825221,842.273555,-1512.263883,-7848.458128
717.827739,-172.283227,-1052.841944,-8269.594906
717.830257,19.142581,-4019.941968,-11830.114934
717.832774,-19.142581,-2086.541307,-10451.849117
717.835292,497.707101,-2220.539373,-6068.198114
717.837810,-248.853550,114.855485,-14012.369146
717.840327,-57.427742,114.855485,-8269.594906
717.842845,746.560651,478.564520,-8863.014910
717.845363,-746.560651,612.562586,-11734.402030
717.847881,363.709035,133.998066,-9667.003304
717.850398,382.851616,-2163.111630,-7427.321350
717.852916,-1052.841944,-2488.535504,-12423.534939
717.855434,382.851616,-2258.824534,-6565.905214
717.857951,-650.847747,-1856.830338,-10049.854920
717.860469,-440.279358,-306.281293,-10834.700733
717.862987,459.421939,-880.558717,-7733.602643
717.865504,-325.423874,1512.263883,-8805.587168
717.868048,-1741.974853,1741.974853,-12346.964616
717.870592,823.130974,248.853550,-5838.487144
717.873136,153.140646,-1588.834206,-10872.985894
717.875680,-1186.840010,-1244.267752,-11313.265253
717.878224,-95.712904,-3426.521963,-7350.751027
717.880767,76.570323,-1703.689691,-9475.577496
717.883311,57.427742,-2775.674216,-11389.835576
717.885855,-38.285162,-918.843878,-8671.589102
717.888399,114.855485,-1493.121302,-8537.591037
717.890943,-133.998066,918.843878,-11925.827838
717.893487,95.712904,382.851616,-7044.469734
717.896030,172.283227,133.998066,-11772.687192
717.898574,-210.568389,-1339.980656,-9724.431046
717.901118,95.712904,-1914.258080,-9667.003304
717.903662,-535.992262,-2392.822600,-8939.585234
717.906206,248.853550,-2143.969050,-12366.107197
717.908750,-401.994197,-1225.125171,-6661.618118
717.911294,-440.279358,-76.570323,-11983.255581
717.913837,-19.142581,842.273555,-8939.585234
717.916381,-95.712904,1684.547110,-9322.436850
717.918925,-248.853550,746.560651,-9647.860723
717.921469,-57.427742,-1320.838075,-10011.569758
717.924013,19.142581,-2909.672282,-6757.331022
717.926557,-1052.841944,-2258.824534,-13801.800757
717.929101,-267.996131,-1531.406464,-7331.608446
717.931644,1684.547110,-2258.824534,-8480.163294
717.934188,-1780.260014,3924.229064,-12500.105262
717.936732,650.847747,593.420005,-7465.606512
717.939276,1186.840010,-1263.410333,-8518.448456
717.941820,-803.988394,-2009.970984,-11696.116869
717.944364,421.136778,-1837.687757,-9667.003304
717.946908,535.992262,-4096.512291,-6278.766502
717.949451,-650.847747,-2105.683888,-14490.933666
717.951995,861.416136,-2124.826469,-7810.172966
717.954539,19.142581,823.130974,-8805.587168
717.957083,19.142581,-861.416136,-11102.696864
717.959627,325.423874,497.707101,-11026.126541
717.962171,401.994197,-210.568389,-6814.758765
717.964714,-0.000000,114.855485,-12825.529136
717.967258,-267.996131,-937.986459,-7542.176835
717.969802,-325.423874,-1856.830338,-9188.438784
717.972346,-344.566454,-2201.396792,-11236.694930
717.974890,-574.277424,-1818.545176,-8690.731683
717.977434,-382.851616,-1933.400661,-7791.030386
717.979978,784.845813,-2622.533570,-13974.083984
717.982521,-937.986459,2143.969050,-6163.911018
717.985065,-1071.984525,2756.531635,-9092.725880
717.987609,535.992262,1607.976787,-10643.274925
717.990064,-555.134843,363.709035,-9418.149754
717.992519,-76.570323,-1033.699363,-7542.176835
717.994974,-19.142581,-3675.375514,-10490.134278
717.997428,-976.271621,-2890.529701,-9686.145885
717.999883,-210.568389,-3694.518094,-8154.739421
718.002337,-1397.408398,-57.427742,-11810.972354
718.004792,1550.549045,-1052.841944,-5379.065205
718.007247,-133.998066,1282.552914,-11983.255581
718.009701,-76.570323,746.560651,-10585.847182
718.012156,1014.556782,325.423874,-8595.018779
718.014611,-555.134843,-1186.840010,-9035.298138
718.017065,267.996131,-2297.109696,-13093.525267
718.019520,459.421939,-3254.238736,-6757.331022
718.021974,-516.849682,-1646.261949,-10336.993632
718.024429,-0.000000,-2469.392923,-11753.544611
718.026884,-401.994197,-727.418070,-7197.610381
718.029338,880.558717,-976.271621,-10547.562021
718.031793,-1033.699363,2277.967115,-14490.933666
718.034248,1646.261949,535.992262,-2545.963246
718.036702,823.130974,-823.130974,-11121.839445
718.039157,-1952.543242,344.566454,-14031.511726
718.041612,-229.710970,-1148.554848,-4230.510357
718.044066,1703.689691,-3235.096155,-9647.860723
718.046521,-2622.533570,-1952.543242,-13170.095590
718.048975,-401.994197,-1703.689691,-7848.458128
718.051430,1895.115499,-3598.805190,-7197.610381
718.053885,-2277.967115,1665.404530,-12059.825904
718.056339,-1301.695494,1684.547110,-9992.427178
718.058794,2794.816797,-38.285162,-5838.487144
718.061249,-1416.550979,-497.707101,-11332.407834
718.063703,-708.275490,-995.414202,-10681.560086
718.066158,1282.552914,-3809.373579,-7312.465866
718.068612,-1167.697429,-1607.976787,-9743.573627
718.071067,172.283227,-3503.092286,-11523.833642
718.073522,401.994197,-1091.127106,-7867.600709
718.075976,-153.140646,-995.414202,-9169.296203
718.078431,210.568389,765.703232,-12863.814298
718.080886,287.138712,248.853550,-9016.155557
718.083340,669.990328,727.418070,-8824.729749
718.085795,363.709035,-574.277424,-8575.876198
718.088294,-650.847747,-516.849682,-13055.240106
718.090794,497.707101,-2718.246474,-7791.030386
718.093293,3522.234867,-3617.947771,-12366.107197
718.095792,-3675.375514,1378.265818,-7695.317482
718.098292,76.570323,-440.279358,-8633.303941
718.100791,1512.263883,-2794.816797,-8059.026517
718.103291,-4019.941968,1167.697429,-14548.361408
718.105790,2048.256146,-2124.826469,-8078.169098
718.108289,-1014.556782,0.000000,-7637.889739
718.110789,-1741.974853,976.271621,-12902.099459
718.113288,1033.699363,-459.421939,-4996.213589
718.115787,-669.990328,-210.568389,-9858.429112
718.118287,593.420005,-3751.945837,-12423.534939
718.120786,-1033.699363,-937.986459,-6029.912952
718.123286,1186.840010,-3158.525832,-9667.003304
718.125785,-1225.125171,133.998066,-12978.669782
718.128284,-153.140646,-1301.695494,-4460.221326
718.130784,1033.699363,-650.847747,-12193.823970
718.133283,287.138712,-861.416136,-13380.663979
718.135783,1014.556782,1952.543242,-5245.067139
718.138282,95.712904,-267.996131,-8269.594906
718.140781,-593.420005,-880.558717,-15160.923994
718.143281,803.988394,-3081.955509,-5168.496816
718.145780,287.138712,-1933.400661,-11389.835576
718.148279,497.707101,-3579.662610,-10987.841379
718.150779,-401.994197,-1244.267752,-7484.749093
718.153278,1665.404530,-918.843878,-9150.153622
718.155778,-2603.390989,1837.687757,-12844.671717
718.158277,1225.125171,-306.281293,-7944.171032
718.160776,-248.853550,-153.140646,-8231.309744
718.163276,-1033.699363,153.140646,-12117.253646
718.165775,401.994197,-1684.547110,-7503.891674
718.168303,-1052.841944,-1435.693560,-8614.161360
718.170831,-76.570323,-3005.385186,-12385.249778
718.173359,-555.134843,-1014.556782,-7599.604578
718.175888,-57.427742,-995.414202,-7274.180704
718.178416,-784.845813,593.420005,-13323.236237
718.180944,248.853550,382.851616,-7867.600709
718.183472,-1320.838075,1837.687757,-7944.171032
718.186000,1359.123237,-2603.390989,-11006.983960
718.188528,-669.990328,-1761.117434,-8729.016845
718.191056,1971.685822,-4977.071008,-8997.012976
718.193584,-1665.404530,-133.998066,-11944.970419
718.196112,-382.851616,-669.990328,-8748.159426
718.198641,1837.687757,-957.129040,-9494.720077
718.201169,-2124.826469,1186.840010,-11064.411702
718.203697,1722.832272,-267.996131,-9973.284597
718.206225,-708.275490,-19.142581,-7063.612315
718.208753,1397.408398,0.000000,-14778.072378
718.211281,-1320.838075,1646.261949,-5206.781978
718.213809,325.423874,2067.398726,-10987.841379
718.216337,421.136778,2488.535504,-9781.858789
718.218866,-1416.550979,4785.645200,-10509.276859
718.221394,803.988394,803.988394,-8767.302006
718.223922,-574.277424,2373.680019,-10528.419440
718.226450,-19.142581,2928.814862,-9494.720077
718.228978,-210.568389,1588.834206,-11868.400096
718.231506,-95.712904,669.990328,-8269.594906
718.234034,-0.000000,669.990328,-8977.870395
718.236562,38.285162,-1282.552914,-11370.692995
718.239090,-727.418070,248.853550,-10164.710405
718.241619,401.994197,-708.275490,-8116.454259
718.244147,-229.710970,-172.283227,-11389.835576
718.246675,267.996131,3694.518094,-10126.425243
718.249203,-38.285162,6910.471669,-8173.882002
718.251731,-38.285162,10892.128475,-12059.825904
718.254259,95.712904,8805.587168,-8499.305875
718.256787,650.847747,3617.947771,-7006.184573
718.259315,-287.138712,191.425808,-13648.660110
718.261844,-574.277424,-5608.776174,-7982.456194
718.264372,-535.992262,-8116.454259,-6738.188442
718.266900,-650.847747,-4900.500685,-12270.394293
718.269365,918.843878,-1799.402595,-8901.300072
718.271829,-918.843878,2833.101958,-9207.581365
718.274294,191.425808,2928.814862,-10432.706536
718.276759,-1282.552914,4689.932296,-9226.723946
718.279224,2277.967115,-172.283227,-10968.698798
718.281688,-1359.123237,-76.570323,-6412.764568
718.284153,1837.687757,-5627.918755,-11638.689126
718.286618,-1856.830338,-3522.234867,-8288.737486
718.289083,267.996131,-6278.766502,-10432.706536
718.291547,401.994197,-3464.807125,-12155.538808
718.294012,-746.560651,1014.556782,-6719.045861
718.296477,1052.841944,2890.529701,-12155.538808
718.298942,-880.558717,4019.941968,-9456.434915
718.301407,803.988394,2928.814862,-9954.142016
718.303871,-803.988394,-1493.121302,-8327.022648
718.306336,-76.570323,-4019.941968,-10604.989763
718.308801,-287.138712,-5359.922624,-8786.444587
718.311266,-440.279358,-3924.229064,-10872.985894
718.313730,-76.570323,-2833.101958,-9494.720077
718.316195,-1014.556782,937.986459,-10088.140082
718.318660,593.420005,1493.121302,-8039.883936
718.321125,-153.140646,4307.080680,-10049.854920
718.323589,-918.843878,1569.691626,-8288.737486
718.326054,1493.121302,-2584.248408,-11408.978157
718.328519,-2565.105827,-1531.406464,-7044.469734
718.330984,1435.693560,-5723.631659,-11255.837510
718.333449,-535.992262,-4441.078746,-11045.269122
718.335913,-76.570323,-2009.970984,-6604.190376
718.338378,-248.853550,1225.125171,-11868.400096
718.340843,478.564520,1837.687757,-8824.729749
718.343308,-38.285162,3043.670347,-8001.598774
718.345772,287.138712,-363.709035,-13380.663979
718.348237,-267.996131,-823.130974,-7503.891674
718.350702,363.709035,-4153.940034,-8805.587168
718.353167,-19.142581,-3196.810994,-12863.814298
718.355631,172.283227,-3158.525832,-8097.311678
718.358096,-631.705166,-650.847747,-9150.153622
718.360561,-38.285162,-957.129040,-12500.105262
718.363026,114.855485,1493.121302,-8078.169098
718.365491,-133.998066,1665.404530,-9131.011042
718.367994,-1646.261949,3598.805190,-14682.359474
718.370497,-574.277424,382.851616,-5934.200048
718.373000,287.138712,-574.277424,-5034.498750
718.375503,1512.263883,-7408.178770,-13323.236237
718.378006,516.849682,-6087.340694,-14854.642701
718.380509,-2890.529701,-555.134843,-708.275490
718.383012,2871.387120,-2603.390989,-13667.802691
718.385516,-2297.109696,2392.822600,-12576.675586
718.388019,114.855485,4115.654872,-5264.209720
718.390522,1627.119368,1416.550979,-8709.874264
718.393025,-2220.539373,363.709035,-15065.211090
718.395528,574.277424,-2909.672282,-7312.465866
718.398031,803.988394,-4804.787781,-6259.623922
718.400534,-1473.978722,-3675.375514,-15026.925928
718.403038,459.421939,-3809.373579,-9705.288466
718.405541,-57.427742,-899.701298,-4517.649069
718.408044,-0.000000,267.996131,-14567.503989
718.410547,401.994197,2699.103893,-8958.727814
718.413050,784.845813,1148.554848,-6144.768437
718.415553,-2105.683888,2297.109696,-13744.373014
718.418056,172.283227,-3349.951640,-10796.415571
718.420560,2048.256146,-5015.356170,-5168.496816
718.423063,-2163.111630,-3215.953574,-11772.687192
718.425566,-325.423874,-1875.972918,-15275.779478
718.428069,1282.552914,-1665.404530,-3637.090352
718.430572,-1225.125171,2354.537438,-8997.012976
718.433075,-650.847747,1665.404530,-14988.640766
718.435578,593.420005,2871.387120,-8652.446522
718.438081,727.418070,516.849682,-2794.816797
718.440585,-1856.830338,95.712904,-14529.218827
718.443088,76.570323,-3349.951640,-12117.253646
718.445591,631.705166,-3885.943902,-5283.352301
718.448094,-1454.836141,-2947.957443,-13476.376883
718.450597,363.709035,-2967.100024,-12174.681389
718.453100,-38.285162,516.849682,-2890.529701
718.455603,-267.996131,1607.976787,-13170.095590
718.458107,287.138712,1856.830338,-11657.831707
718.460610,-287.138712,918.843878,-5666.203917
718.463113,784.845813,-1454.836141,-9915.856854
718.465616,-497.707101,-3273.381317,-12825.529136
718.468146,248.853550,-2335.394858,-6699.903280
718.470676,803.988394,-4077.369710,-9590.432981
718.473206,-1856.830338,-1110.269686,-13686.945272
718.475736,1091.127106,-1703.689691,-8461.020714
718.478266,-19.142581,1895.115499,-6776.473603
718.480796,172.283227,497.707101,-13801.800757
718.483326,2182.254211,-842.273555,-9762.716208
718.485856,-3273.381317,1646.261949,-5302.494882
718.488386,1914.258080,-3732.803256,-14701.502054
718.490916,-612.562586,-2794.816797,-9418.149754
718.493446,-210.568389,-363.709035,-6604.190376
718.495976,153.140646,-1780.260014,-11504.691061
718.498506,-1263.410333,401.994197,-10853.843314
718.501037,555.134843,-497.707101,-5685.346498
718.503567,-57.427742,727.418070,-11160.124606
718.506097,-1359.123237,-229.710970,-10892.128475
718.508627,765.703232,-1933.400661,-7216.752962
718.511157,-631.705166,-1684.547110,-8250.452325
718.513687,-248.853550,-1780.260014,-13284.951075
718.516217,19.142581,-1531.406464,-6183.053598
718.518747,-689.132909,-1014.556782,-9820.143950
718.521277,4670.789715,-5436.492947,-7484.749093
718.523807,-4460.221326,1033.699363,-11600.403965
718.526337,3981.656806,-2143.969050,-13974.083984
718.528867,-1435.693560,765.703232,-7427.321350
718.531397,-1646.261949,3292.523898,-8154.739421
718.533927,3254.238736,-2067.398726,-11255.837510
718.536457,-3809.373579,2163.111630,-9705.288466
718.538987,2660.818731,-4575.076811,-10547.562021
718.541517,-995.414202,-1952.543242,-9743.573627
718.544047,-1244.267752,-3158.525832,-8671.589102
718.546577,1895.115499,-3388.236802,-12040.683323
718.549107,-899.701298,574.277424,-8958.727814
718.551637,325.423874,3177.668413,-8920.442653
718.554167,-210.568389,1646.261949,-10432.706536
718.556698,-267.996131,1607.976787,-9781.858789
718.559228,535.992262,-2392.822600,-7982.456194
718.561758,-1167.697429,-1818.545176,-11906.685258
718.564288,516.849682,-4039.084549,-5838.487144
718.566818,-612.562586,-2986.242605,-11619.546546
718.569368,-803.988394,-1129.412267,-9245.866526
718.571918,1416.550979,172.283227,-8537.591037
718.574469,-1493.121302,2488.535504,-9341.579430
718.577019,2526.820666,-2009.970984,-9418.149754
718.579569,-2297.109696,669.990328,-8480.163294
718.582120,1646.261949,-2526.820666,-12997.812363
718.584670,-1071.984525,-1320.838075,-6738.188442
718.587220,172.283227,-2450.250342,-9858.429112
718.589770,1071.984525,-2335.394858,-10987.841379
718.592321,-842.273555,-38.285162,-8212.167163
718.594871,-57.427742,-957.129040,-9341.579430
718.597421,-153.140646,-976.271621,-13686.945272
718.599972,-669.990328,1052.841944,-7216.752962
718.602522,57.427742,-2890.529701,-10547.562021
718.605072,-114.855485,-727.418070,-12002.398162
718.607623,363.709035,-267.996131,-3866.801322
718.610173,-1167.697429,1607.976787,-15409.777544
718.612723,57.427742,-842.273555,-7140.182638
718.615274,-153.140646,-248.853550,-7714.460062
718.617824,-306.281293,-2297.109696,-13112.667848
718.620374,-631.705166,-803.988394,-8824.729749
718.622924,57.427742,-1875.972918,-5704.489078
718.625475,-535.992262,-765.703232,-13552.947206
718.628025,-133.998066,-1071.984525,-8441.878133
718.630575,842.273555,-191.425808,-6776.473603
718.633126,-2009.970984,574.277424,-12691.531070
718.635676,1091.127106,-1244.267752,-10509.276859
718.638226,-1512.263883,210.568389,-6623.332957
718.640777,1493.121302,-2584.248408,-14356.935600
718.643327,-1244.267752,-57.427742,-6719.045861
718.645877,1856.830338,-3024.527766,-9284.151688
718.648428,-918.843878,-363.709035,-12480.962682
718.650978,19.142581,-1378.265818,-7101.897477
718.653528,248.853550,-1780.260014,-11160.124606
718.656079,-248.853550,-1684.547110,-12863.814298
718.658629,325.423874,-76.570323,-6412.764568
718.661179,478.564520,-957.129040,-9743.573627
718.663729,-1110.269686,1014.556782,-12940.384621
718.666280,2316.252277,-2622.533570,-6795.616184
718.668830,-2086.541307,497.707101,-10738.987829
718.671394,1301.695494,-2737.389054,-10796.415571
718.673958,-708.275490,210.568389,-7637.889739
718.676522,76.570323,-1627.119368,-10853.843314
718.679086,-516.849682,133.998066,-10719.845248
718.681650,-325.423874,-918.843878,-5953.342629
718.684214,-0.000000,-689.132909,-12423.534939
718.686777,-727.418070,-861.416136,-8920.442653
718.689341,57.427742,-267.996131,-8173.882002
718.691905,-267.996131,-1186.840010,-9877.571693
718.694469,-382.851616,-1244.267752,-11121.839445
718.697033,114.855485,-1703.689691,-6699.903280
718.699597,-76.570323,-823.130974,-11791.829773
718.702161,-535.992262,-631.705166,-8537.591037
718.704725,1148.554848,-1531.406464,-9418.149754
718.707289,-133.998066,-191.425808,-9150.153622
718.709853,-574.277424,172.283227,-10183.852986
718.712417,1167.697429,-1952.543242,-11236.694930
718.714981,-306.281293,-2565.105827,-9513.862658
718.717544,-344.566454,-612.562586,-10030.712339
718.720108,-669.990328,-1933.400661,-9399.007173
718.722672,1167.697429,-1914.258080,-12519.247843
718.725236,306.281293,-287.138712,-6680.760699
718.727800,-899.701298,2641.676150,-11485.548480
718.730364,612.562586,57.427742,-9284.151688
718.732928,-995.414202,1741.974853,-9265.009107
718.735492,995.414202,-2431.107762,-9992.427178
718.738056,-1244.267752,-1091.127106,-10662.417506
718.740620,248.853550,-3751.945837,-7369.893608
718.743184,-421.136778,-1684.547110,-10853.843314
718.745748,-440.279358,-1301.695494,-10585.847182
718.748311,-19.142581,1014.556782,-8307.880067
718.750875,-344.566454,478.564520,-9188.438784
718.753439,535.992262,-363.709035,-10892.128475
718.756003,-57.427742,-708.275490,-6623.332957
718.758567,-114.855485,-1148.554848,-12404.392358
718.761131,-76.570323,-2316.252277,-8212.167163
718.763695,555.134843,-2890.529701,-9934.999435
718.766259,306.281293,-1110.269686,-8767.302006
718.768823,-1033.699363,-842.273555,-9475.577496
718.771387,133.998066,-1646.261949,-12155.538808
718.773959,57.427742,-1856.830338,-9188.438784
718.776531,-1665.404530,38.285162,-8193.024582
718.779103,1186.840010,-2507.678085,-11810.972354
718.781675,114.855485,-19.142581,-9858.429112
718.784248,440.279358,421.136778,-6144.768437
718.786820,-287.138712,669.990328,-13591.232368
718.789392,669.990328,-1014.556782,-6987.041992
718.791964,-191.425808,-1071.984525,-10088.140082
718.794536,-95.712904,-2794.816797,-11313.265253
718.797108,-1244.267752,-440.279358,-6297.909083
718.799681,1780.260014,-4938.785846,-10700.702667
718.802253,-1914.258080,-76.570323,-11868.400096
718.804825,650.847747,-574.277424,-6412.764568
718.807397,-306.281293,1933.400661,-12174.681389
718.809969,-1033.699363,1205.982590,-8039.883936
718.812541,669.990328,-191.425808,-9303.294269
718.815114,-1339.980656,-803.988394,-8863.014910
718.817686,-76.570323,-1225.125171,-12270.394293
718.820258,-287.138712,-2545.963246,-5570.491013
718.822830,-382.851616,-2718.246474,-11676.974288
718.825402,-76.570323,-2354.537438,-9781.858789
718.827974,516.849682,612.562586,-8748.159426
718.830547,-191.425808,880.558717,-11523.833642
718.833119,57.427742,172.283227,-10088.140082
718.835691,478.564520,-287.138712,-7408.178770
718.838263,19.142581,-1684.547110,-12098.111066
718.840835,-191.425808,-1205.982590,-9341.579430
718.843407,612.562586,-3388.236802,-9131.011042
718.845980,-1225.125171,-1225.125171,-10853.843314
718.848552,1646.261949,-2928.814862,-11944.970419
718.851124,114.855485,593.420005,-7216.752962
718.853696,-306.281293,1320.838075,-9399.007173
718.856268,-229.710970,1339.980656,-11887.542677
718.858840,1741.974853,-2143.969050,-8863.014910
718.861413,-1914.258080,229.710970,-8518.448456
718.863985,1454.836141,-3790.230998,-12710.673651
718.866557,-1378.265818,-306.281293,-8307.880067
718.869129,535.992262,-2373.680019,-7657.032320
718.871701,-784.845813,-727.418070,-13304.093656
718.874273,153.140646,-306.281293,-5264.209720
718.876851,114.855485,1339.980656,-11734.402030
718.879429,-1071.984525,842.273555,-9131.011042
718.882006,-746.560651,-1129.412267,-7982.456194
718.884584,746.560651,-3503.092286,-11600.403965
718.887162,-746.560651,-1665.404530,-8824.729749
718.889739,-172.283227,-1780.260014,-8001.598774
718.892317,-172.283227,-1665.404530,-12021.540742
718.894894,-76.570323,-631.705166,-7848.458128
718.897472,612.562586,-325.423874,-10183.852986
718.900050,-1091.127106,899.701298,-9131.011042
718.902627,-133.998066,-1129.412267,-11160.124606
718.905205,248.853550,-842.273555,-9437.292334
718.907782,823.130974,-2182.254211,-11198.409768
718.910360,-689.132909,631.705166,-7446.463931
718.912938,401.994197,-899.701298,-9533.005238
718.915515,-76.570323,-555.134843,-14318.650438
718.918093,995.414202,-2469.392923,-5283.352301
718.920670,-823.130974,-153.140646,-10509.276859
718.923248,267.996131,-1722.832272,-12117.253646
718.925826,-555.134843,957.129040,-7714.460062
718.928403,133.998066,-1301.695494,-7733.602643
718.930981,-57.427742,-478.564520,-13457.234302
718.933558,-669.990328,-401.994197,-7446.463931
718.936136,38.285162,459.421939,-9111.868461
718.938714,1971.685822,-4230.510357,-7810.172966
718.941291,-3120.240670,229.710970,-12308.679454
718.943869,3273.381317,-3560.520029,-11255.837510
718.946446,-2239.681954,2660.818731,-7312.465866
718.949024,-631.705166,689.132909,-6585.047795
718.951602,19.142581,-2488.535504,-14778.072378
718.954179,-229.710970,-1895.115499,-6565.905214
718.956757,803.988394,-2947.957443,-9169.296203
718.959335,-1914.258080,-1550.549045,-12748.958813
718.961912,727.418070,-2928.814862,-8173.882002
718.964490,650.847747,-727.418070,-9628.718142
718.967067,19.142581,1799.402595,-11351.550414
718.969645,-363.709035,3024.527766,-6221.338760
718.972223,1339.980656,-1512.263883,-12346.964616
718.974800,-478.564520,-1607.976787,-9858.429112
718.977378,478.564520,-4058.227130,-8039.883936
718.979958,267.996131,-3503.092286,-11313.265253
718.982538,-421.136778,-1875.972918,-8767.302006
718.985118,-153.140646,918.843878,-8767.302006
718.987698,-440.279358,650.847747,-10509.276859
718.990278,-76.570323,1761.117434,-10088.140082
718.992859,-689.132909,1014.556782,-7140.182638
718.995439,-57.427742,248.853550,-12634.103328
718.998019,-937.986459,-2124.826469,-6757.331022
719.000599,153.140646,-3349.951640,-9590.432981
719.003179,-574.277424,-3235.096155,-10509.276859
719.005759,-555.134843,-38.285162,-8843.872330
719.008339,-153.140646,-248.853550,-7791.030386
719.010920,-650.847747,631.705166,-12040.683323
719.013500,727.418070,-191.425808,-7657.032320
719.016080,-765.703232,1244.267752,-10049.854920
719.018660,-1588.834206,-1110.269686,-9111.868461
719.021240,1416.550979,-3656.232933,-11944.970419
719.023820,-1091.127106,-267.996131,-6259.623922
719.026400,995.414202,-1339.980656,-11160.124606
719.028981,-784.845813,76.570323,-9667.003304
719.031561,1799.402595,-3120.240670,-11160.124606
719.034141,-1627.119368,421.136778,-9762.716208
719.036721,1186.840010,-2105.683888,-8441.878133
719.039301,95.712904,-248.853550,-10796.415571
719.041881,-746.560651,-114.855485,-10222.138147
719.044461,1856.830338,-1397.408398,-8212.167163
719.047042,-210.568389,-2469.392923,-9533.005238
719.049622,-1607.976787,669.990328,-13170.095590
719.052202,918.843878,-2986.242605,-8307.880067
719.054782,-2565.105827,1799.402595,-9590.432981
719.057362,1818.545176,-1914.258080,-9667.003304
719.059942,-1205.982590,937.986459,-9647.860723
719.062522,267.996131,-1493.121302,-9265.009107
719.065103,-593.420005,516.849682,-10987.841379
719.067683,-689.132909,-784.845813,-6451.049730
719.070263,631.705166,-2967.100024,-12098.111066
719.072843,-593.420005,-2909.672282,-8843.872330
719.075423,-555.134843,-842.273555,-8882.157491
719.078003,765.703232,-2201.396792,-11006.983960
719.080583,19.142581,-382.851616,-9667.003304
719.083106,-708.275490,1607.976787,-8269.594906
719.085629,267.996131,1263.410333,-12500.105262
719.088152,-459.421939,1148.554848,-4823.930362
719.090675,1282.552914,-3924.229064,-10758.130410
719.093198,-19.142581,-4421.936165,-14318.650438
719.095721,-497.707101,-3196.810994,-4709.074877
719.098244,306.281293,-2220.539373,-13036.097525
719.100767,-1014.556782,574.277424,-12251.251712
719.103290,459.421939,2277.967115,-4632.504554
719.105813,669.990328,765.703232,-12500.105262
719.108336,-287.138712,1627.119368,-11447.263318
719.110859,-823.130974,-1301.695494,-4268.795518
719.113382,325.423874,-3081.955509,-15792.629160
719.115905,-440.279358,-3369.094221,-7637.889739
719.118428,-421.136778,-995.414202,-7446.463931
719.120951,344.566454,-1952.543242,-11944.970419
719.123474,-1052.841944,2411.965181,-10892.128475
719.125997,172.283227,1435.693560,-4594.219392
719.128520,-421.136778,1110.269686,-13495.519464
719.131042,-172.283227,-1359.123237,-9762.716208
719.133565,-153.140646,-1818.545176,-7886.743290
719.136088,-306.281293,-3081.955509,-12270.394293
719.138611,-76.570323,-3196.810994,-9628.718142
719.141134,133.998066,-1780.260014,-5876.772306
719.143657,95.712904,-497.707101,-14835.500120
719.146180,-191.425808,1167.697429,-6719.045861
719.148703,918.843878,-191.425808,-9705.288466
719.151226,95.712904,-880.558717,-8958.727814
719.153749,-957.129040,-880.558717,-11121.839445
719.156272,1684.547110,-3062.812928,-10815.558152
719.158795,-1646.261949,-1052.841944,-8480.163294
719.161318,976.271621,-1780.260014,-10107.282662
719.163841,306.281293,-1071.984525,-10375.278794
719.166364,114.855485,1339.980656,-9418.149754
719.168887,-363.709035,-995.414202,-9418.149754
719.171410,114.855485,-1014.556782,-12155.538808
719.173933,57.427742,-2833.101958,-5704.489078
719.176456,-918.843878,-803.988394,-11485.548480
719.178979,-497.707101,-1014.556782,-10145.567824
719.181501,248.853550,689.132909,-9954.142016
