#time,accel_x,accel_y,accel_z
354.149292,536.266849,222.061783,9474.636058
354.149600,459.657299,-0.000000,9548.656652
354.149908,536.266849,148.041188,9770.718434
354.150216,612.876398,592.164754,9696.697840
354.150524,536.266849,-0.000000,9770.718434
354.150832,842.705048,-0.000000,9474.636058
354.151140,689.485948,370.102971,9474.636058
354.151449,689.485948,222.061783,9474.636058
354.151757,919.314598,148.041188,9548.656652
354.152065,766.095498,-0.000000,9918.759623
354.152373,689.485948,-0.000000,9770.718434
354.152681,383.047749,222.061783,9696.697840
354.152989,842.705048,370.102971,9696.697840
354.153297,612.876398,296.082377,9548.656652
354.153605,766.095498,370.102971,9696.697840
354.153913,612.876398,148.041188,9622.677246
354.154221,459.657299,148.041188,9696.697840
354.154529,1149.143247,370.102971,9696.697840
354.154837,689.485948,222.061783,9696.697840
354.155146,459.657299,-296.082377,9548.656652
354.155454,459.657299,-148.041188,9992.780217
354.155762,306.438199,148.041188,9548.656652
354.156070,459.657299,296.082377,9622.677246
354.156378,536.266849,296.082377,9696.697840
354.156686,536.266849,222.061783,9622.677246
354.156994,459.657299,-0.000000,9326.594869
354.157302,1072.533697,296.082377,9918.759623
354.157610,612.876398,-0.000000,9696.697840
354.157918,383.047749,-0.000000,9770.718434
354.158226,383.047749,370.102971,9622.677246
354.158534,536.266849,222.061783,9548.656652
354.158843,842.705048,296.082377,9548.656652
354.159151,536.266849,296.082377,9696.697840
354.159459,1072.533697,-0.000000,9622.677246
354.159767,842.705048,-74.020594,9400.615463
354.160075,536.266849,-0.000000,9622.677246
354.160383,459.657299,222.061783,9696.697840
354.160691,842.705048,148.041188,9548.656652
354.160999,689.485948,444.123565,9548.656652
354.161307,306.438199,296.082377,9474.636058
354.161615,612.876398,148.041188,9548.656652
354.161923,766.095498,-444.123565,10066.800811
354.162231,383.047749,-518.144159,9770.718434
354.162540,919.314598,-740.205942,9548.656652
354.162848,842.705048,-666.185348,9918.759623
354.163156,612.876398,-370.102971,9844.739029
354.163464,919.314598,-0.000000,10140.821405
354.163772,1302.362347,-74.020594,9770.718434
354.164080,2145.067394,296.082377,9104.533087
354.164388,2374.896044,666.185348,8586.388927
354.164696,2145.067394,518.144159,8660.409521
354.165004,2681.334243,740.205942,9178.553681
354.165312,1685.410096,370.102971,9178.553681
354.165620,1685.410096,148.041188,9474.636058
354.165929,1532.190996,-0.000000,9474.636058
354.166237,1378.971896,-0.000000,9696.697840
354.166545,1378.971896,-0.000000,10362.883188
354.166853,1838.629195,-296.082377,9992.780217
354.167161,1532.190996,-222.061783,9548.656652
354.167469,1915.238745,-518.144159,9918.759623
354.167777,2221.676944,-0.000000,10066.800811
354.168085,2374.896044,296.082377,9474.636058
354.168393,2298.286494,518.144159,9326.594869
354.168701,2604.724693,296.082377,9252.574275
354.169009,2528.115143,296.082377,9326.594869
354.169317,2604.724693,148.041188,9474.636058
354.169626,2528.115143,296.082377,9474.636058
354.169934,2451.505594,-0.000000,9622.677246
354.170242,2604.724693,-74.020594,9622.677246
354.170550,2528.115143,222.061783,9770.718434
354.170858,2604.724693,148.041188,9474.636058
354.171166,2911.162892,370.102971,9770.718434
354.171474,2911.162892,-74.020594,9992.780217
354.171782,3140.991542,-296.082377,10066.800811
354.172090,2834.553343,-444.123565,10214.842000
354.172398,3140.991542,-296.082377,10214.842000
354.172706,2834.553343,-0.000000,9844.739029
354.173014,3294.210641,148.041188,10066.800811
354.173323,3524.039291,370.102971,9474.636058
354.173631,4060.306139,592.164754,9178.553681
354.173939,4290.134789,814.226536,9326.594869
354.174247,4443.353888,666.185348,9178.553681
354.174555,4596.572988,296.082377,9400.615463
354.174863,4366.744339,222.061783,9622.677246
354.175171,4213.525239,370.102971,9252.574275
354.175479,4136.915689,148.041188,9474.636058
354.175787,4060.306139,222.061783,9696.697840
354.176095,3983.696590,222.061783,9548.656652
354.176403,4290.134789,296.082377,9844.739029
354.176711,4060.306139,370.102971,9474.636058
354.177020,4826.401637,444.123565,9030.512492
354.177328,4903.011187,740.205942,9104.533087
354.177636,4519.963438,1332.370696,8956.491898
354.177944,4673.182538,1332.370696,8882.471304
354.178252,4443.353888,1332.370696,8808.450710
354.178560,4519.963438,1332.370696,9178.553681
354.178868,4136.915689,814.226536,9104.533087
354.179176,3753.867940,814.226536,9918.759623
354.179484,3140.991542,222.061783,10140.821405
354.179792,2681.334243,296.082377,10510.924376
354.180100,2834.553343,666.185348,10881.027347
354.180408,1991.848295,-74.020594,10214.842000
354.180717,2604.724693,1110.308913,9696.697840
354.181025,2604.724693,740.205942,9918.759623
354.181333,2451.505594,-0.000000,9474.636058
354.181641,2451.505594,370.102971,9918.759623
354.181949,2068.457845,-0.000000,9918.759623
354.182257,1838.629195,-888.247130,10362.883188
354.182565,1532.190996,-518.144159,10807.006753
354.182873,1302.362347,-444.123565,10288.862594
354.183181,1302.362347,-1036.288319,10214.842000
354.183489,1991.848295,-1406.391290,10288.862594
354.183797,2298.286494,-1554.432478,10584.944971
354.184106,2451.505594,-1702.473667,10955.047942
354.184414,2681.334243,-1776.494261,10362.883188
354.184722,3600.648841,-1998.556043,9992.780217
354.185030,3447.429741,-1036.288319,9252.574275
354.185338,4290.134789,-444.123565,9252.574275
354.185646,5132.839837,-0.000000,8734.430116
354.185954,4903.011187,740.205942,8142.265362
354.186262,5362.668486,592.164754,8290.306550
354.186570,4903.011187,962.267725,8142.265362
354.186878,4596.572988,592.164754,8586.388927
354.187186,3983.696590,592.164754,8660.409521
354.187494,4060.306139,222.061783,9030.512492
354.187803,3064.381992,-0.000000,9474.636058
354.188111,2911.162892,-0.000000,9696.697840
354.188419,2987.772442,-148.041188,10066.800811
354.188727,2834.553343,518.144159,9696.697840
354.189035,3064.381992,1184.329507,9326.594869
354.189343,4519.963438,2072.576638,9474.636058
354.189651,4136.915689,3182.885551,8290.306550
354.189959,4136.915689,2960.823768,7994.224174
354.190267,4519.963438,2590.720797,8808.450710
354.190575,3600.648841,1776.494261,9104.533087
354.190883,2451.505594,370.102971,10362.883188
354.191191,1991.848295,-1110.308913,11325.150913
354.191500,1149.143247,-2590.720797,12953.603985
354.191808,383.047749,-3775.050304,12953.603985
354.192116,919.314598,-3552.988522,13471.748144
354.192424,1685.410096,-3256.906145,12879.583391
354.192732,2911.162892,-2368.659014,11177.109724
354.193040,4366.744339,-740.205942,9622.677246
354.193348,6511.811733,148.041188,8734.430116
354.193656,7967.393179,2368.659014,7031.956449
354.193964,7507.735880,3330.926739,5625.565159
354.194272,8120.612279,3849.070898,5625.565159
354.194580,7584.345430,4589.276840,5773.606348
354.194888,5975.544884,4959.379811,5477.523971
354.195197,5132.839837,4071.132681,6587.832884
354.195505,3447.429741,2294.638420,8216.285956
354.195813,2451.505594,1258.350101,9326.594869
354.196121,1378.971896,-444.123565,11325.150913
354.196429,842.705048,-2294.638420,11917.315666
354.196737,229.828649,-3775.050304,13249.686362
354.197045,-153.219100,-4367.215058,13619.789333
354.197353,612.876398,-4219.173869,13915.871710
354.197661,1225.752797,-4071.132681,13323.706956
354.197969,2604.724693,-2664.741391,11843.295072
354.198277,4060.306139,-1702.473667,10807.006753
354.198585,6435.202183,-888.247130,9918.759623
354.198894,5515.887586,1554.432478,6439.791695
354.199202,6971.469032,2220.617826,7105.977043
354.199510,7048.078582,2664.741391,6883.915261
354.199818,5669.106685,4145.153275,5477.523971
354.200126,6128.763984,3404.947333,6439.791695
354.200434,4903.011187,2960.823768,6365.771101
354.200742,3294.210641,1184.329507,7994.224174
354.201050,2834.553343,-1036.288319,9326.594869
354.201358,2068.457845,-2960.823768,12139.377449
354.201666,459.657299,-4145.153275,13027.624579
354.201974,689.485948,-4663.297435,13397.727550
354.202283,766.095498,-2886.803174,13027.624579
354.202591,3064.381992,-2146.597232,11473.192101
354.202899,4673.182538,666.185348,9474.636058
354.203207,6281.983084,3256.906145,6661.853478
354.203515,8427.050478,4367.215058,4959.379811
354.203823,8503.660028,6291.750507,4663.297435
354.204131,7277.907231,6069.688724,4663.297435
354.204439,6894.859482,5033.400406,5921.647536
354.204747,4366.744339,2146.597232,8364.327145
354.205055,1149.143247,-1258.350101,11917.315666
354.205363,-1608.800546,-2738.761985,13841.851115
354.205671,-2604.724693,-4811.338623,15026.180623
354.205980,-3217.601092,-6439.791695,17098.757260
354.206288,-2221.676944,-6735.874072,16876.695478
354.206596,-383.047749,-4441.235652,14211.954086
354.206904,2451.505594,-1702.473667,11177.109724
354.207212,5056.230287,814.226536,7772.162391
354.207520,7354.516781,3701.029710,6143.709319
354.207828,9269.755526,5181.441594,4663.297435
354.208136,9806.022374,5995.668130,3552.988522
354.208444,9116.536426,5773.606348,3330.926739
354.208752,6971.469032,2812.782580,5773.606348
354.209060,4290.134789,-296.082377,8660.409521
354.209368,1455.581446,-3478.967927,11177.109724
354.209677,-919.314598,-4737.318029,13175.665768
354.209985,-1378.971896,-4885.359217,13767.830521
354.210293,0.000000,-4441.235652,12879.583391
354.210601,2145.067394,-444.123565,11621.233289
354.210909,5132.839837,1332.370696,9030.512492
354.211217,7277.907231,2886.803174,7254.018232
354.211525,8197.221829,4515.256246,6217.729913
354.211833,8503.660028,4959.379811,6365.771101
354.212141,6665.030833,3478.967927,7846.182985
354.212449,4366.744339,1924.535449,9400.615463
354.212757,1762.019645,-444.123565,11251.130318
354.213065,-76.609550,-2516.700203,12065.356855
354.213374,-1762.019645,-3256.906145,13619.789333
354.213682,-1762.019645,-3701.029710,14285.974681
354.213990,-842.705048,-3182.885551,13841.851115
354.214298,1378.971896,-2368.659014,12139.377449
354.214606,3907.087040,-1332.370696,9918.759623
354.214914,5592.497135,-592.164754,8142.265362
354.215222,6205.373534,370.102971,7476.080014
354.215530,6741.640382,1554.432478,7328.038826
354.215838,6205.373534,3923.091493,6883.915261
354.216146,6128.763984,4441.235652,7105.977043
354.216453,5286.058936,5995.668130,6143.709319
354.216761,5209.449386,6735.874072,5033.400406
354.217069,5286.058936,5403.503377,6439.791695
354.217377,4673.182538,3997.112087,7698.141797
354.217685,2834.553343,962.267725,10214.842000
354.217993,1149.143247,-1850.514855,12435.459826
354.218301,-1455.581446,-5181.441594,14285.974681
354.218609,-2145.067394,-6439.791695,15248.242405
354.218917,-3753.867940,-6587.832884,14285.974681
354.219225,-2374.896044,-4219.173869,12879.583391
354.219532,-689.485948,-1702.473667,11547.212695
354.219840,1915.238745,222.061783,9770.718434
354.220148,3140.991542,2368.659014,7476.080014
354.220456,5515.887586,2294.638420,5995.668130
354.220764,4903.011187,3034.844362,5107.421000
354.221072,5056.230287,2590.720797,6365.771101
354.221380,4673.182538,1406.391290,8808.450710
354.221688,2681.334243,1480.411884,8290.306550
354.221996,1762.019645,444.123565,9622.677246
354.222304,1149.143247,-814.226536,9622.677246
354.222611,766.095498,-296.082377,9622.677246
354.222919,2298.286494,-1850.514855,11029.068536
354.223227,2451.505594,-2590.720797,10214.842000
354.223535,2604.724693,-2886.803174,10214.842000
354.223843,1378.971896,-3849.070898,9474.636058
354.224151,306.438199,-2442.679609,10362.883188
354.224459,1378.971896,-592.164754,10288.862594
354.224767,2145.067394,1998.556043,8586.388927
354.225075,2528.115143,2590.720797,8586.388927
354.225383,2604.724693,1998.556043,6883.915261
354.225690,2145.067394,1702.473667,8216.285956
354.225998,919.314598,370.102971,9844.739029
354.226306,-612.876398,-1036.288319,11399.171507
354.226614,-1608.800546,-1258.350101,12583.501014
354.226922,-1991.848295,-888.247130,11399.171507
354.227230,-766.095498,740.205942,11029.068536
354.227538,1378.971896,1850.514855,10214.842000
354.227846,2834.553343,2072.576638,9474.636058
354.228154,4060.306139,962.267725,8734.430116
354.228462,3600.648841,-444.123565,8290.306550
354.228769,1838.629195,-1184.329507,10066.800811
354.229077,1225.752797,-1036.288319,9992.780217
354.229385,1072.533697,-0.000000,9474.636058
354.229693,995.924147,1628.453072,8660.409521
354.230001,2451.505594,3256.906145,7254.018232
354.230309,3370.820191,3182.885551,7105.977043
354.230617,2911.162892,1554.432478,7698.141797
354.230925,1455.581446,-444.123565,9178.553681
354.231233,-995.924147,-1554.432478,10066.800811
354.231541,-1608.800546,-3256.906145,12805.562797
354.231848,-2451.505594,-2220.617826,12287.418637
354.232156,-995.924147,962.267725,11029.068536
354.232464,1149.143247,1406.391290,10510.924376
354.232772,2911.162892,2368.659014,9474.636058
354.233080,5132.839837,2294.638420,8586.388927
354.233388,3830.477490,222.061783,8734.430116
354.233696,2221.676944,-1924.535449,10066.800811
354.234004,766.095498,-2664.741391,10955.047942
354.234312,-536.266849,-2738.761985,11547.212695
354.234620,-536.266849,-2368.659014,10214.842000
354.234927,842.705048,-370.102971,9030.512492
354.235235,2221.676944,1332.370696,8216.285956
354.235543,3217.601092,888.247130,7624.121203
354.235851,2757.943793,370.102971,8660.409521
354.236159,1685.410096,-0.000000,9252.574275
354.236467,919.314598,296.082377,9474.636058
354.236775,459.657299,1480.411884,9696.697840
354.237083,1225.752797,3108.864956,9474.636058
354.237391,2298.286494,4589.276840,8142.265362
354.237699,3370.820191,4515.256246,8290.306550
354.238006,3064.381992,2960.823768,9400.615463
354.238314,1532.190996,814.226536,9400.615463
354.238622,-612.876398,-2072.576638,11547.212695
354.238930,-3064.381992,-3849.070898,12361.439231
354.239238,-3447.429741,-3849.070898,12583.501014
354.239546,-2451.505594,-3034.844362,11843.295072
354.239854,-995.924147,-1480.411884,10066.800811
354.240162,1378.971896,296.082377,9400.615463
354.240470,1149.143247,518.144159,8068.244768
354.240778,1608.800546,296.082377,8512.368333
354.241085,383.047749,666.185348,9400.615463
354.241393,0.000000,962.267725,9770.718434
354.241701,-229.828649,1850.514855,9252.574275
354.242009,766.095498,3552.988522,8882.471304
354.242317,2145.067394,3627.009116,9030.512492
354.242625,3064.381992,3034.844362,7920.203579
354.242933,1991.848295,888.247130,8586.388927
354.243241,612.876398,-1184.329507,10436.903782
354.243549,-1225.752797,-3330.926739,10288.862594
354.243857,-3217.601092,-4293.194464,11251.130318
354.244164,-2987.772442,-4293.194464,11103.089130
354.244472,-1762.019645,-1998.556043,9400.615463
354.244780,306.438199,-370.102971,8734.430116
354.245088,1762.019645,370.102971,7698.141797
354.245396,2451.505594,666.185348,7105.977043
354.245704,995.924147,-0.000000,8660.409521
354.246012,-153.219100,-148.041188,10584.944971
354.246320,-1149.143247,592.164754,10510.924376
354.246628,-1072.533697,1554.432478,10288.862594
354.246936,153.219100,2368.659014,10288.862594
354.247243,2374.896044,2738.761985,9992.780217
354.247551,2451.505594,1554.432478,9252.574275
354.247859,2145.067394,-148.041188,9474.636058
354.248167,459.657299,-1628.453072,10362.883188
354.248475,-1378.971896,-3034.844362,11547.212695
354.248783,-2374.896044,-2886.803174,11917.315666
354.249091,-1608.800546,-2368.659014,10584.944971
354.249399,-306.438199,-0.000000,8438.347739
354.249707,1225.752797,1406.391290,7772.162391
354.250015,3140.991542,1776.494261,7624.121203
354.250322,2604.724693,1924.535449,7476.080014
354.250630,1762.019645,888.247130,9178.553681
354.250938,306.438199,666.185348,9770.718434
354.251246,-1149.143247,1184.329507,9918.759623
354.251554,2145.067394,1628.453072,11991.336260
354.251862,0.000000,3330.926739,7920.203579
354.252170,2911.162892,2812.782580,9622.677246
354.252478,3140.991542,444.123565,10510.924376
354.252786,459.657299,222.061783,8438.347739
354.253094,-612.876398,-3108.864956,12435.459826
354.253401,-1685.410096,-3256.906145,11177.109724
354.253709,-2681.334243,-3404.947333,11251.130318
354.254017,-1455.581446,-1924.535449,10066.800811
354.254325,536.266849,-74.020594,8956.491898
354.254633,1378.971896,962.267725,7550.100608
354.254941,3370.820191,-0.000000,7846.182985
354.255249,2757.943793,814.226536,7994.224174
354.255557,1378.971896,222.061783,9844.739029
354.255865,1149.143247,518.144159,10140.821405
354.256173,459.657299,2368.659014,8586.388927
354.256480,1991.848295,2664.741391,9992.780217
354.256788,3140.991542,3404.947333,8734.430116
354.257096,3907.087040,3330.926739,7772.162391
354.257404,3830.477490,1480.411884,9104.533087
354.257712,1608.800546,-962.267725,8882.471304
354.258020,-919.314598,-2146.597232,11473.192101
354.258328,-1532.190996,-3775.050304,11991.336260
354.258636,-1838.629195,-2812.782580,11251.130318
354.258944,-1225.752797,-1554.432478,10066.800811
354.259251,995.924147,296.082377,9030.512492
354.259559,2298.286494,1110.308913,8586.388927
354.259867,2068.457845,1184.329507,8068.244768
354.260175,1455.581446,-0.000000,9992.780217
354.260483,766.095498,148.041188,9844.739029
354.260791,-536.266849,888.247130,10288.862594
354.261099,-536.266849,1554.432478,10881.027347
354.261407,1302.362347,2886.803174,9844.739029
354.261715,2221.676944,3330.926739,9400.615463
354.262023,2987.772442,1998.556043,9400.615463
354.262330,2068.457845,962.267725,9178.553681
354.262638,536.266849,-1184.329507,10510.924376
354.262946,-1762.019645,-2590.720797,11769.274478
354.263254,-1685.410096,-2738.761985,11843.295072
354.263562,-1225.752797,-2368.659014,10436.903782
354.263870,0.000000,-444.123565,8956.491898
354.264178,2068.457845,-0.000000,7328.038826
354.264486,2757.943793,1406.391290,7179.997637
354.264794,1991.848295,370.102971,8068.244768
354.265102,612.876398,222.061783,8660.409521
354.265409,-612.876398,-444.123565,10584.944971
354.265717,-1225.752797,740.205942,10510.924376
354.266025,459.657299,2294.638420,9844.739029
354.266333,766.095498,2960.823768,9844.739029
354.266641,1608.800546,2886.803174,9326.594869
354.266949,2987.772442,962.267725,9622.677246
354.267257,766.095498,-0.000000,9770.718434
354.267565,-1302.362347,-2886.803174,11917.315666
354.267873,-2681.334243,-4293.194464,12361.439231
354.268181,-2987.772442,-3256.906145,11621.233289
354.268488,-1608.800546,-2516.700203,10214.842000
354.268796,153.219100,222.061783,7328.038826
354.269104,2298.286494,1628.453072,7698.141797
354.269412,2451.505594,1406.391290,7328.038826
354.269720,2145.067394,1110.308913,7328.038826
354.270028,1838.629195,666.185348,8882.471304
354.270336,766.095498,1554.432478,9326.594869
354.270644,842.705048,2072.576638,9474.636058
354.270952,536.266849,3478.967927,9400.615463
354.271260,2145.067394,3108.864956,10288.862594
354.271567,1991.848295,2442.679609,9104.533087
354.271875,842.705048,814.226536,10658.965565
354.272183,0.000000,-2072.576638,12065.356855
354.272491,-2221.676944,-3478.967927,12509.480420
354.272799,-2681.334243,-4219.173869,12287.418637
354.273107,-2374.896044,-3330.926739,11695.253884
354.273415,-1225.752797,-1406.391290,10214.842000
354.273723,459.657299,444.123565,8438.347739
354.274031,2528.115143,962.267725,7772.162391
354.274339,2987.772442,1998.556043,6735.874072
354.274646,1302.362347,1036.288319,8142.265362
354.274954,1149.143247,740.205942,9844.739029
354.275262,229.828649,888.247130,9918.759623
354.275570,0.000000,2294.638420,9548.656652
354.275878,1608.800546,2960.823768,9474.636058
354.276186,2681.334243,3034.844362,8956.491898
354.276494,2221.676944,1702.473667,9400.615463
354.276802,1455.581446,-370.102971,10362.883188
354.277110,-766.095498,-2368.659014,11399.171507
354.277418,-2221.676944,-3849.070898,12879.583391
354.277725,-2604.724693,-3923.091493,12139.377449
354.278033,-1225.752797,-2368.659014,10436.903782
354.278341,-306.438199,-74.020594,8216.285956
354.278649,3294.210641,962.267725,7624.121203
354.278957,3524.039291,2516.700203,5625.565159
354.279265,2834.553343,1702.473667,7772.162391
354.279573,2145.067394,592.164754,8734.430116
354.279881,229.828649,1184.329507,8956.491898
354.280189,-229.828649,814.226536,10658.965565
354.280497,306.438199,2220.617826,9400.615463
354.280804,1302.362347,3552.988522,9252.574275
354.281112,1991.848295,2442.679609,9326.594869
354.281420,2987.772442,1110.308913,9326.594869
354.281728,229.828649,-148.041188,10214.842000
354.282036,-766.095498,-3330.926739,12435.459826
354.282344,-1838.629195,-3775.050304,12361.439231
354.282652,-2374.896044,-2812.782580,11325.150913
354.282960,0.000000,-1406.391290,9696.697840
354.283268,1149.143247,1258.350101,7402.059420
354.283576,3370.820191,2072.576638,7254.018232
354.283883,3677.258390,1554.432478,6883.915261
354.284191,2451.505594,814.226536,8142.265362
354.284499,995.924147,-444.123565,9696.697840
354.284807,-536.266849,-370.102971,10140.821405
354.285115,-689.485948,1036.288319,9844.739029
354.285423,1072.533697,2368.659014,9548.656652
354.285731,2068.457845,2812.782580,9178.553681
354.286039,1685.410096,2368.659014,9400.615463
354.286347,2298.286494,-0.000000,10510.924376
354.286655,612.876398,-1480.411884,10807.006753
354.286962,-1915.238745,-3034.844362,12139.377449
354.287270,-2068.457845,-3997.112087,12361.439231
354.287578,-1455.581446,-2516.700203,10362.883188
354.287886,0.000000,-518.144159,9326.594869
354.288194,2451.505594,962.267725,7920.203579
354.288502,3907.087040,2294.638420,6809.894666
354.288810,3370.820191,1258.350101,6883.915261
354.289118,2221.676944,296.082377,8364.327145
354.289426,536.266849,222.061783,10362.883188
354.289734,-229.828649,518.144159,10362.883188
354.290041,-383.047749,1480.411884,10066.800811
354.290349,1302.362347,2442.679609,9400.615463
354.290657,1991.848295,2738.761985,9030.512492
354.290965,2604.724693,1702.473667,9400.615463
354.291273,1915.238745,148.041188,9474.636058
354.291581,0.000000,-2220.617826,10881.027347
354.291889,-1838.629195,-3849.070898,12361.439231
354.292197,-2451.505594,-3478.967927,11769.274478
354.292505,-1532.190996,-1702.473667,10881.027347
354.292813,0.000000,222.061783,8660.409521
354.293120,2451.505594,1554.432478,7328.038826
354.293428,3140.991542,2072.576638,7402.059420
354.293736,2681.334243,1184.329507,7846.182985
354.294044,995.924147,666.185348,8438.347739
354.294352,842.705048,518.144159,9770.718434
354.294660,459.657299,1110.308913,10214.842000
354.294968,383.047749,2368.659014,9918.759623
354.295276,2145.067394,2738.761985,10214.842000
354.295584,2451.505594,2812.782580,9104.533087
354.295892,1762.019645,1480.411884,9474.636058
354.296199,612.876398,-1332.370696,10436.903782
354.296507,-842.705048,-2442.679609,12065.356855
354.296815,-2451.505594,-3997.112087,12953.603985
354.297123,-2145.067394,-3775.050304,11547.212695
354.297431,-995.924147,-1110.308913,9696.697840
354.297739,842.705048,296.082377,8512.368333
354.298047,2145.067394,1480.411884,7698.141797
354.298355,2987.772442,1332.370696,7550.100608
354.298663,2221.676944,370.102971,8068.244768
354.298971,689.485948,296.082377,9178.553681
354.299278,536.266849,148.041188,9844.739029
354.299586,0.000000,1850.514855,10584.944971
354.299894,1149.143247,2442.679609,9992.780217
354.300202,2221.676944,3034.844362,8956.491898
354.300510,2374.896044,2368.659014,9770.718434
354.300818,1302.362347,222.061783,9622.677246
354.301126,-536.266849,-2072.576638,11399.171507
354.301434,-2681.334243,-4219.173869,13249.686362
354.301742,-3217.601092,-5033.400406,13101.645173
354.302050,-2757.943793,-3627.009116,11399.171507
354.302357,-1378.971896,-666.185348,8956.491898
354.302665,766.095498,592.164754,7920.203579
354.302973,2757.943793,1702.473667,7402.059420
354.303281,2681.334243,2516.700203,6957.935855
354.303589,1838.629195,1480.411884,8068.244768
354.303897,1532.190996,1258.350101,8290.306550
354.304205,536.266849,2072.576638,9104.533087
354.304513,766.095498,2738.761985,9178.553681
354.304821,2068.457845,3701.029710,8956.491898
354.305129,2298.286494,3256.906145,9474.636058
354.305436,1991.848295,2220.617826,9474.636058
354.305744,1072.533697,-814.226536,10288.862594
354.306052,-1072.533697,-2812.782580,11695.253884
354.306360,-2757.943793,-4663.297435,12509.480420
354.306668,-2528.115143,-4145.153275,11843.295072
354.306976,-1685.410096,-2294.638420,11103.089130
354.307284,0.000000,-444.123565,8734.430116
354.307592,2145.067394,592.164754,7994.224174
354.307900,2757.943793,962.267725,7550.100608
354.308207,1991.848295,592.164754,8142.265362
354.308515,1608.800546,-0.000000,9548.656652
354.308823,459.657299,666.185348,9844.739029
354.309131,0.000000,1628.453072,9992.780217
354.309439,995.924147,2368.659014,9844.739029
354.309747,2145.067394,2590.720797,9474.636058
354.310055,2528.115143,2590.720797,9030.512492
354.310363,1915.238745,666.185348,9030.512492
354.310671,1302.362347,-1776.494261,11029.068536
354.310979,-1608.800546,-3775.050304,12213.398043
354.311286,-2834.553343,-4737.318029,12361.439231
354.311594,-2374.896044,-3775.050304,11399.171507
354.311902,-919.314598,-1036.288319,9400.615463
354.312210,1378.971896,888.247130,7994.224174
354.312518,3064.381992,1702.473667,7476.080014
354.312826,3140.991542,1628.453072,7402.059420
354.313134,2145.067394,2220.617826,8216.285956
354.313442,1302.362347,1258.350101,9030.512492
354.313750,536.266849,2664.741391,9252.574275
354.314058,689.485948,2590.720797,10066.800811
354.314365,1685.410096,3552.988522,9400.615463
354.314673,1762.019645,3404.947333,8734.430116
354.314981,1838.629195,2072.576638,9474.636058
354.315289,766.095498,-0.000000,9918.759623
354.315597,-612.876398,-2368.659014,11991.336260
354.315905,-3140.991542,-4441.235652,13323.706956
354.316213,-2834.553343,-4145.153275,13027.624579
354.316521,-2757.943793,-2146.597232,11473.192101
354.316829,-459.657299,-518.144159,9696.697840
354.317137,1762.019645,740.205942,8734.430116
354.317444,3524.039291,1850.514855,7031.956449
354.317752,3294.210641,1924.535449,7105.977043
354.318060,2834.553343,1776.494261,7698.141797
354.318368,1532.190996,1850.514855,8956.491898
354.318676,1532.190996,1776.494261,10288.862594
354.318984,1302.362347,2368.659014,9178.553681
354.319292,2145.067394,3182.885551,9400.615463
354.319600,2834.553343,2220.617826,9400.615463
354.319907,2374.896044,888.247130,9104.533087
354.320215,766.095498,-1036.288319,10584.944971
354.320523,-689.485948,-3923.091493,13175.665768
354.320831,-2451.505594,-4589.276840,12435.459826
354.321139,-2604.724693,-4885.359217,12731.542202
354.321447,-536.266849,-2590.720797,11473.192101
354.321755,153.219100,-222.061783,8364.327145
354.322063,2145.067394,518.144159,8808.450710
354.322370,2681.334243,592.164754,7550.100608
354.322678,2068.457845,1480.411884,7179.997637
354.322986,1838.629195,666.185348,8882.471304
354.323294,383.047749,1628.453072,8882.471304
354.323602,1072.533697,2294.638420,9844.739029
354.323910,1915.238745,3108.864956,9178.553681
354.324218,2528.115143,3478.967927,9030.512492
354.324526,2068.457845,2368.659014,8512.368333
354.324833,2451.505594,962.267725,9548.656652
354.325141,0.000000,-1332.370696,10214.842000
354.325449,-1378.971896,-2812.782580,11695.253884
354.325757,-2528.115143,-3404.947333,12065.356855
354.326065,-2298.286494,-2072.576638,11177.109724
354.326373,-1149.143247,-0.000000,9474.636058
354.326681,1991.848295,444.123565,8956.491898
354.326989,1302.362347,1554.432478,7179.997637
354.327296,2298.286494,1406.391290,7624.121203
354.327604,1532.190996,296.082377,9326.594869
354.327912,0.000000,1554.432478,8364.327145
354.328220,229.828649,444.123565,10732.986159
354.328528,0.000000,2590.720797,9178.553681
354.328836,1838.629195,2812.782580,9030.512492
354.329144,2604.724693,3034.844362,8882.471304
354.329452,2604.724693,1776.494261,8808.450710
354.329759,1072.533697,-0.000000,9696.697840
354.330067,0.000000,-2960.823768,11547.212695
354.330375,-2068.457845,-3552.988522,11991.336260
354.330683,-2911.162892,-4293.194464,11547.212695
354.330991,-1915.238745,-2812.782580,10955.047942
354.331299,-995.924147,-1110.308913,9474.636058
354.331607,842.705048,370.102971,8882.471304
354.331915,2145.067394,444.123565,8438.347739
354.332222,1762.019645,1036.288319,7772.162391
354.332530,995.924147,740.205942,8808.450710
354.332838,0.000000,1406.391290,9918.759623
354.333146,689.485948,1998.556043,9548.656652
354.333454,995.924147,3108.864956,8734.430116
354.333762,1991.848295,3404.947333,9178.553681
354.334070,2987.772442,2812.782580,8364.327145
354.334378,1608.800546,1628.453072,8882.471304
354.334685,1302.362347,-1406.391290,11103.089130
354.334993,-1762.019645,-3256.906145,11695.253884
354.335301,-3217.601092,-4145.153275,13471.748144
354.335609,-2987.772442,-4071.132681,12065.356855
354.335917,-2068.457845,-2220.617826,10140.821405
354.336225,-536.266849,-666.185348,10140.821405
354.336533,1762.019645,740.205942,7994.224174
354.336841,2221.676944,1628.453072,7550.100608
354.337148,1225.752797,592.164754,8808.450710
354.337456,1455.581446,1406.391290,8512.368333
354.337764,459.657299,1924.535449,9326.594869
354.338072,1072.533697,2368.659014,9474.636058
354.338380,1838.629195,4071.132681,9178.553681
354.338688,2451.505594,4367.215058,7994.224174
354.338996,2757.943793,2368.659014,9030.512492
354.339304,2221.676944,666.185348,9104.533087
354.339611,536.266849,-1554.432478,10881.027347
354.339919,-1838.629195,-3849.070898,12139.377449
354.340227,-2757.943793,-4589.276840,12213.398043
354.340535,-3064.381992,-2886.803174,11621.233289
354.340843,-1149.143247,-1110.308913,9992.780217
354.341151,766.095498,370.102971,9474.636058
354.341459,2374.896044,1036.288319,8438.347739
354.341767,2834.553343,888.247130,7846.182985
354.342074,1915.238745,1628.453072,7920.203579
354.342382,1378.971896,1184.329507,8586.388927
354.342690,766.095498,1702.473667,9622.677246
354.342998,1225.752797,2516.700203,9622.677246
354.343306,1685.410096,3108.864956,8438.347739
354.343614,2451.505594,2590.720797,9178.553681
354.343922,2451.505594,1332.370696,9326.594869
354.344230,1149.143247,-592.164754,9844.739029
354.344537,-842.705048,-2960.823768,11547.212695
354.344845,-1762.019645,-4441.235652,12953.603985
354.345153,-3830.477490,-4441.235652,10214.842000
354.345461,-1915.238745,-3330.926739,11695.253884
354.345769,76.609550,-1406.391290,9178.553681
354.346077,0.000000,1702.473667,7031.956449
354.346385,3140.991542,-0.000000,10436.903782
354.346693,2528.115143,2590.720797,5773.606348
354.347000,2068.457845,1554.432478,8808.450710
354.347308,1608.800546,1850.514855,8438.347739
354.347616,1685.410096,2812.782580,8734.430116
354.347924,1838.629195,3182.885551,9030.512492
354.348232,2145.067394,4145.153275,7328.038826
354.348540,3830.477490,2812.782580,9474.636058
354.348848,2451.505594,1332.370696,8438.347739
354.349156,995.924147,-1258.350101,10436.903782
354.349463,-689.485948,-3775.050304,11547.212695
354.349771,-1991.848295,-4219.173869,11843.295072
354.350079,-2528.115143,-4811.338623,12361.439231
354.350387,-2221.676944,-2368.659014,9474.636058
354.350695,459.657299,-518.144159,9992.780217
354.351003,1991.848295,444.123565,8364.327145
354.351311,2834.553343,2146.597232,6661.853478
354.351619,2298.286494,1406.391290,8956.491898
354.351926,2145.067394,1702.473667,8290.306550
354.352234,536.266849,2146.597232,8438.347739
354.352542,766.095498,2516.700203,9844.739029
354.352850,1455.581446,3108.864956,9178.553681
354.353158,2451.505594,3256.906145,9030.512492
354.353466,2374.896044,2146.597232,9474.636058
354.353774,1915.238745,-666.185348,9622.677246
354.354082,-306.438199,-2220.617826,10214.842000
354.354389,-1685.410096,-4071.132681,12287.418637
354.354697,-1838.629195,-4737.318029,11843.295072
354.355005,-3140.991542,-2886.803174,11177.109724
354.355313,-842.705048,-1628.453072,10955.047942
354.355621,1608.800546,370.102971,7698.141797
354.355929,1915.238745,1924.535449,7105.977043
354.356237,3140.991542,1184.329507,7994.224174
354.356545,1608.800546,1850.514855,8142.265362
354.356852,-383.047749,592.164754,10214.842000
354.357160,-383.047749,740.205942,11251.130318
354.357468,0.000000,2072.576638,10436.903782
354.357776,995.924147,2368.659014,9844.739029
354.358084,1532.190996,2516.700203,8808.450710
354.358392,2757.943793,1332.370696,9474.636058
354.358700,919.314598,-814.226536,10584.944971
354.359008,-383.047749,-2368.659014,11029.068536
354.359315,-1532.190996,-3478.967927,11843.295072
354.359623,-1685.410096,-3182.885551,11843.295072
354.359931,-1225.752797,-1850.514855,10066.800811
354.360239,306.438199,518.144159,8142.265362
354.360547,1991.848295,814.226536,7920.203579
354.360855,2374.896044,1924.535449,7105.977043
354.361163,2451.505594,1258.350101,8290.306550
354.361471,766.095498,666.185348,9770.718434
354.361778,-459.657299,592.164754,10881.027347
354.362086,-459.657299,888.247130,11103.089130
354.362394,536.266849,2146.597232,9992.780217
354.362702,1762.019645,3108.864956,9474.636058
354.363010,2451.505594,1924.535449,9030.512492
354.363318,2604.724693,740.205942,9030.512492
354.363626,1225.752797,-1110.308913,9696.697840
354.363934,-1072.533697,-2442.679609,10881.027347
354.364241,-1532.190996,-3404.947333,11621.233289
354.364549,-1762.019645,-2294.638420,10881.027347
354.364857,-383.047749,-814.226536,9178.553681
354.365165,1149.143247,962.267725,7772.162391
354.365473,3140.991542,1702.473667,7994.224174
354.365781,2681.334243,1036.288319,7328.038826
354.366089,1762.019645,592.164754,8586.388927
354.366397,766.095498,-74.020594,9992.780217
354.366704,-306.438199,-0.000000,9992.780217
354.367012,0.000000,592.164754,11399.171507
354.367320,1072.533697,2294.638420,9770.718434
354.367628,2451.505594,2664.741391,9400.615463
354.367936,2834.553343,1628.453072,9400.615463
354.368244,2374.896044,370.102971,9178.553681
354.368552,995.924147,-1332.370696,10658.965565
354.368860,-1149.143247,-2516.700203,11843.295072
354.369167,-1532.190996,-2886.803174,11473.192101
354.369475,-1455.581446,-2146.597232,10362.883188
354.369783,-1149.143247,-444.123565,9474.636058
354.370091,1072.533697,444.123565,8438.347739
354.370399,1302.362347,962.267725,7994.224174
354.370707,1532.190996,296.082377,9030.512492
354.371015,842.705048,-444.123565,9400.615463
354.371323,-306.438199,222.061783,10066.800811
354.371630,-229.828649,592.164754,10955.047942
354.371938,766.095498,1702.473667,9474.636058
354.372246,1991.848295,3330.926739,8512.368333
354.372554,3294.210641,3404.947333,8586.388927
354.372862,3677.258390,2368.659014,8808.450710
354.373170,2145.067394,444.123565,9474.636058
354.373478,766.095498,-2072.576638,10066.800811
354.373786,-1762.019645,-2738.761985,10881.027347
354.374093,-2298.286494,-3404.947333,11399.171507
354.374401,-1608.800546,-2368.659014,9696.697840
354.374709,0.000000,-222.061783,8290.306550
354.375017,612.876398,-148.041188,9030.512492
354.375325,1608.800546,222.061783,8364.327145
354.375633,1455.581446,962.267725,8216.285956
354.375941,306.438199,444.123565,9326.594869
354.376249,229.828649,814.226536,9992.780217
354.376556,0.000000,2368.659014,9622.677246
354.376864,1149.143247,3034.844362,10288.862594
354.377172,2068.457845,4293.194464,8586.388927
354.377480,3753.867940,3108.864956,8734.430116
354.377788,2528.115143,1628.453072,9770.718434
354.378096,229.828649,-962.267725,9992.780217
354.378404,-1149.143247,-3108.864956,12435.459826
354.378712,-3064.381992,-3775.050304,12213.398043
354.379019,-3140.991542,-3552.988522,11695.253884
354.379327,-1915.238745,-1554.432478,9104.533087
354.379635,2145.067394,-74.020594,8364.327145
354.379943,1455.581446,-296.082377,7550.100608
354.380251,2528.115143,1628.453072,5921.647536
354.380559,5439.278036,-888.247130,9030.512492
354.380867,-459.657299,2368.659014,5995.668130
354.381175,1149.143247,-814.226536,10362.883188
354.381482,459.657299,2294.638420,9474.636058
354.381790,1608.800546,3627.009116,9400.615463
354.382098,1991.848295,1924.535449,10436.903782
354.382406,1608.800546,2738.761985,8512.368333
354.382714,1915.238745,-222.061783,11547.212695
354.383022,-1378.971896,-1184.329507,10658.965565
354.383330,-1838.629195,-3108.864956,13693.809927
354.383637,-3677.258390,-3775.050304,13101.645173
354.383945,-2911.162892,-2368.659014,11547.212695
354.384253,-2068.457845,-1036.288319,9696.697840
354.384561,0.000000,370.102971,9030.512492
354.384869,1762.019645,1110.308913,9474.636058
354.385177,1915.238745,1184.329507,7476.080014
354.385485,1455.581446,962.267725,9622.677246
354.385793,0.000000,592.164754,9770.718434
354.386100,153.219100,1702.473667,9696.697840
354.386408,1302.362347,2590.720797,9918.759623
354.386716,1991.848295,3256.906145,8882.471304
354.387024,3064.381992,3701.029710,9474.636058
354.387332,2604.724693,1628.453072,9548.656652
354.387640,1302.362347,-0.000000,10436.903782
354.387948,-153.219100,-1998.556043,11325.150913
354.388256,-1608.800546,-2664.741391,11843.295072
354.388563,-2451.505594,-2886.803174,11547.212695
354.388871,-1302.362347,-1110.308913,10362.883188
354.389179,1225.752797,592.164754,8068.244768
354.389487,2604.724693,2664.741391,6365.771101
354.389795,3524.039291,1480.411884,6957.935855
354.390103,3217.601092,1924.535449,6957.935855
354.390411,1455.581446,1036.288319,8734.430116
354.390719,229.828649,-74.020594,9474.636058
354.391026,-459.657299,296.082377,10140.821405
354.391334,995.924147,1480.411884,10140.821405
354.391642,2221.676944,1850.514855,9178.553681
354.391950,2911.162892,1258.350101,9030.512492
354.392258,2145.067394,-888.247130,10140.821405
354.392566,995.924147,-2516.700203,11325.150913
354.392874,-995.924147,-4071.132681,11399.171507
354.393182,-1838.629195,-4737.318029,12583.501014
354.393489,-1225.752797,-3701.029710,11177.109724
354.393797,0.000000,-1924.535449,8660.409521
354.394105,1532.190996,296.082377,8364.327145
354.394413,3370.820191,1258.350101,6735.874072
354.394721,3600.648841,1998.556043,6661.853478
354.395029,2221.676944,1702.473667,7402.059420
354.395337,1608.800546,666.185348,7846.182985
354.395645,-306.438199,1110.308913,9770.718434
354.395952,383.047749,1258.350101,9992.780217
354.396260,1149.143247,2516.700203,8660.409521
354.396568,1608.800546,3182.885551,9400.615463
354.396876,2911.162892,1924.535449,10658.965565
354.397184,842.705048,-0.000000,8882.471304
354.397492,-306.438199,-2072.576638,11547.212695
354.397800,-1762.019645,-3627.009116,12657.521608
354.398108,-2911.162892,-3182.885551,11325.150913
354.398415,-2451.505594,-3108.864956,12213.398043
354.398723,-766.095498,-222.061783,8734.430116
354.399031,1378.971896,1702.473667,8512.368333
354.399339,2298.286494,2220.617826,7920.203579
354.399647,2528.115143,2294.638420,7402.059420
354.399955,1378.971896,1406.391290,8290.306550
354.400263,229.828649,1554.432478,9030.512492
354.400571,0.000000,1998.556043,10066.800811
354.400878,229.828649,2516.700203,9104.533087
354.401186,919.314598,2960.823768,9474.636058
354.401494,2221.676944,2368.659014,9030.512492
354.401802,2604.724693,1110.308913,9326.594869
354.402110,842.705048,-740.205942,10584.944971
354.402418,-919.314598,-2516.700203,11399.171507
354.402726,-1838.629195,-3775.050304,13027.624579
354.403034,-2145.067394,-3552.988522,11843.295072
354.403341,-1378.971896,-1776.494261,9770.718434
354.403649,229.828649,-222.061783,8660.409521
354.403957,2451.505594,1406.391290,7920.203579
354.404265,3217.601092,1554.432478,7624.121203
354.404573,1685.410096,1110.308913,7772.162391
354.404881,229.828649,444.123565,9474.636058
354.405189,-383.047749,148.041188,10288.862594
354.405497,-1378.971896,962.267725,11103.089130
354.405804,0.000000,1998.556043,11251.130318
354.406112,919.314598,2368.659014,9474.636058
354.406420,1532.190996,2516.700203,10214.842000
354.406728,1762.019645,296.082377,10732.986159
354.407036,459.657299,-1258.350101,10362.883188
354.407344,-919.314598,-2516.700203,12435.459826
354.407652,-1149.143247,-3256.906145,11103.089130
354.407960,-1685.410096,-2294.638420,10140.821405
354.408267,-536.266849,-370.102971,9548.656652
354.408575,1762.019645,1036.288319,7624.121203
354.408883,3294.210641,1776.494261,7550.100608
354.409191,2451.505594,1184.329507,6809.894666
354.409499,1608.800546,592.164754,7772.162391
354.409807,459.657299,296.082377,8512.368333
354.410115,-229.828649,666.185348,10140.821405
354.410423,306.438199,1480.411884,9992.780217
354.410730,995.924147,3478.967927,8512.368333
354.411038,2911.162892,2738.761985,9400.615463
354.411346,2987.772442,2072.576638,9474.636058
354.411654,1302.362347,370.102971,9918.759623
354.411962,459.657299,-2590.720797,11103.089130
354.412270,-1762.019645,-3404.947333,11621.233289
354.412578,-2221.676944,-3478.967927,11843.295072
354.412886,-1915.238745,-2812.782580,10732.986159
354.413193,-229.828649,-518.144159,9030.512492
354.413501,2221.676944,148.041188,7772.162391
354.413809,2145.067394,1036.288319,6809.894666
354.414117,2451.505594,888.247130,8290.306550
354.414425,1838.629195,370.102971,8586.388927
354.414733,689.485948,962.267725,9030.512492
354.415041,0.000000,1332.370696,9326.594869
354.415349,1378.971896,2072.576638,9400.615463
354.415656,2145.067394,2960.823768,8882.471304
354.415964,2451.505594,2072.576638,8808.450710
354.416272,2068.457845,1332.370696,9474.636058
354.416580,1838.629195,-1036.288319,10955.047942
354.416888,-1149.143247,-2590.720797,11769.274478
354.417196,-2145.067394,-3997.112087,12731.542202
354.417504,-2298.286494,-3627.009116,11473.192101
354.417812,-1532.190996,-1480.411884,9918.759623
354.418119,536.266849,-370.102971,8586.388927
354.418427,2374.896044,1110.308913,7179.997637
354.418735,2681.334243,1258.350101,7328.038826
354.419043,1915.238745,1184.329507,7328.038826
354.419351,612.876398,888.247130,8512.368333
354.419659,-229.828649,1258.350101,10510.924376
354.419967,306.438199,2146.597232,9622.677246
354.420274,1072.533697,3552.988522,9252.574275
354.420582,1455.581446,3330.926739,9326.594869
354.420890,2374.896044,1998.556043,9918.759623
354.421198,1532.190996,740.205942,10807.006753
354.421506,0.000000,-1406.391290,11399.171507
354.421814,-1915.238745,-3404.947333,12435.459826
354.422121,-2834.553343,-3849.070898,12731.542202
354.422429,-2528.115143,-3256.906145,11917.315666
354.422737,-1455.581446,-1110.308913,9252.574275
354.423045,1762.019645,444.123565,8882.471304
354.423353,2221.676944,962.267725,7476.080014
354.423661,2681.334243,592.164754,7698.141797
354.423969,1685.410096,1332.370696,8142.265362
354.424276,766.095498,740.205942,9326.594869
354.424584,459.657299,1998.556043,9326.594869
354.424892,766.095498,2960.823768,9178.553681
354.425200,2221.676944,3108.864956,9252.574275
354.425508,2911.162892,3478.967927,9030.512492
354.425816,3064.381992,1998.556043,9326.594869
354.426123,2068.457845,-444.123565,10362.883188
354.426431,229.828649,-2590.720797,11917.315666
354.426739,-1991.848295,-4071.132681,12953.603985
354.427047,-2834.553343,-4071.132681,12213.398043
354.427355,-1762.019645,-3108.864956,11103.089130
354.427663,-229.828649,-666.185348,8808.450710
354.427971,2145.067394,962.267725,7698.141797
354.428278,2757.943793,1332.370696,7179.997637
354.428586,2451.505594,962.267725,8364.327145
354.428894,1608.800546,1036.288319,8364.327145
354.429202,766.095498,1036.288319,8956.491898
354.429510,383.047749,2220.617826,9474.636058
354.429818,1072.533697,2146.597232,9844.739029
354.430125,2221.676944,3627.009116,8956.491898
354.430433,2221.676944,2368.659014,9178.553681
354.430741,2221.676944,962.267725,9992.780217
354.431049,1302.362347,-1554.432478,10658.965565
354.431357,-842.705048,-3034.844362,11843.295072
354.431665,-2528.115143,-4145.153275,12139.377449
354.431973,-1685.410096,-3330.926739,11029.068536
354.432280,-459.657299,-1480.411884,9474.636058
354.432588,153.219100,222.061783,8068.244768
354.432896,2604.724693,666.185348,7772.162391
354.433204,3217.601092,1184.329507,7179.997637
354.433512,1685.410096,962.267725,7772.162391
354.433820,995.924147,1628.453072,8512.368333
354.434127,229.828649,1480.411884,9474.636058
354.434435,0.000000,1776.494261,9622.677246
354.434743,306.438199,2812.782580,8734.430116
354.435051,1532.190996,2960.823768,9474.636058
354.435359,1685.410096,1628.453072,9770.718434
354.435667,536.266849,-444.123565,9992.780217
354.435975,-842.705048,-2220.617826,11769.274478
354.436282,-2681.334243,-4589.276840,13323.706956
354.436590,-3753.867940,-4145.153275,11991.336260
354.436898,-2528.115143,-2738.761985,12065.356855
354.437206,-612.876398,-962.267725,9252.574275
354.437514,1302.362347,1036.288319,7031.956449
354.437822,3524.039291,1998.556043,7254.018232
354.438129,3983.696590,1406.391290,6809.894666
354.438437,2298.286494,1332.370696,7328.038826
354.438745,1838.629195,888.247130,8882.471304
354.439053,459.657299,1258.350101,9030.512492
354.439361,306.438199,2368.659014,9326.594869
354.439669,1532.190996,2664.741391,9696.697840
354.439977,1991.848295,2960.823768,8734.430116
354.440284,2145.067394,1480.411884,9400.615463
354.440592,919.314598,-814.226536,10658.965565
354.440900,-995.924147,-2442.679609,11695.253884
354.441208,-2145.067394,-3627.009116,13101.645173
354.441516,-2451.505594,-3627.009116,11917.315666
354.441824,-1915.238745,-1776.494261,10658.965565
354.442131,-383.047749,-592.164754,9844.739029
354.442439,1685.410096,518.144159,8512.368333
354.442747,2451.505594,1406.391290,7624.121203
354.443055,2068.457845,1036.288319,8438.347739
354.443363,1378.971896,666.185348,9104.533087
354.443671,689.485948,740.205942,9030.512492
354.443978,0.000000,1850.514855,10066.800811
354.444286,919.314598,2368.659014,9548.656652
354.444594,2374.896044,3552.988522,8364.327145
354.444902,2987.772442,3775.050304,8364.327145
354.445210,3217.601092,962.267725,9178.553681
354.445518,1378.971896,-592.164754,9548.656652
354.445826,-459.657299,-2886.803174,12287.418637
354.446133,-2451.505594,-4145.153275,12435.459826
354.446441,-2528.115143,-3256.906145,11991.336260
354.446749,-1608.800546,-1776.494261,10510.924376
354.447057,459.657299,-0.000000,9104.533087
354.447365,1838.629195,1184.329507,8438.347739
354.447673,2221.676944,962.267725,7846.182985
354.447980,1302.362347,962.267725,8290.306550
354.448288,766.095498,148.041188,9104.533087
354.448596,995.924147,592.164754,9918.759623
354.448904,306.438199,2294.638420,9622.677246
354.449212,1378.971896,2590.720797,9178.553681
354.449520,2451.505594,3627.009116,8734.430116
354.449828,3524.039291,2886.803174,8956.491898
354.450135,2451.505594,1332.370696,8882.471304
354.450443,919.314598,-1924.535449,10881.027347
354.450751,-1302.362347,-3108.864956,11917.315666
354.451059,-2451.505594,-3997.112087,12139.377449
354.451367,-2221.676944,-2664.741391,11029.068536
354.451675,-919.314598,-1480.411884,9326.594869
354.451982,842.705048,148.041188,7846.182985
354.452290,2145.067394,592.164754,8142.265362
354.452598,2681.334243,-148.041188,7994.224174
354.452906,919.314598,-148.041188,8438.347739
354.453214,0.000000,-0.000000,10214.842000
354.453522,0.000000,1110.308913,10510.924376
354.453830,459.657299,2220.617826,9326.594869
354.454137,1685.410096,3923.091493,9178.553681
354.454445,3140.991542,3849.070898,8438.347739
354.454753,3753.867940,3034.844362,8512.368333
354.455061,2145.067394,814.226536,9326.594869
354.455369,919.314598,-1924.535449,10732.986159
354.455677,-1608.800546,-3330.926739,11991.336260
354.455984,-2911.162892,-3108.864956,11991.336260
354.456292,-2298.286494,-2664.741391,10510.924376
354.456600,-842.705048,-666.185348,9474.636058
354.456908,536.266849,148.041188,9178.553681
354.457216,766.095498,-0.000000,8290.306550
354.457524,1915.238745,148.041188,8586.388927
354.457832,0.000000,-0.000000,8734.430116
354.458139,-536.266849,962.267725,9474.636058
354.458447,0.000000,1332.370696,10881.027347
354.458755,842.705048,3404.947333,9104.533087
354.459063,2145.067394,3997.112087,8068.244768
354.459371,3294.210641,3627.009116,8438.347739
354.459679,2987.772442,1998.556043,8734.430116
354.459986,1149.143247,-962.267725,10584.944971
354.460294,-1685.410096,-3701.029710,11843.295072
354.460602,-2681.334243,-4663.297435,13027.624579
354.460910,-4060.306139,-3923.091493,11325.150913
354.461218,-1991.848295,-2368.659014,10288.862594
354.461526,229.828649,-666.185348,9400.615463
354.461834,1532.190996,444.123565,8216.285956
354.462141,2451.505594,370.102971,7624.121203
354.462449,1608.800546,296.082377,7772.162391
354.462757,1378.971896,592.164754,9030.512492
354.463065,689.485948,1332.370696,9622.677246
354.463373,1838.629195,2072.576638,10066.800811
354.463681,1915.238745,3182.885551,8586.388927
354.463988,2911.162892,3849.070898,8438.347739
354.464296,4136.915689,3034.844362,8882.471304
354.464604,2451.505594,592.164754,10066.800811
354.464912,0.000000,-2368.659014,12435.459826
354.465220,-1991.848295,-4515.256246,12509.480420
354.465528,-2757.943793,-3923.091493,12879.583391
354.465836,-2911.162892,-2886.803174,11473.192101
354.466143,-1149.143247,-1184.329507,9844.739029
354.466451,919.314598,962.267725,8956.491898
354.466759,1991.848295,814.226536,7994.224174
354.467067,2834.553343,888.247130,7920.203579
354.467375,1455.581446,1554.432478,8142.265362
354.467683,1838.629195,1554.432478,9918.759623
354.467990,383.047749,2368.659014,9844.739029
354.468298,1378.971896,2960.823768,9696.697840
354.468606,2604.724693,3775.050304,8734.430116
354.468914,3524.039291,3775.050304,7846.182985
354.469222,3447.429741,1628.453072,9178.553681
354.469530,1455.581446,-740.205942,10140.821405
354.469837,-612.876398,-3330.926739,11843.295072
354.470145,-1991.848295,-4737.318029,12731.542202
354.470453,-2987.772442,-4071.132681,11917.315666
354.470761,-2145.067394,-2294.638420,10214.842000
354.471069,0.000000,-666.185348,9770.718434
354.471377,1991.848295,666.185348,8364.327145
354.471685,2604.724693,1184.329507,6735.874072
354.471992,2221.676944,1036.288319,6809.894666
354.472300,2068.457845,592.164754,7846.182985
354.472608,766.095498,1258.350101,8956.491898
354.472916,536.266849,1776.494261,9474.636058
354.473224,1072.533697,2664.741391,9474.636058
354.473532,2221.676944,3182.885551,8882.471304
354.473839,3064.381992,1998.556043,9104.533087
354.474147,2451.505594,518.144159,9548.656652
354.474455,536.266849,-1924.535449,10066.800811
354.474763,-1838.629195,-4145.153275,12065.356855
354.475071,-2298.286494,-4219.173869,13027.624579
354.475379,-2451.505594,-3034.844362,11843.295072
354.475687,-919.314598,-1110.308913,9474.636058
354.475994,1149.143247,592.164754,8068.244768
354.476302,2834.553343,1406.391290,7476.080014
354.476610,2221.676944,1554.432478,6957.935855
354.476918,1838.629195,740.205942,9400.615463
354.477226,536.266849,666.185348,9104.533087
354.477534,0.000000,1480.411884,10140.821405
354.477841,0.000000,1406.391290,10881.027347
354.478149,766.095498,2960.823768,9696.697840
354.478457,2221.676944,3404.947333,9622.677246
354.478765,2987.772442,2442.679609,9104.533087
354.479073,2374.896044,1184.329507,8808.450710
354.479381,153.219100,-1702.473667,11251.130318
354.479689,-1378.971896,-2812.782580,12509.480420
354.479996,-2604.724693,-3182.885551,11547.212695
354.480304,-2068.457845,-1924.535449,10584.944971
354.480612,-383.047749,-518.144159,8956.491898
354.480920,995.924147,296.082377,8586.388927
354.481228,1225.752797,1184.329507,8216.285956
354.481536,1532.190996,296.082377,9178.553681
354.481843,229.828649,-222.061783,9326.594869
354.482151,-1072.533697,-814.226536,10807.006753
354.482459,-919.314598,222.061783,10436.903782
354.482767,-536.266849,1702.473667,10214.842000
354.483075,1072.533697,2664.741391,9844.739029
354.483383,2298.286494,2738.761985,8290.306550
354.483691,2911.162892,1554.432478,9178.553681
354.483998,1685.410096,-0.000000,9326.594869
354.484306,0.000000,-2146.597232,10288.862594
354.484614,-1149.143247,-2442.679609,11029.068536
354.484922,-1225.752797,-3034.844362,11029.068536
354.485230,-766.095498,-1110.308913,9770.718434
354.485538,153.219100,-0.000000,8290.306550
354.485845,2374.896044,518.144159,7994.224174
354.486153,2221.676944,962.267725,6883.915261
354.486461,2298.286494,518.144159,8512.368333
354.486769,919.314598,-444.123565,9548.656652
354.487077,-536.266849,296.082377,10436.903782
354.487385,153.219100,740.205942,11399.171507
354.487693,1149.143247,2220.617826,9992.780217
354.488000,1991.848295,3330.926739,9400.615463
354.488308,3064.381992,2146.597232,9400.615463
354.488616,2298.286494,1924.535449,8882.471304
354.488924,1608.800546,-592.164754,10510.924376
354.489232,-536.266849,-2812.782580,11251.130318
354.489540,-2145.067394,-2442.679609,11621.233289
354.489847,-1762.019645,-2590.720797,11251.130318
354.490155,-1072.533697,-1332.370696,9400.615463
354.490463,842.705048,148.041188,8882.471304
354.490771,1915.238745,962.267725,7328.038826
354.491079,2221.676944,888.247130,8364.327145
354.491387,1072.533697,74.020594,8290.306550
354.491695,229.828649,-0.000000,9400.615463
354.492002,536.266849,592.164754,11103.089130
354.492310,383.047749,2368.659014,9252.574275
354.492618,2757.943793,3182.885551,9696.697840
354.492926,2987.772442,3701.029710,8290.306550
354.493234,2834.553343,2146.597232,8882.471304
354.493542,2911.162892,666.185348,9548.656652
354.493849,153.219100,-1406.391290,10140.821405
354.494157,-1225.752797,-3775.050304,12583.501014
354.494465,-2451.505594,-3775.050304,11251.130318
354.494773,-2374.896044,-2738.761985,11251.130318
354.495081,-1762.019645,-1702.473667,9918.759623
354.495389,1225.752797,148.041188,8142.265362
354.495697,1915.238745,1480.411884,7772.162391
354.496004,919.314598,222.061783,7846.182985
354.496312,1532.190996,1036.288319,9178.553681
354.496620,-536.266849,814.226536,9622.677246
354.496928,0.000000,1702.473667,9696.697840
354.497236,919.314598,2664.741391,8438.347739
354.497544,2145.067394,4367.215058,9030.512492
354.497851,3294.210641,3108.864956,9178.553681
354.498159,3064.381992,2146.597232,8216.285956
354.498467,1302.362347,666.185348,9696.697840
354.498775,0.000000,-2812.782580,11399.171507
354.499083,-1455.581446,-3256.906145,11695.253884
354.499391,-2298.286494,-3404.947333,11917.315666
354.499698,-1378.971896,-2368.659014,10288.862594
354.500006,612.876398,-962.267725,8882.471304
354.500314,1532.190996,518.144159,8364.327145
354.500622,1762.019645,-0.000000,8142.265362
354.500930,1532.190996,444.123565,8142.265362
354.501238,689.485948,370.102971,9030.512492
354.501546,0.000000,814.226536,9696.697840
354.501853,459.657299,1406.391290,9474.636058
354.502161,1149.143247,2886.803174,9918.759623
354.502469,2451.505594,3701.029710,9474.636058
354.502777,3294.210641,2442.679609,8734.430116
354.503085,2681.334243,1258.350101,9326.594869
354.503393,995.924147,-1332.370696,10214.842000
354.503700,-383.047749,-2886.803174,11103.089130
354.504008,-1455.581446,-4071.132681,11917.315666
354.504316,-2451.505594,-3256.906145,11695.253884
354.504624,0.000000,-1554.432478,9178.553681
354.504932,1455.581446,-0.000000,8586.388927
354.505240,2757.943793,1332.370696,7698.141797
354.505548,2911.162892,1184.329507,7624.121203
354.505855,1915.238745,814.226536,7920.203579
354.506163,689.485948,444.123565,8808.450710
354.506471,689.485948,1110.308913,10288.862594
354.506779,-76.609550,2368.659014,10140.821405
354.507087,1149.143247,3404.947333,9696.697840
354.507395,2374.896044,2664.741391,9992.780217
354.507702,2221.676944,2294.638420,8586.388927
354.508010,1149.143247,-74.020594,10362.883188
354.508318,-1378.971896,-2220.617826,11251.130318
354.508626,-1225.752797,-3701.029710,13249.686362
354.508934,-3064.381992,-3627.009116,11917.315666
354.509242,-2298.286494,-2590.720797,10658.965565
354.509550,76.609550,-666.185348,9252.574275
354.509857,1991.848295,1628.453072,6957.935855
354.510165,2681.334243,1998.556043,7105.977043
354.510473,3294.210641,2072.576638,5995.668130
354.510781,1685.410096,1480.411884,7698.141797
354.511089,689.485948,666.185348,9548.656652
354.511397,689.485948,1850.514855,9622.677246
354.511704,0.000000,2368.659014,11029.068536
354.512012,1378.971896,2442.679609,10214.842000
354.512320,2298.286494,2516.700203,9474.636058
354.512628,1455.581446,592.164754,9918.759623
354.512936,536.266849,-1332.370696,10881.027347
354.513244,-1149.143247,-2442.679609,11251.130318
354.513552,-2451.505594,-3849.070898,12139.377449
354.513859,-2145.067394,-3849.070898,11991.336260
354.514167,-1915.238745,-1924.535449,10140.821405
354.514475,766.095498,-74.020594,9474.636058
354.514783,2068.457845,1480.411884,6883.915261
354.515091,2987.772442,1702.473667,7031.956449
354.515399,2145.067394,1184.329507,7402.059420
354.515706,612.876398,666.185348,9104.533087
354.516014,306.438199,296.082377,9844.739029
354.516322,-383.047749,1554.432478,9992.780217
354.516630,995.924147,1924.535449,10288.862594
354.516938,1685.410096,2146.597232,9104.533087
354.517246,2528.115143,2146.597232,9104.533087
354.517554,1378.971896,444.123565,9252.574275
354.517861,229.828649,-1850.514855,10214.842000
354.518169,-1991.848295,-3182.885551,12065.356855
354.518477,-2987.772442,-3775.050304,12213.398043
354.518785,-2298.286494,-2738.761985,11399.171507
354.519093,383.047749,-370.102971,9548.656652
354.519401,995.924147,1036.288319,7328.038826
354.519708,2451.505594,1480.411884,7105.977043
354.520016,2374.896044,1480.411884,7031.956449
354.520325,1072.533697,740.205942,8734.430116
354.520633,229.828649,444.123565,9104.533087
354.520941,0.000000,1036.288319,9104.533087
354.521249,-459.657299,1554.432478,9696.697840
354.521557,2145.067394,2368.659014,10066.800811
354.521865,2911.162892,2368.659014,9178.553681
354.522173,2068.457845,1924.535449,9030.512492
354.522481,2068.457845,-444.123565,9770.718434
354.522789,0.000000,-1924.535449,10732.986159
354.523097,-1378.971896,-3034.844362,11991.336260
354.523405,-1685.410096,-3330.926739,12213.398043
354.523713,-1225.752797,-1924.535449,9992.780217
354.524021,1378.971896,148.041188,8512.368333
354.524329,2911.162892,1332.370696,7402.059420
354.524637,3447.429741,1998.556043,7402.059420
354.524945,2451.505594,740.205942,7846.182985
354.525253,1149.143247,666.185348,8364.327145
354.525561,-229.828649,148.041188,9770.718434
354.525869,-383.047749,296.082377,11621.233289
354.526177,-306.438199,1406.391290,10881.027347
354.526486,2145.067394,1850.514855,10066.800811
354.526794,2528.115143,1850.514855,9918.759623
354.527102,2374.896044,592.164754,9474.636058
354.527410,919.314598,-666.185348,10436.903782
354.527718,-229.828649,-2812.782580,11843.295072
354.528026,-1762.019645,-2738.761985,11917.315666
354.528334,-1455.581446,-2368.659014,11547.212695
354.528642,-612.876398,-222.061783,8956.491898
354.528950,1378.971896,1184.329507,7772.162391
354.529258,3524.039291,1554.432478,7476.080014
354.529566,3524.039291,1480.411884,6735.874072
354.529874,1685.410096,888.247130,7772.162391
354.530182,383.047749,-222.061783,9696.697840
354.530490,-306.438199,444.123565,10436.903782
354.530798,-919.314598,1480.411884,11103.089130
354.531106,459.657299,2442.679609,10362.883188
354.531414,2451.505594,3108.864956,9104.533087
354.531722,2681.334243,2146.597232,9030.512492
354.532030,2068.457845,1110.308913,9104.533087
354.532338,1072.533697,-888.247130,10214.842000
354.532647,-1149.143247,-2590.720797,12361.439231
354.532955,-2221.676944,-3182.885551,12361.439231
354.533263,-2145.067394,-2368.659014,10732.986159
354.533571,-689.485948,-962.267725,9770.718434
354.533879,1455.581446,518.144159,8142.265362
354.534187,2374.896044,1110.308913,7105.977043
354.534495,2604.724693,1036.288319,7254.018232
354.534803,1455.581446,-0.000000,8068.244768
354.535111,766.095498,740.205942,8586.388927
354.535419,0.000000,1406.391290,10214.842000
354.535727,459.657299,2072.576638,10362.883188
354.536035,2374.896044,2886.803174,9104.533087
354.536343,2068.457845,3701.029710,9104.533087
354.536651,2451.505594,1776.494261,9844.739029
354.536959,1378.971896,370.102971,10362.883188
354.537267,-1378.971896,-1998.556043,11991.336260
354.537575,-2911.162892,-4293.194464,13175.665768
354.537883,-3370.820191,-3923.091493,12435.459826
354.538191,-2757.943793,-3182.885551,12287.418637
354.538499,0.000000,-1258.350101,9918.759623
354.538808,1685.410096,148.041188,7698.141797
354.539116,2374.896044,1406.391290,7550.100608
354.539424,2145.067394,740.205942,7254.018232
354.539732,1532.190996,1036.288319,7624.121203
354.540040,536.266849,1776.494261,9252.574275
354.540348,383.047749,2146.597232,9104.533087
354.540656,1378.971896,3552.988522,9030.512492
354.540964,2604.724693,3701.029710,9326.594869
354.541272,2528.115143,2812.782580,8438.347739
354.541580,1915.238745,1332.370696,9104.533087
354.541888,76.609550,-666.185348,10732.986159
354.542196,-1991.848295,-3404.947333,12287.418637
354.542504,-3677.258390,-4515.256246,13101.645173
354.542812,-3677.258390,-4441.235652,12139.377449
354.543120,-2451.505594,-2294.638420,10807.006753
354.543428,76.609550,-0.000000,9030.512492
354.543736,2145.067394,1110.308913,8068.244768
354.544044,3064.381992,1406.391290,7179.997637
354.544352,1838.629195,1406.391290,6809.894666
354.544660,1072.533697,1332.370696,8438.347739
354.544969,306.438199,1998.556043,9178.553681
354.545277,766.095498,2738.761985,9622.677246
354.545585,1225.752797,3182.885551,9474.636058
354.545893,2451.505594,3478.967927,8882.471304
354.546201,2681.334243,1110.308913,9548.656652
354.546509,1302.362347,296.082377,9030.512492
354.546817,0.000000,-1998.556043,11473.192101
354.547125,-2068.457845,-3997.112087,12731.542202
354.547433,-3294.210641,-4071.132681,13027.624579
354.547741,-1838.629195,-3404.947333,11843.295072
354.548049,-306.438199,-1036.288319,7994.224174
354.548357,2681.334243,296.082377,8660.409521
354.548665,3370.820191,1332.370696,6957.935855
354.548973,2528.115143,1628.453072,6661.853478
354.549281,1685.410096,592.164754,8438.347739
354.549589,459.657299,1110.308913,8956.491898
354.549897,0.000000,1110.308913,10807.006753
354.550205,-306.438199,2072.576638,10140.821405
354.550513,1762.019645,2294.638420,9992.780217
354.550821,2221.676944,2146.597232,9474.636058
354.551130,1915.238745,814.226536,9770.718434
354.551438,995.924147,-814.226536,10436.903782
354.551746,-1225.752797,-3330.926739,11695.253884
354.552054,-2068.457845,-4219.173869,13767.830521
354.552362,-2604.724693,-3256.906145,11917.315666
354.552670,-1225.752797,-1850.514855,10510.924376
354.552978,919.314598,-222.061783,8586.388927
354.553286,2987.772442,1554.432478,7624.121203
354.553594,3447.429741,1628.453072,6587.832884
354.553902,2451.505594,1628.453072,6735.874072
354.554210,1915.238745,1332.370696,7772.162391
354.554518,459.657299,1480.411884,8808.450710
354.554826,229.828649,2146.597232,10140.821405
354.555134,1225.752797,2368.659014,10362.883188
354.555442,1532.190996,2812.782580,9030.512492
354.555750,2145.067394,1924.535449,9178.553681
354.556058,1532.190996,740.205942,9400.615463
354.556366,-153.219100,-1258.350101,11029.068536
354.556674,-1532.190996,-3108.864956,12509.480420
354.556982,-2681.334243,-3701.029710,12139.377449
354.557291,-2834.553343,-2368.659014,11029.068536
354.557599,-536.266849,-1110.308913,10288.862594
354.557907,1532.190996,962.267725,9030.512492
354.558215,3370.820191,962.267725,7328.038826
354.558523,3064.381992,962.267725,7254.018232
354.558831,1685.410096,814.226536,7846.182985
354.559139,612.876398,814.226536,8956.491898
354.559447,612.876398,1036.288319,10362.883188
354.559755,229.828649,1480.411884,9548.656652
354.560063,919.314598,2368.659014,9770.718434
354.560371,2911.162892,1998.556043,9326.594869
354.560679,3830.477490,2220.617826,8216.285956
354.560987,2298.286494,-74.020594,10066.800811
354.561295,306.438199,-2072.576638,11029.068536
354.561603,-1685.410096,-3478.967927,11621.233289
354.561911,-2604.724693,-3775.050304,11991.336260
354.562219,-1838.629195,-2664.741391,10510.924376
354.562527,153.219100,-666.185348,9474.636058
354.562835,1302.362347,518.144159,9326.594869
354.563143,2911.162892,370.102971,8068.244768
354.563452,1915.238745,1036.288319,7402.059420
354.563760,1072.533697,296.082377,8586.388927
354.564068,919.314598,518.144159,9326.594869
354.564376,229.828649,2294.638420,9178.553681
354.564684,1072.533697,2368.659014,10214.842000
354.564992,2528.115143,2442.679609,8808.450710
354.565300,2911.162892,3404.947333,8660.409521
354.565608,2298.286494,962.267725,9696.697840
354.565916,536.266849,-740.205942,9844.739029
354.566224,-1378.971896,-2590.720797,12435.459826
354.566532,-2451.505594,-3923.091493,14137.933492
354.566840,-3677.258390,-2812.782580,11177.109724
354.567148,-1762.019645,-1776.494261,10955.047942
354.567456,229.828649,-370.102971,9474.636058
354.567764,2068.457845,1554.432478,6735.874072
354.568072,3140.991542,1406.391290,7179.997637
354.568380,1991.848295,1110.308913,6809.894666
354.568688,1378.971896,518.144159,8216.285956
354.568996,-229.828649,1702.473667,8734.430116
354.569304,689.485948,2220.617826,10584.944971
354.569613,2221.676944,2590.720797,9252.574275
354.569921,1608.800546,3923.091493,7550.100608
354.570229,3064.381992,2146.597232,10140.821405
354.570537,2298.286494,1258.350101,9178.553681
354.570845,0.000000,-1110.308913,11177.109724
354.571153,-1991.848295,-3404.947333,12509.480420
354.571461,-2757.943793,-3552.988522,12361.439231
354.571769,-3217.601092,-3404.947333,11843.295072
354.572077,-1838.629195,-1776.494261,9992.780217
354.572385,919.314598,-444.123565,9622.677246
354.572693,1991.848295,592.164754,7550.100608
354.573001,2068.457845,740.205942,7698.141797
354.573309,1608.800546,666.185348,8734.430116
354.573617,0.000000,-0.000000,9326.594869
354.573925,-229.828649,1702.473667,9992.780217
354.574233,536.266849,2294.638420,10066.800811
354.574541,1991.848295,2516.700203,9844.739029
354.574849,2298.286494,3627.009116,8364.327145
354.575157,4060.306139,2812.782580,9178.553681
354.575465,2834.553343,444.123565,10214.842000
354.575774,383.047749,-962.267725,10214.842000
354.576082,-1455.581446,-2738.761985,12139.377449
354.576390,-2834.553343,-3849.070898,12213.398043
354.576698,-2757.943793,-2294.638420,10955.047942
354.577006,-995.924147,-370.102971,9918.759623
354.577314,1149.143247,888.247130,9548.656652
354.577622,2298.286494,1036.288319,8142.265362
354.577930,1532.190996,1332.370696,7550.100608
354.578238,1455.581446,888.247130,8734.430116
354.578546,153.219100,1110.308913,9548.656652
354.578854,0.000000,1702.473667,10584.944971
354.579162,766.095498,2368.659014,10732.986159
354.579470,2221.676944,2960.823768,8956.491898
354.579778,2911.162892,3182.885551,9400.615463
354.580086,2834.553343,1628.453072,9252.574275
354.580394,1608.800546,-74.020594,10140.821405
354.580702,-306.438199,-2368.659014,11695.253884
354.581010,-2068.457845,-3552.988522,11547.212695
354.581318,-2374.896044,-3256.906145,11251.130318
354.581627,-1149.143247,-2220.617826,10214.842000
354.581935,383.047749,-222.061783,8660.409521
354.582243,2834.553343,814.226536,7624.121203
354.582551,3600.648841,1258.350101,6217.729913
354.582859,2451.505594,1110.308913,6661.853478
354.583167,1838.629195,370.102971,8512.368333
354.583475,459.657299,370.102971,9474.636058
354.583783,0.000000,1110.308913,9770.718434
354.584091,1149.143247,1480.411884,9622.677246
354.584399,2911.162892,2442.679609,8438.347739
354.584707,2681.334243,2220.617826,8364.327145
354.585015,2374.896044,296.082377,8956.491898
354.585323,995.924147,-1554.432478,10658.965565
354.585631,-1378.971896,-3108.864956,11621.233289
354.585939,-3064.381992,-4145.153275,12287.418637
354.586247,-3140.991542,-3552.988522,11621.233289
354.586555,-1302.362347,-1702.473667,10140.821405
354.586863,689.485948,-370.102971,8290.306550
354.587171,2221.676944,296.082377,7105.977043
354.587479,2221.676944,814.226536,7402.059420
354.587788,1225.752797,444.123565,8142.265362
354.588096,229.828649,-0.000000,8882.471304
354.588404,612.876398,1110.308913,9918.759623
354.588712,612.876398,1850.514855,9548.656652
354.589020,1532.190996,3108.864956,9104.533087
354.589328,2834.553343,3404.947333,8808.450710
354.589636,3524.039291,2590.720797,9104.533087
354.589944,1608.800546,962.267725,9104.533087
354.590252,153.219100,-888.247130,10362.883188
354.590560,-1915.238745,-2812.782580,12361.439231
354.590868,-2834.553343,-3108.864956,12213.398043
354.591176,-2528.115143,-2146.597232,11251.130318
354.591484,-766.095498,-444.123565,9770.718434
354.591792,1532.190996,222.061783,8734.430116
354.592100,2681.334243,1406.391290,8216.285956
354.592408,1685.410096,296.082377,7920.203579
354.592716,1149.143247,518.144159,8512.368333
354.593024,0.000000,518.144159,10140.821405
354.593332,459.657299,1554.432478,10658.965565
354.593640,459.657299,2516.700203,9770.718434
354.593949,2757.943793,3775.050304,9252.574275
354.594257,3524.039291,3330.926739,8586.388927
354.594565,2681.334243,3034.844362,8512.368333
354.594873,1685.410096,222.061783,10288.862594
354.595181,-383.047749,-1110.308913,11103.089130
354.595489,-2298.286494,-2960.823768,12287.418637
354.595797,-2834.553343,-3108.864956,12213.398043
354.596105,-1838.629195,-1554.432478,11473.192101
354.596413,153.219100,-444.123565,9548.656652
354.596721,1532.190996,962.267725,8660.409521
354.597029,1532.190996,666.185348,8512.368333
354.597337,1225.752797,-296.082377,8290.306550
354.597645,306.438199,-74.020594,9696.697840
354.597953,-612.876398,222.061783,9696.697840
354.598261,0.000000,1480.411884,10658.965565
354.598569,1838.629195,2738.761985,9992.780217
354.598877,2374.896044,3478.967927,8808.450710
354.599185,3217.601092,2886.803174,9030.512492
354.599493,3140.991542,1554.432478,9104.533087
354.599801,1072.533697,-592.164754,10732.986159
354.600110,-1762.019645,-3034.844362,11991.336260
354.600418,-2221.676944,-3775.050304,11917.315666
354.600726,-2451.505594,-2516.700203,11103.089130
354.601034,-1608.800546,-1924.535449,10140.821405
354.601342,1149.143247,-0.000000,8734.430116
354.601650,1532.190996,814.226536,7994.224174
354.601958,2374.896044,592.164754,7476.080014
354.602266,1838.629195,740.205942,7105.977043
354.602574,842.705048,888.247130,9548.656652
354.602882,-153.219100,444.123565,10436.903782
354.603190,459.657299,2294.638420,9178.553681
354.603498,1838.629195,2664.741391,9918.759623
354.603806,1991.848295,2664.741391,8808.450710
354.604114,2911.162892,1776.494261,8512.368333
354.604422,1378.971896,-0.000000,10140.821405
354.604730,229.828649,-2368.659014,11029.068536
354.605038,-1532.190996,-3627.009116,11695.253884
354.605346,-2451.505594,-3478.967927,11399.171507
354.605654,-1532.190996,-2294.638420,10658.965565
354.605962,0.000000,-222.061783,8586.388927
354.606271,2681.334243,666.185348,8734.430116
354.606579,2911.162892,1036.288319,7254.018232
354.606887,2604.724693,1258.350101,6439.791695
354.607195,1532.190996,370.102971,8290.306550
354.607503,229.828649,962.267725,9474.636058
354.607811,153.219100,1110.308913,10732.986159
354.608119,536.266849,2072.576638,9770.718434
354.608427,1455.581446,2590.720797,9400.615463
354.608735,2374.896044,2368.659014,8956.491898
354.609043,2068.457845,1480.411884,9622.677246
354.609351,459.657299,-74.020594,11029.068536
354.609659,-1915.238745,-2516.700203,11991.336260
354.609967,-2221.676944,-3478.967927,12287.418637
354.610275,-2911.162892,-3034.844362,11473.192101
354.610583,-1685.410096,-1998.556043,10584.944971
354.610891,689.485948,-296.082377,9326.594869
354.611199,1608.800546,666.185348,8216.285956
354.611507,2451.505594,592.164754,7772.162391
354.611815,995.924147,962.267725,7476.080014
354.612123,153.219100,888.247130,9844.739029
354.612432,-383.047749,222.061783,9992.780217
354.612740,0.000000,1924.535449,9844.739029
354.613048,1378.971896,2368.659014,9770.718434
354.613356,2451.505594,3627.009116,8734.430116
354.613664,3140.991542,2516.700203,9696.697840
354.613972,2221.676944,1406.391290,9178.553681
354.614280,842.705048,-888.247130,10584.944971
354.614588,-536.266849,-2146.597232,11621.233289
354.614896,-2145.067394,-3404.947333,11251.130318
354.615204,-2451.505594,-2590.720797,11695.253884
354.615512,-766.095498,-814.226536,10066.800811
354.615820,1072.533697,296.082377,9326.594869
354.616128,2068.457845,962.267725,7624.121203
354.616436,2068.457845,666.185348,7254.018232
354.616744,919.314598,592.164754,8216.285956
354.617052,0.000000,-0.000000,9918.759623
354.617360,-229.828649,1184.329507,10288.862594
354.617668,383.047749,2072.576638,9696.697840
354.617976,2068.457845,2886.803174,9326.594869
354.618284,3524.039291,3108.864956,8586.388927
354.618593,3753.867940,3256.906145,8364.327145
354.618901,2681.334243,1036.288319,8882.471304
354.619209,306.438199,-1332.370696,10584.944971
354.619517,-766.095498,-3478.967927,12065.356855
354.619825,-2451.505594,-3108.864956,11843.295072
354.620133,-1608.800546,-2072.576638,10584.944971
354.620441,76.609550,-1110.308913,9918.759623
354.620749,1225.752797,296.082377,8734.430116
354.621057,2068.457845,444.123565,7402.059420
354.621366,1915.238745,-370.102971,7846.182985
354.621674,153.219100,518.144159,7994.224174
354.621982,689.485948,-222.061783,9326.594869
354.622290,-383.047749,1110.308913,10066.800811
354.622598,842.705048,1776.494261,10362.883188
354.622906,2221.676944,2294.638420,9474.636058
354.623214,2528.115143,2738.761985,9178.553681
354.623522,2834.553343,1406.391290,9918.759623
354.623830,1225.752797,-518.144159,9918.759623
354.624138,-306.438199,-2590.720797,11917.315666
354.624447,-1685.410096,-3404.947333,11991.336260
354.624755,-2298.286494,-2590.720797,11029.068536
354.625063,-995.924147,-1702.473667,10436.903782
354.625371,842.705048,-0.000000,8586.388927
354.625679,2221.676944,962.267725,7476.080014
354.625987,2145.067394,962.267725,7254.018232
354.626295,1915.238745,666.185348,7772.162391
354.626603,306.438199,888.247130,9178.553681
354.626911,-612.876398,148.041188,9918.759623
354.627220,-459.657299,962.267725,10066.800811
354.627528,153.219100,2294.638420,10140.821405
354.627836,1915.238745,2738.761985,9474.636058
354.628144,1762.019645,2146.597232,9696.697840
354.628452,1532.190996,888.247130,9844.739029
354.628760,459.657299,-1480.411884,11177.109724
354.629068,-1455.581446,-1924.535449,12065.356855
354.629376,-1608.800546,-3182.885551,11843.295072
354.629684,-2451.505594,-2220.617826,10288.862594
354.629992,0.000000,-814.226536,9400.615463
354.630301,1762.019645,444.123565,8290.306550
354.630609,2681.334243,1258.350101,6439.791695
354.630917,3140.991542,1480.411884,6661.853478
354.631225,2298.286494,1406.391290,7698.141797
354.631533,306.438199,1110.308913,8586.388927
354.631841,-153.219100,962.267725,10510.924376
354.632149,536.266849,1184.329507,10436.903782
354.632457,995.924147,2516.700203,9696.697840
354.632765,1455.581446,1924.535449,9400.615463
354.633074,2298.286494,1184.329507,9622.677246
354.633382,536.266849,-296.082377,10807.006753
354.633690,-1302.362347,-1850.514855,12213.398043
354.633998,-2221.676944,-3849.070898,12509.480420
354.634306,-2681.334243,-3478.967927,11991.336260
354.634614,-2451.505594,-2072.576638,10732.986159
354.634922,766.095498,-370.102971,9548.656652
354.635230,2145.067394,1554.432478,7920.203579
354.635538,2528.115143,1110.308913,6661.853478
354.635846,2987.772442,1480.411884,6661.853478
354.636155,1991.848295,1628.453072,7846.182985
354.636463,1072.533697,888.247130,8882.471304
354.636771,0.000000,1850.514855,9844.739029
354.637079,612.876398,1998.556043,10140.821405
354.637387,536.266849,1924.535449,9622.677246
354.637695,2221.676944,1924.535449,10066.800811
354.638003,2068.457845,740.205942,9696.697840
354.638311,842.705048,-296.082377,10510.924376
354.638619,-612.876398,-2072.576638,11103.089130
354.638928,-2451.505594,-2738.761985,12065.356855
354.639236,-1532.190996,-2812.782580,12583.501014
354.639544,-536.266849,-1406.391290,9844.739029
354.639852,689.485948,1110.308913,8290.306550
354.640160,2911.162892,740.205942,7994.224174
354.640468,3064.381992,1332.370696,6735.874072
354.640776,1915.238745,1184.329507,7550.100608
354.641084,1608.800546,-0.000000,8586.388927
354.641392,766.095498,740.205942,9326.594869
354.641700,0.000000,888.247130,10288.862594
354.642009,766.095498,1480.411884,9474.636058
354.642317,2221.676944,2294.638420,9992.780217
354.642625,2068.457845,1776.494261,9400.615463
354.642933,1685.410096,222.061783,9770.718434
354.643241,459.657299,-814.226536,9622.677246
354.643549,-919.314598,-3182.885551,11769.274478
354.643857,-2221.676944,-2516.700203,11843.295072
354.644165,-1532.190996,-1702.473667,10288.862594
354.644473,306.438199,-444.123565,10140.821405
354.644782,2374.896044,740.205942,7624.121203
354.645090,2911.162892,962.267725,6217.729913
354.645398,2068.457845,1406.391290,6883.915261
354.645706,1149.143247,-444.123565,8438.347739
354.646014,-459.657299,-74.020594,9474.636058
354.646322,-689.485948,148.041188,10288.862594
354.646630,0.000000,814.226536,9918.759623
354.646938,612.876398,1850.514855,10214.842000
354.647246,2221.676944,2294.638420,9622.677246
354.647555,2298.286494,1776.494261,9252.574275
354.647863,2221.676944,740.205942,9400.615463
354.648171,229.828649,-1480.411884,11473.192101
354.648479,-1762.019645,-2294.638420,12435.459826
354.648787,-1378.971896,-2886.803174,12065.356855
354.649095,-1608.800546,-814.226536,9104.533087
354.649403,536.266849,-148.041188,9326.594869
354.649711,2145.067394,740.205942,7846.182985
354.650019,2451.505594,962.267725,7624.121203
354.650327,1225.752797,814.226536,7328.038826
354.650636,612.876398,-74.020594,9104.533087
354.650944,-536.266849,222.061783,9622.677246
354.651252,-1225.752797,1110.308913,10436.903782
354.651560,229.828649,1554.432478,10807.006753
354.651868,1455.581446,2812.782580,9326.594869
354.652176,2681.334243,2664.741391,9326.594869
354.652484,2604.724693,1702.473667,8660.409521
354.652792,1072.533697,-222.061783,10362.883188
354.653100,-919.314598,-2294.638420,12065.356855
354.653409,-2451.505594,-2960.823768,12583.501014
354.653717,-2374.896044,-2368.659014,11769.274478
354.654025,-689.485948,-740.205942,10362.883188
354.654333,1455.581446,296.082377,8882.471304
354.654641,2451.505594,592.164754,8142.265362
354.654949,3140.991542,1258.350101,6957.935855
354.655257,2528.115143,1184.329507,6661.853478
354.655565,1302.362347,962.267725,8142.265362
354.655873,306.438199,1036.288319,9770.718434
354.656181,229.828649,1850.514855,10288.862594
354.656490,1455.581446,1998.556043,9992.780217
354.656798,2068.457845,2886.803174,8438.347739
354.657106,2528.115143,2072.576638,9548.656652
354.657414,1532.190996,370.102971,9696.697840
354.657722,-536.266849,-888.247130,10807.006753
354.658030,-2298.286494,-3182.885551,13693.809927
354.658338,-3140.991542,-3478.967927,12805.562797
354.658646,-2528.115143,-2886.803174,11695.253884
354.658954,-995.924147,-1554.432478,10584.944971
354.659263,1762.019645,370.102971,9252.574275
354.659571,2757.943793,888.247130,7698.141797
354.659879,2298.286494,1258.350101,7105.977043
354.660187,2068.457845,962.267725,7624.121203
354.660495,919.314598,888.247130,8068.244768
354.660803,459.657299,1480.411884,9474.636058
354.661111,1225.752797,2590.720797,9326.594869
354.661419,1991.848295,2812.782580,8882.471304
354.661727,2451.505594,2368.659014,9326.594869
354.662035,1838.629195,1406.391290,9474.636058
354.662344,766.095498,-740.205942,10955.047942
354.662652,-1302.362347,-2442.679609,11991.336260
354.662960,-2528.115143,-3849.070898,13101.645173
354.663268,-3064.381992,-3627.009116,12879.583391
354.663576,-1762.019645,-2220.617826,11473.192101
354.663884,0.000000,-814.226536,9400.615463
354.664192,1685.410096,814.226536,8216.285956
354.664500,2681.334243,1184.329507,6883.915261
354.664808,2834.553343,1332.370696,6735.874072
354.665117,1455.581446,1628.453072,7550.100608
354.665425,1302.362347,1184.329507,8216.285956
354.665733,459.657299,1628.453072,8512.368333
354.666041,1302.362347,1702.473667,9252.574275
354.666349,2451.505594,1628.453072,9770.718434
354.666657,1991.848295,2368.659014,8364.327145
354.666965,2451.505594,-0.000000,10510.924376
354.667273,76.609550,-1332.370696,10807.006753
354.667581,-1608.800546,-3404.947333,12139.377449
354.667889,-2451.505594,-3997.112087,14137.933492
354.668198,-2221.676944,-2738.761985,11251.130318
354.668506,-1378.971896,-1258.350101,10732.986159
354.668814,1225.752797,1184.329507,8512.368333
354.669122,2911.162892,1554.432478,7772.162391
354.669430,2604.724693,2368.659014,6513.812290
354.669738,2451.505594,1628.453072,7624.121203
354.670046,1455.581446,1554.432478,8586.388927
354.670354,76.609550,1406.391290,9326.594869
354.670662,76.609550,962.267725,10955.047942
354.670971,1302.362347,1924.535449,10214.842000
354.671279,1608.800546,1998.556043,9548.656652
354.671587,2145.067394,1406.391290,9178.553681
354.671895,1762.019645,222.061783,9622.677246
354.672203,-229.828649,-1406.391290,11177.109724
354.672511,-1532.190996,-3034.844362,13027.624579
354.672819,-1915.238745,-3034.844362,12435.459826
354.673127,-1991.848295,-1628.453072,10881.027347
354.673435,76.609550,-666.185348,10510.924376
354.673744,1455.581446,1184.329507,8068.244768
354.674052,2528.115143,2072.576638,7476.080014
354.674360,2528.115143,1702.473667,7105.977043
354.674668,1455.581446,1628.453072,7328.038826
354.674976,153.219100,1036.288319,9030.512492
354.675284,229.828649,1258.350101,10658.965565
354.675592,229.828649,1554.432478,9474.636058
354.675900,383.047749,1776.494261,9622.677246
354.676208,2374.896044,1776.494261,9844.739029
354.676516,1608.800546,1184.329507,8512.368333
354.676825,689.485948,-666.185348,10214.842000
354.677133,-459.657299,-2590.720797,11769.274478
354.677441,-2068.457845,-3182.885551,11547.212695
354.677749,-2451.505594,-3478.967927,12065.356855
354.678057,-1685.410096,-1776.494261,10584.944971
354.678365,689.485948,-74.020594,9992.780217
354.678673,2834.553343,222.061783,7624.121203
354.678981,2757.943793,1480.411884,6143.709319
354.679289,2834.553343,740.205942,6957.935855
354.679598,1685.410096,666.185348,7698.141797
354.679906,1225.752797,666.185348,9178.553681
354.680214,306.438199,370.102971,9548.656652
354.680522,1455.581446,1406.391290,9400.615463
354.680830,2604.724693,1184.329507,9474.636058
354.681138,1991.848295,2146.597232,8660.409521
354.681446,2145.067394,222.061783,9770.718434
354.681754,383.047749,-814.226536,10214.842000
354.682062,-1762.019645,-2442.679609,12509.480420
354.682370,-2604.724693,-3034.844362,12657.521608
354.682679,-2451.505594,-1702.473667,12287.418637
354.682987,-1149.143247,148.041188,11325.150913
354.683295,536.266849,1184.329507,9474.636058
354.683603,1838.629195,2220.617826,8734.430116
354.683911,1838.629195,1332.370696,8290.306550
354.684219,1072.533697,1332.370696,7772.162391
354.684527,229.828649,1110.308913,9178.553681
354.684835,0.000000,814.226536,9844.739029
354.685143,0.000000,1554.432478,10584.944971
354.685452,1225.752797,2368.659014,10214.842000
354.685760,2145.067394,2442.679609,9548.656652
354.686068,2374.896044,2368.659014,8882.471304
354.686376,2451.505594,814.226536,9474.636058
354.686684,153.219100,-518.144159,10658.965565
354.686992,-1072.533697,-1850.514855,11177.109724
354.687300,-1225.752797,-2368.659014,11843.295072
354.687608,-2145.067394,-1702.473667,10881.027347
354.687916,0.000000,-666.185348,10362.883188
354.688224,2221.676944,370.102971,8956.491898
354.688533,1532.190996,888.247130,8290.306550
354.688841,1991.848295,-0.000000,7624.121203
354.689149,919.314598,148.041188,7846.182985
354.689457,0.000000,-74.020594,9770.718434
354.689765,76.609550,-0.000000,9992.780217
354.690073,1225.752797,1554.432478,9474.636058
354.690381,2451.505594,1702.473667,9326.594869
354.690689,2451.505594,1998.556043,8142.265362
354.690997,2451.505594,1258.350101,8438.347739
354.691306,1991.848295,-296.082377,9548.656652
354.691614,76.609550,-1998.556043,9918.759623
354.691922,-1685.410096,-2738.761985,11399.171507
354.692230,-1991.848295,-3256.906145,12213.398043
354.692538,-1838.629195,-2146.597232,10584.944971
354.692846,536.266849,-814.226536,9918.759623
354.693154,1991.848295,-0.000000,9104.533087
354.693462,2451.505594,666.185348,6439.791695
354.693770,1991.848295,370.102971,7254.018232
354.694078,842.705048,666.185348,8290.306550
354.694387,1072.533697,666.185348,9474.636058
354.694695,536.266849,1702.473667,9104.533087
354.695003,1608.800546,2146.597232,9104.533087
354.695311,2604.724693,2664.741391,8956.491898
354.695619,3064.381992,2294.638420,8290.306550
354.695927,2451.505594,1258.350101,9400.615463
354.696235,1149.143247,-518.144159,9844.739029
354.696543,-1149.143247,-2072.576638,11177.109724
354.696851,-2834.553343,-3330.926739,12583.501014
354.697160,-3217.601092,-2294.638420,12509.480420
354.697468,-1302.362347,-1406.391290,11029.068536
354.697776,-306.438199,-592.164754,10066.800811
354.698084,2068.457845,-74.020594,8734.430116
354.698392,2068.457845,740.205942,7105.977043
354.698700,842.705048,814.226536,8290.306550
354.699008,459.657299,1110.308913,9252.574275
354.699316,612.876398,1480.411884,9696.697840
354.699624,383.047749,2368.659014,10140.821405
354.699933,842.705048,2368.659014,9178.553681
354.700241,3524.039291,3182.885551,8882.471304
354.700549,2681.334243,2220.617826,8882.471304
354.700857,1532.190996,518.144159,9770.718434
354.701165,459.657299,-1406.391290,10288.862594
354.701473,-2221.676944,-2368.659014,11769.274478
354.701781,-2911.162892,-3256.906145,12287.418637
354.702089,-1378.971896,-1924.535449,11177.109724
354.702397,-766.095498,-814.226536,10955.047942
354.702705,1149.143247,-296.082377,8956.491898
354.703014,1608.800546,666.185348,6513.812290
354.703322,1532.190996,518.144159,8808.450710
354.703630,689.485948,1036.288319,8660.409521
354.703938,689.485948,1480.411884,9178.553681
354.704246,229.828649,1850.514855,10140.821405
354.704554,1225.752797,1998.556043,9992.780217
354.704862,2298.286494,2738.761985,9104.533087
354.705170,2834.553343,2886.803174,9548.656652
354.705478,2681.334243,962.267725,9548.656652
354.705787,919.314598,-666.185348,9770.718434
354.706095,-919.314598,-2368.659014,12139.377449
354.706403,-2298.286494,-3256.906145,12583.501014
354.706711,-3294.210641,-2886.803174,11325.150913
354.707019,-1532.190996,-2368.659014,11769.274478
354.707327,689.485948,-1258.350101,10584.944971
354.707635,1762.019645,592.164754,7402.059420
354.707943,1762.019645,888.247130,7254.018232
354.708251,1838.629195,1184.329507,7550.100608
354.708559,1149.143247,1628.453072,7846.182985
354.708868,689.485948,1628.453072,9770.718434
354.709176,1072.533697,1924.535449,9326.594869
354.709484,1378.971896,2516.700203,9104.533087
354.709792,2681.334243,2960.823768,9178.553681
354.710100,3447.429741,2146.597232,7994.224174
354.710408,2298.286494,444.123565,8956.491898
354.710716,766.095498,-2072.576638,10140.821405
354.711024,-1455.581446,-2516.700203,10436.903782
354.711332,-2451.505594,-4145.153275,12361.439231
354.711641,-2374.896044,-3478.967927,11991.336260
354.711949,-919.314598,-1702.473667,9844.739029
354.712257,689.485948,-1110.308913,8660.409521
354.712565,1378.971896,148.041188,8216.285956
354.712873,1915.238745,1332.370696,6365.771101
354.713181,1838.629195,1480.411884,7846.182985
354.713489,1838.629195,888.247130,8586.388927
354.713797,-842.705048,2220.617826,8512.368333
354.714105,1072.533697,740.205942,10955.047942
354.714413,1149.143247,2368.659014,9548.656652
354.714722,2298.286494,1924.535449,9844.739029
354.715030,2451.505594,2146.597232,8512.368333
354.715338,2681.334243,-74.020594,9844.739029
354.715646,-459.657299,-1628.453072,10584.944971
354.715954,-1608.800546,-2442.679609,10732.986159
354.716262,-1072.533697,-2590.720797,12213.398043
354.716570,-1302.362347,-2072.576638,11103.089130
354.716878,229.828649,-444.123565,9696.697840
354.717186,2451.505594,370.102971,7920.203579
354.717495,2911.162892,740.205942,7402.059420
354.717803,2681.334243,1184.329507,6957.935855
354.718111,1762.019645,1184.329507,8216.285956
354.718419,612.876398,962.267725,10510.924376
354.718727,76.609550,518.144159,9622.677246
354.719035,689.485948,2368.659014,10140.821405
354.719343,1302.362347,2146.597232,9770.718434
354.719651,2528.115143,2442.679609,9252.574275
354.719959,2604.724693,1332.370696,9474.636058
354.720267,1532.190996,-0.000000,9548.656652
354.720575,-383.047749,-1332.370696,10807.006753
354.720883,-1838.629195,-1554.432478,12213.398043
354.721191,-2145.067394,-2442.679609,12953.603985
354.721499,-1532.190996,-814.226536,11251.130318
354.721807,-459.657299,-148.041188,9696.697840
354.722115,919.314598,444.123565,8290.306550
354.722423,1762.019645,370.102971,7846.182985
354.722731,1532.190996,888.247130,8142.265362
354.723039,76.609550,148.041188,9548.656652
354.723347,-229.828649,296.082377,10584.944971
354.723655,-536.266849,1110.308913,10214.842000
354.723963,536.266849,1702.473667,10658.965565
354.724271,1378.971896,2146.597232,9030.512492
354.724579,3370.820191,1924.535449,9178.553681
354.724887,3217.601092,518.144159,8068.244768
354.725195,689.485948,-148.041188,8660.409521
354.725503,76.609550,-2146.597232,11399.171507
354.725811,-1302.362347,-1332.370696,10288.862594
354.726119,-1685.410096,-1332.370696,11325.150913
354.726427,0.000000,-1110.308913,10288.862594
354.726735,306.438199,-74.020594,7994.224174
354.727043,1455.581446,444.123565,8586.388927
354.727351,1608.800546,814.226536,6809.894666
354.727659,689.485948,-222.061783,8956.491898
354.727967,-229.828649,-444.123565,9918.759623
354.728275,-842.705048,296.082377,10288.862594
354.728583,-306.438199,666.185348,11251.130318
354.728891,689.485948,1480.411884,9770.718434
354.729199,2528.115143,2072.576638,9548.656652
354.729507,2374.896044,1184.329507,8438.347739
354.729815,1685.410096,-0.000000,9548.656652
354.730123,153.219100,-592.164754,9548.656652
354.730431,-612.876398,-1850.514855,11399.171507
354.730739,-2068.457845,-2220.617826,11473.192101
354.731047,-1302.362347,-1702.473667,10732.986159
354.731355,0.000000,-370.102971,9696.697840
354.731663,842.705048,-74.020594,8660.409521
354.731971,1685.410096,666.185348,7624.121203
354.732279,1608.800546,444.123565,8142.265362
354.732587,919.314598,-0.000000,9104.533087
354.732895,153.219100,740.205942,9326.594869
354.733203,536.266849,1406.391290,9918.759623
354.733511,1455.581446,1998.556043,9770.718434
354.733819,3064.381992,2590.720797,8882.471304
354.734127,3140.991542,2368.659014,8660.409521
354.734435,2604.724693,740.205942,9400.615463
354.734743,1532.190996,370.102971,9474.636058
354.735051,383.047749,-1332.370696,10584.944971
354.735359,-1225.752797,-2220.617826,11991.336260
354.735667,-2298.286494,-2368.659014,11621.233289
354.735975,-1149.143247,-1184.329507,11251.130318
354.736283,0.000000,-148.041188,9844.739029
354.736591,919.314598,148.041188,8290.306550
354.736899,1225.752797,296.082377,8808.450710
354.737207,919.314598,518.144159,8290.306550
354.737515,0.000000,444.123565,9178.553681
354.737823,-229.828649,1036.288319,10140.821405
354.738131,383.047749,1998.556043,10436.903782
354.738439,1378.971896,2812.782580,9030.512492
354.738747,2911.162892,2738.761985,8882.471304
354.739055,3064.381992,2220.617826,8808.450710
354.739363,2681.334243,962.267725,8216.285956
354.739671,1532.190996,-592.164754,9696.697840
354.739978,-536.266849,-1702.473667,11103.089130
354.740286,-1149.143247,-2294.638420,11843.295072
354.740594,-1685.410096,-1776.494261,10881.027347
354.740902,-612.876398,-444.123565,10658.965565
354.741210,919.314598,-296.082377,9400.615463
354.741518,1532.190996,1110.308913,8438.347739
354.741826,1532.190996,148.041188,8290.306550
354.742134,0.000000,592.164754,8216.285956
354.742442,0.000000,-0.000000,10362.883188
354.742750,-689.485948,1776.494261,10732.986159
354.743058,306.438199,1184.329507,9770.718434
354.743366,1149.143247,2516.700203,9548.656652
354.743674,2068.457845,1628.453072,9696.697840
354.743982,2757.943793,1110.308913,9030.512492
354.744290,1378.971896,-222.061783,9178.553681
354.744598,1149.143247,-1850.514855,10362.883188
354.744906,-995.924147,-2738.761985,11547.212695
354.745214,-1685.410096,-2368.659014,11695.253884
354.745522,-919.314598,-2072.576638,10881.027347
354.745830,766.095498,-592.164754,8956.491898
354.746138,1378.971896,888.247130,7920.203579
354.746446,2834.553343,222.061783,7550.100608
354.746754,2374.896044,740.205942,6661.853478
354.747062,153.219100,370.102971,8364.327145
354.747370,383.047749,296.082377,9622.677246
354.747678,-459.657299,1998.556043,9474.636058
354.747986,383.047749,1924.535449,10584.944971
354.748294,1378.971896,1628.453072,9178.553681
354.748602,2451.505594,1998.556043,8512.368333
354.748910,2145.067394,222.061783,9474.636058
354.749218,459.657299,-962.267725,9844.739029
354.749526,0.000000,-1924.535449,11399.171507
354.749834,-1991.848295,-2516.700203,11621.233289
354.750142,-2451.505594,-2442.679609,11325.150913
354.750450,-612.876398,-1406.391290,10214.842000
354.750758,536.266849,-0.000000,8882.471304
354.751066,1455.581446,740.205942,8512.368333
354.751374,2757.943793,666.185348,7031.956449
354.751682,1225.752797,962.267725,7994.224174
354.751990,383.047749,666.185348,9400.615463
354.752298,0.000000,814.226536,9474.636058
354.752606,0.000000,1924.535449,10807.006753
354.752914,919.314598,1998.556043,10362.883188
354.753222,2374.896044,2516.700203,8734.430116
354.753530,2451.505594,1406.391290,9474.636058
354.753838,1608.800546,148.041188,9992.780217
354.754146,536.266849,-1628.453072,10584.944971
354.754454,-1378.971896,-2072.576638,11325.150913
354.754762,-1685.410096,-3182.885551,12879.583391
354.755070,-536.266849,-1776.494261,10436.903782
354.755378,-1225.752797,222.061783,9104.533087
354.755686,1762.019645,-74.020594,10140.821405
354.755994,2604.724693,962.267725,6661.853478
354.756302,2068.457845,1480.411884,7846.182985
354.756610,1072.533697,-0.000000,8216.285956
354.756918,0.000000,666.185348,8660.409521
354.757226,-229.828649,962.267725,11547.212695
354.757534,0.000000,1776.494261,9992.780217
354.757842,1302.362347,1850.514855,9770.718434
354.758150,1302.362347,1554.432478,9548.656652
354.758458,919.314598,1184.329507,9474.636058
354.758766,1225.752797,-518.144159,9770.718434
354.759074,-383.047749,-2220.617826,11177.109724
354.759382,-995.924147,-2738.761985,11991.336260
354.759690,-1838.629195,-2368.659014,10584.944971
354.759998,-995.924147,-1776.494261,11325.150913
354.760306,689.485948,148.041188,9326.594869
354.760614,2374.896044,1554.432478,7698.141797
354.760922,2604.724693,1480.411884,7105.977043
354.761230,2068.457845,1258.350101,6439.791695
354.761538,1915.238745,1184.329507,8290.306550
354.761846,0.000000,1036.288319,8438.347739
354.762154,306.438199,2368.659014,9178.553681
354.762462,306.438199,2664.741391,9326.594869
354.762769,1685.410096,2294.638420,9622.677246
354.763077,1838.629195,2220.617826,8734.430116
354.763385,306.438199,888.247130,8882.471304
354.763693,383.047749,-962.267725,11325.150913
354.764001,-2221.676944,-2368.659014,11621.233289
354.764309,-3907.087040,-3182.885551,12583.501014
354.764617,-3294.210641,-3034.844362,12583.501014
354.764925,-2604.724693,-1110.308913,11399.171507
354.765233,-995.924147,-74.020594,9696.697840
354.765541,689.485948,-0.000000,8438.347739
354.765849,306.438199,222.061783,8364.327145
354.766157,0.000000,370.102971,8512.368333
354.766465,-612.876398,-370.102971,9104.533087
354.766773,-1455.581446,592.164754,9696.697840
354.767081,-1149.143247,888.247130,9548.656652
354.767389,-153.219100,1998.556043,9178.553681
354.767697,1455.581446,2960.823768,8068.244768
354.768005,1378.971896,2812.782580,7846.182985
354.768313,1685.410096,1998.556043,8068.244768
354.768621,0.000000,296.082377,8586.388927
354.768929,-2451.505594,-1850.514855,11177.109724
354.769237,-3370.820191,-2812.782580,11695.253884
354.769545,-4213.525239,-2368.659014,12139.377449
354.769853,-3370.820191,-2146.597232,11917.315666
354.770161,-2451.505594,-666.185348,9770.718434
354.770469,-1378.971896,-0.000000,9844.739029
354.770777,-689.485948,-814.226536,8882.471304
354.771085,-766.095498,-370.102971,9104.533087
354.771393,-1608.800546,-666.185348,9696.697840
354.771701,-2145.067394,-518.144159,10140.821405
354.772009,-1762.019645,444.123565,10362.883188
354.772317,-842.705048,2146.597232,9474.636058
354.772625,689.485948,3256.906145,8438.347739
354.772933,1991.848295,4367.215058,7846.182985
354.773241,2987.772442,3256.906145,7031.956449
354.773549,1302.362347,2368.659014,6809.894666
354.773857,-459.657299,-518.144159,9326.594869
354.774165,-2681.334243,-1776.494261,11103.089130
354.774473,-3907.087040,-2368.659014,12139.377449
354.774781,-4060.306139,-2368.659014,12213.398043
354.775089,-3447.429741,-740.205942,10807.006753
354.775397,-1915.238745,296.082377,9918.759623
354.775705,-766.095498,1110.308913,8734.430116
354.776013,-306.438199,1184.329507,7994.224174
354.776321,-383.047749,444.123565,8438.347739
354.776629,-1762.019645,-518.144159,9178.553681
354.776937,-2451.505594,-518.144159,10584.944971
354.777245,-2834.553343,-0.000000,10288.862594
354.777553,-2145.067394,2146.597232,9918.759623
354.777861,-306.438199,2590.720797,9400.615463
354.778169,766.095498,3182.885551,8364.327145
354.778477,919.314598,2664.741391,7402.059420
354.778785,306.438199,592.164754,8142.265362
354.779093,-1685.410096,-1480.411884,9770.718434
354.779401,-4290.134789,-2812.782580,11695.253884
354.779709,-5209.449386,-4515.256246,13397.727550
354.780017,-5822.325785,-3775.050304,12953.603985
354.780325,-5056.230287,-2072.576638,11621.233289
354.780633,-3600.648841,-148.041188,10214.842000
354.780941,-1455.581446,1258.350101,8882.471304
354.781249,-306.438199,2590.720797,7624.121203
354.781557,0.000000,3182.885551,7105.977043
354.781865,-459.657299,2146.597232,7254.018232
354.782173,-1915.238745,888.247130,8882.471304
354.782481,-2757.943793,-0.000000,10140.821405
354.782789,-3140.991542,-444.123565,11177.109724
354.783097,-3370.820191,-296.082377,11177.109724
354.783405,-2374.896044,888.247130,10362.883188
354.783713,-1762.019645,1776.494261,9474.636058
354.784021,-229.828649,1480.411884,8882.471304
354.784329,76.609550,1480.411884,7476.080014
354.784637,-842.705048,1110.308913,7328.038826
354.784945,-919.314598,-1110.308913,9696.697840
354.785252,-2068.457845,-1924.535449,9844.739029
354.785560,-4443.353888,-1850.514855,11843.295072
354.785868,-3524.039291,-3034.844362,12361.439231
354.786176,-4060.306139,-814.226536,10362.883188
354.786484,-3830.477490,370.102971,11399.171507
354.786792,-2681.334243,1850.514855,8438.347739
354.787100,-1685.410096,2294.638420,8216.285956
354.787408,-995.924147,2368.659014,7994.224174
354.787716,-842.705048,2590.720797,7105.977043
354.788024,-1149.143247,1554.432478,8734.430116
354.788332,-2451.505594,-74.020594,9696.697840
354.788640,-2681.334243,-1406.391290,11399.171507
354.788948,-3677.258390,-1998.556043,11325.150913
354.789256,-4443.353888,-2886.803174,11769.274478
354.789564,-3983.696590,-2294.638420,11251.130318
354.789872,-3064.381992,-814.226536,10214.842000
354.790180,-536.266849,296.082377,9622.677246
354.790488,459.657299,1850.514855,7105.977043
354.790796,1685.410096,3923.091493,6069.688724
354.791104,1762.019645,3330.926739,6069.688724
354.791412,1302.362347,2960.823768,6661.853478
354.791720,-766.095498,1332.370696,8586.388927
354.792028,-3064.381992,-1036.288319,10955.047942
354.792336,-5745.716235,-2368.659014,12287.418637
354.792644,-7814.174080,-3552.988522,14211.954086
354.792952,-7584.345430,-3478.967927,15470.304188
354.793260,-6588.421283,-3182.885551,13841.851115
354.793568,-5209.449386,-814.226536,11473.192101
354.793876,-2757.943793,1110.308913,9326.594869
354.794184,-153.219100,3256.906145,6809.894666
354.794492,1149.143247,4811.338623,5403.503377
354.794800,2374.896044,5255.462188,5329.482782
354.795108,1915.238745,4737.318029,4811.338623
354.795416,229.828649,3330.926739,6069.688724
354.795724,-2145.067394,296.082377,8808.450710
354.796032,-4673.182538,-1332.370696,11399.171507
354.796340,-6358.592633,-3627.009116,13693.809927
354.796648,-7507.735880,-4885.359217,14508.036463
354.796956,-7124.688131,-5477.523971,15026.180623
354.797264,-5669.106685,-4811.338623,14508.036463
354.797572,-3140.991542,-2516.700203,11917.315666
354.797880,-995.924147,296.082377,8438.347739
354.798188,1378.971896,2664.741391,6513.812290
354.798496,3524.039291,4589.276840,5181.441594
354.798804,3600.648841,6587.832884,4515.256246
354.799112,2834.553343,7328.038826,4293.194464
354.799420,1685.410096,5921.647536,5773.606348
354.799728,-689.485948,3775.050304,8142.265362
354.800036,-3294.210641,-0.000000,12065.356855
354.800344,-7124.688131,-3034.844362,13767.830521
354.800652,-9499.584175,-5847.626942,15544.324782
354.800960,-9882.631924,-6661.853478,16802.674883
354.801268,-9039.926876,-6587.832884,15766.386565
354.801576,-6435.202183,-5033.400406,14359.995275
354.801884,-3217.601092,-3330.926739,11325.150913
354.802192,-1225.752797,-1184.329507,8290.306550
354.802500,1455.581446,2072.576638,6365.771101
354.802808,3294.210641,3997.112087,5403.503377
354.803116,4596.572988,5921.647536,5477.523971
354.803424,4826.401637,7179.997637,2960.823768
354.803732,3677.258390,7624.121203,3256.906145
354.804040,2068.457845,4959.379811,6661.853478
354.804348,-689.485948,3034.844362,8660.409521
354.804656,-3983.696590,296.082377,11325.150913
354.804964,-5975.544884,-2664.741391,13101.645173
354.805272,-7354.516781,-3997.112087,13323.706956
354.805580,-7354.516781,-4219.173869,13619.789333
354.805888,-6435.202183,-3775.050304,13249.686362
354.806196,-4136.915689,-3552.988522,12139.377449
354.806504,-3524.039291,-1702.473667,9326.594869
354.806812,-1991.848295,-0.000000,8142.265362
354.807120,-383.047749,1332.370696,8068.244768
354.807428,0.000000,2368.659014,7105.977043
354.807736,459.657299,3034.844362,7846.182985
354.808043,689.485948,2072.576638,7624.121203
354.808351,-383.047749,1406.391290,8734.430116
354.808659,-1378.971896,740.205942,9548.656652
354.808967,-1685.410096,-444.123565,10584.944971
354.809275,-2681.334243,-1258.350101,10955.047942
354.809583,-3677.258390,-1554.432478,10288.862594
354.809891,-2528.115143,-1184.329507,9992.780217
354.810199,-1915.238745,-444.123565,8586.388927
354.810507,-1532.190996,296.082377,7920.203579
354.810815,-383.047749,1406.391290,7698.141797
354.811123,-995.924147,1702.473667,7846.182985
354.811431,-1455.581446,2146.597232,8660.409521
354.811739,-2451.505594,2442.679609,9030.512492
354.812047,-2528.115143,1924.535449,10362.883188
354.812355,-4673.182538,666.185348,10881.027347
354.812663,-6435.202183,-888.247130,11991.336260
354.812971,-7431.126331,-2220.617826,13619.789333
354.813279,-7814.174080,-2960.823768,13767.830521
354.813587,-7584.345430,-2368.659014,13767.830521
354.813895,-6052.154434,-2368.659014,12731.542202
354.814203,-4826.401637,-2220.617826,11695.253884
354.814511,-2681.334243,-814.226536,9474.636058
354.814819,-612.876398,-74.020594,8290.306550
354.815127,842.705048,1184.329507,6809.894666
354.815435,1532.190996,2368.659014,5995.668130
354.815743,1762.019645,3330.926739,5773.606348
354.816051,1991.848295,3182.885551,6217.729913
354.816359,919.314598,2590.720797,6735.874072
354.816667,0.000000,2146.597232,8216.285956
354.816975,-536.266849,814.226536,9474.636058
354.817283,-2374.896044,-518.144159,10807.006753
354.817591,-3524.039291,-962.267725,11621.233289
354.817899,-3294.210641,-1258.350101,11843.295072
354.818207,-3064.381992,-1480.411884,11399.171507
354.818515,-2451.505594,-740.205942,10140.821405
354.818823,-1991.848295,-370.102971,9474.636058
354.819131,-1455.581446,-0.000000,9474.636058
354.819439,-536.266849,962.267725,9178.553681
354.819747,-1072.533697,1554.432478,9400.615463
354.820055,-842.705048,1110.308913,9030.512492
354.820363,-1225.752797,740.205942,9178.553681
354.820671,-1685.410096,888.247130,9622.677246
354.820979,-2145.067394,-0.000000,9992.780217
354.821287,-2604.724693,-74.020594,10214.842000
354.821595,-2681.334243,-0.000000,10658.965565
354.821903,-2068.457845,-370.102971,10807.006753
354.822211,-2145.067394,-0.000000,10140.821405
354.822519,-1762.019645,74.020594,9548.656652
354.822827,-1302.362347,-0.000000,9252.574275
354.823135,-689.485948,148.041188,8512.368333
354.823443,-1149.143247,814.226536,8882.471304
354.823751,-919.314598,1184.329507,8512.368333
354.824059,-1149.143247,1480.411884,8512.368333
354.824367,-1532.190996,962.267725,8808.450710
354.824675,-2528.115143,592.164754,8956.491898
354.824983,-2528.115143,370.102971,9918.759623
354.825291,-3294.210641,-370.102971,10732.986159
354.825599,-4366.744339,-740.205942,11029.068536
354.825908,-4136.915689,-1110.308913,11325.150913
354.826216,-4136.915689,-1184.329507,11103.089130
354.826524,-3983.696590,-1110.308913,10658.965565
354.826832,-2911.162892,-740.205942,10362.883188
354.827140,-2681.334243,-888.247130,9622.677246
354.827448,-1685.410096,-740.205942,9548.656652
354.827756,-689.485948,-518.144159,8734.430116
354.828064,-1302.362347,148.041188,8882.471304
354.828372,-766.095498,-0.000000,8956.491898
354.828680,-766.095498,296.082377,9030.512492
354.828988,-459.657299,666.185348,8808.450710
354.829296,0.000000,888.247130,8808.450710
354.829604,0.000000,1184.329507,8512.368333
354.829912,0.000000,1406.391290,8142.265362
354.830220,0.000000,1776.494261,8216.285956
354.830528,-153.219100,1628.453072,8216.285956
354.830836,-612.876398,1184.329507,8808.450710
354.831144,-1455.581446,740.205942,9400.615463
354.831452,-2451.505594,222.061783,10066.800811
354.831760,-2604.724693,296.082377,10807.006753
354.832068,-3217.601092,-0.000000,10584.944971
354.832376,-3524.039291,222.061783,11103.089130
354.832684,-3600.648841,518.144159,11103.089130
354.832992,-3830.477490,222.061783,11251.130318
354.833300,-3907.087040,296.082377,11103.089130
354.833608,-3830.477490,-0.000000,11325.150913
354.833916,-3600.648841,222.061783,10510.924376
354.834224,-3370.820191,296.082377,10436.903782
354.834532,-3064.381992,-74.020594,10140.821405
354.834840,-3524.039291,444.123565,9252.574275
354.835148,-2528.115143,444.123565,9030.512492
354.835456,-2528.115143,518.144159,9104.533087
354.835764,-2757.943793,740.205942,8956.491898
354.836072,-3217.601092,666.185348,9178.553681
354.836380,-3217.601092,370.102971,9178.553681
354.836688,-3600.648841,370.102971,9696.697840
354.836996,-3677.258390,-370.102971,9622.677246
354.837304,-3753.867940,-444.123565,9844.739029
354.837612,-3370.820191,-222.061783,9548.656652
354.837920,-3524.039291,-370.102971,9252.574275
354.838228,-3600.648841,-148.041188,9326.594869
354.838536,-3370.820191,-370.102971,9104.533087
354.838844,-3600.648841,-370.102971,9030.512492
354.839152,-3294.210641,-222.061783,9252.574275
354.839460,-3294.210641,-888.247130,9326.594869
354.839768,-3447.429741,-962.267725,9178.553681
354.840076,-3983.696590,-1184.329507,10066.800811
354.840384,-3983.696590,-1184.329507,10362.883188
354.840692,-3830.477490,-1480.411884,10362.883188
354.841001,-3294.210641,-1554.432478,10732.986159
354.841309,-3064.381992,-1702.473667,10955.047942
354.841617,-2451.505594,-1924.535449,10584.944971
354.841925,-1991.848295,-1480.411884,9992.780217
354.842233,-536.266849,-518.144159,9400.615463
354.842541,306.438199,296.082377,8586.388927
354.842849,919.314598,1258.350101,7698.141797
354.843157,1149.143247,2072.576638,6957.935855
354.843465,1378.971896,2516.700203,7031.956449
354.843773,1455.581446,3108.864956,6513.812290
354.844081,766.095498,3108.864956,6587.832884
354.844389,153.219100,3330.926739,7624.121203
354.844697,-459.657299,2664.741391,8216.285956
354.845005,-1915.238745,2368.659014,9474.636058
354.845313,-2757.943793,1406.391290,10510.924376
354.845621,-3677.258390,444.123565,11399.171507
354.845929,-4519.963438,-74.020594,12361.439231
354.846237,-4826.401637,-814.226536,12731.542202
354.846545,-5439.278036,-1406.391290,13249.686362
354.846853,-5132.839837,-2146.597232,13175.665768
354.847161,-4749.792088,-1628.453072,12139.377449
354.847469,-4136.915689,-1702.473667,11695.253884
354.847777,-3753.867940,-1406.391290,11695.253884
354.848085,-2834.553343,-888.247130,11177.109724
354.848393,-2145.067394,-518.144159,9918.759623
354.848701,-1225.752797,222.061783,9400.615463
354.849009,-459.657299,666.185348,8882.471304
354.849317,-229.828649,1406.391290,8438.347739
354.849625,459.657299,2294.638420,7994.224174
354.849933,1532.190996,2442.679609,7402.059420
354.850241,1149.143247,2960.823768,6735.874072
354.850549,1302.362347,3256.906145,7031.956449
354.850857,995.924147,2960.823768,7105.977043
354.851165,0.000000,2442.679609,7550.100608
354.851473,-1455.581446,1554.432478,8660.409521
354.851781,-2528.115143,666.185348,9474.636058
354.852089,-4213.525239,-740.205942,11251.130318
354.852397,-4826.401637,-2072.576638,11917.315666
354.852705,-6281.983084,-2368.659014,11991.336260
354.853013,-6894.859482,-2886.803174,12657.521608
354.853321,-6358.592633,-3627.009116,13471.748144
354.853629,-5822.325785,-2738.761985,13101.645173
354.853937,-4596.572988,-2960.823768,12361.439231
354.854245,-3907.087040,-2368.659014,11325.150913
354.854553,-2528.115143,-1480.411884,10140.821405
354.854861,-1455.581446,296.082377,9178.553681
354.855169,459.657299,2072.576638,7105.977043
354.855477,1762.019645,3849.070898,5551.544565
354.855785,3217.601092,4959.379811,4737.318029
354.856094,3217.601092,5477.523971,4145.153275
354.856402,2451.505594,4959.379811,4515.256246
354.856710,1685.410096,3552.988522,6439.791695
354.857018,-919.314598,2146.597232,7698.141797
354.857326,-3370.820191,222.061783,10510.924376
354.857634,-4903.011187,-2146.597232,12065.356855
354.857942,-6435.202183,-3775.050304,13101.645173
354.858250,-7124.688131,-5329.482782,14359.995275
354.858558,-7124.688131,-5921.647536,14211.954086
354.858866,-5822.325785,-5255.462188,13915.871710
354.859174,-5056.230287,-3552.988522,11547.212695
354.859482,-2604.724693,-1776.494261,10288.862594
354.859790,-612.876398,1406.391290,8586.388927
354.860098,995.924147,4663.297435,6365.771101
354.860406,2451.505594,5847.626942,4737.318029
354.860714,2987.772442,6513.812290,3775.050304
354.861022,842.705048,5181.441594,5255.462188
354.861330,-459.657299,2220.617826,8216.285956
354.861638,-3753.867940,-0.000000,10658.965565
354.861946,-6358.592633,-3775.050304,13323.706956
354.862254,-8656.879127,-6439.791695,14211.954086
354.862562,-9576.193725,-6143.709319,15322.262999
354.862870,-6741.640382,-7328.038826,15248.242405
354.863178,-6511.811733,-3034.844362,10881.027347
354.863486,-2298.286494,-1332.370696,10214.842000
354.863794,612.876398,2368.659014,6143.709319
354.864102,2374.896044,5255.462188,5625.565159
354.864410,4903.011187,7772.162391,2960.823768
354.864718,5745.716235,8512.368333,2590.720797
354.865026,4366.744339,8142.265362,4367.215058
354.865334,1225.752797,4959.379811,6439.791695
354.865642,-1149.143247,1480.411884,11399.171507
354.865950,-5975.544884,-2072.576638,14063.912898
354.866258,-9269.755526,-5847.626942,16580.613101
354.866566,-10035.851024,-7105.977043,17690.922014
354.866874,-10418.898773,-7105.977043,17024.736666
354.867182,-7890.783629,-4737.318029,14952.160028
354.867490,-3830.477490,-1332.370696,10436.903782
354.867798,-459.657299,2072.576638,7328.038826
354.868106,153.219100,2960.823768,5773.606348
354.868414,2604.724693,5847.626942,4811.338623
354.868722,2911.162892,5847.626942,4811.338623
354.869030,1302.362347,4959.379811,5329.482782
354.869338,0.000000,3330.926739,6957.935855
354.869646,-3064.381992,370.102971,9992.780217
354.869954,-6511.811733,-1480.411884,12139.377449
354.870262,-7201.297681,-3108.864956,14211.954086
354.870570,-7431.126331,-3256.906145,14137.933492
354.870878,-5898.935335,-1998.556043,11843.295072
354.871187,-2681.334243,-518.144159,9770.718434
354.871495,919.314598,518.144159,8068.244768
354.871803,3064.381992,-74.020594,7624.121203
354.872111,2834.553343,-0.000000,6217.729913
354.872419,1455.581446,592.164754,6513.812290
354.872727,689.485948,-0.000000,8216.285956
354.873035,-1455.581446,148.041188,9178.553681
354.873343,-2374.896044,1776.494261,9918.759623
354.873651,-1378.971896,888.247130,10436.903782
354.873959,-2374.896044,1258.350101,9030.512492
354.874267,-2987.772442,666.185348,9696.697840
354.874575,-2681.334243,-1110.308913,11769.274478
354.874883,-3907.087040,-2664.741391,12435.459826
354.875191,-4903.011187,-3997.112087,12731.542202
354.875499,-4596.572988,-4515.256246,11843.295072
354.875807,-4903.011187,-3701.029710,11695.253884
354.876115,-2987.772442,-1480.411884,10140.821405
354.876423,536.266849,1480.411884,8142.265362
354.876731,1991.848295,3923.091493,5847.626942
354.877039,3907.087040,4959.379811,4663.297435
354.877347,4903.011187,5403.503377,4959.379811
354.877655,3907.087040,3923.091493,7031.956449
354.877963,2221.676944,1258.350101,8586.388927
354.878271,689.485948,-0.000000,9326.594869
354.878579,-2298.286494,-1332.370696,12213.398043
354.878887,-4366.744339,-2812.782580,14063.912898
354.879195,-3524.039291,-2294.638420,14137.933492
354.879503,-2374.896044,-962.267725,11547.212695
354.879811,-1991.848295,-148.041188,9474.636058
354.880119,-536.266849,-888.247130,9548.656652
354.880427,-689.485948,-888.247130,9770.718434
354.880735,-842.705048,-518.144159,9696.697840
354.881043,-842.705048,814.226536,8512.368333
354.881351,-1072.533697,1702.473667,8734.430116
354.881659,-1072.533697,2442.679609,9474.636058
354.881967,383.047749,3701.029710,9104.533087
354.882275,842.705048,4737.318029,7254.018232
354.882583,1378.971896,3849.070898,7920.203579
354.882891,383.047749,888.247130,9992.780217
354.883199,-842.705048,-1110.308913,11843.295072
354.883507,-1762.019645,-2220.617826,12287.418637
354.883815,-2604.724693,-1998.556043,10214.842000
354.884123,-1762.019645,-1480.411884,10732.986159
354.884431,689.485948,-518.144159,10436.903782
354.884739,1532.190996,148.041188,8882.471304
354.885047,1915.238745,592.164754,7254.018232
354.885355,1532.190996,-222.061783,7328.038826
354.885663,76.609550,-1258.350101,9104.533087
354.885972,-1608.800546,-1554.432478,10510.924376
354.886280,-1915.238745,-1110.308913,11399.171507
354.886588,-2068.457845,518.144159,10362.883188
354.886896,-459.657299,1406.391290,9770.718434
354.887204,1532.190996,2590.720797,8734.430116
354.887512,2451.505594,2516.700203,8882.471304
354.887820,3064.381992,1480.411884,8142.265362
354.888128,1455.581446,-444.123565,8142.265362
354.888436,0.000000,-2516.700203,11325.150913
354.888744,-1302.362347,-2590.720797,11177.109724
354.889052,-1455.581446,-1036.288319,10955.047942
354.889360,76.609550,-0.000000,10881.027347
354.889668,1685.410096,518.144159,8586.388927
354.889976,2834.553343,1110.308913,7772.162391
354.890284,3370.820191,1332.370696,6735.874072
354.890592,2604.724693,-0.000000,7698.141797
354.890900,383.047749,-592.164754,9030.512492
354.891208,-919.314598,-1184.329507,11325.150913
354.891516,-2145.067394,-0.000000,10658.965565
354.891824,-612.876398,1554.432478,10584.944971
354.892132,995.924147,2812.782580,8808.450710
354.892440,2604.724693,3552.988522,7624.121203
354.892748,2834.553343,2368.659014,8216.285956
354.893056,995.924147,1332.370696,8142.265362
354.893364,0.000000,-296.082377,10881.027347
354.893672,-1532.190996,-814.226536,11843.295072
354.893980,-2145.067394,-1258.350101,11399.171507
354.894288,-1455.581446,-0.000000,11103.089130
354.894596,459.657299,-148.041188,10140.821405
354.894904,1072.533697,-0.000000,9178.553681
354.895212,842.705048,-1110.308913,8660.409521
354.895520,-153.219100,-2220.617826,10066.800811
354.895828,-2451.505594,-3478.967927,11177.109724
354.896136,-2528.115143,-2368.659014,11399.171507
354.896444,-1915.238745,-740.205942,11029.068536
354.896752,306.438199,1480.411884,9326.594869
354.897060,2757.943793,3701.029710,7179.997637
354.897368,4443.353888,4367.215058,6143.709319
354.897676,4443.353888,3701.029710,6513.812290
354.897984,3370.820191,2368.659014,7402.059420
354.898292,995.924147,666.185348,9844.739029
354.898600,-842.705048,-814.226536,11251.130318
354.898908,-1838.629195,-0.000000,11029.068536
354.899216,-229.828649,-666.185348,11843.295072
354.899524,76.609550,-296.082377,9770.718434
354.899832,383.047749,-1776.494261,9992.780217
354.900140,-229.828649,-3108.864956,10510.924376
354.900448,-1762.019645,-4441.235652,11325.150913
354.900756,-2681.334243,-3627.009116,12953.603985
354.901065,-2757.943793,-2220.617826,10881.027347
354.901373,-766.095498,-0.000000,10584.944971
354.901681,1378.971896,1850.514855,9400.615463
354.901989,3600.648841,4441.235652,7476.080014
354.902297,4979.620737,4441.235652,6513.812290
354.902605,4596.572988,4293.194464,6957.935855
354.902913,3064.381992,2812.782580,8660.409521
354.903221,689.485948,1110.308913,9030.512492
354.903529,-536.266849,148.041188,11917.315666
354.903837,-1072.533697,-370.102971,12065.356855
354.904145,-153.219100,222.061783,9844.739029
354.904453,1685.410096,-592.164754,9474.636058
354.904761,1608.800546,-1036.288319,8882.471304
354.905069,689.485948,-1924.535449,9104.533087
354.905377,-383.047749,-2516.700203,9844.739029
354.905685,-1608.800546,-2294.638420,10955.047942
354.905993,-1072.533697,-888.247130,10436.903782
354.906301,153.219100,1406.391290,9696.697840
354.906609,2221.676944,2886.803174,8808.450710
354.906917,3677.258390,3849.070898,6883.915261
354.907225,4136.915689,3923.091493,7402.059420
354.907533,3370.820191,2220.617826,8586.388927
354.907841,1685.410096,296.082377,9548.656652
354.908149,-612.876398,-296.082377,11695.253884
354.908457,-1685.410096,-1480.411884,12287.418637
354.908765,-383.047749,-1258.350101,11251.130318
354.909073,229.828649,-888.247130,10362.883188
354.909381,1072.533697,-1554.432478,9622.677246
354.909689,1072.533697,-1998.556043,8512.368333
354.909997,383.047749,-1998.556043,10214.842000
354.910305,-766.095498,-2368.659014,10436.903782
354.910613,-1225.752797,-1258.350101,9696.697840
354.910921,-842.705048,370.102971,9844.739029
354.911229,1225.752797,1850.514855,8808.450710
354.911537,3140.991542,3923.091493,7254.018232
354.911845,3677.258390,3997.112087,7105.977043
354.912153,4826.401637,3182.885551,7550.100608
354.912461,2757.943793,1702.473667,8586.388927
354.912769,229.828649,-0.000000,10584.944971
354.913077,-1532.190996,-1258.350101,11029.068536
354.913385,-1225.752797,-888.247130,11695.253884
354.913693,-766.095498,-1184.329507,11399.171507
354.914001,153.219100,-1406.391290,9918.759623
354.914309,842.705048,-1184.329507,9474.636058
354.914617,612.876398,-1628.453072,9252.574275
354.914925,-306.438199,-2146.597232,9696.697840
354.915233,-995.924147,-1924.535449,10881.027347
354.915541,-612.876398,-1184.329507,10584.944971
354.915849,536.266849,1184.329507,8734.430116
354.916158,2221.676944,3552.988522,8068.244768
354.916466,3983.696590,3997.112087,7550.100608
354.916774,3753.867940,3849.070898,7179.997637
354.917082,3447.429741,2146.597232,9326.594869
354.917390,1915.238745,296.082377,9548.656652
354.917698,-766.095498,-888.247130,10584.944971
354.918006,-1762.019645,-1850.514855,12065.356855
354.918314,-459.657299,-1480.411884,12361.439231
354.918622,-383.047749,-1184.329507,11399.171507
354.918930,842.705048,-518.144159,9400.615463
354.919238,1608.800546,-518.144159,9178.553681
354.919546,1302.362347,-814.226536,8882.471304
354.919854,1225.752797,-1406.391290,9622.677246
354.920162,-306.438199,-666.185348,10140.821405
354.920470,76.609550,-0.000000,9474.636058
354.920778,459.657299,2294.638420,8586.388927
354.921086,2374.896044,4145.153275,7550.100608
354.921394,4136.915689,4145.153275,7179.997637
354.921702,3830.477490,3627.009116,7105.977043
354.922009,2374.896044,1110.308913,8586.388927
354.922317,-919.314598,-592.164754,10658.965565
354.922625,-2451.505594,-1628.453072,12287.418637
354.922933,-3140.991542,-1776.494261,13545.768739
354.923241,-1378.971896,-1406.391290,13101.645173
354.923549,-2221.676944,-1110.308913,8956.491898
354.923857,153.219100,-592.164754,10955.047942
354.924165,1762.019645,-1554.432478,8438.347739
354.924473,-1072.533697,-518.144159,7624.121203
354.924781,0.000000,-2590.720797,12213.398043
354.925089,-1225.752797,-740.205942,7550.100608
354.925397,-1378.971896,-1110.308913,11547.212695
354.925705,76.609550,2220.617826,8660.409521
354.926013,2451.505594,3256.906145,6365.771101
354.926321,3600.648841,2960.823768,8142.265362
354.926629,1991.848295,1924.535449,6069.688724
354.926937,1532.190996,888.247130,10140.821405
354.927245,76.609550,-740.205942,10807.006753
354.927553,-2221.676944,-1554.432478,11473.192101
354.927860,-1915.238745,-1332.370696,11473.192101
354.928168,-459.657299,-1406.391290,11473.192101
354.928476,153.219100,-592.164754,9844.739029
354.928784,766.095498,296.082377,8068.244768
354.929092,1915.238745,-1258.350101,9622.677246
354.929400,0.000000,-1406.391290,8438.347739
354.929708,-536.266849,-1480.411884,10362.883188
354.930016,-919.314598,-1258.350101,9474.636058
354.930324,76.609550,-0.000000,9104.533087
