#time,accel_x,accel_y,accel_z
346.967241,536.266849,-0.000000,9474.636058
346.967549,459.657299,-0.000000,9474.636058
346.967857,459.657299,148.041188,9696.697840
346.968165,153.219100,-0.000000,9622.677246
346.968473,842.705048,-0.000000,9474.636058
346.968781,919.314598,-0.000000,9548.656652
346.969089,689.485948,222.061783,9548.656652
346.969397,766.095498,148.041188,9474.636058
346.969705,842.705048,-0.000000,9622.677246
346.970013,612.876398,222.061783,9622.677246
346.970321,536.266849,-0.000000,9992.780217
346.970629,766.095498,-0.000000,9696.697840
346.970937,689.485948,814.226536,9918.759623
346.971245,766.095498,148.041188,9696.697840
346.971553,689.485948,592.164754,9696.697840
346.971861,612.876398,222.061783,9548.656652
346.972169,766.095498,296.082377,9474.636058
346.972477,766.095498,222.061783,9548.656652
346.972785,689.485948,296.082377,9622.677246
346.973093,459.657299,-0.000000,9770.718434
346.973401,1149.143247,-74.020594,9622.677246
346.973709,612.876398,-74.020594,9474.636058
346.974017,536.266849,-0.000000,9548.656652
346.974325,612.876398,148.041188,9474.636058
346.974633,612.876398,296.082377,9474.636058
346.974941,842.705048,370.102971,9548.656652
346.975249,842.705048,-0.000000,9400.615463
346.975557,536.266849,296.082377,9770.718434
346.975865,689.485948,518.144159,9770.718434
346.976173,612.876398,222.061783,9622.677246
346.976481,612.876398,-0.000000,9622.677246
346.976789,536.266849,-0.000000,9548.656652
346.977097,536.266849,296.082377,9622.677246
346.977405,612.876398,370.102971,9622.677246
346.977713,689.485948,148.041188,9770.718434
346.978020,766.095498,222.061783,10140.821405
346.978328,536.266849,222.061783,9474.636058
346.978636,689.485948,-370.102971,9992.780217
346.978944,842.705048,-444.123565,10214.842000
346.979252,612.876398,-444.123565,9992.780217
346.979560,612.876398,-592.164754,10214.842000
346.979868,919.314598,-666.185348,10436.903782
346.980176,1302.362347,-518.144159,9992.780217
346.980484,1072.533697,-296.082377,9474.636058
346.980792,1455.581446,296.082377,9104.533087
346.981100,1762.019645,518.144159,8808.450710
346.981408,2451.505594,888.247130,8882.471304
346.981716,2374.896044,666.185348,9104.533087
346.982024,1915.238745,444.123565,9104.533087
346.982332,1608.800546,518.144159,9252.574275
346.982640,1532.190996,-0.000000,9696.697840
346.982948,1915.238745,-0.000000,9992.780217
346.983256,1455.581446,-0.000000,9992.780217
346.983564,1762.019645,296.082377,9992.780217
346.983872,1838.629195,-444.123565,9770.718434
346.984180,1915.238745,-74.020594,10066.800811
346.984488,2298.286494,-0.000000,9844.739029
346.984796,2604.724693,222.061783,9622.677246
346.985104,2911.162892,-0.000000,9400.615463
346.985412,2757.943793,296.082377,9548.656652
346.985720,2834.553343,296.082377,9548.656652
346.986028,2757.943793,444.123565,9400.615463
346.986336,2451.505594,296.082377,9696.697840
346.986644,2451.505594,148.041188,9622.677246
346.986952,2451.505594,-148.041188,9992.780217
346.987260,2451.505594,222.061783,9770.718434
346.987568,2451.505594,-0.000000,9844.739029
346.987876,2911.162892,148.041188,10436.903782
346.988184,2757.943793,-0.000000,10436.903782
346.988492,3064.381992,-74.020594,10066.800811
346.988800,3140.991542,-0.000000,9992.780217
346.989108,3064.381992,-0.000000,9844.739029
346.989416,3140.991542,-0.000000,9844.739029
346.989724,3524.039291,222.061783,9696.697840
346.990032,3294.210641,370.102971,9326.594869
346.990340,4213.525239,370.102971,9178.553681
346.990648,4673.182538,1258.350101,9474.636058
346.990956,4366.744339,666.185348,9252.574275
346.991263,4519.963438,370.102971,9178.553681
346.991571,4136.915689,370.102971,9400.615463
346.991879,4290.134789,296.082377,9474.636058
346.992187,4596.572988,222.061783,9844.739029
346.992495,3983.696590,-148.041188,9622.677246
346.992803,4366.744339,518.144159,9696.697840
346.993111,4519.963438,296.082377,9548.656652
346.993419,4826.401637,740.205942,9178.553681
346.993727,4903.011187,1258.350101,8956.491898
346.994035,4826.401637,1332.370696,8734.430116
346.994343,4749.792088,1036.288319,9104.533087
346.994651,4826.401637,666.185348,9104.533087
346.994959,4596.572988,962.267725,9252.574275
346.995267,3907.087040,962.267725,9474.636058
346.995575,3830.477490,592.164754,10214.842000
346.995883,3217.601092,740.205942,9178.553681
346.996191,2757.943793,-74.020594,9474.636058
346.996499,3140.991542,518.144159,10362.883188
346.996807,2681.334243,518.144159,10066.800811
346.997115,2834.553343,-0.000000,10658.965565
346.997423,2604.724693,370.102971,9696.697840
346.997731,2298.286494,1110.308913,10510.924376
346.998039,2681.334243,518.144159,9474.636058
346.998347,1991.848295,-0.000000,9548.656652
346.998655,2068.457845,222.061783,10288.862594
346.998963,1378.971896,-666.185348,10066.800811
346.999271,1455.581446,-888.247130,10658.965565
346.999579,995.924147,-1480.411884,10510.924376
346.999887,1762.019645,-1480.411884,10584.944971
347.000195,2221.676944,-1850.514855,10436.903782
347.000503,2221.676944,-1924.535449,10362.883188
347.000811,2604.724693,-1776.494261,10510.924376
347.001119,2987.772442,-1850.514855,9992.780217
347.001427,3677.258390,-1258.350101,9474.636058
347.001735,3600.648841,-592.164754,9178.553681
347.002043,5056.230287,-222.061783,8882.471304
347.002351,4903.011187,148.041188,8142.265362
347.002659,5592.497135,1258.350101,8438.347739
347.002967,5439.278036,518.144159,8142.265362
347.003275,4979.620737,814.226536,8364.327145
347.003583,4519.963438,444.123565,8512.368333
347.003891,4060.306139,296.082377,8808.450710
347.004198,3677.258390,-222.061783,9400.615463
347.004506,2528.115143,-0.000000,9770.718434
347.004814,2987.772442,-444.123565,10140.821405
347.005122,2911.162892,-0.000000,10066.800811
347.005430,3217.601092,666.185348,9474.636058
347.005738,3753.867940,2072.576638,9104.533087
347.006046,4290.134789,2738.761985,8734.430116
347.006354,4519.963438,3256.906145,8364.327145
347.006662,4673.182538,3182.885551,8364.327145
347.006970,3983.696590,2146.597232,9178.553681
347.007278,2757.943793,1480.411884,9992.780217
347.007586,2145.067394,-962.267725,11103.089130
347.007894,995.924147,-1628.453072,12213.398043
347.008202,459.657299,-3330.926739,13101.645173
347.008510,536.266849,-3330.926739,13471.748144
347.008818,1608.800546,-3256.906145,13101.645173
347.009126,2681.334243,-2220.617826,11695.253884
347.009434,4290.134789,-1184.329507,10140.821405
347.009742,5209.449386,148.041188,8882.471304
347.010050,7354.516781,1480.411884,7920.203579
347.010358,7354.516781,2442.679609,6513.812290
347.010666,7277.907231,3849.070898,5995.668130
347.010974,7354.516781,4219.173869,5995.668130
347.011282,5975.544884,4737.318029,5847.626942
347.011590,5592.497135,3701.029710,6587.832884
347.011898,4290.134789,3108.864956,7254.018232
347.012206,2834.553343,1924.535449,8512.368333
347.012514,1915.238745,-74.020594,10288.862594
347.012822,1072.533697,-1258.350101,11547.212695
347.013130,76.609550,-2812.782580,12583.501014
347.013438,0.000000,-4145.153275,13545.768739
347.013746,0.000000,-3923.091493,13915.871710
347.014054,766.095498,-4293.194464,13767.830521
347.014362,2145.067394,-3775.050304,12435.459826
347.014670,3217.601092,-2220.617826,11399.171507
347.014978,4979.620737,-1036.288319,10214.842000
347.015286,5439.278036,296.082377,8068.244768
347.015594,6435.202183,1850.514855,7031.956449
347.015902,6511.811733,2442.679609,6365.771101
347.016210,6358.592633,3627.009116,5995.668130
347.016518,5745.716235,3775.050304,5995.668130
347.016826,5362.668486,3034.844362,6439.791695
347.017134,4443.353888,1924.535449,7698.141797
347.017441,2987.772442,-74.020594,9030.512492
347.017749,2145.067394,-1850.514855,10658.965565
347.018057,995.924147,-3923.091493,13101.645173
347.018365,-229.828649,-4589.276840,13619.789333
347.018673,612.876398,-4293.194464,13545.768739
347.018981,1762.019645,-2442.679609,12213.398043
347.019289,3447.429741,-148.041188,10584.944971
347.019597,7584.345430,1332.370696,8290.306550
347.019905,7124.688131,4441.235652,4293.194464
347.020213,8197.221829,6439.791695,4441.235652
347.020521,8656.879127,5699.585753,5255.462188
347.020829,6358.592633,6365.771101,4441.235652
347.021137,5132.839837,2960.823768,7624.121203
347.021445,2834.553343,296.082377,10881.027347
347.021753,-995.924147,-2516.700203,13027.624579
347.022061,-2834.553343,-4441.235652,13989.892304
347.022369,-2528.115143,-5773.606348,16876.695478
347.022677,-2374.896044,-6957.935855,17764.942608
347.022985,-2298.286494,-4959.379811,14137.933492
347.023293,1838.629195,-2886.803174,13175.665768
347.023601,4136.915689,-740.205942,9400.615463
347.023909,7277.907231,2072.576638,7031.956449
347.024217,8886.707777,4737.318029,4589.276840
347.024525,10265.679673,5403.503377,4441.235652
347.024833,9499.584175,6069.688724,3478.967927
347.025141,7890.783629,5107.421000,3923.091493
347.025449,6128.763984,1554.432478,8142.265362
347.025757,2221.676944,-1776.494261,9474.636058
347.026065,153.219100,-4515.256246,12805.562797
347.026373,-1378.971896,-5255.462188,14063.912898
347.026681,-995.924147,-4737.318029,12953.603985
347.026989,1762.019645,-2442.679609,12509.480420
347.027297,4213.525239,222.061783,10658.965565
347.027605,6435.202183,1776.494261,8068.244768
347.027913,7967.393179,3849.070898,6439.791695
347.028221,8810.098227,5181.441594,6291.750507
347.028529,7431.126331,4811.338623,6291.750507
347.028837,5745.716235,3552.988522,7846.182985
347.029145,4213.525239,1480.411884,10066.800811
347.029453,1149.143247,-888.247130,11029.068536
347.029761,-1455.581446,-2072.576638,12509.480420
347.030069,-2528.115143,-2812.782580,13841.851115
347.030377,-1991.848295,-3182.885551,14211.954086
347.030684,-536.266849,-2590.720797,12657.521608
347.030992,1838.629195,-1406.391290,11621.233289
347.031300,4443.353888,-888.247130,9918.759623
347.031608,4749.792088,-888.247130,8512.368333
347.031916,5439.278036,296.082377,8438.347739
347.032224,6052.154434,1332.370696,8142.265362
347.032532,5132.839837,2442.679609,7550.100608
347.032840,4826.401637,3701.029710,7105.977043
347.033147,4903.011187,5107.421000,6587.832884
347.033455,4749.792088,5403.503377,6069.688724
347.033763,5286.058936,4219.173869,7105.977043
347.034071,3907.087040,3330.926739,7846.182985
347.034379,2834.553343,370.102971,9474.636058
347.034687,1149.143247,-2516.700203,12139.377449
347.034994,-919.314598,-4367.215058,13323.706956
347.035302,-2528.115143,-5847.626942,13989.892304
347.035610,-3064.381992,-4959.379811,13175.665768
347.035918,-1685.410096,-3330.926739,11991.336260
347.036226,-306.438199,-1258.350101,10584.944971
347.036534,1302.362347,518.144159,9178.553681
347.036841,3524.039291,814.226536,7772.162391
347.037149,3830.477490,1850.514855,6365.771101
347.037457,3907.087040,1998.556043,6587.832884
347.037765,3524.039291,1332.370696,7179.997637
347.038073,2987.772442,1480.411884,8734.430116
347.038380,2374.896044,666.185348,9326.594869
347.038688,842.705048,-74.020594,8882.471304
347.038996,1455.581446,-740.205942,9770.718434
347.039304,2145.067394,-1184.329507,10436.903782
347.039612,2451.505594,-1184.329507,9696.697840
347.039920,2068.457845,-2368.659014,9992.780217
347.040227,2374.896044,-3256.906145,9696.697840
347.040535,766.095498,-2442.679609,9770.718434
347.040843,1072.533697,-1332.370696,10658.965565
347.041151,1991.848295,518.144159,9030.512492
347.041459,2604.724693,3108.864956,7772.162391
347.041767,2528.115143,3478.967927,7476.080014
347.042074,3294.210641,2960.823768,6957.935855
347.042382,1762.019645,2146.597232,8512.368333
347.042690,459.657299,370.102971,10955.047942
347.042998,-1608.800546,-740.205942,11177.109724
347.043306,-2145.067394,-962.267725,13027.624579
347.043614,-2298.286494,-1036.288319,12879.583391
347.043921,-1072.533697,592.164754,11547.212695
347.044229,766.095498,1776.494261,11251.130318
347.044537,2911.162892,1480.411884,9992.780217
347.044845,2528.115143,888.247130,8734.430116
347.045153,2757.943793,-148.041188,9844.739029
347.045461,2911.162892,-2368.659014,9770.718434
347.045768,-766.095498,296.082377,8882.471304
347.046076,2681.334243,-592.164754,10140.821405
347.046384,842.705048,1998.556043,8216.285956
347.046692,1685.410096,2738.761985,7846.182985
347.047000,2681.334243,2294.638420,8290.306550
347.047308,1991.848295,1850.514855,7624.121203
347.047615,689.485948,-592.164754,9104.533087
347.047923,-766.095498,-2738.761985,10214.842000
347.048231,-1838.629195,-2368.659014,12583.501014
347.048539,-2374.896044,-2294.638420,12213.398043
347.048847,-689.485948,-0.000000,10732.986159
347.049154,1149.143247,1332.370696,10288.862594
347.049462,3600.648841,2368.659014,9696.697840
347.049770,4596.572988,3330.926739,7772.162391
347.050078,3830.477490,370.102971,8734.430116
347.050386,2528.115143,-1554.432478,8808.450710
347.050694,689.485948,-2738.761985,9844.739029
347.051001,0.000000,-3552.988522,11547.212695
347.051309,-689.485948,-2812.782580,10584.944971
347.051617,306.438199,-370.102971,8956.491898
347.051925,1838.629195,740.205942,8734.430116
347.052233,2757.943793,1184.329507,7994.224174
347.052541,2451.505594,1184.329507,8364.327145
347.052848,2221.676944,296.082377,9474.636058
347.053156,536.266849,370.102971,9326.594869
347.053464,689.485948,1110.308913,10584.944971
347.053772,383.047749,2886.803174,9474.636058
347.054080,1532.190996,4071.132681,8216.285956
347.054388,3140.991542,4737.318029,8364.327145
347.054695,3370.820191,3923.091493,7698.141797
347.055003,2298.286494,1776.494261,9326.594869
347.055311,76.609550,-1184.329507,11177.109724
347.055619,-1915.238745,-3330.926739,11769.274478
347.055927,-2987.772442,-4145.153275,12583.501014
347.056235,-2987.772442,-4145.153275,11695.253884
347.056542,-1608.800546,-2146.597232,10214.842000
347.056850,0.000000,-148.041188,9992.780217
347.057158,1378.971896,592.164754,8586.388927
347.057466,1838.629195,888.247130,8438.347739
347.057774,612.876398,444.123565,8734.430116
347.058081,-536.266849,-0.000000,9918.759623
347.058389,-536.266849,592.164754,10881.027347
347.058697,-919.314598,2146.597232,9844.739029
347.059005,1149.143247,2738.761985,9030.512492
347.059313,2528.115143,3552.988522,7920.203579
347.059621,2451.505594,2590.720797,8364.327145
347.059928,2068.457845,-296.082377,9474.636058
347.060236,229.828649,-1924.535449,9548.656652
347.060544,-1532.190996,-4515.256246,11103.089130
347.060852,-2757.943793,-4959.379811,11547.212695
347.061160,-2681.334243,-3701.029710,11399.171507
347.061468,-1762.019645,-2220.617826,9548.656652
347.061775,459.657299,-0.000000,7846.182985
347.062083,1915.238745,1776.494261,7402.059420
347.062391,2145.067394,1924.535449,7920.203579
347.062699,1225.752797,740.205942,9104.533087
347.063007,-153.219100,444.123565,9992.780217
347.063315,-536.266849,592.164754,11103.089130
347.063622,-229.828649,1554.432478,10584.944971
347.063930,612.876398,2960.823768,9622.677246
347.064238,2145.067394,3182.885551,9992.780217
347.064546,2374.896044,2368.659014,9030.512492
347.064854,2451.505594,666.185348,9326.594869
347.065162,306.438199,-1184.329507,9474.636058
347.065469,-536.266849,-3182.885551,11473.192101
347.065777,-2068.457845,-3701.029710,12435.459826
347.066085,-2221.676944,-2516.700203,10881.027347
347.066393,-766.095498,-666.185348,8882.471304
347.066701,842.705048,1776.494261,8660.409521
347.067009,2834.553343,1998.556043,8734.430116
347.067316,2528.115143,2812.782580,7476.080014
347.067624,2374.896044,1332.370696,8808.450710
347.067932,1072.533697,592.164754,9326.594869
347.068240,766.095498,444.123565,10510.924376
347.068548,-153.219100,962.267725,10510.924376
347.068855,1455.581446,2146.597232,9400.615463
347.069163,2451.505594,2960.823768,9474.636058
347.069471,2604.724693,2368.659014,9252.574275
347.069779,2451.505594,-0.000000,9326.594869
347.070087,995.924147,-1480.411884,9770.718434
347.070395,-1149.143247,-3256.906145,11251.130318
347.070702,-1685.410096,-4145.153275,11843.295072
347.071010,-1991.848295,-3182.885551,10732.986159
347.071318,-153.219100,-1776.494261,10214.842000
347.071626,1072.533697,962.267725,7920.203579
347.071934,2681.334243,1924.535449,7624.121203
347.072242,3140.991542,1554.432478,7402.059420
347.072549,2451.505594,592.164754,8512.368333
347.072857,1302.362347,-148.041188,10214.842000
347.073165,459.657299,-222.061783,10807.006753
347.073473,383.047749,666.185348,9992.780217
347.073781,919.314598,2812.782580,9474.636058
347.074089,2911.162892,2812.782580,9474.636058
347.074396,3524.039291,3404.947333,8290.306550
347.074704,3294.210641,1332.370696,8734.430116
347.075012,1838.629195,-370.102971,9400.615463
347.075320,0.000000,-2368.659014,10510.924376
347.075628,-919.314598,-3478.967927,11843.295072
347.075936,-1685.410096,-2812.782580,11399.171507
347.076243,-612.876398,-888.247130,9178.553681
347.076551,0.000000,888.247130,8734.430116
347.076859,2604.724693,518.144159,9474.636058
347.077167,1072.533697,1776.494261,7846.182985
347.077475,1378.971896,-0.000000,10066.800811
347.077782,0.000000,-0.000000,9918.759623
347.078090,-612.876398,222.061783,10140.821405
347.078398,383.047749,518.144159,11843.295072
347.078706,0.000000,3775.050304,8512.368333
347.079014,2604.724693,3627.009116,9030.512492
347.079322,3140.991542,3552.988522,8364.327145
347.079629,2911.162892,1554.432478,8956.491898
347.079937,1072.533697,-592.164754,9696.697840
347.080245,-612.876398,-2664.741391,11177.109724
347.080553,-1532.190996,-4071.132681,11769.274478
347.080861,-1915.238745,-3923.091493,11103.089130
347.081169,-1378.971896,-1480.411884,9770.718434
347.081476,-306.438199,-222.061783,8956.491898
347.081784,1838.629195,518.144159,7772.162391
347.082092,1608.800546,1110.308913,7772.162391
347.082400,995.924147,148.041188,8808.450710
347.082708,229.828649,-148.041188,9696.697840
347.083016,-612.876398,-0.000000,10955.047942
347.083323,-689.485948,1554.432478,10066.800811
347.083631,383.047749,3034.844362,9178.553681
347.083939,1532.190996,3627.009116,8882.471304
347.084247,2221.676944,2960.823768,8808.450710
347.084555,2221.676944,1406.391290,9178.553681
347.084863,459.657299,-1406.391290,10362.883188
347.085170,-1608.800546,-3627.009116,11769.274478
347.085478,-1915.238745,-4071.132681,11843.295072
347.085786,-2068.457845,-3256.906145,11843.295072
347.086094,-1149.143247,-1184.329507,9622.677246
347.086402,919.314598,740.205942,7920.203579
347.086709,2681.334243,2220.617826,7328.038826
347.087017,3217.601092,2220.617826,6809.894666
347.087325,2604.724693,1628.453072,8290.306550
347.087633,1225.752797,518.144159,9104.533087
347.087941,0.000000,666.185348,10140.821405
347.088249,-306.438199,1554.432478,10362.883188
347.088556,306.438199,2442.679609,10214.842000
347.088864,1608.800546,2886.803174,9992.780217
347.089172,2298.286494,1924.535449,9474.636058
347.089480,1685.410096,-0.000000,9844.739029
347.089788,0.000000,-2294.638420,11177.109724
347.090096,-1608.800546,-4145.153275,12583.501014
347.090403,-1915.238745,-5255.462188,13101.645173
347.090711,-2221.676944,-4219.173869,11399.171507
347.091019,-1149.143247,-1850.514855,9918.759623
347.091327,1608.800546,666.185348,8216.285956
347.091635,3217.601092,2442.679609,6661.853478
347.091943,3600.648841,2960.823768,6513.812290
347.092250,3907.087040,2146.597232,7328.038826
347.092558,2145.067394,1110.308913,8068.244768
347.092866,383.047749,962.267725,9770.718434
347.093174,536.266849,1184.329507,9548.656652
347.093482,612.876398,3108.864956,9474.636058
347.093790,1455.581446,2812.782580,9622.677246
347.094097,2681.334243,2146.597232,8660.409521
347.094405,1762.019645,1184.329507,9474.636058
347.094713,459.657299,-2146.597232,10881.027347
347.095021,-1225.752797,-4293.194464,12287.418637
347.095329,-2221.676944,-4367.215058,12731.542202
347.095637,-2451.505594,-3997.112087,12065.356855
347.095944,-1072.533697,-1110.308913,9548.656652
347.096252,919.314598,1258.350101,8586.388927
347.096560,2374.896044,2294.638420,7550.100608
347.096868,3370.820191,2516.700203,6809.894666
347.097176,2604.724693,1406.391290,7772.162391
347.097483,1149.143247,296.082377,9696.697840
347.097791,383.047749,296.082377,10214.842000
347.098099,-459.657299,962.267725,10362.883188
347.098407,-383.047749,1850.514855,10732.986159
347.098715,1685.410096,2664.741391,9474.636058
347.099023,2681.334243,2960.823768,8956.491898
347.099330,2221.676944,1332.370696,8438.347739
347.099638,1302.362347,-1406.391290,9400.615463
347.099946,-306.438199,-3182.885551,10881.027347
347.100254,-2068.457845,-3775.050304,12139.377449
347.100562,-1915.238745,-3627.009116,11621.233289
347.100870,-842.705048,-888.247130,9400.615463
347.101177,612.876398,1184.329507,8290.306550
347.101485,2298.286494,2146.597232,7105.977043
347.101793,3064.381992,2072.576638,7846.182985
347.102101,1915.238745,814.226536,8290.306550
347.102409,76.609550,-740.205942,9548.656652
347.102717,-1302.362347,-296.082377,11325.150913
347.103024,-612.876398,444.123565,11621.233289
347.103332,-229.828649,2146.597232,10362.883188
347.103640,1532.190996,2812.782580,9030.512492
347.103948,2604.724693,2590.720797,8438.347739
347.104256,2298.286494,1554.432478,8660.409521
347.104564,2145.067394,-1110.308913,9992.780217
347.104871,-1072.533697,-2590.720797,11103.089130
347.105179,-1838.629195,-4441.235652,12139.377449
347.105487,-1838.629195,-3775.050304,10732.986159
347.105795,-842.705048,-1110.308913,10140.821405
347.106103,1455.581446,444.123565,8290.306550
347.106410,2757.943793,2368.659014,7328.038826
347.106718,3064.381992,1924.535449,7772.162391
347.107026,2681.334243,444.123565,8216.285956
347.107334,919.314598,370.102971,9326.594869
347.107642,-766.095498,296.082377,10066.800811
347.107950,-689.485948,370.102971,10955.047942
347.108257,153.219100,2738.761985,9844.739029
347.108565,2145.067394,3552.988522,9030.512492
347.108873,2681.334243,3330.926739,9030.512492
347.109181,2604.724693,1628.453072,8660.409521
347.109489,995.924147,-1554.432478,10436.903782
347.109797,-842.705048,-2960.823768,11917.315666
347.110104,-1608.800546,-3923.091493,12509.480420
347.110412,-2451.505594,-3478.967927,11769.274478
347.110720,-995.924147,-1332.370696,10066.800811
347.111028,1149.143247,962.267725,8438.347739
347.111336,3064.381992,2220.617826,7105.977043
347.111644,3907.087040,2442.679609,6661.853478
347.111951,3370.820191,1332.370696,6809.894666
347.112259,1302.362347,666.185348,8734.430116
347.112567,306.438199,740.205942,9548.656652
347.112875,-229.828649,1702.473667,9474.636058
347.113183,229.828649,2442.679609,10288.862594
347.113491,1225.752797,3256.906145,10214.842000
347.113798,2834.553343,3330.926739,8956.491898
347.114106,2298.286494,1776.494261,9030.512492
347.114414,842.705048,-1628.453072,10436.903782
347.114722,-919.314598,-3256.906145,12583.501014
347.115030,-2145.067394,-4219.173869,12731.542202
347.115338,-2681.334243,-4441.235652,12509.480420
347.115645,-1225.752797,-1998.556043,10362.883188
347.115953,612.876398,666.185348,8512.368333
347.116261,2298.286494,1332.370696,7846.182985
347.116569,2528.115143,1406.391290,7402.059420
347.116877,2298.286494,592.164754,7994.224174
347.117184,919.314598,148.041188,8660.409521
347.117492,536.266849,296.082377,9992.780217
347.117800,76.609550,1776.494261,10362.883188
347.118108,689.485948,2812.782580,10140.821405
347.118416,1608.800546,3256.906145,8734.430116
347.118724,2451.505594,3182.885551,9474.636058
347.119031,1991.848295,1258.350101,9474.636058
347.119339,995.924147,-1628.453072,10140.821405
347.119647,-1455.581446,-3627.009116,12139.377449
347.119955,-2834.553343,-5329.482782,12657.521608
347.120263,-3217.601092,-4367.215058,12361.439231
347.120571,-1915.238745,-2146.597232,10510.924376
347.120878,153.219100,444.123565,8512.368333
347.121186,2298.286494,1850.514855,6661.853478
347.121494,2834.553343,2294.638420,6957.935855
347.121802,2834.553343,1628.453072,7624.121203
347.122110,1455.581446,962.267725,8808.450710
347.122418,536.266849,1702.473667,9400.615463
347.122725,0.000000,1776.494261,9474.636058
347.123033,612.876398,3330.926739,8882.471304
347.123341,1915.238745,3701.029710,9326.594869
347.123649,2298.286494,3034.844362,9178.553681
347.123957,1991.848295,1554.432478,9252.574275
347.124265,995.924147,-1184.329507,10288.862594
347.124572,-995.924147,-3849.070898,11917.315666
347.124880,-1991.848295,-5329.482782,13175.665768
347.125188,-2221.676944,-4959.379811,12065.356855
347.125496,-1532.190996,-2368.659014,10584.944971
347.125804,306.438199,-222.061783,8882.471304
347.126111,2298.286494,814.226536,8290.306550
347.126419,3140.991542,2146.597232,7179.997637
347.126727,2451.505594,888.247130,7624.121203
347.127035,1838.629195,666.185348,8586.388927
347.127343,153.219100,814.226536,9326.594869
347.127651,229.828649,1110.308913,9844.739029
347.127958,995.924147,2960.823768,9548.656652
347.128266,2374.896044,3627.009116,8438.347739
347.128574,2068.457845,3404.947333,8586.388927
347.128882,2604.724693,1036.288319,9178.553681
347.129190,1378.971896,-1702.473667,10881.027347
347.129498,-2068.457845,-3775.050304,12287.418637
347.129805,-2451.505594,-5995.668130,13471.748144
347.130113,-2604.724693,-4811.338623,12731.542202
347.130421,-1838.629195,-2294.638420,11177.109724
347.130729,536.266849,370.102971,8586.388927
347.131037,3217.601092,1776.494261,7624.121203
347.131345,3140.991542,2590.720797,7328.038826
347.131652,3830.477490,1702.473667,7105.977043
347.131960,2451.505594,1850.514855,8290.306550
347.132268,612.876398,1850.514855,9178.553681
347.132576,612.876398,2294.638420,8956.491898
347.132884,689.485948,3404.947333,9030.512492
347.133191,1762.019645,3627.009116,9400.615463
347.133499,2757.943793,2368.659014,8808.450710
347.133807,1991.848295,1480.411884,9030.512492
347.134114,306.438199,-2146.597232,10732.986159
347.134422,-1149.143247,-3552.988522,12583.501014
347.134730,-2451.505594,-4663.297435,12879.583391
347.135038,-2987.772442,-4293.194464,12435.459826
347.135346,-1838.629195,-1850.514855,10732.986159
347.135654,689.485948,296.082377,9252.574275
347.135962,2221.676944,1924.535449,7698.141797
347.136269,3447.429741,2368.659014,6957.935855
347.136577,2834.553343,1702.473667,7105.977043
347.136885,1762.019645,1480.411884,8660.409521
347.137193,536.266849,666.185348,9844.739029
347.137501,459.657299,1258.350101,10436.903782
347.137809,229.828649,2368.659014,9770.718434
347.138117,919.314598,2220.617826,9326.594869
347.138424,2374.896044,2368.659014,9474.636058
347.138732,2451.505594,1332.370696,9252.574275
347.139040,995.924147,-1554.432478,9918.759623
347.139348,-919.314598,-4145.153275,11251.130318
347.139656,-1991.848295,-4737.318029,12213.398043
347.139964,-2528.115143,-4441.235652,11991.336260
347.140272,-1532.190996,-2146.597232,10584.944971
347.140579,612.876398,148.041188,8882.471304
347.140887,1838.629195,1554.432478,7328.038826
347.141195,2604.724693,1628.453072,7550.100608
347.141503,2528.115143,1406.391290,8216.285956
347.141811,1455.581446,1406.391290,9252.574275
347.142119,153.219100,666.185348,9992.780217
347.142427,0.000000,1702.473667,10288.862594
347.142734,76.609550,2960.823768,9474.636058
347.143042,1608.800546,3627.009116,8734.430116
347.143350,2604.724693,3404.947333,8216.285956
347.143658,2221.676944,1850.514855,8660.409521
347.143966,689.485948,-666.185348,9844.739029
347.144274,0.000000,-2960.823768,11695.253884
347.144582,-2298.286494,-4145.153275,12361.439231
347.144889,-2911.162892,-4071.132681,11991.336260
347.145197,-1915.238745,-2220.617826,10214.842000
347.145505,-383.047749,-0.000000,9548.656652
347.145813,1991.848295,1628.453072,8068.244768
347.146121,2528.115143,1998.556043,8142.265362
347.146429,2834.553343,1480.411884,8142.265362
347.146737,1838.629195,1184.329507,7698.141797
347.147044,0.000000,1110.308913,10214.842000
347.147352,0.000000,1628.453072,9474.636058
347.147660,153.219100,2516.700203,9178.553681
347.147968,1685.410096,3404.947333,9104.533087
347.148276,2528.115143,2590.720797,9104.533087
347.148584,2604.724693,2220.617826,8882.471304
347.148892,1455.581446,-740.205942,9696.697840
347.149199,-612.876398,-3552.988522,11473.192101
347.149507,-1532.190996,-4071.132681,12435.459826
347.149815,-1225.752797,-5403.503377,12805.562797
347.150123,-3983.696590,-2146.597232,9030.512492
347.150431,766.095498,-1924.535449,10066.800811
347.150739,995.924147,592.164754,7994.224174
347.151047,1685.410096,962.267725,8142.265362
347.151354,3064.381992,666.185348,8142.265362
347.151662,995.924147,962.267725,7624.121203
347.151970,383.047749,518.144159,10510.924376
347.152278,0.000000,1554.432478,8660.409521
347.152586,1072.533697,3478.967927,9326.594869
347.152894,1532.190996,3182.885551,8438.347739
347.153202,2911.162892,3775.050304,7476.080014
347.153509,3447.429741,2442.679609,8808.450710
347.153817,1608.800546,-518.144159,9992.780217
347.154125,383.047749,-2294.638420,11399.171507
347.154433,-2145.067394,-4293.194464,11547.212695
347.154741,-2145.067394,-4145.153275,11991.336260
347.155049,-2221.676944,-2368.659014,10436.903782
347.155357,-229.828649,-222.061783,9548.656652
347.155664,1532.190996,296.082377,9474.636058
347.155972,2145.067394,1332.370696,7105.977043
347.156280,2451.505594,1036.288319,9178.553681
347.156588,1378.971896,592.164754,9474.636058
347.156896,612.876398,962.267725,9178.553681
347.157204,-229.828649,1702.473667,10288.862594
347.157512,689.485948,2294.638420,10510.924376
347.157819,1532.190996,4071.132681,7550.100608
347.158127,2528.115143,3627.009116,8956.491898
347.158435,2681.334243,1554.432478,8956.491898
347.158743,1838.629195,-74.020594,9696.697840
347.159051,-766.095498,-2886.803174,11621.233289
347.159359,-1378.971896,-4589.276840,11843.295072
347.159667,-2145.067394,-4441.235652,11325.150913
347.159974,-2604.724693,-1850.514855,10288.862594
347.160282,-689.485948,-518.144159,9548.656652
347.160590,1915.238745,1184.329507,8290.306550
347.160898,2834.553343,1480.411884,7772.162391
347.161206,2757.943793,962.267725,8068.244768
347.161514,2298.286494,888.247130,7402.059420
347.161822,1302.362347,444.123565,10140.821405
347.162130,459.657299,666.185348,10510.924376
347.162437,612.876398,2664.741391,9696.697840
347.162745,1532.190996,3108.864956,9622.677246
347.163053,3217.601092,2516.700203,8882.471304
347.163361,1685.410096,2960.823768,7550.100608
347.163669,2068.457845,-1776.494261,11325.150913
347.163977,-612.876398,-2812.782580,11547.212695
347.164285,-3064.381992,-4071.132681,10881.027347
347.164592,-3140.991542,-4663.297435,13323.706956
347.164900,-2298.286494,-2960.823768,10436.903782
347.165208,-1532.190996,-666.185348,9622.677246
347.165516,919.314598,666.185348,8882.471304
347.165824,2757.943793,1110.308913,7846.182985
347.166132,1762.019645,1332.370696,6883.915261
347.166440,2068.457845,814.226536,8808.450710
347.166747,1532.190996,1184.329507,9696.697840
347.167055,306.438199,1480.411884,9992.780217
347.167363,1455.581446,2590.720797,9770.718434
347.167671,2221.676944,3923.091493,7772.162391
347.167979,3753.867940,3775.050304,8068.244768
347.168287,2757.943793,1850.514855,8290.306550
347.168595,1608.800546,-962.267725,10066.800811
347.168902,-689.485948,-2960.823768,11029.068536
347.169210,-2604.724693,-4589.276840,11917.315666
347.169518,-2757.943793,-4441.235652,12953.603985
347.169826,-2451.505594,-3034.844362,10140.821405
347.170134,-1225.752797,-0.000000,9326.594869
347.170442,919.314598,296.082377,9104.533087
347.170750,1838.629195,1332.370696,7328.038826
347.171057,1762.019645,2072.576638,8216.285956
347.171365,1762.019645,1110.308913,8586.388927
347.171673,229.828649,370.102971,9696.697840
347.171981,-153.219100,1258.350101,9918.759623
347.172289,0.000000,2516.700203,9178.553681
347.172597,1149.143247,3552.988522,8660.409521
347.172905,2528.115143,4071.132681,8068.244768
347.173212,4596.572988,2220.617826,8364.327145
347.173520,2145.067394,-592.164754,8216.285956
347.173828,383.047749,-2664.741391,10732.986159
347.174136,-766.095498,-4959.379811,11325.150913
347.174444,-2221.676944,-3256.906145,10362.883188
347.174752,-1762.019645,-3849.070898,11251.130318
347.175060,-229.828649,-518.144159,8438.347739
347.175367,1915.238745,888.247130,7772.162391
347.175675,2528.115143,1554.432478,7105.977043
347.175983,3064.381992,1850.514855,7920.203579
347.176291,1762.019645,444.123565,10140.821405
347.176599,-229.828649,-148.041188,10066.800811
347.176907,-995.924147,592.164754,10584.944971
347.177215,-459.657299,2072.576638,9770.718434
347.177522,1072.533697,2442.679609,10140.821405
347.177830,1991.848295,3330.926739,8660.409521
347.178138,2834.553343,1480.411884,9030.512492
347.178446,1225.752797,-222.061783,9992.780217
347.178754,-229.828649,-3034.844362,11103.089130
347.179062,-1378.971896,-4293.194464,11917.315666
347.179370,-2987.772442,-4589.276840,12361.439231
347.179677,-2298.286494,-2442.679609,11029.068536
347.179985,-306.438199,-148.041188,9030.512492
347.180293,1608.800546,1702.473667,8512.368333
347.180601,2451.505594,2516.700203,7698.141797
347.180909,3140.991542,1924.535449,8512.368333
347.181217,995.924147,1258.350101,9696.697840
347.181525,-1072.533697,814.226536,10584.944971
347.181832,-612.876398,1036.288319,11399.171507
347.182140,153.219100,3034.844362,10066.800811
347.182448,1455.581446,4293.194464,8142.265362
347.182756,2757.943793,4589.276840,8068.244768
347.183064,3677.258390,3701.029710,8660.409521
347.183372,2298.286494,814.226536,9030.512492
347.183680,612.876398,-1406.391290,10732.986159
347.183987,-919.314598,-2664.741391,11843.295072
347.184295,-1838.629195,-3330.926739,11547.212695
347.184603,-1762.019645,-2368.659014,11177.109724
347.184911,-766.095498,-444.123565,9400.615463
347.185219,1608.800546,592.164754,9030.512492
347.185527,2451.505594,1924.535449,7994.224174
347.185835,2221.676944,1110.308913,8882.471304
347.186142,1685.410096,-296.082377,11029.068536
347.186450,-229.828649,-592.164754,11547.212695
347.186758,-1149.143247,-296.082377,11843.295072
347.187066,-766.095498,1332.370696,10436.903782
347.187374,1225.752797,2516.700203,9104.533087
347.187682,3753.867940,4219.173869,8586.388927
347.187990,3447.429741,1998.556043,8586.388927
347.188297,1532.190996,888.247130,8660.409521
347.188605,1915.238745,-2220.617826,11325.150913
347.188913,-1225.752797,-3256.906145,10214.842000
347.189221,-2528.115143,-3552.988522,11103.089130
347.189529,-1072.533697,-2664.741391,10881.027347
347.189837,-536.266849,-370.102971,8586.388927
347.190145,1838.629195,666.185348,7772.162391
347.190452,3140.991542,1110.308913,7105.977043
347.190760,2757.943793,814.226536,7994.224174
347.191068,1455.581446,-444.123565,8512.368333
347.191376,0.000000,-666.185348,10510.924376
347.191684,-383.047749,222.061783,11251.130318
347.191992,0.000000,1406.391290,9696.697840
347.192300,1302.362347,3108.864956,8512.368333
347.192607,2528.115143,3923.091493,8512.368333
347.192915,3830.477490,2590.720797,8882.471304
347.193223,2451.505594,962.267725,7994.224174
347.193531,842.705048,-1850.514855,9622.677246
347.193839,-1378.971896,-3108.864956,11547.212695
347.194147,-2451.505594,-4071.132681,11251.130318
347.194455,-2451.505594,-2886.803174,11177.109724
347.194762,-1378.971896,-1184.329507,9474.636058
347.195070,766.095498,518.144159,7846.182985
347.195378,1915.238745,1036.288319,8512.368333
347.195686,1991.848295,888.247130,8364.327145
347.195994,1608.800546,-0.000000,9844.739029
347.196302,536.266849,-0.000000,10362.883188
347.196610,76.609550,814.226536,9918.759623
347.196917,383.047749,2072.576638,9548.656652
347.197225,1685.410096,4219.173869,8586.388927
347.197533,3370.820191,4219.173869,8586.388927
347.197841,3524.039291,3256.906145,8142.265362
347.198149,2911.162892,962.267725,9178.553681
347.198457,612.876398,-1480.411884,9992.780217
347.198765,-1225.752797,-3478.967927,11177.109724
347.199072,-2374.896044,-4219.173869,12583.501014
347.199380,-2757.943793,-2960.823768,11325.150913
347.199688,-1378.971896,-1554.432478,9548.656652
347.199996,383.047749,888.247130,7698.141797
347.200304,3907.087040,1110.308913,8290.306550
347.200612,2068.457845,1850.514855,6661.853478
347.200920,1915.238745,888.247130,10066.800811
347.201227,459.657299,-0.000000,10436.903782
347.201535,-842.705048,1850.514855,10732.986159
347.201843,-1225.752797,592.164754,13323.706956
347.202151,-689.485948,2812.782580,10510.924376
347.202459,1072.533697,2960.823768,10214.842000
347.202767,766.095498,2590.720797,10510.924376
347.203075,1838.629195,-222.061783,11473.192101
347.203382,-229.828649,-1776.494261,11843.295072
347.203690,-2528.115143,-3256.906145,12731.542202
347.203998,-2757.943793,-3997.112087,12509.480420
347.204306,-2145.067394,-2072.576638,9696.697840
347.204614,-612.876398,-74.020594,9992.780217
347.204922,1302.362347,1406.391290,7179.997637
347.205230,3600.648841,2516.700203,7550.100608
347.205538,2757.943793,2368.659014,7772.162391
347.205845,1991.848295,1628.453072,7698.141797
347.206153,1608.800546,1110.308913,9400.615463
347.206461,0.000000,1850.514855,10066.800811
347.206769,153.219100,2294.638420,10362.883188
347.207077,1532.190996,3404.947333,9030.512492
347.207385,2451.505594,3701.029710,8586.388927
347.207693,2757.943793,2146.597232,8290.306550
347.208000,2451.505594,-0.000000,9548.656652
347.208308,766.095498,-2664.741391,10881.027347
347.208616,-1838.629195,-4367.215058,11325.150913
347.208924,-2528.115143,-5477.523971,12065.356855
347.209232,-2374.896044,-4071.132681,10807.006753
347.209540,-919.314598,-1406.391290,9474.636058
347.209848,1455.581446,-0.000000,8068.244768
347.210155,2298.286494,740.205942,7179.997637
347.210463,3524.039291,592.164754,6883.915261
347.210771,2757.943793,-296.082377,7254.018232
347.211079,1378.971896,-0.000000,9030.512492
347.211387,689.485948,-0.000000,9104.533087
347.211695,536.266849,1036.288319,9400.615463
347.212003,1685.410096,2368.659014,8216.285956
347.212310,2068.457845,2294.638420,8956.491898
347.212618,3140.991542,1184.329507,9178.553681
347.212926,2757.943793,-0.000000,8956.491898
347.213234,1149.143247,-2146.597232,9918.759623
347.213542,-459.657299,-3701.029710,10584.944971
347.213850,-1225.752797,-4219.173869,11547.212695
347.214158,-2374.896044,-2738.761985,11029.068536
347.214465,-766.095498,-814.226536,9104.533087
347.214773,1762.019645,1036.288319,8142.265362
347.215081,2451.505594,1850.514855,7402.059420
347.215389,2757.943793,1406.391290,7772.162391
347.215697,2911.162892,1480.411884,8290.306550
347.216005,612.876398,888.247130,9844.739029
347.216313,-536.266849,1036.288319,10140.821405
347.216620,-153.219100,2220.617826,10288.862594
347.216928,76.609550,3182.885551,10436.903782
347.217236,1915.238745,2516.700203,10288.862594
347.217544,2604.724693,2442.679609,10436.903782
347.217852,2145.067394,1258.350101,10288.862594
347.218160,536.266849,-1776.494261,11029.068536
347.218468,-459.657299,-2294.638420,12287.418637
347.218775,-1838.629195,-3034.844362,11843.295072
347.219083,-1991.848295,-2590.720797,11399.171507
347.219391,-689.485948,-814.226536,9622.677246
347.219699,1762.019645,1406.391290,8586.388927
347.220007,1991.848295,2368.659014,7476.080014
347.220315,3370.820191,2294.638420,7920.203579
347.220623,1762.019645,1332.370696,8808.450710
347.220930,536.266849,1406.391290,9474.636058
347.221238,-612.876398,1406.391290,10140.821405
347.221546,-612.876398,1850.514855,10881.027347
347.221854,459.657299,2738.761985,10140.821405
347.222162,1608.800546,3034.844362,9622.677246
347.222470,2681.334243,2146.597232,10362.883188
347.222778,1991.848295,-518.144159,9622.677246
347.223085,0.000000,-1998.556043,11029.068536
347.223393,-1302.362347,-3849.070898,12879.583391
347.223701,-2298.286494,-4219.173869,12287.418637
347.224009,-2604.724693,-3256.906145,11621.233289
347.224317,-306.438199,-1480.411884,9696.697840
347.224625,1149.143247,148.041188,7994.224174
347.224933,2374.896044,1258.350101,7772.162391
347.225240,2604.724693,1702.473667,7624.121203
347.225548,1378.971896,740.205942,8068.244768
347.225856,229.828649,444.123565,9474.636058
347.226164,-306.438199,1036.288319,10140.821405
347.226472,153.219100,1998.556043,9326.594869
347.226780,0.000000,3108.864956,8734.430116
347.227088,2145.067394,3182.885551,9252.574275
347.227395,2757.943793,2442.679609,9326.594869
347.227703,2221.676944,444.123565,9178.553681
347.228011,459.657299,-2072.576638,9844.739029
347.228319,-1149.143247,-3404.947333,11621.233289
347.228627,-2221.676944,-4737.318029,12657.521608
347.228935,-2834.553343,-2886.803174,10658.965565
347.229243,-919.314598,-1554.432478,9474.636058
347.229550,1455.581446,-74.020594,8290.306550
347.229858,2221.676944,814.226536,7105.977043
347.230166,2221.676944,518.144159,8660.409521
347.230474,1455.581446,-148.041188,8364.327145
347.230782,229.828649,518.144159,8956.491898
347.231090,-229.828649,666.185348,9696.697840
347.231398,-536.266849,1850.514855,9326.594869
347.231705,1225.752797,3108.864956,9178.553681
347.232013,2987.772442,3701.029710,8808.450710
347.232321,3447.429741,2738.761985,8142.265362
347.232629,2145.067394,444.123565,9104.533087
347.232937,612.876398,-2294.638420,11547.212695
347.233245,-995.924147,-3923.091493,11991.336260
347.233553,-2681.334243,-4367.215058,11843.295072
347.233860,-2068.457845,-3552.988522,11399.171507
347.234168,-536.266849,-1628.453072,9104.533087
347.234476,1149.143247,518.144159,8586.388927
347.234784,2987.772442,1110.308913,7846.182985
347.235092,3217.601092,1628.453072,7105.977043
347.235400,2145.067394,1480.411884,7994.224174
347.235708,1302.362347,962.267725,8882.471304
347.236016,383.047749,1776.494261,9326.594869
347.236324,229.828649,2886.803174,10066.800811
347.236632,1302.362347,3627.009116,9400.615463
347.236940,2987.772442,4441.235652,8512.368333
347.237248,2604.724693,2886.803174,9252.574275
347.237556,2221.676944,518.144159,10436.903782
347.237864,536.266849,-1554.432478,11473.192101
347.238172,-1915.238745,-3404.947333,12435.459826
347.238480,-2451.505594,-4811.338623,13101.645173
347.238787,-2834.553343,-3552.988522,11325.150913
347.239095,-1225.752797,-1184.329507,10066.800811
347.239403,1455.581446,-0.000000,9252.574275
347.239711,2834.553343,1554.432478,7624.121203
347.240019,3140.991542,1554.432478,9030.512492
347.240327,2451.505594,1258.350101,8068.244768
347.240635,842.705048,1776.494261,8956.491898
347.240943,612.876398,1406.391290,9992.780217
347.241251,536.266849,2960.823768,9030.512492
347.241559,1608.800546,3997.112087,8956.491898
347.241867,2068.457845,3330.926739,9030.512492
347.242175,2451.505594,2812.782580,9104.533087
347.242483,1991.848295,148.041188,10584.944971
347.242791,0.000000,-1998.556043,11251.130318
347.243099,-1762.019645,-4071.132681,12287.418637
347.243407,-2911.162892,-5107.421000,12583.501014
347.243715,-2987.772442,-4367.215058,12287.418637
347.244023,-1455.581446,-1702.473667,9548.656652
347.244331,153.219100,-740.205942,8734.430116
347.244639,2834.553343,1184.329507,7920.203579
347.244946,3140.991542,1184.329507,7328.038826
347.245254,2451.505594,1110.308913,8364.327145
347.245562,766.095498,740.205942,8808.450710
347.245870,383.047749,666.185348,9178.553681
347.246178,76.609550,2368.659014,9770.718434
347.246486,1455.581446,3034.844362,9104.533087
347.246794,2221.676944,3108.864956,9252.574275
347.247102,2604.724693,2368.659014,9104.533087
347.247410,2604.724693,-0.000000,9474.636058
347.247718,766.095498,-1406.391290,10362.883188
347.248026,-612.876398,-3552.988522,11695.253884
347.248334,-1915.238745,-4293.194464,11843.295072
347.248642,-2451.505594,-3256.906145,11177.109724
347.248950,-1149.143247,-2294.638420,10288.862594
347.249258,229.828649,518.144159,7994.224174
347.249566,2221.676944,1480.411884,7550.100608
347.249874,2681.334243,1554.432478,8290.306550
347.250182,2451.505594,1258.350101,7920.203579
347.250490,919.314598,1036.288319,8364.327145
347.250798,0.000000,592.164754,10584.944971
347.251105,0.000000,888.247130,10362.883188
347.251413,612.876398,2294.638420,9696.697840
347.251721,1532.190996,2812.782580,9252.574275
347.252029,2911.162892,2516.700203,9474.636058
347.252337,2757.943793,1110.308913,9030.512492
347.252645,1378.971896,-1036.288319,10288.862594
347.252953,-766.095498,-3034.844362,11325.150913
347.253261,-1532.190996,-3997.112087,11991.336260
347.253569,-2681.334243,-2886.803174,11177.109724
347.253877,-1072.533697,-1258.350101,9474.636058
347.254185,1225.752797,-0.000000,8660.409521
347.254493,1838.629195,2072.576638,7920.203579
347.254801,3600.648841,1554.432478,7698.141797
347.255109,1762.019645,1850.514855,7328.038826
347.255417,689.485948,592.164754,10140.821405
347.255725,-306.438199,814.226536,10288.862594
347.256033,-689.485948,1406.391290,10584.944971
347.256341,-306.438199,2294.638420,10732.986159
347.256649,1455.581446,2146.597232,9474.636058
347.256957,2451.505594,2368.659014,9326.594869
347.257264,1532.190996,444.123565,9548.656652
347.257572,306.438199,-1332.370696,10510.924376
347.257880,-1532.190996,-3034.844362,12065.356855
347.258188,-2681.334243,-4219.173869,12805.562797
347.258496,-2681.334243,-3108.864956,10510.924376
347.258804,-1455.581446,-888.247130,9844.739029
347.259112,1455.581446,518.144159,9252.574275
347.259420,2298.286494,1850.514855,6439.791695
347.259728,3064.381992,1628.453072,7476.080014
347.260036,2528.115143,1258.350101,7772.162391
347.260344,1378.971896,1332.370696,7698.141797
347.260652,459.657299,1110.308913,9844.739029
347.260960,229.828649,1258.350101,10214.842000
347.261268,383.047749,2738.761985,8882.471304
347.261576,2068.457845,3108.864956,9104.533087
347.261884,2374.896044,2590.720797,9400.615463
347.262192,2298.286494,1554.432478,8956.491898
347.262500,1225.752797,-1628.453072,11325.150913
347.262808,-1762.019645,-3478.967927,11843.295072
347.263116,-2221.676944,-4589.276840,12139.377449
347.263424,-2528.115143,-4145.153275,11843.295072
347.263731,-1762.019645,-2442.679609,10955.047942
347.264039,76.609550,-296.082377,9474.636058
347.264347,1608.800546,1332.370696,8882.471304
347.264655,2681.334243,740.205942,8142.265362
347.264963,2221.676944,740.205942,7920.203579
347.265271,1225.752797,592.164754,9400.615463
347.265579,536.266849,814.226536,8956.491898
347.265887,459.657299,1406.391290,9400.615463
347.266195,1302.362347,3108.864956,9104.533087
347.266503,1991.848295,2886.803174,8364.327145
347.266811,3370.820191,3478.967927,7920.203579
347.267119,3294.210641,1776.494261,8882.471304
347.267427,1915.238745,-296.082377,8882.471304
347.267735,-536.266849,-3108.864956,11029.068536
347.268043,-1838.629195,-3849.070898,11843.295072
347.268351,-2374.896044,-3404.947333,11325.150913
347.268659,-1915.238745,-1924.535449,10066.800811
347.268967,306.438199,-444.123565,9844.739029
347.269275,1532.190996,814.226536,8882.471304
347.269583,2221.676944,740.205942,8586.388927
347.269890,1915.238745,814.226536,8364.327145
347.270198,842.705048,-74.020594,9548.656652
347.270506,-306.438199,518.144159,10214.842000
347.270814,0.000000,1258.350101,11103.089130
347.271122,919.314598,2812.782580,9770.718434
347.271430,2451.505594,3849.070898,9326.594869
347.271738,3447.429741,3330.926739,8512.368333
347.272046,3447.429741,2294.638420,7624.121203
347.272354,2145.067394,-74.020594,9474.636058
347.272662,0.000000,-2590.720797,10955.047942
347.272970,-1608.800546,-3849.070898,12065.356855
347.273278,-2528.115143,-3330.926739,11399.171507
347.273586,-1915.238745,-1702.473667,10214.842000
347.273894,0.000000,-740.205942,9918.759623
347.274202,1685.410096,666.185348,8364.327145
347.274510,1991.848295,740.205942,7920.203579
347.274818,1685.410096,962.267725,8438.347739
347.275126,766.095498,222.061783,9696.697840
347.275434,0.000000,666.185348,10362.883188
347.275742,-153.219100,1850.514855,10436.903782
347.276049,995.924147,2812.782580,9696.697840
347.276357,2451.505594,4515.256246,8290.306550
347.276665,2834.553343,3849.070898,8512.368333
347.276973,3294.210641,1924.535449,8586.388927
347.277281,1149.143247,-0.000000,9474.636058
347.277589,-306.438199,-2812.782580,11547.212695
347.277897,-2145.067394,-4145.153275,11769.274478
347.278205,-2987.772442,-3552.988522,11843.295072
347.278513,-2528.115143,-2294.638420,11103.089130
347.278821,-689.485948,-666.185348,9326.594869
347.279129,689.485948,740.205942,9178.553681
347.279437,1838.629195,444.123565,8882.471304
347.279745,1225.752797,592.164754,7698.141797
347.280053,229.828649,444.123565,9770.718434
347.280361,0.000000,592.164754,10288.862594
347.280669,-229.828649,1998.556043,9770.718434
347.280977,306.438199,2812.782580,9844.739029
347.281285,2451.505594,3182.885551,9326.594869
347.281593,2528.115143,3997.112087,7402.059420
347.281901,2604.724693,1554.432478,9548.656652
347.282208,995.924147,-888.247130,9474.636058
347.282516,-1072.533697,-3256.906145,10436.903782
347.282824,-2528.115143,-4515.256246,11843.295072
347.283132,-2528.115143,-4367.215058,11251.130318
347.283440,-2528.115143,-2442.679609,10584.944971
347.283748,-153.219100,-740.205942,9474.636058
347.284056,1838.629195,814.226536,7550.100608
347.284364,2451.505594,1036.288319,7402.059420
347.284672,2451.505594,518.144159,7994.224174
347.284980,1532.190996,444.123565,8364.327145
347.285288,76.609550,148.041188,9992.780217
347.285596,459.657299,1258.350101,10436.903782
347.285904,1532.190996,2738.761985,9770.718434
347.286212,2528.115143,4367.215058,8586.388927
347.286520,2911.162892,3404.947333,8512.368333
347.286828,2911.162892,1850.514855,9104.533087
347.287136,1378.971896,-1036.288319,10658.965565
347.287444,-1072.533697,-2960.823768,10881.027347
347.287752,-2451.505594,-3923.091493,12139.377449
347.288060,-2987.772442,-3552.988522,12139.377449
347.288367,-2068.457845,-2294.638420,11473.192101
347.288675,229.828649,-222.061783,9474.636058
347.288983,1685.410096,2220.617826,8956.491898
347.289291,2911.162892,1184.329507,8142.265362
347.289599,2451.505594,1850.514855,7550.100608
347.289907,1455.581446,1184.329507,9918.759623
347.290215,842.705048,1036.288319,9622.677246
347.290523,306.438199,1850.514855,9992.780217
347.290831,1302.362347,3034.844362,9992.780217
347.291139,2757.943793,4071.132681,8438.347739
347.291447,3217.601092,3849.070898,9252.574275
347.291755,3907.087040,1406.391290,9400.615463
347.292063,2221.676944,-370.102971,9474.636058
347.292371,-383.047749,-2368.659014,10362.883188
347.292679,-1608.800546,-4219.173869,12065.356855
347.292987,-1838.629195,-3404.947333,11547.212695
347.293295,-1915.238745,-1924.535449,10881.027347
347.293603,-383.047749,-814.226536,10288.862594
347.293911,1378.971896,296.082377,8734.430116
347.294219,1991.848295,1406.391290,8068.244768
347.294526,1608.800546,962.267725,8216.285956
347.294834,919.314598,296.082377,9252.574275
347.295142,-153.219100,-296.082377,10732.986159
347.295450,0.000000,592.164754,10214.842000
347.295758,995.924147,2368.659014,9178.553681
347.296066,2911.162892,3182.885551,9104.533087
347.296374,3447.429741,3108.864956,7994.224174
347.296682,4060.306139,1850.514855,7994.224174
347.296990,2451.505594,-74.020594,8956.491898
347.297298,229.828649,-2368.659014,10140.821405
347.297606,-919.314598,-3627.009116,11177.109724
347.297914,-1991.848295,-2886.803174,10732.986159
347.298222,-1302.362347,-1850.514855,10288.862594
347.298530,0.000000,-74.020594,9178.553681
347.298838,2145.067394,1110.308913,7698.141797
347.299146,1762.019645,962.267725,8290.306550
347.299454,1608.800546,518.144159,8290.306550
347.299762,229.828649,-222.061783,9844.739029
347.300070,-612.876398,-0.000000,11177.109724
347.300378,-459.657299,740.205942,10214.842000
347.300685,-229.828649,2072.576638,9770.718434
347.300993,1532.190996,3108.864956,9696.697840
347.301301,2681.334243,3552.988522,8438.347739
347.301609,3140.991542,2294.638420,9030.512492
347.301917,2068.457845,-0.000000,9474.636058
347.302225,229.828649,-2146.597232,10066.800811
347.302533,-919.314598,-3034.844362,11177.109724
347.302841,-2145.067394,-3182.885551,11325.150913
347.303149,-1991.848295,-2516.700203,10362.883188
347.303457,-995.924147,-666.185348,9178.553681
347.303765,1378.971896,148.041188,8586.388927
347.304073,1149.143247,1184.329507,7624.121203
347.304381,1302.362347,444.123565,9030.512492
347.304689,229.828649,370.102971,8882.471304
347.304997,-153.219100,370.102971,9992.780217
347.305305,-689.485948,814.226536,10732.986159
347.305613,229.828649,2664.741391,9844.739029
347.305921,1685.410096,3404.947333,9104.533087
347.306229,2681.334243,3701.029710,8956.491898
347.306537,3140.991542,2146.597232,8290.306550
347.306844,1532.190996,-222.061783,9252.574275
347.307152,0.000000,-2590.720797,10658.965565
347.307460,-1915.238745,-3701.029710,11621.233289
347.307768,-2068.457845,-3775.050304,11473.192101
347.308076,-2221.676944,-2146.597232,9696.697840
347.308384,76.609550,-592.164754,9474.636058
347.308692,1608.800546,666.185348,7994.224174
347.309000,2068.457845,1776.494261,6735.874072
347.309308,2451.505594,666.185348,8808.450710
347.309616,0.000000,518.144159,9178.553681
347.309924,76.609550,-0.000000,11251.130318
347.310232,0.000000,592.164754,11029.068536
347.310540,76.609550,2664.741391,9696.697840
347.310848,1685.410096,2590.720797,10807.006753
347.311156,2528.115143,4071.132681,8586.388927
347.311464,3294.210641,2146.597232,9548.656652
347.311772,1991.848295,518.144159,8734.430116
347.312080,306.438199,-1924.535449,10362.883188
347.312388,-995.924147,-3552.988522,11843.295072
347.312696,-1532.190996,-3404.947333,11177.109724
347.313003,-1149.143247,-1850.514855,10955.047942
347.313311,0.000000,-666.185348,8882.471304
347.313619,1762.019645,962.267725,8364.327145
347.313927,2374.896044,1850.514855,7402.059420
347.314235,2221.676944,1258.350101,8512.368333
347.314543,1455.581446,592.164754,9178.553681
347.314851,76.609550,518.144159,9030.512492
347.315159,-153.219100,1332.370696,11547.212695
347.315467,0.000000,1480.411884,10658.965565
347.315775,1455.581446,3701.029710,9400.615463
347.316083,2987.772442,2516.700203,9770.718434
347.316391,3294.210641,1924.535449,8586.388927
347.316699,2221.676944,-74.020594,9548.656652
347.317007,0.000000,-2146.597232,10955.047942
347.317315,-919.314598,-4293.194464,11843.295072
347.317623,-2911.162892,-3552.988522,11103.089130
347.317931,-2068.457845,-2442.679609,10955.047942
347.318239,-229.828649,-518.144159,9178.553681
347.318547,1225.752797,666.185348,7624.121203
347.318855,2528.115143,1628.453072,7476.080014
347.319163,1685.410096,1332.370696,7105.977043
347.319470,919.314598,740.205942,8734.430116
347.319778,229.828649,222.061783,9844.739029
347.320086,-306.438199,1036.288319,10288.862594
347.320394,76.609550,1776.494261,9622.677246
347.320702,1455.581446,3182.885551,9104.533087
347.321010,3140.991542,3701.029710,8882.471304
347.321318,3140.991542,2516.700203,8808.450710
347.321626,2681.334243,518.144159,8956.491898
347.321934,689.485948,-1258.350101,9474.636058
347.322242,-1072.533697,-3997.112087,11843.295072
347.322550,-2145.067394,-3552.988522,11621.233289
347.322858,-1149.143247,-2886.803174,10658.965565
347.323166,-919.314598,-592.164754,9474.636058
347.323474,919.314598,-148.041188,8512.368333
347.323782,1915.238745,666.185348,8512.368333
347.324090,1762.019645,518.144159,8364.327145
347.324398,1149.143247,148.041188,8290.306550
347.324706,0.000000,-74.020594,9622.677246
347.325014,-612.876398,814.226536,10658.965565
347.325322,0.000000,1850.514855,9696.697840
347.325629,1302.362347,3478.967927,9252.574275
347.325937,2604.724693,3256.906145,9400.615463
347.326245,3217.601092,2738.761985,8364.327145
347.326553,2145.067394,296.082377,9400.615463
347.326861,383.047749,-1480.411884,9992.780217
347.327169,-995.924147,-3330.926739,11473.192101
347.327477,-2145.067394,-3478.967927,11399.171507
347.327785,-1838.629195,-3108.864956,11029.068536
347.328093,-459.657299,-1406.391290,8882.471304
347.328401,1378.971896,370.102971,8290.306550
347.328709,2757.943793,888.247130,8290.306550
347.329017,2145.067394,962.267725,7624.121203
347.329325,1149.143247,-0.000000,9252.574275
347.329633,76.609550,592.164754,9474.636058
347.329941,-459.657299,1702.473667,9844.739029
347.330249,0.000000,2442.679609,10510.924376
347.330557,1378.971896,3182.885551,9696.697840
347.330865,2757.943793,3849.070898,8956.491898
347.331173,2451.505594,2812.782580,8956.491898
347.331481,1532.190996,518.144159,9474.636058
347.331788,229.828649,-1406.391290,10955.047942
347.332096,-1838.629195,-3330.926739,11843.295072
347.332404,-2604.724693,-3997.112087,12065.356855
347.332712,-2145.067394,-2812.782580,11103.089130
347.333020,-153.219100,-814.226536,9548.656652
347.333328,1225.752797,962.267725,7772.162391
347.333636,2834.553343,1776.494261,7402.059420
347.333944,2681.334243,1406.391290,7698.141797
347.334252,1225.752797,1258.350101,7920.203579
347.334560,229.828649,370.102971,8956.491898
347.334868,0.000000,1258.350101,10214.842000
347.335176,0.000000,2368.659014,9474.636058
347.335484,1149.143247,3182.885551,9992.780217
347.335792,2451.505594,2960.823768,9918.759623
347.336100,2068.457845,2146.597232,9548.656652
347.336408,1225.752797,-296.082377,9918.759623
347.336716,0.000000,-1924.535449,10955.047942
347.337024,-1762.019645,-4367.215058,12361.439231
347.337333,-2451.505594,-4515.256246,11843.295072
347.337641,-2145.067394,-2738.761985,10807.006753
347.337949,-153.219100,-1110.308913,8512.368333
347.338257,1685.410096,814.226536,7402.059420
347.338565,3064.381992,1776.494261,7328.038826
347.338873,2834.553343,1036.288319,7105.977043
347.339181,1225.752797,444.123565,8586.388927
347.339489,76.609550,-0.000000,9622.677246
347.339797,-229.828649,962.267725,10288.862594
347.340105,-229.828649,1480.411884,10362.883188
347.340413,995.924147,2590.720797,9548.656652
347.340721,2221.676944,3256.906145,9696.697840
347.341029,2604.724693,1998.556043,8882.471304
347.341337,2298.286494,296.082377,9030.512492
347.341645,229.828649,-1776.494261,9918.759623
347.341953,-383.047749,-3775.050304,11843.295072
347.342261,-1991.848295,-3849.070898,12139.377449
347.342569,-2298.286494,-2738.761985,11029.068536
347.342877,-612.876398,-666.185348,9696.697840
347.343185,1455.581446,888.247130,8142.265362
347.343493,1991.848295,1924.535449,6883.915261
347.343801,2757.943793,1258.350101,7772.162391
347.344109,1915.238745,814.226536,7772.162391
347.344417,0.000000,1036.288319,8734.430116
347.344725,-383.047749,814.226536,10436.903782
347.345033,153.219100,1998.556043,9770.718434
347.345341,1072.533697,3404.947333,9474.636058
347.345649,2145.067394,3330.926739,9474.636058
347.345957,3600.648841,2294.638420,9474.636058
347.346265,1455.581446,518.144159,9178.553681
347.346573,612.876398,-2146.597232,10881.027347
347.346881,-766.095498,-3404.947333,11621.233289
347.347189,-1838.629195,-3923.091493,12361.439231
347.347497,-1915.238745,-3404.947333,11103.089130
347.347805,153.219100,-0.000000,8734.430116
347.348113,1915.238745,1258.350101,8216.285956
347.348421,3294.210641,1332.370696,7254.018232
347.348729,2834.553343,1628.453072,6883.915261
347.349037,1838.629195,444.123565,8808.450710
347.349345,842.705048,-0.000000,9252.574275
347.349653,-995.924147,740.205942,9992.780217
347.349961,-306.438199,1480.411884,11325.150913
347.350269,1302.362347,2146.597232,9918.759623
347.350577,1455.581446,3108.864956,9622.677246
347.350885,2451.505594,1702.473667,9548.656652
347.351193,1838.629195,-0.000000,9474.636058
347.351501,689.485948,-1850.514855,10881.027347
347.351809,-995.924147,-3478.967927,11917.315666
347.352117,-1762.019645,-2886.803174,11917.315666
347.352425,-1225.752797,-2812.782580,11547.212695
347.352733,459.657299,-222.061783,8586.388927
347.353041,1838.629195,1554.432478,7254.018232
347.353349,3524.039291,1332.370696,7476.080014
347.353657,3064.381992,1628.453072,6957.935855
347.353965,1915.238745,888.247130,7772.162391
347.354274,689.485948,222.061783,9252.574275
347.354582,-919.314598,1036.288319,10955.047942
347.354890,-536.266849,814.226536,10881.027347
347.355198,383.047749,2960.823768,9918.759623
347.355506,1915.238745,2738.761985,9918.759623
347.355814,2757.943793,2812.782580,8956.491898
347.356122,2221.676944,740.205942,9178.553681
347.356430,842.705048,-1406.391290,10658.965565
347.356738,-766.095498,-3997.112087,12435.459826
347.357046,-1915.238745,-3627.009116,11695.253884
347.357354,-1915.238745,-2664.741391,10881.027347
347.357662,-612.876398,-1110.308913,9474.636058
347.357970,2068.457845,1036.288319,7624.121203
347.358278,2987.772442,1924.535449,6661.853478
347.358586,2681.334243,1258.350101,6735.874072
347.358894,1991.848295,296.082377,7328.038826
347.359202,0.000000,296.082377,9474.636058
347.359510,-306.438199,740.205942,10214.842000
347.359818,229.828649,888.247130,10510.924376
347.360126,612.876398,2590.720797,9992.780217
347.360434,1915.238745,3478.967927,9770.718434
347.360742,2911.162892,2960.823768,8956.491898
347.361050,1762.019645,1184.329507,9770.718434
347.361358,229.828649,-1554.432478,10881.027347
347.361666,-1378.971896,-3997.112087,12435.459826
347.361974,-3370.820191,-4589.276840,12805.562797
347.362282,-2451.505594,-3775.050304,12583.501014
347.362590,-1225.752797,-2220.617826,9844.739029
347.362898,306.438199,666.185348,8142.265362
347.363206,2298.286494,592.164754,8290.306550
347.363514,2757.943793,1110.308913,7179.997637
347.363822,1225.752797,814.226536,7772.162391
347.364130,229.828649,148.041188,9474.636058
347.364438,-306.438199,962.267725,10584.944971
347.364746,-229.828649,1850.514855,10510.924376
347.365054,229.828649,3330.926739,9548.656652
347.365362,2757.943793,3849.070898,9030.512492
347.365670,2757.943793,3775.050304,8364.327145
347.365978,2221.676944,1480.411884,9252.574275
347.366286,842.705048,-888.247130,10288.862594
347.366594,-1915.238745,-2960.823768,12435.459826
347.366902,-2911.162892,-3923.091493,13249.686362
347.367210,-2987.772442,-3478.967927,11769.274478
347.367518,-1762.019645,-1480.411884,9696.697840
347.367826,306.438199,222.061783,8216.285956
347.368134,2298.286494,1110.308913,7550.100608
347.368442,2068.457845,1258.350101,7920.203579
347.368750,1225.752797,-0.000000,8512.368333
347.369058,306.438199,370.102971,9178.553681
347.369366,0.000000,962.267725,10436.903782
347.369674,612.876398,1702.473667,10732.986159
347.369982,306.438199,3627.009116,9474.636058
347.370290,3140.991542,3627.009116,9770.718434
347.370598,3600.648841,2812.782580,7920.203579
347.370906,1915.238745,1554.432478,8512.368333
347.371215,766.095498,-2146.597232,10807.006753
347.371523,-1838.629195,-3182.885551,11991.336260
347.371831,-2834.553343,-4959.379811,13915.871710
347.372139,-2834.553343,-3552.988522,11177.109724
347.372447,-995.924147,-1776.494261,9252.574275
347.372755,1149.143247,-0.000000,8142.265362
347.373063,2221.676944,1480.411884,6735.874072
347.373371,3830.477490,1110.308913,8364.327145
347.373679,1685.410096,1184.329507,6513.812290
347.373987,1302.362347,-74.020594,8956.491898
347.374295,-306.438199,740.205942,9696.697840
347.374603,0.000000,2072.576638,10881.027347
347.374911,536.266849,2664.741391,9696.697840
347.375219,1991.848295,3775.050304,8882.471304
347.375527,3294.210641,2368.659014,9104.533087
347.375835,1762.019645,1850.514855,7846.182985
347.376143,995.924147,-1702.473667,10955.047942
347.376451,-1838.629195,-3552.988522,11399.171507
347.376759,-2374.896044,-4885.359217,13027.624579
347.377067,-2834.553343,-3997.112087,11917.315666
347.377375,-1762.019645,-2072.576638,9474.636058
347.377683,919.314598,444.123565,9326.594869
347.377991,2221.676944,1184.329507,7402.059420
347.378299,3294.210641,1628.453072,7550.100608
347.378607,2451.505594,888.247130,7328.038826
347.378915,1762.019645,1184.329507,8586.388927
347.379223,536.266849,888.247130,9992.780217
347.379531,229.828649,2072.576638,9770.718434
347.379839,1149.143247,3108.864956,9622.677246
347.380147,2145.067394,3923.091493,8734.430116
347.380455,2528.115143,2442.679609,9178.553681
347.380763,2221.676944,1110.308913,9474.636058
347.381071,0.000000,-1480.411884,10658.965565
347.381379,-1608.800546,-3627.009116,13101.645173
347.381687,-2757.943793,-4441.235652,12657.521608
347.381995,-2451.505594,-3404.947333,11843.295072
347.382303,-1685.410096,-962.267725,9918.759623
347.382611,1608.800546,518.144159,8660.409521
347.382919,3064.381992,1998.556043,7179.997637
347.383227,3140.991542,1628.453072,7105.977043
347.383535,3140.991542,1258.350101,7328.038826
347.383843,1608.800546,1332.370696,9178.553681
347.384151,306.438199,666.185348,10436.903782
347.384459,459.657299,1184.329507,10362.883188
347.384767,919.314598,2442.679609,9992.780217
347.385075,1991.848295,2812.782580,9474.636058
347.385383,2298.286494,2442.679609,8734.430116
347.385691,2221.676944,888.247130,9474.636058
347.385999,995.924147,-1258.350101,10214.842000
347.386307,-766.095498,-3627.009116,11769.274478
347.386615,-2221.676944,-3849.070898,13101.645173
347.386923,-2221.676944,-3923.091493,11917.315666
347.387231,-1072.533697,-1924.535449,9992.780217
347.387539,1149.143247,-0.000000,8438.347739
347.387847,2298.286494,962.267725,7772.162391
347.388156,2604.724693,1184.329507,7920.203579
347.388464,2374.896044,888.247130,7698.141797
347.388772,689.485948,518.144159,8586.388927
347.389080,0.000000,-0.000000,10140.821405
347.389388,383.047749,1036.288319,10584.944971
347.389696,689.485948,3627.009116,9326.594869
347.390004,2145.067394,2886.803174,9844.739029
347.390312,3140.991542,3034.844362,8586.388927
347.390620,2451.505594,1924.535449,8660.409521
347.390928,689.485948,-1110.308913,9918.759623
347.391236,-995.924147,-2886.803174,11843.295072
347.391544,-1915.238745,-3775.050304,12731.542202
347.391852,-3524.039291,-3627.009116,11325.150913
347.392160,-1762.019645,-1924.535449,9622.677246
347.392468,766.095498,-0.000000,8956.491898
347.392776,2298.286494,740.205942,7920.203579
347.393084,2068.457845,1184.329507,7254.018232
347.393392,1149.143247,222.061783,8290.306550
347.393700,1225.752797,222.061783,8586.388927
347.394008,-229.828649,222.061783,10066.800811
347.394316,153.219100,1776.494261,10732.986159
347.394624,1455.581446,3182.885551,9400.615463
347.394932,2298.286494,4145.153275,8438.347739
347.395240,3524.039291,3256.906145,8364.327145
347.395548,3447.429741,2368.659014,8882.471304
347.395856,459.657299,-444.123565,10214.842000
347.396164,-1991.848295,-2664.741391,12065.356855
347.396472,-1302.362347,-3701.029710,12953.603985
347.396780,-2757.943793,-3034.844362,10732.986159
347.397088,-2834.553343,-2220.617826,10214.842000
347.397396,842.705048,-1184.329507,9844.739029
347.397704,1991.848295,1036.288319,8290.306550
347.398012,1608.800546,814.226536,7698.141797
347.398320,1762.019645,-296.082377,8512.368333
347.398628,1225.752797,-666.185348,9548.656652
347.398936,-689.485948,-0.000000,9992.780217
347.399244,0.000000,518.144159,11103.089130
347.399552,1072.533697,2812.782580,10436.903782
347.399860,2374.896044,3627.009116,8512.368333
347.400168,3753.867940,3775.050304,8512.368333
347.400476,3600.648841,2812.782580,8438.347739
347.400784,2298.286494,222.061783,9252.574275
347.401092,0.000000,-1850.514855,10881.027347
347.401400,-2451.505594,-3627.009116,12287.418637
347.401708,-3217.601092,-3330.926739,11769.274478
347.402016,-2451.505594,-2146.597232,10658.965565
347.402324,-383.047749,-148.041188,9474.636058
347.402632,1532.190996,592.164754,9104.533087
347.402940,2221.676944,1406.391290,8290.306550
347.403248,1608.800546,1036.288319,8438.347739
347.403556,995.924147,592.164754,9474.636058
347.403864,0.000000,740.205942,11251.130318
347.404172,-306.438199,1554.432478,10881.027347
347.404480,842.705048,2146.597232,10214.842000
347.404788,1915.238745,3849.070898,8734.430116
347.405096,3294.210641,3478.967927,8512.368333
347.405405,3600.648841,2516.700203,8512.368333
347.405713,1685.410096,-0.000000,9474.636058
347.406021,-995.924147,-1702.473667,11103.089130
347.406329,-1302.362347,-3256.906145,11769.274478
347.406637,-2528.115143,-3330.926739,10955.047942
347.406945,-1838.629195,-2072.576638,10214.842000
347.407253,689.485948,-0.000000,8808.450710
347.407561,2451.505594,1184.329507,7994.224174
347.407869,2757.943793,148.041188,7550.100608
347.408177,2451.505594,888.247130,7402.059420
347.408485,1685.410096,444.123565,8512.368333
347.408793,0.000000,-0.000000,9622.677246
347.409101,76.609550,740.205942,9696.697840
347.409409,1302.362347,2072.576638,9844.739029
347.409717,2374.896044,2812.782580,8808.450710
347.410025,3370.820191,3108.864956,7846.182985
347.410333,3140.991542,1258.350101,8586.388927
347.410641,766.095498,-888.247130,9548.656652
347.410949,-536.266849,-3923.091493,11325.150913
347.411257,-2987.772442,-5107.421000,12065.356855
347.411565,-4213.525239,-5033.400406,12657.521608
347.411873,-3370.820191,-3627.009116,11621.233289
347.412181,-306.438199,-888.247130,9844.739029
347.412489,1608.800546,370.102971,8216.285956
347.412797,1455.581446,1406.391290,7031.956449
347.413105,2834.553343,1554.432478,7402.059420
347.413413,1915.238745,1184.329507,8438.347739
347.413721,0.000000,2072.576638,8882.471304
347.414029,1915.238745,1998.556043,9474.636058
347.414337,1225.752797,3256.906145,8734.430116
347.414645,2221.676944,4367.215058,7550.100608
347.414953,2604.724693,3552.988522,7624.121203
347.415261,3983.696590,2146.597232,9548.656652
347.415569,2451.505594,-1702.473667,9992.780217
347.415877,-2528.115143,-1924.535449,9696.697840
347.416185,-1378.971896,-5847.626942,14359.995275
347.416493,-4596.572988,-4145.153275,11473.192101
347.416801,-3294.210641,-2368.659014,11991.336260
347.417109,459.657299,-740.205942,10288.862594
347.417417,1608.800546,962.267725,8068.244768
347.417725,2451.505594,666.185348,8142.265362
347.418033,2221.676944,1628.453072,6439.791695
347.418341,1991.848295,888.247130,9770.718434
347.418649,153.219100,740.205942,9030.512492
347.418957,383.047749,2294.638420,10066.800811
347.419265,1072.533697,2886.803174,9918.759623
347.419573,1838.629195,3182.885551,9178.553681
347.419881,4136.915689,4737.318029,9178.553681
347.420189,3294.210641,2368.659014,8734.430116
347.420497,1915.238745,-0.000000,9622.677246
347.420805,-306.438199,-2812.782580,10732.986159
347.421113,-1838.629195,-3478.967927,12731.542202
347.421421,-2451.505594,-4145.153275,12287.418637
347.421729,-2451.505594,-1850.514855,9992.780217
347.422037,153.219100,-296.082377,10066.800811
347.422346,1915.238745,518.144159,8068.244768
347.422654,2451.505594,1110.308913,7624.121203
347.422962,2528.115143,1184.329507,8290.306550
347.423270,1455.581446,740.205942,9030.512492
347.423578,-229.828649,296.082377,9918.759623
347.423886,0.000000,1258.350101,11843.295072
347.424194,1149.143247,1480.411884,9918.759623
347.424502,536.266849,3182.885551,7920.203579
347.424810,2451.505594,2442.679609,9770.718434
347.425118,3140.991542,1258.350101,9474.636058
347.425426,995.924147,-518.144159,10362.883188
347.425734,-536.266849,-2368.659014,11251.130318
347.426042,-1838.629195,-4589.276840,11547.212695
347.426350,-2911.162892,-3330.926739,11473.192101
347.426658,-1685.410096,-2146.597232,10288.862594
347.426966,1302.362347,296.082377,8438.347739
347.427274,2374.896044,1406.391290,6661.853478
347.427582,2911.162892,1258.350101,6957.935855
347.427890,2374.896044,814.226536,7105.977043
347.428198,995.924147,-296.082377,9326.594869
347.428506,-459.657299,-592.164754,10732.986159
347.428814,-383.047749,888.247130,10140.821405
347.429122,-229.828649,1776.494261,10732.986159
347.429430,919.314598,2516.700203,10214.842000
347.429738,2757.943793,3330.926739,9252.574275
347.430046,2451.505594,2368.659014,8808.450710
347.430354,2221.676944,370.102971,9178.553681
347.430662,229.828649,-1850.514855,10214.842000
347.430970,-1302.362347,-3182.885551,11473.192101
347.431278,-2451.505594,-3256.906145,11325.150913
347.431586,-1149.143247,-1702.473667,9918.759623
347.431894,689.485948,-222.061783,8956.491898
347.432202,1302.362347,296.082377,7920.203579
347.432510,3447.429741,1480.411884,7920.203579
347.432818,2374.896044,814.226536,8142.265362
347.433126,536.266849,-0.000000,8808.450710
347.433434,0.000000,-148.041188,9770.718434
347.433742,0.000000,666.185348,11103.089130
347.434050,0.000000,1628.453072,10510.924376
347.434358,1838.629195,3330.926739,8660.409521
347.434666,3524.039291,3849.070898,9326.594869
347.434974,2374.896044,2294.638420,8808.450710
347.435282,2528.115143,518.144159,9326.594869
347.435590,-383.047749,-962.267725,11177.109724
347.435898,-2145.067394,-3478.967927,11917.315666
347.436207,-2757.943793,-3256.906145,11769.274478
347.436515,-2451.505594,-1850.514855,11177.109724
347.436823,-766.095498,-1184.329507,10066.800811
347.437131,1302.362347,592.164754,8512.368333
347.437439,2298.286494,962.267725,7698.141797
347.437747,1455.581446,-0.000000,7698.141797
347.438055,1302.362347,-444.123565,9252.574275
347.438363,229.828649,370.102971,10214.842000
347.438671,153.219100,444.123565,10584.944971
347.438979,0.000000,2442.679609,9474.636058
347.439287,1991.848295,3552.988522,9474.636058
347.439595,3370.820191,3627.009116,9030.512492
347.439903,3447.429741,2590.720797,8808.450710
347.440211,2221.676944,592.164754,8956.491898
347.440519,612.876398,-2146.597232,10288.862594
347.440827,-1455.581446,-3256.906145,12657.521608
347.441135,-3064.381992,-3182.885551,11621.233289
347.441444,-2298.286494,-2738.761985,11251.130318
347.441752,-842.705048,-888.247130,9326.594869
347.442060,766.095498,370.102971,8734.430116
347.442368,2298.286494,592.164754,8364.327145
347.442676,1149.143247,888.247130,7328.038826
347.442984,1302.362347,-740.205942,9622.677246
347.443292,76.609550,444.123565,10288.862594
347.443600,0.000000,1332.370696,9918.759623
347.443908,0.000000,2294.638420,9326.594869
347.444216,2145.067394,3330.926739,8586.388927
347.444524,4136.915689,3627.009116,8882.471304
347.444832,3677.258390,2664.741391,8216.285956
347.445140,2451.505594,740.205942,9252.574275
347.445448,306.438199,-1554.432478,10288.862594
347.445756,-1302.362347,-3330.926739,12731.542202
347.446064,-2451.505594,-3701.029710,12139.377449
347.446372,-2068.457845,-2368.659014,10658.965565
347.446680,-229.828649,-1110.308913,9400.615463
347.446989,842.705048,296.082377,7920.203579
347.447297,2451.505594,962.267725,8142.265362
347.447605,2221.676944,148.041188,7772.162391
347.447913,766.095498,370.102971,8734.430116
347.448221,383.047749,-0.000000,9844.739029
347.448529,76.609550,1184.329507,10362.883188
347.448837,0.000000,1924.535449,10214.842000
347.449145,1455.581446,3182.885551,9696.697840
347.449453,2834.553343,2812.782580,9178.553681
347.449761,2298.286494,1998.556043,9178.553681
347.450069,1608.800546,-814.226536,10214.842000
347.450377,0.000000,-2738.761985,11325.150913
347.450685,-1225.752797,-4219.173869,12065.356855
347.450993,-2681.334243,-3627.009116,11325.150913
347.451301,-1685.410096,-3182.885551,11177.109724
347.451609,0.000000,-740.205942,8808.450710
347.451917,1915.238745,1554.432478,7402.059420
347.452226,2911.162892,2220.617826,7254.018232
347.452534,2757.943793,1850.514855,6735.874072
347.452842,2298.286494,1036.288319,7550.100608
347.453150,383.047749,666.185348,8586.388927
347.453458,-229.828649,1184.329507,9992.780217
347.453766,-1149.143247,1776.494261,10658.965565
347.454074,0.000000,2368.659014,10584.944971
347.454382,1302.362347,2664.741391,9474.636058
347.454690,1455.581446,1332.370696,10288.862594
347.454998,1455.581446,-444.123565,10584.944971
347.455306,0.000000,-2220.617826,10807.006753
347.455614,-1762.019645,-3849.070898,12065.356855
347.455922,-2451.505594,-4219.173869,12213.398043
347.456230,-1378.971896,-2664.741391,10584.944971
347.456538,-306.438199,-222.061783,9252.574275
347.456846,1991.848295,962.267725,7920.203579
347.457154,3830.477490,1776.494261,6735.874072
347.457463,3447.429741,2146.597232,6513.812290
347.457771,1838.629195,1110.308913,7994.224174
347.458079,919.314598,592.164754,9548.656652
347.458387,-689.485948,1110.308913,10288.862594
347.458695,-766.095498,1628.453072,10436.903782
347.459003,766.095498,2442.679609,10214.842000
347.459311,2298.286494,2590.720797,10140.821405
347.459619,2451.505594,1776.494261,9918.759623
347.459927,1532.190996,148.041188,9770.718434
347.460235,76.609550,-1406.391290,11177.109724
347.460543,-1762.019645,-3182.885551,11843.295072
347.460851,-2298.286494,-3701.029710,11991.336260
347.461159,-2298.286494,-2516.700203,10658.965565
347.461467,-612.876398,-1036.288319,9622.677246
347.461775,1762.019645,370.102971,8512.368333
347.462083,2987.772442,1036.288319,7031.956449
347.462391,2451.505594,888.247130,7846.182985
347.462699,1072.533697,666.185348,8512.368333
347.463008,536.266849,-148.041188,9400.615463
347.463316,-383.047749,518.144159,10288.862594
347.463624,-459.657299,1554.432478,9400.615463
347.463932,1455.581446,2812.782580,9548.656652
347.464240,2681.334243,2738.761985,9696.697840
347.464548,2604.724693,2738.761985,8734.430116
347.464856,1455.581446,1776.494261,9030.512492
347.465164,842.705048,-666.185348,9696.697840
347.465472,-1762.019645,-2368.659014,11251.130318
347.465780,-2068.457845,-3404.947333,11843.295072
347.466088,-2451.505594,-2368.659014,11029.068536
347.466396,-1762.019645,-1332.370696,9474.636058
347.466704,842.705048,-0.000000,8882.471304
347.467012,1608.800546,962.267725,8216.285956
347.467320,1455.581446,444.123565,7994.224174
347.467628,1838.629195,370.102971,7550.100608
347.467936,383.047749,370.102971,9474.636058
347.468245,0.000000,370.102971,10214.842000
347.468553,76.609550,2368.659014,9104.533087
347.468861,1608.800546,3404.947333,9770.718434
347.469169,2911.162892,3182.885551,8660.409521
347.469477,3294.210641,2886.803174,8660.409521
347.469785,2757.943793,814.226536,8956.491898
347.470093,1072.533697,-1110.308913,10288.862594
347.470401,-1455.581446,-2960.823768,11399.171507
347.470709,-2604.724693,-3404.947333,11991.336260
347.471017,-1378.971896,-3627.009116,13101.645173
347.471325,-1378.971896,-1480.411884,8512.368333
347.471633,919.314598,444.123565,8808.450710
347.471941,3217.601092,296.082377,9474.636058
347.472249,2145.067394,1702.473667,6365.771101
347.472557,1838.629195,-222.061783,9030.512492
347.472865,1225.752797,-0.000000,8290.306550
347.473173,-383.047749,518.144159,9992.780217
347.473482,-536.266849,1258.350101,10584.944971
347.473790,919.314598,3108.864956,9548.656652
347.474098,2834.553343,2590.720797,10288.862594
347.474406,2451.505594,2368.659014,8882.471304
347.474714,1302.362347,666.185348,9844.739029
347.475022,1608.800546,-1332.370696,11325.150913
347.475330,-1072.533697,-2812.782580,11695.253884
347.475638,-2528.115143,-2368.659014,11103.089130
347.475946,-1149.143247,-2886.803174,11251.130318
347.476254,-689.485948,-1628.453072,9992.780217
347.476562,306.438199,962.267725,7920.203579
347.476870,3524.039291,1406.391290,7624.121203
347.477178,2987.772442,1480.411884,6217.729913
347.477486,1762.019645,1406.391290,6735.874072
347.477794,612.876398,444.123565,9178.553681
347.478102,-153.219100,814.226536,10214.842000
347.478410,-995.924147,1998.556043,9992.780217
347.478719,306.438199,2220.617826,10807.006753
347.479027,2451.505594,2442.679609,10214.842000
347.479335,1455.581446,1850.514855,9770.718434
347.479643,2068.457845,370.102971,10584.944971
347.479951,229.828649,-1776.494261,10214.842000
347.480259,-1838.629195,-3849.070898,12287.418637
347.480567,-2681.334243,-3849.070898,12213.398043
347.480875,-2221.676944,-2442.679609,11177.109724
347.481183,-306.438199,-1036.288319,9548.656652
347.481491,1915.238745,740.205942,8142.265362
347.481799,3370.820191,962.267725,7550.100608
347.482107,3830.477490,1480.411884,6883.915261
347.482415,2834.553343,1184.329507,6809.894666
347.482723,1072.533697,1184.329507,8438.347739
347.483031,76.609550,666.185348,9474.636058
347.483339,766.095498,1998.556043,10510.924376
347.483647,766.095498,2664.741391,9252.574275
347.483955,1915.238745,2442.679609,9400.615463
347.484264,2987.772442,2516.700203,9918.759623
347.484572,2145.067394,1332.370696,9474.636058
347.484880,153.219100,-1258.350101,10955.047942
347.485188,-1762.019645,-2886.803174,12509.480420
347.485496,-2757.943793,-3775.050304,13175.665768
347.485804,-2757.943793,-3182.885551,11769.274478
347.486112,-1225.752797,-1332.370696,10214.842000
347.486420,842.705048,-222.061783,9400.615463
347.486728,1991.848295,740.205942,8068.244768
347.487036,2298.286494,888.247130,7179.997637
347.487344,1762.019645,370.102971,7994.224174
347.487652,689.485948,296.082377,8586.388927
347.487960,-383.047749,1110.308913,9548.656652
347.488268,536.266849,1924.535449,10066.800811
347.488576,1608.800546,3034.844362,9252.574275
347.488884,2604.724693,3627.009116,9104.533087
347.489192,3294.210641,2664.741391,8882.471304
347.489501,2528.115143,1406.391290,8956.491898
347.489809,766.095498,-962.267725,10658.965565
347.490117,-1685.410096,-2516.700203,11843.295072
347.490425,-2374.896044,-3627.009116,12213.398043
347.490733,-3294.210641,-2738.761985,11251.130318
347.491041,-1225.752797,-1850.514855,10510.924376
347.491349,306.438199,-74.020594,8734.430116
347.491657,2298.286494,592.164754,8290.306550
347.491965,2451.505594,444.123565,7476.080014
347.492273,1762.019645,296.082377,7105.977043
347.492581,612.876398,-0.000000,9770.718434
347.492889,229.828649,370.102971,9548.656652
347.493197,0.000000,1628.453072,9770.718434
347.493505,1225.752797,2590.720797,9548.656652
347.493813,3140.991542,2886.803174,8438.347739
347.494121,3677.258390,2664.741391,8660.409521
347.494429,2451.505594,666.185348,8734.430116
347.494738,1608.800546,-1406.391290,10955.047942
347.495046,-995.924147,-3034.844362,12065.356855
347.495354,-2451.505594,-3256.906145,11991.336260
347.495662,-2451.505594,-3182.885551,11621.233289
347.495970,-919.314598,-1258.350101,10807.006753
347.496278,1532.190996,-148.041188,9326.594869
347.496586,2221.676944,814.226536,7179.997637
347.496894,2757.943793,1406.391290,7994.224174
347.497202,2681.334243,740.205942,8142.265362
347.497510,459.657299,962.267725,9400.615463
347.497818,0.000000,1554.432478,10658.965565
347.498126,689.485948,1480.411884,10881.027347
347.498434,153.219100,3034.844362,9326.594869
347.498742,2604.724693,2368.659014,9548.656652
347.499050,2528.115143,1776.494261,9252.574275
347.499358,2298.286494,814.226536,9326.594869
347.499666,459.657299,-1554.432478,11177.109724
347.499974,-1302.362347,-3108.864956,12065.356855
347.500283,-2834.553343,-3775.050304,12435.459826
347.500591,-2528.115143,-2812.782580,11991.336260
347.500899,-1149.143247,-1110.308913,10881.027347
347.501207,536.266849,962.267725,8586.388927
347.501515,3294.210641,1998.556043,8290.306550
347.501823,2221.676944,1924.535449,7179.997637
347.502131,1915.238745,1110.308913,7105.977043
347.502439,1149.143247,666.185348,9400.615463
347.502747,-536.266849,518.144159,9992.780217
347.503055,-459.657299,1554.432478,10510.924376
347.503363,76.609550,2294.638420,9770.718434
347.503671,1608.800546,2590.720797,9326.594869
347.503979,2451.505594,2442.679609,8808.450710
347.504287,2298.286494,370.102971,9474.636058
347.504595,0.000000,-888.247130,9770.718434
347.504903,-1225.752797,-3404.947333,11547.212695
347.505211,-2451.505594,-4071.132681,12435.459826
347.505520,-2911.162892,-3330.926739,11695.253884
347.505828,-1225.752797,-2294.638420,10214.842000
347.506136,995.924147,-0.000000,8142.265362
347.506444,3140.991542,1332.370696,7328.038826
347.506752,2757.943793,1332.370696,6661.853478
347.507060,3140.991542,1110.308913,6883.915261
347.507368,2221.676944,370.102971,7920.203579
347.507676,459.657299,1110.308913,8512.368333
347.507984,1302.362347,666.185348,9474.636058
347.508292,1072.533697,2590.720797,9252.574275
347.508600,2145.067394,2368.659014,10066.800811
347.508908,2528.115143,1998.556043,9252.574275
347.509216,1378.971896,814.226536,9696.697840
347.509524,0.000000,-1110.308913,11325.150913
347.509832,-1685.410096,-3108.864956,12509.480420
347.510140,-3217.601092,-2516.700203,12731.542202
347.510448,-3447.429741,-3404.947333,12731.542202
347.510757,-1991.848295,-1110.308913,11325.150913
347.511065,0.000000,592.164754,9918.759623
347.511373,1915.238745,1554.432478,8734.430116
347.511681,2834.553343,2294.638420,6735.874072
347.511989,1991.848295,1480.411884,7846.182985
347.512297,1072.533697,592.164754,9104.533087
347.512605,0.000000,1258.350101,9474.636058
347.512913,842.705048,1554.432478,10955.047942
347.513221,919.314598,2664.741391,9696.697840
347.513529,2374.896044,3552.988522,8512.368333
347.513837,3294.210641,3330.926739,9622.677246
347.514145,3064.381992,1406.391290,9104.533087
347.514453,1608.800546,592.164754,9548.656652
347.514761,-153.219100,-1702.473667,10436.903782
347.515069,-2221.676944,-3108.864956,11251.130318
347.515377,-2451.505594,-3034.844362,11917.315666
347.515685,-1302.362347,-1702.473667,10807.006753
347.515994,-459.657299,-814.226536,9622.677246
347.516302,842.705048,-370.102971,8734.430116
347.516610,1762.019645,148.041188,7994.224174
347.516918,919.314598,-740.205942,8364.327145
347.517226,153.219100,-518.144159,9178.553681
347.517534,0.000000,-666.185348,10214.842000
347.517842,-229.828649,370.102971,9548.656652
347.518150,1225.752797,1258.350101,9474.636058
347.518458,2451.505594,2368.659014,8956.491898
347.518766,3524.039291,2516.700203,8956.491898
347.519074,3677.258390,1406.391290,8216.285956
347.519382,2145.067394,148.041188,8068.244768
347.519690,536.266849,-1776.494261,9918.759623
347.519998,-1455.581446,-2738.761985,11399.171507
347.520306,-1915.238745,-2516.700203,11251.130318
347.520614,-1302.362347,-1850.514855,10510.924376
347.520922,0.000000,-666.185348,9548.656652
347.521230,1608.800546,222.061783,8586.388927
347.521539,995.924147,444.123565,8068.244768
347.521847,1608.800546,444.123565,8290.306550
347.522155,842.705048,296.082377,8734.430116
347.522463,153.219100,592.164754,9844.739029
347.522771,0.000000,1332.370696,10436.903782
347.523079,1149.143247,2664.741391,9622.677246
347.523387,2911.162892,3552.988522,8882.471304
347.523695,3677.258390,3256.906145,8290.306550
347.524003,2987.772442,1850.514855,9400.615463
347.524311,2145.067394,518.144159,9474.636058
347.524619,0.000000,-1850.514855,10881.027347
347.524927,-2374.896044,-2886.803174,11769.274478
347.525235,-2911.162892,-2960.823768,12509.480420
347.525543,-1762.019645,-2368.659014,11917.315666
347.525851,0.000000,-444.123565,9770.718434
347.526159,1608.800546,-222.061783,9104.533087
347.526467,1302.362347,518.144159,8364.327145
347.526776,1762.019645,962.267725,7624.121203
347.527084,1149.143247,1184.329507,8586.388927
347.527392,306.438199,1406.391290,10288.862594
347.527700,459.657299,1998.556043,10214.842000
347.528008,1455.581446,2960.823768,9178.553681
347.528316,1685.410096,3330.926739,9696.697840
347.528624,2681.334243,2664.741391,8956.491898
347.528932,2145.067394,1702.473667,8660.409521
347.529240,919.314598,-814.226536,10140.821405
347.529548,-1302.362347,-3182.885551,11399.171507
347.529856,-3064.381992,-3552.988522,12435.459826
347.530164,-3447.429741,-3701.029710,13027.624579
347.530472,-1608.800546,-2368.659014,11177.109724
347.530780,-689.485948,-296.082377,9622.677246
347.531088,1685.410096,296.082377,8586.388927
347.531396,2298.286494,1110.308913,6809.894666
347.531704,2298.286494,1628.453072,6587.832884
347.532013,1455.581446,1480.411884,8364.327145
347.532321,459.657299,1184.329507,9178.553681
347.532629,0.000000,1554.432478,10510.924376
347.532937,459.657299,2368.659014,10288.862594
347.533245,1685.410096,2664.741391,9400.615463
347.533553,2451.505594,2516.700203,9548.656652
347.533861,2451.505594,1184.329507,10066.800811
347.534169,1532.190996,-74.020594,9548.656652
347.534477,-995.924147,-2368.659014,10881.027347
347.534785,-2068.457845,-3404.947333,11843.295072
347.535093,-2298.286494,-2960.823768,11547.212695
347.535401,-1762.019645,-2220.617826,11547.212695
347.535709,0.000000,-1332.370696,9696.697840
347.536017,1532.190996,1036.288319,7772.162391
347.536325,2987.772442,1184.329507,7031.956449
347.536633,2451.505594,1332.370696,6883.915261
347.536941,995.924147,1258.350101,8142.265362
347.537249,0.000000,-0.000000,10881.027347
347.537557,0.000000,814.226536,9992.780217
347.537866,0.000000,1850.514855,10288.862594
347.538174,1378.971896,2294.638420,10066.800811
347.538482,2911.162892,2738.761985,8882.471304
347.538790,2374.896044,2294.638420,8734.430116
347.539098,2068.457845,-74.020594,9252.574275
347.539406,0.000000,-1554.432478,9696.697840
347.539714,-1991.848295,-2664.741391,11473.192101
347.540022,-2374.896044,-3404.947333,12065.356855
347.540330,-1915.238745,-2220.617826,11251.130318
347.540638,-229.828649,-814.226536,10214.842000
347.540946,1225.752797,-0.000000,8068.244768
347.541254,2068.457845,666.185348,7328.038826
347.541562,1838.629195,740.205942,7402.059420
347.541870,1072.533697,592.164754,8290.306550
347.542178,536.266849,518.144159,9326.594869
347.542486,0.000000,666.185348,9992.780217
347.542794,919.314598,2146.597232,9548.656652
347.543102,2528.115143,2812.782580,9474.636058
347.543410,3447.429741,3108.864956,8364.327145
347.543718,3447.429741,2442.679609,8216.285956
347.544026,2757.943793,592.164754,8216.285956
347.544334,229.828649,-962.267725,9696.697840
347.544642,-1378.971896,-2368.659014,11473.192101
347.544950,-1455.581446,-2516.700203,11843.295072
347.545259,-1378.971896,-1850.514855,10807.006753
347.545567,-612.876398,-1036.288319,9770.718434
347.545875,1455.581446,-592.164754,8660.409521
347.546183,1378.971896,814.226536,7624.121203
347.546491,1991.848295,296.082377,8734.430116
347.546799,1685.410096,-740.205942,9178.553681
347.547107,-1685.410096,740.205942,9474.636058
347.547415,306.438199,-666.185348,12139.377449
347.547723,306.438199,2960.823768,9844.739029
347.548031,2068.457845,2146.597232,10807.006753
347.548339,3370.820191,2738.761985,8586.388927
347.548647,3830.477490,2146.597232,8290.306550
347.548955,2374.896044,370.102971,9992.780217
347.549263,766.095498,-518.144159,9326.594869
347.549571,0.000000,-1406.391290,11547.212695
347.549879,-2068.457845,-2812.782580,11843.295072
347.550187,-1225.752797,-1628.453072,10658.965565
347.550495,76.609550,-74.020594,9178.553681
347.550803,1302.362347,518.144159,8586.388927
347.551111,2374.896044,1184.329507,7105.977043
347.551419,995.924147,1406.391290,7105.977043
347.551727,842.705048,296.082377,9548.656652
347.552035,-842.705048,-0.000000,9770.718434
347.552343,-1072.533697,1184.329507,10881.027347
347.552652,-536.266849,1036.288319,11177.109724
347.552960,383.047749,2146.597232,9622.677246
347.553268,2451.505594,2368.659014,9918.759623
347.553576,2911.162892,1628.453072,8438.347739
347.553884,1991.848295,814.226536,8290.306550
347.554192,766.095498,-1258.350101,10658.965565
347.554500,-536.266849,-2368.659014,10955.047942
347.554808,-1302.362347,-2368.659014,10955.047942
347.555116,-1072.533697,-2294.638420,11251.130318
347.555424,0.000000,-814.226536,8660.409521
347.555732,1455.581446,222.061783,8364.327145
347.556040,2911.162892,740.205942,7772.162391
347.556348,2145.067394,296.082377,7105.977043
347.556656,919.314598,444.123565,8364.327145
347.556964,0.000000,-222.061783,10288.862594
347.557272,-383.047749,518.144159,10584.944971
347.557580,0.000000,1184.329507,10140.821405
347.557888,689.485948,1776.494261,10362.883188
347.558196,2451.505594,2146.597232,9622.677246
347.558504,2834.553343,1036.288319,9178.553681
347.558812,1915.238745,222.061783,9178.553681
347.559120,229.828649,-1110.308913,10362.883188
347.559428,-1378.971896,-2664.741391,11621.233289
347.559736,-1915.238745,-2294.638420,11991.336260
347.560044,-1685.410096,-1628.453072,10732.986159
347.560353,153.219100,-518.144159,9696.697840
347.560661,1302.362347,518.144159,8216.285956
347.560969,2145.067394,962.267725,6957.935855
347.561277,1532.190996,518.144159,7772.162391
347.561585,459.657299,814.226536,7920.203579
347.561893,-229.828649,370.102971,9622.677246
347.562201,-459.657299,962.267725,10362.883188
347.562509,0.000000,1776.494261,10066.800811
347.562817,995.924147,2146.597232,9770.718434
347.563125,3064.381992,2442.679609,9548.656652
347.563433,2221.676944,2220.617826,7920.203579
347.563741,2145.067394,444.123565,9770.718434
347.564049,689.485948,-888.247130,9992.780217
347.564357,-1532.190996,-2146.597232,11177.109724
347.564665,-1685.410096,-3034.844362,12361.439231
347.564973,-1532.190996,-2664.741391,10807.006753
347.565281,-919.314598,-1184.329507,10881.027347
347.565589,842.705048,-148.041188,9474.636058
347.565897,919.314598,370.102971,7772.162391
347.566205,919.314598,592.164754,8216.285956
347.566513,612.876398,-0.000000,8660.409521
347.566821,0.000000,592.164754,9918.759623
347.567129,76.609550,592.164754,10140.821405
347.567437,-229.828649,2072.576638,10214.842000
347.567746,1302.362347,2294.638420,10066.800811
347.568054,3677.258390,2368.659014,9326.594869
347.568362,3217.601092,2442.679609,8142.265362
347.568670,2757.943793,1258.350101,8290.306550
347.568978,1302.362347,-888.247130,9770.718434
347.569286,0.000000,-2220.617826,11251.130318
347.569594,-1225.752797,-1998.556043,11103.089130
347.569902,-1149.143247,-2220.617826,11695.253884
347.570210,-612.876398,-1110.308913,10362.883188
347.570518,919.314598,666.185348,8512.368333
347.570826,2221.676944,296.082377,7994.224174
347.571134,1608.800546,518.144159,7846.182985
347.571442,536.266849,148.041188,8586.388927
347.571750,0.000000,-0.000000,10584.944971
347.572058,-459.657299,814.226536,10510.924376
347.572366,-306.438199,1776.494261,10140.821405
347.572674,1685.410096,2368.659014,10214.842000
347.572982,3217.601092,2812.782580,9104.533087
347.573290,3294.210641,2146.597232,7994.224174
347.573598,2451.505594,592.164754,8660.409521
347.573906,1455.581446,-1110.308913,9770.718434
347.574214,-459.657299,-2368.659014,11251.130318
347.574522,-1532.190996,-2812.782580,11991.336260
347.574830,-766.095498,-2294.638420,11103.089130
347.575139,-306.438199,-518.144159,9696.697840
347.575447,1225.752797,148.041188,9104.533087
347.575755,2374.896044,592.164754,7846.182985
347.576063,1608.800546,814.226536,7476.080014
347.576371,689.485948,370.102971,8512.368333
347.576679,383.047749,1036.288319,9252.574275
347.576987,-306.438199,1406.391290,10214.842000
347.577295,-612.876398,1480.411884,11029.068536
347.577603,1838.629195,2442.679609,9548.656652
347.577911,1838.629195,2294.638420,9548.656652
347.578219,1991.848295,1184.329507,9992.780217
347.578527,2145.067394,518.144159,9178.553681
347.578835,76.609550,-1036.288319,10436.903782
347.579143,-1915.238745,-3330.926739,11769.274478
347.579451,-1915.238745,-3034.844362,11621.233289
347.579759,-1378.971896,-1924.535449,11399.171507
347.580067,-689.485948,-1332.370696,9918.759623
347.580375,2221.676944,888.247130,7920.203579
347.580683,2757.943793,1850.514855,7105.977043
347.580991,1838.629195,1332.370696,7550.100608
347.581299,1685.410096,888.247130,8068.244768
347.581607,-153.219100,1480.411884,9178.553681
347.581915,-306.438199,1036.288319,10807.006753
347.582223,459.657299,2146.597232,9326.594869
347.582532,689.485948,2220.617826,10436.903782
347.582840,1685.410096,1850.514855,10288.862594
347.583148,2221.676944,1110.308913,9474.636058
347.583456,612.876398,-0.000000,9844.739029
347.583764,-536.266849,-2220.617826,11399.171507
347.584072,-1149.143247,-3330.926739,11917.315666
347.584380,-2528.115143,-2812.782580,11695.253884
347.584688,-1915.238745,-2146.597232,11177.109724
347.584996,0.000000,-1036.288319,9104.533087
347.585304,1455.581446,814.226536,8142.265362
347.585612,2451.505594,962.267725,7402.059420
347.585920,2604.724693,1776.494261,6809.894666
347.586228,1455.581446,1036.288319,7328.038826
347.586536,306.438199,1258.350101,8734.430116
347.586844,0.000000,1628.453072,9844.739029
347.587152,153.219100,1628.453072,10436.903782
347.587460,766.095498,2072.576638,10066.800811
347.587768,2145.067394,1924.535449,9474.636058
347.588076,2298.286494,1776.494261,9030.512492
347.588384,1302.362347,-0.000000,9696.697840
347.588692,306.438199,-1702.473667,10288.862594
347.589000,-1532.190996,-3256.906145,11917.315666
347.589308,-2451.505594,-2590.720797,12065.356855
347.589616,-1762.019645,-2368.659014,11621.233289
347.589924,-612.876398,-962.267725,10584.944971
347.590233,1532.190996,296.082377,9104.533087
347.590541,1915.238745,1332.370696,7698.141797
347.590849,2298.286494,740.205942,7254.018232
347.591157,1455.581446,1036.288319,7328.038826
347.591465,536.266849,740.205942,8586.388927
347.591773,-766.095498,1406.391290,9400.615463
347.592081,229.828649,1258.350101,10362.883188
347.592389,2681.334243,2368.659014,9992.780217
347.592697,2604.724693,2664.741391,8142.265362
347.593005,3217.601092,1702.473667,8808.450710
347.593313,2681.334243,666.185348,8512.368333
347.593621,459.657299,-592.164754,9474.636058
347.593929,-612.876398,-2442.679609,11621.233289
347.594237,-1915.238745,-2146.597232,10436.903782
347.594545,-1915.238745,-1184.329507,11843.295072
347.594853,-306.438199,148.041188,9770.718434
347.595161,1072.533697,2146.597232,8512.368333
347.595469,1225.752797,1628.453072,8290.306550
347.595777,1149.143247,1184.329507,7624.121203
347.596085,-689.485948,962.267725,8882.471304
347.596393,-2451.505594,-296.082377,10584.944971
347.596701,-3370.820191,-1110.308913,11991.336260
347.597009,-3600.648841,444.123565,11843.295072
347.597317,-2451.505594,222.061783,11917.315666
347.597626,-383.047749,1110.308913,10362.883188
347.597934,306.438199,1554.432478,9474.636058
347.598242,766.095498,222.061783,9326.594869
347.598550,0.000000,-1036.288319,9104.533087
347.598858,-842.705048,-1332.370696,9918.759623
347.599166,-1838.629195,-2220.617826,10584.944971
347.599474,-1302.362347,-962.267725,9770.718434
347.599782,0.000000,296.082377,9030.512492
347.600090,919.314598,2220.617826,6661.853478
347.600398,1302.362347,2442.679609,6217.729913
347.600706,1532.190996,1998.556043,6439.791695
347.601014,-383.047749,592.164754,7105.977043
347.601322,-2451.505594,-814.226536,9474.636058
347.601630,-4060.306139,-1998.556043,12065.356855
347.601938,-5669.106685,-2220.617826,13101.645173
347.602246,-4979.620737,-1184.329507,12657.521608
347.602554,-2604.724693,-518.144159,12139.377449
347.602862,-1225.752797,814.226536,10807.006753
347.603170,612.876398,888.247130,9326.594869
347.603478,919.314598,222.061783,8512.368333
347.603786,76.609550,-888.247130,8956.491898
347.604094,-459.657299,-2072.576638,10214.842000
347.604402,-612.876398,-1850.514855,10436.903782
347.604710,-1302.362347,-1110.308913,9770.718434
347.605019,383.047749,962.267725,8290.306550
347.605327,1455.581446,2294.638420,7105.977043
347.605635,2068.457845,3330.926739,6291.750507
347.605943,1915.238745,2886.803174,5625.565159
347.606251,612.876398,2368.659014,6661.853478
347.606559,-919.314598,296.082377,8956.491898
347.606867,-2604.724693,-370.102971,10881.027347
347.607175,-4060.306139,-0.000000,11769.274478
347.607483,-4443.353888,814.226536,12065.356855
347.607791,-2374.896044,1924.535449,11177.109724
347.608099,-1149.143247,2960.823768,9696.697840
347.608407,-383.047749,2220.617826,9474.636058
347.608715,-766.095498,1258.350101,9252.574275
347.609023,-1838.629195,-740.205942,9992.780217
347.609331,-4136.915689,-3108.864956,12361.439231
347.609639,-5209.449386,-5107.421000,14063.912898
347.609947,-6358.592633,-4885.359217,13397.727550
347.610255,-5669.106685,-3923.091493,12879.583391
347.610563,-3830.477490,-1332.370696,10807.006753
347.610871,-1762.019645,740.205942,9400.615463
347.611179,-383.047749,2368.659014,6661.853478
347.611487,689.485948,2960.823768,5329.482782
347.611795,842.705048,2516.700203,6513.812290
347.612103,383.047749,1924.535449,6957.935855
347.612412,-1378.971896,1332.370696,8882.471304
347.612720,-2068.457845,518.144159,9400.615463
347.613028,-2298.286494,592.164754,9696.697840
347.613336,-2528.115143,1554.432478,9622.677246
347.613644,-1685.410096,2294.638420,9474.636058
347.613952,-919.314598,2516.700203,8882.471304
347.614260,-383.047749,1554.432478,8216.285956
347.614568,-229.828649,370.102971,8586.388927
347.614876,-1532.190996,-1036.288319,9474.636058
347.615184,-2987.772442,-2516.700203,11325.150913
347.615492,-4060.306139,-3552.988522,12879.583391
347.615800,-4979.620737,-3775.050304,12879.583391
347.616108,-5056.230287,-3182.885551,12361.439231
347.616416,-4903.011187,-1628.453072,11547.212695
347.616724,-3677.258390,222.061783,10288.862594
347.617032,-2374.896044,1998.556043,8882.471304
347.617340,-1455.581446,2664.741391,7550.100608
347.617648,-842.705048,3182.885551,7105.977043
347.617956,-383.047749,3701.029710,7179.997637
347.618264,-842.705048,2738.761985,7994.224174
347.618572,-1991.848295,1110.308913,9400.615463
347.618880,-2145.067394,-370.102971,10658.965565
347.619188,-4060.306139,-1406.391290,10214.842000
347.619496,-4136.915689,-1924.535449,10807.006753
347.619804,-3217.601092,-1776.494261,10584.944971
347.620113,-2604.724693,-0.000000,9844.739029
347.620421,-689.485948,1036.288319,8882.471304
347.620729,689.485948,2146.597232,7179.997637
347.621037,995.924147,2664.741391,6143.709319
347.621345,1225.752797,2664.741391,6661.853478
347.621653,-536.266849,1406.391290,7550.100608
347.621961,-1838.629195,-666.185348,10955.047942
347.622269,-5209.449386,-2368.659014,11917.315666
347.622577,-7431.126331,-3256.906145,13397.727550
347.622885,-7890.783629,-4219.173869,15544.324782
347.623193,-7890.783629,-3552.988522,14508.036463
347.623501,-6665.030833,-1998.556043,13249.686362
347.623809,-3753.867940,-444.123565,10955.047942
347.624117,-1838.629195,1924.535449,7846.182985
347.624425,612.876398,3330.926739,6439.791695
347.624733,1915.238745,4811.338623,4885.359217
347.625041,2451.505594,4885.359217,4367.215058
347.625349,1608.800546,4071.132681,4885.359217
347.625657,0.000000,2442.679609,6661.853478
347.625965,-2298.286494,-148.041188,9474.636058
347.626273,-5056.230287,-2294.638420,11917.315666
347.626581,-5822.325785,-4219.173869,13619.789333
347.626889,-6511.811733,-5181.441594,14137.933492
347.627197,-5745.716235,-4663.297435,14211.954086
347.627506,-4060.306139,-3404.947333,12435.459826
347.627814,-995.924147,-740.205942,9696.697840
347.628122,995.924147,1628.453072,7254.018232
347.628430,2221.676944,3923.091493,5403.503377
347.628738,2834.553343,5551.544565,5033.400406
347.629046,2604.724693,6883.915261,5107.421000
347.629354,1608.800546,6143.709319,5921.647536
347.629662,-383.047749,4293.194464,8068.244768
347.629970,-2757.943793,1184.329507,10658.965565
347.630278,-6818.249932,-2146.597232,13027.624579
347.630586,-9652.803275,-4811.338623,15840.407159
347.630894,-10035.851024,-6365.771101,17320.819043
347.631202,-9959.241474,-6883.915261,16802.674883
347.631510,-7354.516781,-5773.606348,15100.201217
347.631818,-4903.011187,-4219.173869,12879.583391
347.632126,-1838.629195,-1850.514855,9622.677246
347.632434,842.705048,1480.411884,5773.606348
347.632742,3294.210641,3701.029710,5403.503377
347.633050,4979.620737,5107.421000,4441.235652
347.633358,4903.011187,7328.038826,2146.597232
347.633666,5132.839837,7624.121203,2886.803174
347.633974,3524.039291,5773.606348,4737.318029
347.634282,919.314598,3849.070898,7698.141797
347.634590,-2681.334243,1776.494261,10140.821405
347.634899,-5362.668486,-2220.617826,12953.603985
347.635207,-7048.078582,-3701.029710,14063.912898
347.635515,-7814.174080,-3997.112087,13471.748144
347.635823,-6818.249932,-4145.153275,13693.809927
347.636131,-5286.058936,-4219.173869,13101.645173
347.636439,-4366.744339,-2664.741391,10584.944971
347.636747,-3370.820191,-814.226536,8808.450710
347.637055,-1378.971896,296.082377,7994.224174
347.637363,-612.876398,1998.556043,7402.059420
347.637671,153.219100,2590.720797,7328.038826
347.637979,536.266849,2516.700203,7328.038826
347.638287,-536.266849,1332.370696,7994.224174
347.638595,-383.047749,962.267725,9030.512492
347.638903,-1225.752797,296.082377,9548.656652
347.639211,-1532.190996,-1258.350101,11251.130318
347.639519,-2604.724693,-1554.432478,10732.986159
347.639827,-2451.505594,-740.205942,9770.718434
347.640135,-1762.019645,-592.164754,9104.533087
347.640443,-1378.971896,296.082377,7994.224174
347.640751,-536.266849,1110.308913,7846.182985
347.641059,-766.095498,888.247130,8364.327145
347.641367,-1608.800546,1332.370696,8438.347739
347.641675,-2451.505594,1924.535449,9178.553681
347.641983,-3370.820191,1406.391290,10881.027347
347.642291,-4673.182538,666.185348,11325.150913
347.642599,-6052.154434,-370.102971,11843.295072
347.642907,-6818.249932,-1776.494261,13397.727550
347.643215,-7584.345430,-2442.679609,13693.809927
347.643523,-7124.688131,-2516.700203,13915.871710
347.643831,-5975.544884,-2146.597232,12509.480420
347.644139,-4903.011187,-1776.494261,11769.274478
347.644447,-3217.601092,-592.164754,10140.821405
347.644755,-1455.581446,518.144159,8216.285956
347.645063,306.438199,1480.411884,6661.853478
347.645371,612.876398,2220.617826,5995.668130
347.645679,2068.457845,2294.638420,5921.647536
347.645987,919.314598,2442.679609,6513.812290
347.646295,459.657299,1924.535449,7624.121203
347.646604,-689.485948,1776.494261,8512.368333
347.646912,-1072.533697,1036.288319,9474.636058
347.647220,-1991.848295,-148.041188,10214.842000
347.647528,-2757.943793,-296.082377,10732.986159
347.647836,-2757.943793,-296.082377,10732.986159
347.648144,-2604.724693,-740.205942,10362.883188
347.648452,-1991.848295,-296.082377,10288.862594
347.648760,-1455.581446,-0.000000,9474.636058
347.649068,-1302.362347,-222.061783,9400.615463
347.649376,-1378.971896,444.123565,9548.656652
347.649684,-1838.629195,814.226536,9474.636058
347.649992,-1838.629195,592.164754,9918.759623
347.650300,-1991.848295,592.164754,9770.718434
347.650608,-1838.629195,444.123565,10362.883188
347.650916,-2221.676944,-0.000000,10510.924376
347.651224,-2681.334243,-444.123565,10510.924376
347.651532,-2298.286494,-148.041188,10362.883188
347.651840,-2298.286494,-0.000000,10362.883188
347.652148,-1991.848295,592.164754,9844.739029
347.652456,-1225.752797,444.123565,9474.636058
347.652764,-995.924147,740.205942,8660.409521
347.653072,0.000000,444.123565,8438.347739
347.653380,-383.047749,888.247130,8512.368333
347.653688,-766.095498,1554.432478,8364.327145
347.653996,-1149.143247,1406.391290,8734.430116
347.654304,-1378.971896,1110.308913,8882.471304
347.654612,-2068.457845,592.164754,9252.574275
347.654920,-2911.162892,148.041188,9622.677246
347.655228,-3677.258390,-518.144159,10214.842000
347.655536,-3753.867940,-1110.308913,11251.130318
347.655844,-3907.087040,-1554.432478,11251.130318
347.656152,-3983.696590,-1702.473667,10732.986159
347.656460,-4136.915689,-1036.288319,10362.883188
347.656768,-3064.381992,-740.205942,10066.800811
347.657076,-2528.115143,-666.185348,9844.739029
347.657384,-2145.067394,-444.123565,9696.697840
347.657692,-1608.800546,-592.164754,9030.512492
347.658000,-1838.629195,-222.061783,9400.615463
347.658308,-1532.190996,-222.061783,9178.553681
347.658616,-1072.533697,-370.102971,9326.594869
347.658924,-766.095498,222.061783,9326.594869
347.659232,-383.047749,740.205942,8586.388927
347.659540,76.609550,1184.329507,8142.265362
347.659848,229.828649,1628.453072,8216.285956
347.660156,383.047749,1998.556043,8142.265362
347.660464,306.438199,1924.535449,7624.121203
347.660772,-459.657299,1776.494261,8364.327145
347.661080,-1149.143247,1110.308913,9252.574275
347.661389,-2604.724693,592.164754,9992.780217
347.661697,-3064.381992,296.082377,10881.027347
347.662005,-3524.039291,222.061783,11251.130318
347.662313,-3983.696590,148.041188,11399.171507
347.662621,-4366.744339,-0.000000,11843.295072
347.662929,-4213.525239,296.082377,11917.315666
347.663237,-4290.134789,222.061783,11251.130318
347.663545,-4136.915689,222.061783,10807.006753
347.663853,-3140.991542,370.102971,10807.006753
347.664161,-3140.991542,666.185348,9844.739029
347.664469,-2757.943793,962.267725,9548.656652
347.664777,-2987.772442,962.267725,9400.615463
347.665085,-2757.943793,962.267725,8956.491898
347.665393,-2451.505594,666.185348,8956.491898
347.665701,-2374.896044,962.267725,9252.574275
347.666009,-2681.334243,1036.288319,9252.574275
347.666317,-3524.039291,518.144159,9400.615463
347.666625,-4060.306139,222.061783,9474.636058
347.666933,-3830.477490,-296.082377,9844.739029
347.667241,-4290.134789,-444.123565,9770.718434
347.667549,-4060.306139,-370.102971,9918.759623
347.667857,-4060.306139,-740.205942,9622.677246
347.668165,-3983.696590,-740.205942,9696.697840
347.668473,-4213.525239,-296.082377,9548.656652
347.668781,-3600.648841,-592.164754,8734.430116
347.669089,-3524.039291,-740.205942,9030.512492
347.669397,-3600.648841,-740.205942,9252.574275
347.669705,-3753.867940,-1036.288319,9474.636058
347.670013,-4060.306139,-1184.329507,9696.697840
347.670321,-3524.039291,-1258.350101,9992.780217
347.670629,-3217.601092,-1184.329507,10214.842000
347.670937,-2911.162892,-1924.535449,10584.944971
347.671245,-2911.162892,-1406.391290,10658.965565
347.671553,-2221.676944,-1332.370696,10140.821405
347.671861,-1532.190996,-1110.308913,9770.718434
347.672169,-306.438199,-592.164754,9030.512492
347.672477,76.609550,222.061783,8142.265362
347.672785,459.657299,1110.308913,7624.121203
347.673093,2221.676944,1554.432478,7179.997637
347.673401,1762.019645,2442.679609,7031.956449
347.673709,1762.019645,3330.926739,6735.874072
347.674017,1378.971896,3404.947333,6735.874072
347.674325,689.485948,3330.926739,7476.080014
347.674633,-383.047749,3330.926739,8364.327145
347.674941,-1378.971896,2960.823768,9400.615463
347.675249,-2834.553343,1776.494261,10066.800811
347.675557,-3217.601092,888.247130,11843.295072
347.675865,-3830.477490,-148.041188,13027.624579
347.676174,-4903.011187,-888.247130,12509.480420
347.676482,-5592.497135,-888.247130,12731.542202
347.676790,-4903.011187,-1628.453072,13619.789333
347.677098,-4826.401637,-1110.308913,12879.583391
347.677406,-4596.572988,-1628.453072,11769.274478
347.677714,-2987.772442,-1036.288319,11769.274478
347.678022,-2451.505594,-1110.308913,11103.089130
347.678330,-1991.848295,-740.205942,10214.842000
347.678638,-1685.410096,222.061783,9400.615463
347.678946,-612.876398,-0.000000,9104.533087
347.679254,-766.095498,740.205942,7994.224174
347.679562,612.876398,1480.411884,7846.182985
347.679870,612.876398,1554.432478,8142.265362
347.680178,1225.752797,2368.659014,6809.894666
347.680486,612.876398,2738.761985,6587.832884
347.680794,229.828649,3478.967927,7550.100608
347.681102,612.876398,1924.535449,8438.347739
347.681410,-1532.190996,2812.782580,7772.162391
347.681718,-1915.238745,1258.350101,9770.718434
347.682026,-3294.210641,-148.041188,10140.821405
347.682334,-5362.668486,-1628.453072,11769.274478
347.682642,-6052.154434,-2368.659014,12139.377449
347.682950,-7201.297681,-2886.803174,11917.315666
347.683258,-5745.716235,-4071.132681,14137.933492
347.683566,-6205.373534,-3627.009116,12065.356855
347.683874,-4903.011187,-3034.844362,12657.521608
347.684182,-4060.306139,-2812.782580,11251.130318
347.684490,-3140.991542,-1628.453072,10288.862594
347.684798,-1685.410096,-222.061783,9326.594869
347.685106,0.000000,888.247130,7550.100608
347.685414,1302.362347,3552.988522,6735.874072
347.685722,3140.991542,5255.462188,4811.338623
347.686030,3753.867940,6069.688724,3552.988522
347.686338,3064.381992,5773.606348,4293.194464
347.686646,2451.505594,4885.359217,5477.523971
347.686954,0.000000,3256.906145,7105.977043
347.687262,-2221.676944,518.144159,9548.656652
347.687570,-4596.572988,-1702.473667,11843.295072
347.687878,-6665.030833,-3701.029710,13545.768739
347.688186,-7814.174080,-5699.585753,14434.015869
347.688494,-7890.783629,-6291.750507,14804.118840
347.688802,-7048.078582,-6069.688724,14804.118840
347.689110,-6358.592633,-4219.173869,12509.480420
347.689418,-3907.087040,-2294.638420,10732.986159
347.689726,-689.485948,444.123565,8290.306550
347.690034,995.924147,3997.112087,6069.688724
347.690342,2757.943793,5773.606348,4959.379811
347.690650,2987.772442,6957.935855,4071.132681
347.690958,2451.505594,6661.853478,4367.215058
347.691267,536.266849,4219.173869,6809.894666
347.691575,-2221.676944,1036.288319,9622.677246
347.691883,-6128.763984,-2220.617826,11991.336260
347.692191,-8427.050478,-5847.626942,15100.201217
347.692499,-9193.145976,-7105.977043,15618.345376
347.692807,-9193.145976,-7328.038826,15692.365970
347.693115,-7048.078582,-5995.668130,13989.892304
347.693423,-4443.353888,-2368.659014,10288.862594
347.693731,-1225.752797,1036.288319,8290.306550
347.694039,1762.019645,3997.112087,5773.606348
347.694347,4749.792088,7624.121203,3330.926739
347.694655,5592.497135,8438.347739,2960.823768
347.694963,5515.887586,8956.491898,3478.967927
347.695271,3370.820191,7402.059420,4959.379811
347.695579,-306.438199,3034.844362,9474.636058
347.695887,-3983.696590,-370.102971,13323.706956
347.696195,-7814.174080,-3997.112087,15470.304188
347.696503,-10189.070123,-7031.956449,17912.983796
347.696811,-10878.556072,-7254.018232,17690.922014
347.697119,-9193.145976,-5995.668130,16062.468941
347.697427,-5286.058936,-2664.741391,12879.583391
347.697735,-2374.896044,1110.308913,8734.430116
347.698043,1072.533697,2590.720797,6291.750507
347.698351,2221.676944,4737.318029,4885.359217
347.698659,3907.087040,6217.729913,4515.256246
347.698967,2145.067394,5477.523971,4515.256246
347.699275,-1225.752797,4367.215058,7476.080014
347.699583,-1072.533697,-0.000000,10066.800811
347.699891,-6741.640382,444.123565,10510.924376
347.700199,-6971.469032,-2368.659014,14359.995275
347.700507,-7660.954980,-2516.700203,13397.727550
347.700815,-7201.297681,-2294.638420,13397.727550
347.701123,-4136.915689,-740.205942,10732.986159
347.701431,0.000000,296.082377,8142.265362
347.701739,1532.190996,148.041188,7402.059420
347.702047,2451.505594,-444.123565,6291.750507
347.702355,2757.943793,-444.123565,7476.080014
347.702663,459.657299,-74.020594,7550.100608
347.702971,-306.438199,-1258.350101,8734.430116
347.703279,-1378.971896,592.164754,9326.594869
347.703587,-1991.848295,296.082377,9696.697840
347.703895,-1149.143247,444.123565,9844.739029
347.704203,-2298.286494,962.267725,8660.409521
347.704511,-1302.362347,-148.041188,10955.047942
347.704819,-3064.381992,-2072.576638,10732.986159
347.705127,-3140.991542,-2516.700203,11917.315666
347.705435,-2987.772442,-3775.050304,12065.356855
347.705743,-3983.696590,-2442.679609,9696.697840
347.706052,-2528.115143,-1184.329507,9770.718434
347.706360,-229.828649,962.267725,8956.491898
347.706668,1838.629195,3849.070898,6957.935855
347.706976,3294.210641,4515.256246,4293.194464
347.707284,3677.258390,5477.523971,4811.338623
347.707592,3753.867940,3997.112087,7031.956449
347.707900,1532.190996,962.267725,9252.574275
347.708208,-536.266849,-592.164754,10362.883188
347.708516,-3217.601092,-2664.741391,11991.336260
347.708824,-4673.182538,-3849.070898,14359.995275
347.709132,-5209.449386,-3849.070898,14656.077652
347.709440,-3753.867940,-2072.576638,13545.768739
347.709748,-1072.533697,-814.226536,10881.027347
347.710056,76.609550,-0.000000,9030.512492
347.710364,1072.533697,-0.000000,9104.533087
347.710672,842.705048,74.020594,8512.368333
347.710980,383.047749,1332.370696,8290.306550
347.711288,383.047749,2368.659014,7994.224174
347.711596,229.828649,3108.864956,7772.162391
347.711904,536.266849,3997.112087,8438.347739
347.712212,1149.143247,4663.297435,7550.100608
347.712520,1762.019645,4589.276840,6957.935855
347.712828,766.095498,2738.761985,8882.471304
347.713136,612.876398,-0.000000,11251.130318
347.713444,-2068.457845,-2072.576638,12361.439231
347.713752,-2757.943793,-3108.864956,12361.439231
347.714060,-3600.648841,-3182.885551,12287.418637
347.714368,-1685.410096,-2368.659014,12731.542202
347.714676,0.000000,-1554.432478,12065.356855
347.714984,1225.752797,-296.082377,9474.636058
347.715292,1685.410096,296.082377,8142.265362
347.715600,1225.752797,-0.000000,7920.203579
347.715908,0.000000,-1036.288319,9992.780217
347.716216,-1072.533697,-1258.350101,11251.130318
347.716524,-1685.410096,-740.205942,11103.089130
347.716832,-919.314598,1406.391290,9474.636058
347.717140,1302.362347,2590.720797,9104.533087
347.717448,3447.429741,3775.050304,7624.121203
347.717756,4596.572988,4219.173869,6365.771101
347.718064,4749.792088,3404.947333,6291.750507
347.718372,2834.553343,1036.288319,7402.059420
347.718680,689.485948,-962.267725,9326.594869
347.718988,-842.705048,-1332.370696,11103.089130
347.719296,-1762.019645,-1702.473667,11029.068536
347.719604,-1991.848295,-1110.308913,11177.109724
347.719912,-306.438199,-1258.350101,11695.253884
347.720220,229.828649,-592.164754,10214.842000
347.720528,612.876398,-666.185348,8142.265362
347.720837,0.000000,-1628.453072,9696.697840
347.721145,-1608.800546,-3478.967927,11917.315666
347.721453,-3140.991542,-3404.947333,13175.665768
347.721761,-1915.238745,-1480.411884,11547.212695
347.722069,-459.657299,888.247130,9474.636058
347.722377,2757.943793,3330.926739,7698.141797
347.722685,5209.449386,4663.297435,6883.915261
347.722993,5209.449386,4811.338623,4811.338623
347.723301,4443.353888,3182.885551,5699.585753
347.723609,2604.724693,1110.308913,7476.080014
347.723917,0.000000,-0.000000,9326.594869
347.724225,-1378.971896,-740.205942,11177.109724
347.724533,-1455.581446,-1554.432478,10881.027347
347.724841,-1378.971896,-592.164754,10881.027347
347.725149,-153.219100,-740.205942,10140.821405
347.725457,0.000000,-814.226536,9696.697840
347.725765,-306.438199,-1998.556043,10584.944971
347.726073,-1838.629195,-3330.926739,11103.089130
347.726381,-2834.553343,-3404.947333,11621.233289
347.726689,-2528.115143,-2220.617826,10955.047942
347.726997,-1149.143247,518.144159,10362.883188
347.727305,306.438199,2368.659014,9400.615463
347.727613,2834.553343,3923.091493,7402.059420
347.727921,4903.011187,4071.132681,7105.977043
347.728229,3294.210641,3330.926739,6365.771101
347.728537,1685.410096,888.247130,9178.553681
347.728845,0.000000,-296.082377,11177.109724
347.729153,-1149.143247,-1184.329507,11473.192101
347.729461,-1302.362347,-1184.329507,12139.377449
347.729769,0.000000,-592.164754,10066.800811
347.730077,1225.752797,-0.000000,9770.718434
347.730385,1685.410096,-814.226536,9178.553681
347.730693,1838.629195,-1110.308913,8956.491898
347.731001,-383.047749,-2368.659014,10436.903782
347.731309,-1455.581446,-2960.823768,11399.171507
347.731617,-1762.019645,-1184.329507,10510.924376
347.731925,-1149.143247,1554.432478,10881.027347
347.732233,2221.676944,2590.720797,9622.677246
347.732541,3753.867940,4811.338623,6735.874072
347.732849,4366.744339,4959.379811,7550.100608
347.733157,3447.429741,2738.761985,8734.430116
347.733465,1532.190996,1036.288319,10140.821405
347.733773,0.000000,-370.102971,12731.542202
347.734081,-1915.238745,-962.267725,11473.192101
347.734389,-1225.752797,-1702.473667,12065.356855
347.734697,-536.266849,-1184.329507,11695.253884
347.735005,383.047749,-0.000000,9178.553681
347.735313,2145.067394,-296.082377,8956.491898
347.735622,1455.581446,-962.267725,8512.368333
347.735930,0.000000,-1258.350101,8882.471304
347.736238,-612.876398,-1850.514855,10362.883188
347.736546,-1302.362347,-1036.288319,10436.903782
347.736854,0.000000,1036.288319,10288.862594
347.737161,2145.067394,3330.926739,8438.347739
347.737469,3907.087040,4515.256246,7179.997637
347.737777,4290.134789,3849.070898,7105.977043
347.738085,4596.572988,3256.906145,7476.080014
347.738393,2298.286494,666.185348,9252.574275
347.738701,0.000000,-888.247130,10288.862594
347.739009,-1225.752797,-1480.411884,10807.006753
347.739317,-1915.238745,-2220.617826,11843.295072
347.739625,-306.438199,-1406.391290,11399.171507
347.739933,383.047749,-814.226536,9104.533087
347.740241,1149.143247,-1258.350101,8882.471304
347.740549,689.485948,-2146.597232,8882.471304
347.740857,-306.438199,-2368.659014,10140.821405
347.741165,-1762.019645,-2812.782580,11399.171507
347.741473,-2298.286494,-1480.411884,10955.047942
347.741781,-842.705048,444.123565,9918.759623
347.742088,842.705048,2220.617826,9548.656652
347.742396,2987.772442,3849.070898,7402.059420
347.742704,4673.182538,3923.091493,6661.853478
347.743012,4213.525239,3108.864956,7179.997637
347.743320,2298.286494,666.185348,7920.203579
347.743628,0.000000,-666.185348,10436.903782
347.743936,-459.657299,-1998.556043,11843.295072
347.744244,-3370.820191,-0.000000,10214.842000
347.744552,919.314598,-1406.391290,12583.501014
347.744860,842.705048,740.205942,9030.512492
347.745168,459.657299,-148.041188,7772.162391
347.745476,1991.848295,-814.226536,9178.553681
347.745784,76.609550,-1036.288319,9474.636058
347.746092,-1532.190996,-2294.638420,11325.150913
347.746400,-1225.752797,-888.247130,9548.656652
347.746708,-842.705048,888.247130,10881.027347
347.747016,459.657299,2146.597232,9400.615463
347.747323,2834.553343,4145.153275,7105.977043
347.747631,3370.820191,4293.194464,7772.162391
347.747939,2987.772442,1628.453072,8142.265362
347.748247,995.924147,518.144159,9770.718434
