#time,accel_x,accel_y,accel_z
105.167328,459.657299,-814.226536,10288.862594
105.167636,1149.143247,-1110.308913,10807.006753
105.167944,1225.752797,-814.226536,10362.883188
105.168252,1225.752797,-592.164754,9992.780217
105.168560,1532.190996,-444.123565,9844.739029
105.168868,1915.238745,-370.102971,9474.636058
105.169176,2145.067394,-370.102971,9548.656652
105.169484,1915.238745,-370.102971,9696.697840
105.169792,2145.067394,-518.144159,9474.636058
105.170100,2451.505594,-444.123565,9548.656652
105.170408,2451.505594,-740.205942,9400.615463
105.170716,2451.505594,-0.000000,9252.574275
105.171024,2528.115143,-148.041188,9178.553681
105.171332,2374.896044,-296.082377,9178.553681
105.171640,2451.505594,-148.041188,9474.636058
105.171948,2451.505594,-0.000000,9474.636058
105.172256,2145.067394,740.205942,9326.594869
105.172564,2757.943793,814.226536,9030.512492
105.172872,2911.162892,1036.288319,8734.430116
105.173180,2911.162892,1554.432478,8512.368333
105.173488,2681.334243,1406.391290,8956.491898
105.173796,2298.286494,1036.288319,9030.512492
105.174104,1455.581446,666.185348,9548.656652
105.174412,995.924147,296.082377,10140.821405
105.174720,153.219100,-222.061783,10510.924376
105.175028,229.828649,-296.082377,11029.068536
105.175336,229.828649,-1110.308913,11103.089130
105.175644,76.609550,-740.205942,10732.986159
105.175952,383.047749,-666.185348,10584.944971
105.176260,842.705048,-370.102971,10658.965565
105.176568,1608.800546,-0.000000,10140.821405
105.176876,2298.286494,814.226536,9474.636058
105.177184,2068.457845,814.226536,8364.327145
105.177492,2911.162892,962.267725,8216.285956
105.177800,3064.381992,1036.288319,8290.306550
105.178108,2834.553343,740.205942,8586.388927
105.178416,1915.238745,518.144159,8956.491898
105.178724,1762.019645,-0.000000,9178.553681
105.179032,1225.752797,-444.123565,9844.739029
105.179340,1302.362347,-370.102971,9548.656652
105.179648,1455.581446,148.041188,9770.718434
105.179956,1072.533697,444.123565,9622.677246
105.180264,1532.190996,222.061783,9696.697840
105.180572,1225.752797,-0.000000,9696.697840
105.180880,1532.190996,296.082377,9696.697840
105.181188,1532.190996,296.082377,9622.677246
105.181496,1302.362347,296.082377,9622.677246
105.181804,1149.143247,-0.000000,10362.883188
105.182112,1302.362347,-444.123565,10214.842000
105.182420,842.705048,-222.061783,10510.924376
105.182728,919.314598,-444.123565,10955.047942
105.183036,842.705048,-666.185348,10362.883188
105.183344,995.924147,-444.123565,10362.883188
105.183652,1302.362347,-74.020594,10066.800811
105.183960,1532.190996,148.041188,9474.636058
105.184268,1991.848295,222.061783,9178.553681
105.184576,2145.067394,740.205942,8882.471304
105.184884,1991.848295,888.247130,9104.533087
105.185192,2221.676944,962.267725,9030.512492
105.185500,2374.896044,888.247130,9104.533087
105.185808,1991.848295,962.267725,9178.553681
105.186116,1838.629195,888.247130,9326.594869
105.186424,842.705048,888.247130,9696.697840
105.186732,1685.410096,296.082377,9696.697840
105.187040,1838.629195,518.144159,9696.697840
105.187348,1685.410096,296.082377,9474.636058
105.187656,1378.971896,370.102971,9548.656652
105.187964,1225.752797,444.123565,9696.697840
105.188272,1225.752797,518.144159,9844.739029
105.188580,842.705048,296.082377,9770.718434
105.188888,612.876398,370.102971,9918.759623
105.189196,689.485948,148.041188,9696.697840
105.189504,153.219100,148.041188,10288.862594
105.189812,306.438199,-0.000000,10066.800811
105.190120,153.219100,-0.000000,9918.759623
105.190428,153.219100,296.082377,9696.697840
105.190736,229.828649,222.061783,9918.759623
105.191044,459.657299,148.041188,9844.739029
105.191352,306.438199,296.082377,9770.718434
105.191660,383.047749,444.123565,9474.636058
105.191968,306.438199,-0.000000,9474.636058
105.192276,-306.438199,370.102971,9622.677246
105.192584,153.219100,-0.000000,9326.594869
105.192892,76.609550,592.164754,9104.533087
105.193200,0.000000,-74.020594,9252.574275
105.193508,-306.438199,-0.000000,9474.636058
105.193816,0.000000,-0.000000,9548.656652
105.194124,-229.828649,-222.061783,9622.677246
105.194432,-536.266849,-296.082377,9844.739029
105.194740,-383.047749,-222.061783,9844.739029
105.195048,-689.485948,-222.061783,9918.759623
105.195356,-459.657299,-148.041188,9696.697840
105.195664,-459.657299,-148.041188,9548.656652
105.195972,-689.485948,-148.041188,9622.677246
105.196280,-306.438199,-518.144159,9252.574275
105.196588,-766.095498,-518.144159,9548.656652
105.196896,-536.266849,-592.164754,9548.656652
105.197204,-1072.533697,-370.102971,9918.759623
105.197512,-842.705048,-222.061783,9622.677246
105.197820,-383.047749,-296.082377,9474.636058
105.198128,-459.657299,-0.000000,9696.697840
105.198436,0.000000,-0.000000,9400.615463
105.198744,0.000000,-74.020594,9622.677246
105.199052,-306.438199,296.082377,9622.677246
105.199361,-153.219100,518.144159,9622.677246
105.199669,306.438199,-0.000000,9474.636058
105.199977,536.266849,370.102971,9474.636058
105.200285,306.438199,148.041188,9622.677246
105.200593,76.609550,444.123565,9696.697840
105.200901,153.219100,74.020594,9622.677246
105.201209,459.657299,-0.000000,9918.759623
105.201517,995.924147,-74.020594,9696.697840
105.201825,766.095498,-0.000000,9992.780217
105.202133,76.609550,370.102971,9696.697840
105.202441,689.485948,444.123565,9844.739029
105.202749,766.095498,444.123565,9696.697840
105.203057,689.485948,370.102971,9474.636058
105.203365,919.314598,444.123565,9696.697840
105.203673,612.876398,222.061783,10066.800811
105.203981,995.924147,518.144159,9918.759623
105.204290,1455.581446,148.041188,9844.739029
105.204598,1302.362347,370.102971,9844.739029
105.204906,1149.143247,444.123565,9770.718434
105.205214,1378.971896,444.123565,9622.677246
105.205522,1608.800546,518.144159,9548.656652
105.205830,1685.410096,296.082377,9400.615463
105.206138,1762.019645,740.205942,9474.636058
105.206446,1915.238745,222.061783,9474.636058
105.206754,1991.848295,-0.000000,9696.697840
105.207062,1455.581446,-0.000000,9622.677246
105.207370,1685.410096,-0.000000,9474.636058
105.207678,1762.019645,518.144159,9696.697840
105.207986,1608.800546,370.102971,9622.677246
105.208294,1685.410096,370.102971,9844.739029
105.208602,1608.800546,-0.000000,9400.615463
105.208911,2451.505594,-0.000000,9474.636058
105.209219,1302.362347,-0.000000,9474.636058
105.209527,1532.190996,370.102971,9326.594869
105.209835,1608.800546,444.123565,9252.574275
105.210143,1532.190996,222.061783,9400.615463
105.210451,1225.752797,370.102971,9326.594869
105.210759,1302.362347,296.082377,9474.636058
105.211067,1455.581446,-0.000000,9474.636058
105.211375,1149.143247,-0.000000,9770.718434
105.211683,919.314598,-74.020594,9622.677246
105.211991,919.314598,-0.000000,9622.677246
105.212299,995.924147,-0.000000,9474.636058
105.212607,995.924147,-0.000000,9622.677246
105.212915,919.314598,74.020594,9622.677246
105.213223,1225.752797,-0.000000,9696.697840
105.213532,766.095498,-0.000000,9474.636058
105.213840,1149.143247,222.061783,9696.697840
105.214148,919.314598,222.061783,9400.615463
105.214456,1225.752797,444.123565,9178.553681
105.214764,995.924147,296.082377,9252.574275
105.215072,1149.143247,370.102971,9178.553681
105.215380,995.924147,444.123565,9474.636058
105.215688,612.876398,222.061783,9252.574275
105.215996,766.095498,-0.000000,9474.636058
105.216304,612.876398,-222.061783,9548.656652
105.216612,153.219100,296.082377,9696.697840
105.216920,153.219100,-0.000000,10288.862594
105.217228,0.000000,-296.082377,9992.780217
105.217536,0.000000,-296.082377,9918.759623
105.217844,0.000000,-74.020594,9844.739029
105.218152,0.000000,-74.020594,9770.718434
105.218461,153.219100,-74.020594,9474.636058
105.218769,-153.219100,370.102971,9918.759623
105.219077,-306.438199,370.102971,9548.656652
105.219385,383.047749,296.082377,9104.533087
105.219693,0.000000,740.205942,9548.656652
105.220001,76.609550,518.144159,9474.636058
105.220309,0.000000,518.144159,9696.697840
105.220617,0.000000,148.041188,9548.656652
105.220925,-612.876398,148.041188,9622.677246
105.221233,-383.047749,148.041188,9918.759623
105.221541,-153.219100,444.123565,10288.862594
105.221849,-383.047749,-0.000000,9918.759623
105.222157,-306.438199,296.082377,9844.739029
105.222465,-306.438199,370.102971,9918.759623
105.222773,-306.438199,370.102971,9696.697840
105.223082,-153.219100,-0.000000,9622.677246
105.223390,459.657299,518.144159,9622.677246
105.223698,229.828649,444.123565,9548.656652
105.224006,229.828649,296.082377,9548.656652
105.224314,-229.828649,444.123565,9474.636058
105.224622,-153.219100,370.102971,9918.759623
105.224930,-306.438199,-0.000000,9844.739029
105.225238,-306.438199,-74.020594,9992.780217
105.225546,-153.219100,-444.123565,9992.780217
105.225854,0.000000,-592.164754,9844.739029
105.226162,0.000000,-370.102971,9844.739029
105.226470,0.000000,-370.102971,9696.697840
105.226778,153.219100,-0.000000,9548.656652
105.227086,383.047749,-0.000000,9548.656652
105.227394,536.266849,148.041188,9474.636058
105.227703,536.266849,222.061783,9178.553681
105.228011,536.266849,296.082377,9474.636058
105.228319,689.485948,148.041188,9474.636058
105.228627,383.047749,-370.102971,9622.677246
105.228935,459.657299,-0.000000,9548.656652
105.229243,536.266849,-0.000000,9474.636058
105.229551,919.314598,-0.000000,9326.594869
105.229859,919.314598,148.041188,9474.636058
105.230167,842.705048,222.061783,9326.594869
105.230475,1225.752797,-0.000000,9548.656652
105.230783,1378.971896,-0.000000,9030.512492
105.231091,1455.581446,148.041188,9474.636058
105.231399,1225.752797,-148.041188,9400.615463
105.231707,1072.533697,-0.000000,9474.636058
105.232015,1225.752797,222.061783,9474.636058
105.232323,1072.533697,148.041188,9474.636058
105.232632,1072.533697,222.061783,9548.656652
105.232940,1225.752797,222.061783,9622.677246
105.233248,1455.581446,-0.000000,9622.677246
105.233556,1685.410096,-74.020594,9622.677246
105.233864,995.924147,-0.000000,9844.739029
105.234172,1225.752797,222.061783,9474.636058
105.234480,1225.752797,148.041188,9548.656652
105.234788,1455.581446,444.123565,9622.677246
105.235096,1225.752797,-0.000000,9696.697840
105.235404,995.924147,-0.000000,9474.636058
105.235712,1532.190996,-0.000000,9770.718434
105.236020,766.095498,148.041188,9548.656652
105.236328,1455.581446,-0.000000,9696.697840
105.236636,1302.362347,444.123565,9696.697840
105.236944,1455.581446,148.041188,9548.656652
105.237253,1378.971896,444.123565,9474.636058
105.237561,1608.800546,444.123565,9474.636058
105.237869,1838.629195,444.123565,9474.636058
105.238177,1225.752797,888.247130,9844.739029
105.238485,1762.019645,592.164754,9474.636058
105.238793,1149.143247,592.164754,9844.739029
105.239101,995.924147,296.082377,9622.677246
105.239409,995.924147,222.061783,9548.656652
105.239717,995.924147,370.102971,9696.697840
105.240025,459.657299,222.061783,9696.697840
105.240333,612.876398,148.041188,9696.697840
105.240641,1378.971896,370.102971,9770.718434
105.240949,919.314598,296.082377,9918.759623
105.241257,995.924147,370.102971,9844.739029
105.241565,995.924147,148.041188,9918.759623
105.241874,766.095498,222.061783,9918.759623
105.242182,842.705048,-0.000000,9844.739029
105.242490,842.705048,148.041188,9844.739029
105.242798,612.876398,-0.000000,10066.800811
105.243106,919.314598,222.061783,9770.718434
105.243414,689.485948,740.205942,9918.759623
105.243722,1149.143247,666.185348,9474.636058
105.244030,995.924147,592.164754,9252.574275
105.244338,1149.143247,740.205942,9474.636058
105.244646,1072.533697,814.226536,9104.533087
105.244954,536.266849,666.185348,9326.594869
105.245262,689.485948,518.144159,9326.594869
105.245570,689.485948,666.185348,9770.718434
105.245878,229.828649,296.082377,9918.759623
105.246186,153.219100,-74.020594,9622.677246
105.246494,-229.828649,148.041188,9918.759623
105.246803,0.000000,-74.020594,9992.780217
105.247111,-153.219100,-0.000000,10066.800811
105.247419,-76.609550,-148.041188,9770.718434
105.247727,0.000000,-0.000000,9696.697840
105.248035,76.609550,-0.000000,9992.780217
105.248343,0.000000,-74.020594,9992.780217
105.248651,0.000000,296.082377,9548.656652
105.248959,-229.828649,-0.000000,9474.636058
105.249267,-229.828649,222.061783,9474.636058
105.249575,-383.047749,-148.041188,9548.656652
105.249883,0.000000,-0.000000,9770.718434
105.250191,-459.657299,-0.000000,9770.718434
105.250499,-306.438199,-222.061783,9622.677246
105.250807,0.000000,-74.020594,9548.656652
105.251115,0.000000,74.020594,9548.656652
105.251424,-229.828649,-0.000000,9400.615463
105.251732,-229.828649,444.123565,9178.553681
105.252040,0.000000,296.082377,9252.574275
105.252348,383.047749,296.082377,9326.594869
105.252656,0.000000,-0.000000,9474.636058
105.252964,-229.828649,-0.000000,9474.636058
105.253272,0.000000,-518.144159,9622.677246
105.253580,-536.266849,-222.061783,9622.677246
105.253888,-459.657299,-296.082377,9918.759623
105.254196,-842.705048,-222.061783,9918.759623
105.254504,-306.438199,-148.041188,9918.759623
105.254812,-383.047749,-592.164754,9844.739029
105.255120,0.000000,-296.082377,9844.739029
105.255428,0.000000,-370.102971,9696.697840
105.255736,153.219100,-148.041188,9400.615463
105.256045,306.438199,148.041188,9770.718434
105.256353,536.266849,-0.000000,9400.615463
105.256661,536.266849,592.164754,9548.656652
105.256969,459.657299,296.082377,9474.636058
105.257277,842.705048,148.041188,9030.512492
105.257585,842.705048,-148.041188,9474.636058
105.257893,919.314598,-0.000000,9770.718434
105.258201,1302.362347,-0.000000,9178.553681
105.258509,1072.533697,296.082377,9474.636058
105.258817,995.924147,148.041188,9474.636058
105.259125,1149.143247,148.041188,9548.656652
105.259433,1532.190996,-0.000000,9548.656652
105.259741,1149.143247,-0.000000,9474.636058
105.260049,1532.190996,296.082377,9844.739029
105.260357,1378.971896,-0.000000,9622.677246
105.260665,1532.190996,-0.000000,9918.759623
105.260974,1455.581446,296.082377,9696.697840
105.261282,1378.971896,222.061783,9696.697840
105.261590,1455.581446,222.061783,9622.677246
105.261898,1378.971896,444.123565,9622.677246
105.262206,1838.629195,-0.000000,9622.677246
105.262514,1915.238745,592.164754,9918.759623
105.262822,1991.848295,-0.000000,9696.697840
105.263130,1915.238745,296.082377,9696.697840
105.263438,2068.457845,370.102971,9622.677246
105.263746,1762.019645,370.102971,9548.656652
105.264054,1991.848295,296.082377,9474.636058
105.264362,2145.067394,370.102971,9474.636058
105.264670,2451.505594,-0.000000,9548.656652
105.264978,1685.410096,370.102971,9696.697840
105.265286,2221.676944,518.144159,9622.677246
105.265595,2298.286494,296.082377,9474.636058
105.265903,1915.238745,592.164754,9400.615463
105.266211,1838.629195,666.185348,9400.615463
105.266519,1991.848295,592.164754,9326.594869
105.266827,1685.410096,666.185348,9400.615463
105.267135,1302.362347,592.164754,9696.697840
105.267443,1762.019645,296.082377,9548.656652
105.267751,1838.629195,-0.000000,9770.718434
105.268059,1072.533697,444.123565,9844.739029
105.268367,1149.143247,222.061783,9696.697840
105.268675,766.095498,148.041188,9770.718434
105.268983,842.705048,-0.000000,9918.759623
105.269291,612.876398,-74.020594,9918.759623
105.269599,306.438199,-74.020594,9844.739029
105.269907,995.924147,-0.000000,9548.656652
105.270216,689.485948,444.123565,9770.718434
105.270524,766.095498,-0.000000,9474.636058
105.270832,612.876398,222.061783,9400.615463
105.271140,689.485948,296.082377,9548.656652
105.271448,612.876398,148.041188,9474.636058
105.271756,306.438199,296.082377,9474.636058
105.272064,766.095498,-0.000000,9400.615463
105.272372,459.657299,-0.000000,9474.636058
105.272680,459.657299,370.102971,9548.656652
105.272988,229.828649,592.164754,9622.677246
105.273296,0.000000,-0.000000,9548.656652
105.273604,0.000000,148.041188,9548.656652
105.273912,0.000000,-0.000000,9844.739029
105.274220,0.000000,-0.000000,9844.739029
105.274528,-229.828649,-74.020594,9474.636058
105.274836,-612.876398,-0.000000,9696.697840
105.275145,0.000000,-444.123565,9844.739029
105.275453,-306.438199,-74.020594,9400.615463
105.275761,-306.438199,148.041188,9474.636058
105.276069,-229.828649,222.061783,9548.656652
105.276377,0.000000,370.102971,9474.636058
105.276685,76.609550,296.082377,9548.656652
105.276993,76.609550,148.041188,9770.718434
105.277301,0.000000,370.102971,9326.594869
105.277609,0.000000,222.061783,9696.697840
105.277917,-229.828649,444.123565,10140.821405
105.278225,-459.657299,148.041188,9474.636058
105.278533,-689.485948,222.061783,9548.656652
105.278841,-459.657299,-0.000000,9696.697840
105.279149,-459.657299,-0.000000,9918.759623
105.279457,-306.438199,-0.000000,9622.677246
105.279766,-306.438199,-0.000000,9400.615463
105.280074,-229.828649,296.082377,9474.636058
105.280382,-229.828649,222.061783,9400.615463
105.280690,-383.047749,296.082377,9474.636058
105.280998,0.000000,296.082377,9326.594869
105.281306,0.000000,222.061783,9474.636058
105.281614,-612.876398,-0.000000,9696.697840
105.281922,-306.438199,-444.123565,9844.739029
105.282230,229.828649,-370.102971,9696.697840
105.282538,0.000000,-444.123565,9548.656652
105.282846,-383.047749,-74.020594,9844.739029
105.283154,0.000000,-74.020594,9844.739029
105.283462,0.000000,-222.061783,9696.697840
105.283770,76.609550,-74.020594,9474.636058
105.284078,76.609550,-370.102971,9474.636058
105.284387,689.485948,-74.020594,9400.615463
105.284695,919.314598,296.082377,9326.594869
105.285003,612.876398,-0.000000,9474.636058
105.285311,536.266849,-0.000000,9474.636058
105.285619,842.705048,-0.000000,9474.636058
105.285927,612.876398,-0.000000,9474.636058
105.286235,995.924147,-0.000000,9400.615463
105.286543,1302.362347,-0.000000,9400.615463
105.286851,1072.533697,-0.000000,9474.636058
105.287159,1225.752797,296.082377,9548.656652
105.287467,1378.971896,-0.000000,9474.636058
105.287775,1455.581446,148.041188,9252.574275
105.288083,1608.800546,444.123565,9474.636058
105.288391,1455.581446,296.082377,9548.656652
105.288699,1532.190996,222.061783,9548.656652
105.289007,1378.971896,-0.000000,9474.636058
105.289316,1225.752797,-74.020594,9918.759623
105.289624,1608.800546,148.041188,10066.800811
105.289932,1532.190996,-0.000000,9992.780217
105.290240,1302.362347,370.102971,9992.780217
105.290548,1762.019645,518.144159,9696.697840
105.290856,1991.848295,444.123565,9474.636058
105.291164,1991.848295,592.164754,9474.636058
105.291472,1685.410096,592.164754,9918.759623
105.291780,1762.019645,370.102971,9474.636058
105.292088,1685.410096,370.102971,9474.636058
105.292396,1762.019645,592.164754,9548.656652
105.292704,1838.629195,370.102971,9326.594869
105.293012,1532.190996,148.041188,9622.677246
105.293320,1455.581446,370.102971,9696.697840
105.293628,1608.800546,-0.000000,9696.697840
105.293937,1915.238745,148.041188,9770.718434
105.294245,1302.362347,-0.000000,9696.697840
105.294553,1991.848295,-0.000000,9622.677246
105.294861,1608.800546,592.164754,9696.697840
105.295169,2068.457845,888.247130,9474.636058
105.295477,1685.410096,592.164754,9252.574275
105.295785,1608.800546,592.164754,9622.677246
105.296093,1455.581446,518.144159,9844.739029
105.296401,1455.581446,-74.020594,10066.800811
105.296709,919.314598,148.041188,9992.780217
105.297017,612.876398,-0.000000,10214.842000
105.297325,1149.143247,-148.041188,10362.883188
105.297633,842.705048,222.061783,9992.780217
105.297941,919.314598,370.102971,9696.697840
105.298249,919.314598,592.164754,9696.697840
105.298558,995.924147,370.102971,9474.636058
105.298866,1149.143247,-0.000000,9548.656652
105.299174,1532.190996,518.144159,9770.718434
105.299482,1072.533697,666.185348,9474.636058
105.299790,1149.143247,-0.000000,9474.636058
105.300098,612.876398,296.082377,9696.697840
105.300406,612.876398,370.102971,9696.697840
105.300714,153.219100,296.082377,9548.656652
105.301022,229.828649,148.041188,9474.636058
105.301330,229.828649,-0.000000,9326.594869
105.301639,76.609550,-148.041188,9770.718434
105.301947,383.047749,-222.061783,9622.677246
105.302255,383.047749,-222.061783,9474.636058
105.302563,76.609550,-0.000000,9474.636058
105.302871,0.000000,-0.000000,9622.677246
105.303179,0.000000,-0.000000,9474.636058
105.303488,0.000000,222.061783,9622.677246
105.303796,-536.266849,296.082377,9918.759623
105.304104,-612.876398,-222.061783,9696.697840
105.304412,-229.828649,-296.082377,9400.615463
105.304720,-536.266849,-74.020594,9548.656652
105.305029,-766.095498,-0.000000,9770.718434
105.305337,-842.705048,-0.000000,9622.677246
105.305645,-612.876398,-148.041188,9474.636058
105.305953,-459.657299,-0.000000,9474.636058
105.306261,-536.266849,-0.000000,9548.656652
105.306569,-306.438199,-0.000000,9548.656652
105.306878,-153.219100,-0.000000,9622.677246
105.307186,-383.047749,-222.061783,9622.677246
105.307494,-536.266849,-0.000000,9474.636058
105.307802,-459.657299,-0.000000,9474.636058
105.308110,-689.485948,222.061783,9622.677246
105.308419,-536.266849,-0.000000,9474.636058
105.308727,0.000000,-74.020594,9696.697840
105.309035,-919.314598,-0.000000,9696.697840
105.309343,-229.828649,-0.000000,9918.759623
105.309651,-229.828649,-74.020594,9622.677246
105.309959,-153.219100,-0.000000,9474.636058
105.310268,-383.047749,-0.000000,9696.697840
105.310576,0.000000,296.082377,9622.677246
105.310884,-306.438199,-0.000000,9696.697840
105.311192,76.609550,-0.000000,9696.697840
105.311500,229.828649,-0.000000,9770.718434
105.311808,153.219100,-0.000000,9992.780217
105.312117,153.219100,74.020594,9992.780217
105.312425,229.828649,296.082377,9696.697840
105.312733,383.047749,148.041188,9844.739029
105.313041,383.047749,370.102971,9696.697840
105.313349,536.266849,296.082377,9696.697840
105.313658,1149.143247,296.082377,9622.677246
105.313966,842.705048,296.082377,9622.677246
105.314274,1685.410096,-0.000000,9770.718434
105.314582,919.314598,370.102971,9844.739029
105.314890,1149.143247,222.061783,9696.697840
105.315198,1455.581446,-0.000000,9474.636058
105.315507,1378.971896,296.082377,9474.636058
105.315815,1455.581446,370.102971,9326.594869
105.316123,1838.629195,222.061783,9696.697840
105.316431,1762.019645,296.082377,9696.697840
105.316739,1762.019645,-0.000000,9474.636058
105.317047,1378.971896,148.041188,9696.697840
105.317356,1608.800546,296.082377,9474.636058
105.317664,1762.019645,-0.000000,9474.636058
105.317972,1608.800546,-0.000000,9696.697840
105.318280,1762.019645,-0.000000,9548.656652
105.318588,1685.410096,296.082377,9622.677246
105.318897,1838.629195,222.061783,9548.656652
105.319205,2145.067394,-0.000000,9474.636058
105.319513,2298.286494,296.082377,9696.697840
105.319821,2374.896044,592.164754,9474.636058
105.320129,1915.238745,666.185348,9474.636058
105.320437,2068.457845,592.164754,9474.636058
105.320746,1991.848295,444.123565,9696.697840
105.321054,2145.067394,-0.000000,9474.636058
105.321362,1915.238745,444.123565,9696.697840
105.321670,1378.971896,296.082377,9770.718434
105.321978,1991.848295,444.123565,9548.656652
105.322286,1455.581446,222.061783,9474.636058
105.322595,1532.190996,444.123565,9474.636058
105.322903,1455.581446,296.082377,9548.656652
105.323211,1685.410096,370.102971,9622.677246
105.323519,1378.971896,740.205942,9696.697840
105.323827,2221.676944,518.144159,9474.636058
105.324136,1685.410096,814.226536,9844.739029
105.324444,1225.752797,814.226536,9548.656652
105.324752,1225.752797,444.123565,9474.636058
105.325060,919.314598,296.082377,9696.697840
105.325368,766.095498,444.123565,9696.697840
105.325676,612.876398,-0.000000,9844.739029
105.325985,689.485948,-74.020594,10066.800811
105.326293,153.219100,-74.020594,9992.780217
105.326601,459.657299,-0.000000,10066.800811
105.326909,383.047749,-0.000000,9696.697840
105.327217,459.657299,-0.000000,9696.697840
105.327526,229.828649,296.082377,9622.677246
105.327834,383.047749,296.082377,9548.656652
105.328142,76.609550,-0.000000,9474.636058
105.328450,0.000000,-148.041188,9548.656652
105.328758,383.047749,296.082377,9844.739029
105.329066,0.000000,-0.000000,9696.697840
105.329375,0.000000,-148.041188,9918.759623
105.329683,76.609550,-0.000000,9770.718434
105.329991,76.609550,-0.000000,9474.636058
105.330299,153.219100,148.041188,9474.636058
105.330607,153.219100,-0.000000,9548.656652
105.330915,383.047749,-74.020594,9400.615463
105.331224,153.219100,-0.000000,9474.636058
105.331532,229.828649,296.082377,9474.636058
105.331840,76.609550,222.061783,9400.615463
105.332148,0.000000,592.164754,9400.615463
105.332456,0.000000,222.061783,9474.636058
105.332765,0.000000,148.041188,9622.677246
105.333073,-306.438199,-0.000000,9622.677246
105.333381,-536.266849,-0.000000,10066.800811
105.333689,-612.876398,-0.000000,9844.739029
105.333997,-383.047749,-0.000000,10066.800811
105.334305,-383.047749,-0.000000,10214.842000
105.334614,-153.219100,-0.000000,9696.697840
105.334922,-383.047749,-0.000000,9770.718434
105.335230,-383.047749,-0.000000,9622.677246
105.335538,-536.266849,74.020594,9400.615463
105.335846,-229.828649,-0.000000,9548.656652
105.336154,0.000000,444.123565,9474.636058
105.336463,0.000000,-0.000000,9474.636058
105.336771,-383.047749,296.082377,9178.553681
105.337079,-383.047749,444.123565,9326.594869
105.337387,0.000000,444.123565,9326.594869
105.337695,0.000000,370.102971,9400.615463
105.338004,0.000000,148.041188,9326.594869
105.338312,76.609550,-0.000000,9770.718434
105.338620,153.219100,-0.000000,9844.739029
105.338928,0.000000,-296.082377,9696.697840
105.339236,-153.219100,-0.000000,9622.677246
105.339544,-153.219100,-74.020594,9770.718434
105.339853,0.000000,-74.020594,9696.697840
105.340161,0.000000,-74.020594,9844.739029
105.340469,306.438199,-0.000000,9696.697840
105.340777,383.047749,-148.041188,9400.615463
105.341085,612.876398,-222.061783,9548.656652
105.341393,612.876398,-0.000000,9622.677246
105.341702,689.485948,-0.000000,9696.697840
105.342010,766.095498,148.041188,9474.636058
105.342318,766.095498,148.041188,9548.656652
105.342626,842.705048,-0.000000,9326.594869
105.342934,766.095498,-370.102971,9474.636058
105.343243,1072.533697,-0.000000,9696.697840
105.343551,1149.143247,-0.000000,9844.739029
105.343859,1225.752797,-518.144159,9696.697840
105.344167,1149.143247,-0.000000,9548.656652
105.344475,1532.190996,296.082377,9400.615463
105.344783,1608.800546,370.102971,9474.636058
105.345092,1455.581446,592.164754,9326.594869
105.345400,1991.848295,370.102971,9400.615463
105.345708,1991.848295,-0.000000,9696.697840
105.346016,2068.457845,-0.000000,9400.615463
105.346324,1685.410096,74.020594,9548.656652
105.346633,1455.581446,74.020594,9844.739029
105.346941,1302.362347,-0.000000,9770.718434
105.347249,1455.581446,148.041188,9844.739029
105.347557,1685.410096,296.082377,9696.697840
105.347865,1685.410096,-0.000000,9548.656652
105.348173,1608.800546,444.123565,9548.656652
105.348482,1915.238745,-0.000000,9474.636058
105.348790,2145.067394,518.144159,9548.656652
105.349098,2145.067394,444.123565,9474.636058
105.349406,2068.457845,814.226536,9622.677246
105.349714,2068.457845,518.144159,9474.636058
105.350022,1685.410096,444.123565,9622.677246
105.350331,1608.800546,-0.000000,9622.677246
105.350639,1685.410096,-0.000000,9992.780217
105.350947,1915.238745,74.020594,9918.759623
105.351255,1685.410096,296.082377,9918.759623
105.351563,1455.581446,222.061783,9770.718434
105.351872,1762.019645,444.123565,9622.677246
105.352180,1685.410096,666.185348,9548.656652
105.352488,1608.800546,666.185348,9548.656652
105.352796,1685.410096,814.226536,9474.636058
105.353104,1532.190996,370.102971,9474.636058
105.353412,1455.581446,814.226536,9844.739029
105.353721,1455.581446,296.082377,9622.677246
105.354029,842.705048,296.082377,9696.697840
105.354337,689.485948,222.061783,9770.718434
105.354645,459.657299,296.082377,9770.718434
105.354953,459.657299,148.041188,9992.780217
105.355261,153.219100,-0.000000,10140.821405
105.355570,1072.533697,-0.000000,9770.718434
105.355878,383.047749,-0.000000,9548.656652
105.356186,229.828649,-0.000000,9844.739029
105.356494,229.828649,296.082377,9622.677246
105.356802,153.219100,-0.000000,9474.636058
105.357111,153.219100,-0.000000,9548.656652
105.357419,76.609550,370.102971,9474.636058
105.357727,-153.219100,-0.000000,9326.594869
105.358035,0.000000,-0.000000,9474.636058
105.358343,0.000000,-0.000000,9474.636058
105.358651,536.266849,444.123565,9474.636058
105.358960,153.219100,-0.000000,9326.594869
105.359268,76.609550,-0.000000,9474.636058
105.359576,-229.828649,-0.000000,9548.656652
105.359884,-306.438199,-0.000000,9548.656652
105.360192,-612.876398,-222.061783,9770.718434
105.360500,-459.657299,-0.000000,10140.821405
105.360809,-306.438199,-444.123565,9770.718434
105.361117,-536.266849,-74.020594,9770.718434
105.361425,-306.438199,296.082377,9548.656652
105.361733,-383.047749,-0.000000,9474.636058
105.362041,-306.438199,-0.000000,9474.636058
105.362350,0.000000,-0.000000,9474.636058
105.362658,-459.657299,-0.000000,9474.636058
105.362966,-383.047749,-74.020594,9696.697840
105.363274,-383.047749,-74.020594,9696.697840
105.363582,0.000000,-444.123565,9474.636058
105.363890,-766.095498,-0.000000,9918.759623
105.364199,-612.876398,296.082377,9696.697840
105.364507,-612.876398,-0.000000,9696.697840
105.364815,-536.266849,-0.000000,9696.697840
105.365123,0.000000,-370.102971,9474.636058
105.365431,-306.438199,-0.000000,9400.615463
105.365740,-383.047749,592.164754,9474.636058
105.366048,0.000000,296.082377,9622.677246
105.366356,0.000000,592.164754,9400.615463
105.366664,0.000000,444.123565,9400.615463
105.366972,306.438199,-0.000000,9326.594869
105.367280,0.000000,222.061783,9474.636058
105.367589,0.000000,-74.020594,9548.656652
105.367897,383.047749,-0.000000,9696.697840
105.368205,306.438199,-148.041188,9770.718434
105.368513,0.000000,-222.061783,9548.656652
105.368821,153.219100,-0.000000,9770.718434
105.369129,306.438199,296.082377,9548.656652
105.369438,536.266849,-0.000000,9474.636058
105.369746,919.314598,148.041188,9548.656652
105.370054,612.876398,370.102971,9622.677246
105.370362,689.485948,-0.000000,9992.780217
105.370670,995.924147,-0.000000,9548.656652
105.370979,995.924147,-0.000000,9770.718434
105.371287,919.314598,296.082377,9696.697840
105.371595,919.314598,-0.000000,9696.697840
105.371903,1149.143247,-0.000000,9770.718434
105.372211,1532.190996,222.061783,9548.656652
105.372519,1149.143247,-0.000000,9400.615463
105.372828,2221.676944,148.041188,9326.594869
105.373136,1838.629195,296.082377,9474.636058
105.373444,1455.581446,592.164754,9400.615463
105.373752,1685.410096,370.102971,9474.636058
105.374060,1685.410096,370.102971,9622.677246
105.374368,1915.238745,222.061783,9474.636058
105.374677,1532.190996,888.247130,9696.697840
105.374985,2068.457845,444.123565,9548.656652
105.375293,1915.238745,-0.000000,9474.636058
105.375601,1762.019645,222.061783,9548.656652
105.375909,1915.238745,296.082377,9400.615463
105.376218,1915.238745,222.061783,9400.615463
105.376526,1915.238745,222.061783,9474.636058
105.376834,1991.848295,740.205942,9696.697840
105.377142,1915.238745,518.144159,9400.615463
105.377450,1685.410096,592.164754,9474.636058
105.377758,2145.067394,296.082377,9844.739029
105.378067,1685.410096,370.102971,9696.697840
105.378375,1915.238745,518.144159,9770.718434
105.378683,1455.581446,222.061783,9696.697840
105.378991,1608.800546,222.061783,9918.759623
105.379299,1455.581446,-0.000000,9918.759623
105.379607,1455.581446,148.041188,9918.759623
105.379916,1762.019645,-0.000000,9696.697840
105.380224,1149.143247,370.102971,9622.677246
105.380532,1685.410096,592.164754,9548.656652
105.380840,1532.190996,740.205942,9474.636058
105.381148,1225.752797,666.185348,9474.636058
105.381457,1225.752797,592.164754,9474.636058
105.381765,1225.752797,444.123565,9474.636058
105.382073,919.314598,444.123565,9770.718434
105.382381,689.485948,148.041188,9844.739029
105.382689,383.047749,444.123565,9696.697840
105.382997,612.876398,-0.000000,9918.759623
105.383306,0.000000,-0.000000,9844.739029
105.383614,229.828649,-0.000000,9992.780217
105.383922,229.828649,-0.000000,9918.759623
105.384230,0.000000,-0.000000,9992.780217
105.384538,153.219100,-74.020594,10066.800811
105.384847,306.438199,-518.144159,9770.718434
105.385155,0.000000,222.061783,9474.636058
105.385463,0.000000,148.041188,9622.677246
105.385771,383.047749,296.082377,9474.636058
105.386079,76.609550,370.102971,9474.636058
105.386387,306.438199,370.102971,9252.574275
105.386696,459.657299,296.082377,9326.594869
105.387004,229.828649,-0.000000,9474.636058
105.387312,-459.657299,370.102971,9622.677246
105.387620,-306.438199,-0.000000,9622.677246
105.387928,0.000000,-222.061783,9548.656652
105.388236,0.000000,-296.082377,9696.697840
105.388545,-229.828649,-222.061783,9770.718434
105.388853,-306.438199,-370.102971,9844.739029
105.389161,-459.657299,-370.102971,9992.780217
105.389469,-459.657299,-370.102971,9770.718434
105.389777,0.000000,-296.082377,9622.677246
105.390086,-459.657299,296.082377,9844.739029
105.390394,153.219100,592.164754,9400.615463
105.390702,229.828649,444.123565,9178.553681
105.391010,306.438199,592.164754,9178.553681
105.391318,153.219100,518.144159,9178.553681
105.391626,0.000000,444.123565,9326.594869
105.391935,-459.657299,740.205942,9918.759623
105.392243,0.000000,-296.082377,9770.718434
105.392551,-383.047749,-222.061783,9918.759623
105.392859,-383.047749,-0.000000,9844.739029
105.393167,-383.047749,-222.061783,9622.677246
105.393475,-459.657299,-74.020594,9622.677246
105.393784,-536.266849,-74.020594,9622.677246
105.394092,-383.047749,-0.000000,9474.636058
105.394400,-383.047749,148.041188,9548.656652
105.394708,-689.485948,666.185348,9622.677246
105.395016,689.485948,592.164754,9252.574275
105.395325,0.000000,518.144159,9178.553681
105.395633,153.219100,592.164754,9326.594869
105.395941,459.657299,222.061783,9326.594869
105.396249,-153.219100,-0.000000,9696.697840
105.396557,-306.438199,-222.061783,9844.739029
105.396865,0.000000,-148.041188,9770.718434
105.397174,0.000000,-370.102971,10140.821405
105.397482,-229.828649,-296.082377,9770.718434
105.397790,0.000000,-0.000000,9548.656652
105.398098,229.828649,-74.020594,9622.677246
105.398406,612.876398,222.061783,9474.636058
105.398714,383.047749,-0.000000,9696.697840
105.399023,842.705048,222.061783,9400.615463
105.399331,459.657299,222.061783,9474.636058
105.399639,1149.143247,222.061783,9548.656652
105.399947,1455.581446,-0.000000,9992.780217
105.400255,459.657299,-74.020594,9622.677246
105.400564,842.705048,-0.000000,9770.718434
105.400872,995.924147,-0.000000,9622.677246
105.401180,1072.533697,-0.000000,9400.615463
105.401488,1225.752797,148.041188,9474.636058
105.401796,995.924147,740.205942,9696.697840
105.402104,919.314598,518.144159,9622.677246
105.402413,919.314598,-0.000000,9474.636058
105.402721,1838.629195,-0.000000,9474.636058
105.403029,1762.019645,370.102971,9474.636058
105.403337,1608.800546,518.144159,9474.636058
105.403645,1608.800546,370.102971,9622.677246
105.403953,1685.410096,592.164754,9770.718434
105.404261,1608.800546,148.041188,9696.697840
105.404569,1991.848295,518.144159,9622.677246
105.404877,1991.848295,370.102971,9622.677246
105.405185,2221.676944,-0.000000,9696.697840
105.405493,1762.019645,296.082377,9770.718434
105.405801,1991.848295,296.082377,9548.656652
105.406110,1991.848295,518.144159,9474.636058
105.406418,1991.848295,444.123565,9474.636058
105.406726,1915.238745,592.164754,9992.780217
105.407034,1838.629195,296.082377,9696.697840
105.407342,2068.457845,148.041188,9844.739029
105.407650,1685.410096,148.041188,10066.800811
105.407958,1532.190996,296.082377,9696.697840
105.408266,1532.190996,370.102971,9844.739029
105.408574,1532.190996,518.144159,9770.718434
105.408882,1532.190996,518.144159,9474.636058
105.409190,1608.800546,370.102971,9400.615463
105.409499,1608.800546,666.185348,9474.636058
105.409807,1838.629195,296.082377,9400.615463
105.410115,1455.581446,370.102971,9474.636058
105.410423,1149.143247,518.144159,9622.677246
105.410731,766.095498,444.123565,9696.697840
105.411039,766.095498,222.061783,9918.759623
105.411347,612.876398,222.061783,9548.656652
105.411655,919.314598,-222.061783,9696.697840
105.411963,842.705048,-296.082377,9770.718434
105.412271,612.876398,-0.000000,9696.697840
105.412579,76.609550,-0.000000,9844.739029
105.412887,612.876398,-0.000000,9622.677246
105.413196,229.828649,-0.000000,9548.656652
105.413504,229.828649,296.082377,9696.697840
105.413812,153.219100,-0.000000,9622.677246
105.414120,153.219100,-0.000000,9770.718434
105.414428,306.438199,222.061783,9918.759623
105.414736,-229.828649,222.061783,9770.718434
105.415044,383.047749,-0.000000,9548.656652
105.415352,229.828649,-0.000000,9400.615463
105.415660,0.000000,-0.000000,9178.553681
105.415968,76.609550,222.061783,9326.594869
105.416276,153.219100,296.082377,9252.574275
105.416585,76.609550,-74.020594,9326.594869
105.416893,0.000000,-0.000000,9474.636058
105.417201,0.000000,-0.000000,9030.512492
105.417509,-766.095498,518.144159,9622.677246
105.417817,-383.047749,-0.000000,9622.677246
105.418125,-383.047749,-0.000000,9844.739029
105.418433,-689.485948,-0.000000,9992.780217
105.418741,-919.314598,-0.000000,9992.780217
105.419049,-612.876398,-0.000000,10066.800811
105.419357,-612.876398,-0.000000,9918.759623
105.419665,-229.828649,-0.000000,9844.739029
105.419973,-919.314598,222.061783,9770.718434
105.420282,-612.876398,74.020594,9844.739029
105.420590,-612.876398,148.041188,9548.656652
105.420898,-306.438199,148.041188,9622.677246
105.421206,-536.266849,296.082377,9622.677246
105.421514,-766.095498,-148.041188,9844.739029
105.421822,-229.828649,-0.000000,9844.739029
105.422130,-689.485948,-74.020594,9770.718434
105.422438,-153.219100,-148.041188,9770.718434
105.422746,-536.266849,148.041188,9696.697840
105.423054,0.000000,148.041188,9696.697840
105.423362,-229.828649,296.082377,9474.636058
105.423671,0.000000,296.082377,9400.615463
105.423979,689.485948,-0.000000,8882.471304
105.424287,0.000000,518.144159,9474.636058
105.424595,383.047749,222.061783,9622.677246
105.424903,0.000000,370.102971,9326.594869
105.425211,229.828649,222.061783,9474.636058
105.425519,306.438199,-0.000000,9474.636058
105.425827,153.219100,-74.020594,9696.697840
105.426135,0.000000,-148.041188,9696.697840
105.426443,536.266849,-296.082377,9770.718434
105.426751,689.485948,-0.000000,9844.739029
105.427059,842.705048,-74.020594,9400.615463
105.427368,612.876398,-0.000000,9992.780217
105.427676,995.924147,-0.000000,9548.656652
105.427984,1149.143247,222.061783,9474.636058
105.428292,1225.752797,-0.000000,9400.615463
105.428600,1149.143247,296.082377,9622.677246
105.428908,1378.971896,-0.000000,9696.697840
105.429216,2145.067394,-0.000000,9326.594869
105.429524,1915.238745,370.102971,9400.615463
105.429832,1532.190996,148.041188,8956.491898
105.430140,1915.238745,296.082377,9326.594869
105.430448,2068.457845,370.102971,9326.594869
105.430757,1685.410096,444.123565,9252.574275
105.431065,1915.238745,148.041188,9400.615463
105.431373,1915.238745,296.082377,9696.697840
105.431681,1378.971896,148.041188,9770.718434
105.431989,1915.238745,222.061783,9770.718434
105.432297,1685.410096,444.123565,9992.780217
105.432605,1685.410096,148.041188,9918.759623
105.432913,1762.019645,222.061783,9548.656652
105.433221,1685.410096,518.144159,9474.636058
105.433529,1915.238745,444.123565,9474.636058
105.433837,1915.238745,444.123565,9326.594869
105.434145,2298.286494,370.102971,9474.636058
105.434454,2451.505594,592.164754,9474.636058
105.434762,2145.067394,592.164754,9104.533087
105.435070,1685.410096,592.164754,9622.677246
105.435378,1838.629195,370.102971,9696.697840
105.435686,1455.581446,296.082377,9770.718434
105.435994,1455.581446,222.061783,9918.759623
105.436302,1378.971896,222.061783,10214.842000
105.436610,1072.533697,-0.000000,10066.800811
105.436918,1378.971896,-74.020594,10066.800811
105.437226,1149.143247,370.102971,9622.677246
105.437534,1149.143247,518.144159,9622.677246
105.437843,1378.971896,666.185348,9548.656652
105.438151,1149.143247,666.185348,9400.615463
105.438459,689.485948,592.164754,9178.553681
105.438767,995.924147,222.061783,9326.594869
105.439075,1455.581446,666.185348,9622.677246
105.439383,995.924147,444.123565,9770.718434
105.439691,459.657299,148.041188,9844.739029
105.439999,383.047749,296.082377,9770.718434
105.440307,229.828649,222.061783,9918.759623
105.440615,0.000000,-0.000000,9918.759623
105.440923,306.438199,-0.000000,9844.739029
105.441231,153.219100,-0.000000,10140.821405
105.441540,612.876398,-222.061783,9918.759623
105.441848,383.047749,-222.061783,9696.697840
105.442156,0.000000,444.123565,9548.656652
105.442464,536.266849,-0.000000,9400.615463
105.442772,229.828649,296.082377,9252.574275
105.443080,536.266849,-0.000000,9326.594869
105.443388,0.000000,296.082377,9770.718434
105.443696,459.657299,-0.000000,9178.553681
105.444004,383.047749,-74.020594,9326.594869
105.444312,-612.876398,-74.020594,9474.636058
105.444620,76.609550,-444.123565,9474.636058
105.444929,0.000000,-74.020594,9474.636058
105.445237,0.000000,-148.041188,9474.636058
105.445545,-306.438199,-222.061783,9696.697840
105.445853,-306.438199,-74.020594,9770.718434
105.446161,-229.828649,-296.082377,9474.636058
105.446469,0.000000,222.061783,9622.677246
105.446777,0.000000,-74.020594,9400.615463
105.447085,306.438199,-222.061783,9622.677246
105.447393,0.000000,-0.000000,9622.677246
105.447701,0.000000,-0.000000,9474.636058
105.448009,0.000000,148.041188,9326.594869
105.448317,153.219100,-0.000000,9474.636058
105.448626,0.000000,-222.061783,9548.656652
105.448934,153.219100,-296.082377,9252.574275
105.449242,76.609550,-222.061783,9326.594869
105.449550,-153.219100,-0.000000,9992.780217
105.449858,0.000000,-0.000000,9474.636058
105.450166,0.000000,-0.000000,9474.636058
105.450474,0.000000,148.041188,9696.697840
105.450782,-229.828649,-0.000000,9474.636058
105.451090,-229.828649,-0.000000,9696.697840
105.451398,0.000000,-0.000000,9548.656652
105.451706,536.266849,888.247130,9474.636058
105.452015,0.000000,444.123565,9252.574275
105.452323,229.828649,518.144159,9400.615463
105.452631,0.000000,370.102971,9548.656652
105.452939,0.000000,222.061783,9696.697840
105.453247,0.000000,-0.000000,9770.718434
105.453555,-153.219100,-296.082377,10066.800811
105.453863,-459.657299,-666.185348,10288.862594
105.454171,0.000000,-222.061783,10140.821405
105.454479,0.000000,-296.082377,9844.739029
105.454787,0.000000,-0.000000,9992.780217
105.455095,306.438199,-0.000000,9844.739029
105.455404,459.657299,148.041188,9918.759623
105.455712,995.924147,-222.061783,9474.636058
105.456020,842.705048,-0.000000,9696.697840
105.456328,1532.190996,296.082377,9252.574275
105.456636,766.095498,518.144159,9400.615463
105.456944,919.314598,518.144159,9400.615463
105.457252,995.924147,296.082377,9474.636058
105.457560,1072.533697,148.041188,9474.636058
105.457868,995.924147,296.082377,9474.636058
105.458176,995.924147,-444.123565,9474.636058
105.458484,1302.362347,-222.061783,9548.656652
105.458792,1838.629195,-0.000000,9844.739029
105.459101,1455.581446,-0.000000,9622.677246
105.459409,1532.190996,148.041188,9474.636058
105.459717,1762.019645,370.102971,9548.656652
105.460025,1608.800546,296.082377,9474.636058
105.460333,1378.971896,222.061783,9326.594869
105.460641,1915.238745,222.061783,9548.656652
105.460949,1455.581446,-0.000000,9696.697840
105.461257,1455.581446,-0.000000,9918.759623
105.461565,1685.410096,-74.020594,9992.780217
105.461873,1608.800546,-0.000000,9400.615463
105.462181,1838.629195,148.041188,9474.636058
105.462490,1838.629195,296.082377,9622.677246
105.462798,1915.238745,370.102971,9622.677246
105.463106,2681.334243,-0.000000,9548.656652
105.463414,1762.019645,-0.000000,9474.636058
105.463722,2145.067394,370.102971,9548.656652
105.464030,1915.238745,518.144159,9696.697840
105.464338,1762.019645,370.102971,9622.677246
105.464646,1455.581446,444.123565,9474.636058
105.464954,1608.800546,370.102971,9548.656652
105.465262,1455.581446,296.082377,9474.636058
105.465570,1302.362347,222.061783,9770.718434
105.465878,2068.457845,-0.000000,9918.759623
105.466187,536.266849,592.164754,9770.718434
105.466495,1532.190996,296.082377,9770.718434
105.466803,1302.362347,518.144159,9696.697840
105.467111,1455.581446,666.185348,9474.636058
105.467419,1225.752797,592.164754,9474.636058
105.467727,1378.971896,592.164754,9770.718434
105.468035,766.095498,-0.000000,9918.759623
105.468343,689.485948,-0.000000,9918.759623
105.468651,995.924147,-0.000000,9992.780217
105.468959,766.095498,222.061783,9622.677246
105.469267,459.657299,370.102971,9696.697840
105.469576,536.266849,296.082377,9548.656652
105.469884,689.485948,370.102971,9474.636058
105.470192,842.705048,148.041188,9548.656652
105.470500,689.485948,222.061783,9622.677246
105.470808,766.095498,148.041188,9770.718434
105.471116,229.828649,518.144159,9992.780217
105.471424,689.485948,444.123565,10214.842000
105.471732,306.438199,518.144159,9474.636058
105.472040,306.438199,444.123565,9622.677246
105.472348,76.609550,740.205942,9548.656652
105.472656,76.609550,370.102971,9548.656652
105.472964,0.000000,-0.000000,9400.615463
105.473273,76.609550,-74.020594,9770.718434
105.473581,-229.828649,-0.000000,9548.656652
105.473889,-229.828649,-0.000000,9770.718434
105.474197,-153.219100,-0.000000,9622.677246
105.474505,-383.047749,-148.041188,9548.656652
105.474813,-383.047749,-0.000000,9696.697840
105.475121,-459.657299,-222.061783,9770.718434
105.475429,-306.438199,-74.020594,9844.739029
105.475737,0.000000,-0.000000,9770.718434
105.476045,-306.438199,-222.061783,9548.656652
105.476353,-383.047749,-0.000000,9400.615463
105.476662,-459.657299,296.082377,9622.677246
105.476970,-76.609550,222.061783,9474.636058
105.477278,-536.266849,148.041188,9474.636058
105.477586,-229.828649,-0.000000,9252.574275
105.477894,-459.657299,-222.061783,9252.574275
105.478202,0.000000,-0.000000,8734.430116
105.478510,-536.266849,-222.061783,9548.656652
105.478818,-306.438199,-0.000000,9770.718434
105.479126,-383.047749,-222.061783,9548.656652
105.479434,-766.095498,-74.020594,9696.697840
105.479742,-459.657299,-74.020594,9696.697840
105.480050,-383.047749,-0.000000,9474.636058
105.480359,0.000000,222.061783,9770.718434
105.480667,0.000000,-0.000000,9474.636058
105.480975,383.047749,-74.020594,9400.615463
105.481283,0.000000,148.041188,9696.697840
105.481591,0.000000,-74.020594,9474.636058
105.481899,76.609550,-0.000000,9474.636058
105.482207,0.000000,-0.000000,9474.636058
105.482515,0.000000,-148.041188,9474.636058
105.482823,153.219100,-148.041188,9474.636058
105.483131,76.609550,-74.020594,9770.718434
105.483439,459.657299,-148.041188,9622.677246
105.483748,536.266849,-370.102971,9252.574275
105.484056,612.876398,222.061783,9400.615463
105.484364,919.314598,-0.000000,9474.636058
105.484672,1072.533697,222.061783,9474.636058
105.484980,1302.362347,296.082377,9474.636058
105.485288,842.705048,-0.000000,9400.615463
105.485596,1149.143247,-0.000000,9844.739029
105.485904,842.705048,-0.000000,9770.718434
105.486212,1149.143247,-0.000000,9548.656652
105.486520,1302.362347,296.082377,9622.677246
105.486828,1225.752797,-0.000000,9622.677246
105.487136,1532.190996,370.102971,9696.697840
105.487445,1149.143247,-0.000000,9696.697840
105.487753,1915.238745,222.061783,9548.656652
105.488061,1838.629195,148.041188,9252.574275
105.488369,1532.190996,148.041188,9622.677246
105.488677,1762.019645,592.164754,9474.636058
105.488985,1838.629195,444.123565,9474.636058
105.489293,1838.629195,444.123565,9474.636058
105.489601,2068.457845,370.102971,9622.677246
105.489909,1915.238745,296.082377,9326.594869
105.490217,2374.896044,518.144159,9548.656652
105.490525,2221.676944,518.144159,9326.594869
105.490834,1685.410096,518.144159,9474.636058
105.491142,2145.067394,814.226536,9696.697840
105.491450,2145.067394,888.247130,9474.636058
105.491758,2068.457845,666.185348,9400.615463
105.492066,1915.238745,740.205942,9622.677246
105.492374,2068.457845,222.061783,9918.759623
105.492682,1685.410096,296.082377,10066.800811
105.492990,1685.410096,148.041188,9992.780217
105.493298,1302.362347,222.061783,10584.944971
105.493606,1149.143247,222.061783,10288.862594
105.493914,995.924147,296.082377,10066.800811
105.494222,1225.752797,296.082377,10140.821405
105.494531,1225.752797,370.102971,9622.677246
105.494839,1302.362347,518.144159,9770.718434
105.495147,1378.971896,370.102971,9622.677246
105.495455,1225.752797,296.082377,9474.636058
105.495763,1302.362347,518.144159,9474.636058
105.496071,1149.143247,444.123565,9326.594869
105.496379,1072.533697,518.144159,9252.574275
105.496687,766.095498,444.123565,9474.636058
105.496995,612.876398,296.082377,9400.615463
105.497303,536.266849,-148.041188,9474.636058
105.497611,766.095498,-0.000000,9770.718434
105.497920,0.000000,-74.020594,9622.677246
105.498228,0.000000,-296.082377,9696.697840
105.498536,0.000000,-74.020594,9548.656652
105.498844,0.000000,-0.000000,9622.677246
105.499152,0.000000,-0.000000,9474.636058
105.499460,229.828649,-0.000000,9622.677246
105.499768,153.219100,-0.000000,9474.636058
105.500076,76.609550,-0.000000,9622.677246
105.500384,0.000000,-222.061783,9474.636058
105.500692,229.828649,-296.082377,9622.677246
105.501000,-153.219100,-444.123565,9474.636058
105.501308,-306.438199,-148.041188,9474.636058
105.501617,-229.828649,-148.041188,9622.677246
105.501925,0.000000,-0.000000,9400.615463
105.502233,153.219100,-518.144159,9104.533087
105.502541,383.047749,-222.061783,9400.615463
105.502849,0.000000,-148.041188,9622.677246
105.503157,0.000000,-370.102971,9474.636058
105.503465,0.000000,222.061783,9622.677246
105.503773,0.000000,222.061783,9474.636058
105.504081,0.000000,296.082377,9400.615463
105.504389,0.000000,592.164754,9400.615463
105.504697,306.438199,296.082377,9326.594869
105.505006,-153.219100,592.164754,9474.636058
105.505314,383.047749,444.123565,9400.615463
105.505622,0.000000,296.082377,9548.656652
105.505930,0.000000,222.061783,9696.697840
105.506238,-383.047749,-0.000000,9918.759623
105.506546,-459.657299,-148.041188,9992.780217
105.506854,-536.266849,-222.061783,10066.800811
105.507162,-153.219100,-444.123565,9918.759623
105.507470,0.000000,-0.000000,10140.821405
105.507779,-229.828649,148.041188,9918.759623
105.508087,-306.438199,296.082377,9474.636058
105.508395,0.000000,74.020594,9474.636058
105.508703,229.828649,666.185348,9696.697840
105.509011,229.828649,666.185348,9400.615463
105.509319,612.876398,740.205942,9400.615463
105.509627,0.000000,444.123565,9104.533087
105.509935,459.657299,222.061783,9252.574275
105.510243,459.657299,148.041188,9178.553681
105.510552,536.266849,296.082377,9696.697840
105.510860,306.438199,-0.000000,9548.656652
105.511168,0.000000,-0.000000,9992.780217
105.511476,229.828649,-148.041188,9770.718434
105.511784,153.219100,-148.041188,9918.759623
105.512092,0.000000,-148.041188,9770.718434
105.512400,612.876398,-0.000000,9696.697840
105.512708,919.314598,-0.000000,9770.718434
105.513016,995.924147,-0.000000,9474.636058
105.513325,766.095498,-0.000000,9474.636058
105.513633,842.705048,-0.000000,9548.656652
105.513941,689.485948,-0.000000,9548.656652
105.514249,766.095498,-0.000000,9474.636058
105.514557,995.924147,222.061783,9844.739029
105.514865,1225.752797,-0.000000,9548.656652
105.515173,1532.190996,-370.102971,9474.636058
105.515481,1455.581446,-0.000000,9770.718434
105.515789,1302.362347,-0.000000,9474.636058
105.516098,1302.362347,-0.000000,9400.615463
105.516406,1455.581446,148.041188,9474.636058
105.516714,1302.362347,370.102971,9400.615463
105.517022,1685.410096,296.082377,9252.574275
105.517330,2298.286494,222.061783,9326.594869
105.517638,1915.238745,444.123565,9696.697840
105.517946,1302.362347,222.061783,9326.594869
105.518254,1608.800546,222.061783,9474.636058
105.518562,1608.800546,296.082377,9548.656652
105.518871,1378.971896,296.082377,9622.677246
105.519179,1532.190996,296.082377,9696.697840
105.519487,1302.362347,-0.000000,9548.656652
105.519795,1302.362347,-0.000000,9696.697840
105.520103,1762.019645,-0.000000,9696.697840
105.520411,1608.800546,148.041188,9770.718434
105.520719,1455.581446,-0.000000,9696.697840
105.521027,1762.019645,296.082377,9548.656652
105.521335,1762.019645,296.082377,9548.656652
105.521644,1762.019645,592.164754,9696.697840
105.521952,1532.190996,296.082377,9548.656652
105.522260,1532.190996,222.061783,9918.759623
105.522568,1915.238745,296.082377,9918.759623
105.522876,919.314598,592.164754,9474.636058
105.523184,1302.362347,592.164754,9474.636058
105.523492,1302.362347,370.102971,9474.636058
105.523800,1532.190996,518.144159,9474.636058
105.524108,1532.190996,518.144159,9326.594869
105.524417,1378.971896,592.164754,9770.718434
105.524725,1302.362347,370.102971,9770.718434
105.525033,1378.971896,444.123565,10066.800811
105.525341,1225.752797,444.123565,10066.800811
105.525649,919.314598,370.102971,9770.718434
105.525957,612.876398,444.123565,10066.800811
105.526265,459.657299,222.061783,9844.739029
105.526573,383.047749,-0.000000,9844.739029
105.526881,689.485948,-0.000000,9622.677246
105.527190,459.657299,296.082377,10140.821405
105.527498,689.485948,222.061783,9918.759623
105.527806,766.095498,740.205942,9992.780217
105.528114,229.828649,296.082377,9770.718434
105.528422,459.657299,148.041188,9622.677246
105.528730,229.828649,222.061783,9770.718434
105.529038,229.828649,148.041188,9696.697840
105.529346,-153.219100,148.041188,9844.739029
105.529654,-153.219100,-0.000000,9474.636058
105.529963,459.657299,222.061783,9622.677246
105.530271,76.609550,148.041188,9696.697840
105.530579,383.047749,370.102971,9400.615463
105.530887,306.438199,-0.000000,9326.594869
105.531195,153.219100,-0.000000,9400.615463
105.531503,76.609550,-0.000000,9474.636058
105.531811,229.828649,-148.041188,9252.574275
105.532119,0.000000,-148.041188,9474.636058
105.532427,0.000000,-148.041188,9696.697840
105.532736,-766.095498,-444.123565,9696.697840
105.533044,-229.828649,-74.020594,9474.636058
105.533352,0.000000,-148.041188,9548.656652
105.533660,-459.657299,-0.000000,9474.636058
105.533968,-383.047749,148.041188,9474.636058
105.534276,-842.705048,-0.000000,9474.636058
105.534584,76.609550,-0.000000,9474.636058
105.534892,0.000000,-222.061783,9474.636058
105.535200,-536.266849,-222.061783,9252.574275
105.535509,-689.485948,-222.061783,9548.656652
105.535817,-536.266849,-148.041188,9548.656652
105.536125,-536.266849,-222.061783,9696.697840
105.536433,-995.924147,-0.000000,9548.656652
105.536741,-306.438199,-148.041188,9844.739029
105.537049,-229.828649,-370.102971,9770.718434
105.537357,0.000000,-222.061783,9474.636058
105.537665,76.609550,-0.000000,9326.594869
105.537973,229.828649,296.082377,9400.615463
105.538282,229.828649,296.082377,9104.533087
105.538590,536.266849,296.082377,9030.512492
105.538898,383.047749,222.061783,9252.574275
105.539206,153.219100,-0.000000,9400.615463
105.539514,229.828649,-0.000000,9474.636058
105.539822,306.438199,-0.000000,9548.656652
105.540130,0.000000,-296.082377,9992.780217
105.540438,-153.219100,-148.041188,9844.739029
105.540746,76.609550,-74.020594,9770.718434
105.541055,229.828649,-148.041188,9770.718434
105.541363,459.657299,-0.000000,9844.739029
105.541671,612.876398,-0.000000,9918.759623
105.541979,995.924147,370.102971,10214.842000
105.542287,1608.800546,-0.000000,9770.718434
105.542595,1072.533697,-0.000000,9548.656652
105.542903,1302.362347,444.123565,9548.656652
105.543211,1455.581446,444.123565,9622.677246
105.543519,1378.971896,444.123565,9474.636058
105.543828,1302.362347,444.123565,9622.677246
105.544136,1378.971896,592.164754,9770.718434
105.544444,1685.410096,148.041188,9622.677246
105.544752,1532.190996,148.041188,9622.677246
105.545060,1608.800546,222.061783,9326.594869
105.545368,1685.410096,370.102971,9844.739029
105.545676,1685.410096,518.144159,9696.697840
105.545984,1838.629195,592.164754,9622.677246
105.546292,2068.457845,592.164754,9696.697840
105.546600,1991.848295,518.144159,9400.615463
105.546909,2145.067394,592.164754,9474.636058
105.547217,2145.067394,666.185348,9992.780217
105.547525,1762.019645,296.082377,9622.677246
105.547833,1685.410096,592.164754,9696.697840
105.548141,1838.629195,444.123565,9770.718434
105.548449,1838.629195,444.123565,9770.718434
105.548757,1685.410096,518.144159,9548.656652
105.549065,1915.238745,296.082377,9844.739029
105.549373,1838.629195,-0.000000,9844.739029
105.549682,1455.581446,-0.000000,9770.718434
105.549990,1838.629195,592.164754,9844.739029
105.550298,1455.581446,296.082377,9770.718434
105.550606,1378.971896,296.082377,9696.697840
105.550914,1685.410096,444.123565,9622.677246
105.551222,1838.629195,296.082377,9474.636058
105.551530,1762.019645,148.041188,9696.697840
105.551838,1532.190996,814.226536,9696.697840
105.552146,1455.581446,370.102971,9474.636058
105.552455,1072.533697,370.102971,9400.615463
105.552763,995.924147,444.123565,9326.594869
105.553071,919.314598,370.102971,9474.636058
105.553379,612.876398,296.082377,9252.574275
105.553687,919.314598,222.061783,9696.697840
105.553995,459.657299,-74.020594,9622.677246
105.554303,842.705048,148.041188,10066.800811
105.554611,0.000000,-222.061783,9770.718434
105.554919,229.828649,148.041188,9844.739029
105.555228,229.828649,-0.000000,9770.718434
105.555536,0.000000,-0.000000,9400.615463
105.555844,229.828649,-0.000000,9696.697840
105.556152,459.657299,-0.000000,9474.636058
105.556460,76.609550,-74.020594,9474.636058
105.556768,0.000000,-74.020594,9548.656652
105.557076,-306.438199,-0.000000,9326.594869
105.557384,153.219100,-74.020594,9400.615463
105.557692,76.609550,148.041188,9252.574275
105.558001,306.438199,74.020594,9326.594869
105.558309,0.000000,-0.000000,9474.636058
105.558617,383.047749,-0.000000,9252.574275
105.558925,153.219100,222.061783,9548.656652
105.559233,229.828649,-0.000000,9474.636058
105.559541,-459.657299,-296.082377,9474.636058
105.559849,-383.047749,-148.041188,9474.636058
105.560157,-383.047749,-74.020594,9696.697840
105.560465,-306.438199,-148.041188,9770.718434
105.560774,-536.266849,-0.000000,9770.718434
105.561082,-459.657299,-0.000000,10214.842000
105.561390,-229.828649,-148.041188,9918.759623
105.561698,0.000000,-148.041188,9918.759623
105.562006,-306.438199,-0.000000,9844.739029
105.562314,0.000000,222.061783,9696.697840
105.562622,0.000000,370.102971,9548.656652
105.562930,0.000000,444.123565,9474.636058
105.563238,229.828649,666.185348,9474.636058
105.563547,306.438199,370.102971,9770.718434
105.563855,0.000000,-0.000000,9400.615463
105.564163,-153.219100,-0.000000,9770.718434
105.564471,306.438199,148.041188,9992.780217
105.564779,0.000000,296.082377,9844.739029
105.565087,0.000000,-0.000000,9844.739029
105.565395,0.000000,370.102971,9770.718434
105.565703,0.000000,296.082377,9548.656652
105.566011,383.047749,-0.000000,9252.574275
105.566320,-76.609550,222.061783,9474.636058
105.566628,0.000000,740.205942,9918.759623
105.566936,459.657299,592.164754,9696.697840
105.567244,229.828649,666.185348,9474.636058
105.567552,229.828649,296.082377,9622.677246
105.567860,76.609550,222.061783,9696.697840
105.568168,0.000000,-0.000000,9992.780217
105.568476,0.000000,-74.020594,10066.800811
105.568784,0.000000,-222.061783,10066.800811
105.569093,0.000000,-296.082377,9992.780217
105.569401,459.657299,-370.102971,9548.656652
105.569709,536.266849,-0.000000,9770.718434
105.570017,766.095498,-74.020594,9696.697840
105.570325,919.314598,222.061783,9474.636058
105.570633,995.924147,518.144159,9474.636058
105.570941,1455.581446,296.082377,9252.574275
105.571249,1685.410096,518.144159,9326.594869
105.571557,1532.190996,296.082377,9400.615463
105.571866,995.924147,296.082377,9252.574275
105.572174,1072.533697,-0.000000,9400.615463
105.572482,919.314598,-148.041188,9474.636058
105.572790,1072.533697,-0.000000,9474.636058
105.573098,1378.971896,-0.000000,9474.636058
105.573406,1838.629195,-0.000000,9622.677246
105.573714,1838.629195,148.041188,9400.615463
105.574022,1225.752797,444.123565,9548.656652
105.574330,1685.410096,74.020594,9474.636058
105.574639,1302.362347,-0.000000,9326.594869
105.574947,1378.971896,-0.000000,9696.697840
105.575255,1302.362347,370.102971,9844.739029
105.575563,1302.362347,-0.000000,9696.697840
105.575871,1838.629195,148.041188,9770.718434
105.576179,1455.581446,148.041188,9696.697840
105.576487,1608.800546,148.041188,9548.656652
105.576795,1838.629195,296.082377,9326.594869
105.577103,1608.800546,296.082377,9548.656652
105.577412,1685.410096,296.082377,9474.636058
105.577720,1838.629195,370.102971,9474.636058
105.578028,1225.752797,296.082377,9622.677246
105.578336,1302.362347,518.144159,9548.656652
105.578644,2068.457845,296.082377,9844.739029
105.578952,1838.629195,370.102971,9696.697840
105.579260,1455.581446,444.123565,9622.677246
105.579568,1225.752797,296.082377,9548.656652
105.579876,1149.143247,666.185348,9918.759623
105.580185,1532.190996,518.144159,9696.697840
105.580493,1302.362347,370.102971,9548.656652
105.580801,1302.362347,296.082377,9622.677246
105.581109,995.924147,222.061783,9770.718434
105.581417,1072.533697,444.123565,9622.677246
105.581725,1149.143247,666.185348,9474.636058
105.582033,919.314598,370.102971,9770.718434
105.582341,995.924147,444.123565,9844.739029
105.582649,689.485948,296.082377,9844.739029
105.582958,612.876398,-0.000000,9844.739029
105.583266,995.924147,370.102971,9918.759623
105.583574,1225.752797,-148.041188,9770.718434
105.583882,919.314598,148.041188,9622.677246
105.584190,536.266849,370.102971,9622.677246
105.584498,689.485948,370.102971,9474.636058
105.584806,766.095498,148.041188,9548.656652
105.585114,229.828649,-0.000000,9548.656652
105.585422,612.876398,-370.102971,9474.636058
105.585731,0.000000,-74.020594,9696.697840
105.586039,229.828649,-0.000000,9770.718434
105.586347,459.657299,-0.000000,9770.718434
105.586655,153.219100,222.061783,9844.739029
105.586963,153.219100,296.082377,9474.636058
105.587271,459.657299,370.102971,9474.636058
105.587579,306.438199,296.082377,9400.615463
105.587887,229.828649,370.102971,9030.512492
105.588195,919.314598,-0.000000,9400.615463
105.588504,0.000000,222.061783,9178.553681
105.588812,-306.438199,-74.020594,9252.574275
105.589120,-306.438199,-0.000000,9474.636058
105.589428,-459.657299,-0.000000,9770.718434
105.589736,-612.876398,-222.061783,9622.677246
105.590044,-766.095498,-296.082377,9992.780217
105.590352,-919.314598,-222.061783,9918.759623
105.590660,-536.266849,-296.082377,9918.759623
105.590968,-995.924147,-222.061783,10214.842000
105.591276,-842.705048,-370.102971,9844.739029
105.591585,-153.219100,-74.020594,9548.656652
105.591893,-383.047749,-148.041188,9474.636058
105.592201,-459.657299,-0.000000,9474.636058
105.592509,-306.438199,-0.000000,9400.615463
105.592817,0.000000,-0.000000,9252.574275
105.593125,0.000000,222.061783,9474.636058
105.593433,383.047749,-444.123565,9178.553681
105.593741,-383.047749,-74.020594,9400.615463
105.594049,-306.438199,148.041188,9326.594869
105.594358,0.000000,-0.000000,9548.656652
105.594666,0.000000,148.041188,9548.656652
105.594974,153.219100,222.061783,9400.615463
105.595282,612.876398,148.041188,9474.636058
105.595590,0.000000,-74.020594,9474.636058
105.595898,306.438199,444.123565,9622.677246
105.596206,536.266849,-222.061783,9622.677246
105.596514,76.609550,-0.000000,9548.656652
105.596822,306.438199,-0.000000,9474.636058
105.597131,229.828649,-0.000000,9844.739029
105.597439,459.657299,-0.000000,9770.718434
105.597747,612.876398,-148.041188,9548.656652
105.598055,995.924147,-0.000000,9844.739029
105.598363,612.876398,-0.000000,10066.800811
105.598671,766.095498,222.061783,9992.780217
105.598979,842.705048,-0.000000,9548.656652
105.599287,1149.143247,296.082377,9548.656652
105.599595,1072.533697,444.123565,9474.636058
105.599904,1378.971896,444.123565,9622.677246
105.600212,1532.190996,296.082377,9548.656652
105.600520,1302.362347,444.123565,9474.636058
105.600828,1378.971896,666.185348,9474.636058
105.601136,1225.752797,-0.000000,9474.636058
105.601444,1608.800546,518.144159,9400.615463
105.601752,1685.410096,370.102971,9326.594869
105.602060,1378.971896,370.102971,9474.636058
105.602368,1455.581446,444.123565,9696.697840
105.602671,1072.533697,296.082377,10066.800811
105.602979,1455.581446,370.102971,10288.862594
105.603287,995.924147,296.082377,9918.759623
105.603595,1838.629195,-0.000000,9770.718434
105.603902,1302.362347,296.082377,9770.718434
105.604210,1685.410096,148.041188,9844.739029
105.604518,1608.800546,370.102971,9548.656652
105.604826,1685.410096,370.102971,9622.677246
105.605134,1685.410096,370.102971,9622.677246
105.605442,1838.629195,666.185348,9548.656652
105.605750,919.314598,518.144159,9326.594869
105.606058,2298.286494,296.082377,9474.636058
105.606366,1991.848295,592.164754,9326.594869
105.606674,1762.019645,444.123565,9548.656652
105.606982,1532.190996,444.123565,9696.697840
105.607290,1532.190996,222.061783,9918.759623
105.607598,1608.800546,-0.000000,9844.739029
105.607906,1302.362347,-0.000000,9992.780217
105.608213,1378.971896,296.082377,9770.718434
105.608521,1149.143247,296.082377,9622.677246
105.608829,1302.362347,444.123565,9474.636058
105.609137,1225.752797,666.185348,9548.656652
105.609445,1378.971896,370.102971,9400.615463
105.609753,1072.533697,518.144159,9474.636058
105.610061,1225.752797,518.144159,9622.677246
105.610369,1149.143247,-0.000000,9696.697840
105.610677,766.095498,-0.000000,9548.656652
105.610985,612.876398,-0.000000,9992.780217
105.611293,306.438199,-0.000000,9696.697840
105.611601,536.266849,296.082377,9844.739029
105.611909,306.438199,-0.000000,9844.739029
105.612216,76.609550,-0.000000,9696.697840
105.612524,229.828649,-0.000000,9844.739029
105.612832,612.876398,-74.020594,9770.718434
105.613140,306.438199,-0.000000,9474.636058
105.613448,306.438199,-0.000000,9474.636058
105.613756,229.828649,-0.000000,9474.636058
105.614064,229.828649,-0.000000,9326.594869
105.614372,229.828649,296.082377,9474.636058
105.614680,229.828649,-0.000000,9474.636058
105.614988,612.876398,-0.000000,9622.677246
105.615296,153.219100,-0.000000,9770.718434
105.615604,-229.828649,-0.000000,9770.718434
105.615912,229.828649,-74.020594,9400.615463
105.616220,153.219100,296.082377,9474.636058
105.616527,76.609550,222.061783,9400.615463
105.616835,0.000000,148.041188,9400.615463
105.617143,-153.219100,-0.000000,9622.677246
105.617451,0.000000,-0.000000,9992.780217
105.617759,-306.438199,-222.061783,10140.821405
105.618067,0.000000,-296.082377,9844.739029
105.618375,-153.219100,-0.000000,9992.780217
105.618683,0.000000,-0.000000,9770.718434
105.618991,0.000000,148.041188,9770.718434
105.619299,-153.219100,222.061783,9696.697840
105.619607,0.000000,296.082377,9474.636058
105.619915,0.000000,-0.000000,9548.656652
105.620223,383.047749,148.041188,9622.677246
105.620531,459.657299,148.041188,9474.636058
105.620838,0.000000,296.082377,9400.615463
105.621146,229.828649,370.102971,9326.594869
105.621454,153.219100,148.041188,9474.636058
105.621762,76.609550,296.082377,9696.697840
105.622070,0.000000,296.082377,9474.636058
105.622378,-459.657299,-0.000000,9474.636058
105.622686,153.219100,296.082377,9770.718434
105.622994,-153.219100,296.082377,9696.697840
105.623302,153.219100,-0.000000,9696.697840
105.623610,383.047749,518.144159,9622.677246
105.623918,306.438199,296.082377,9400.615463
105.624226,153.219100,222.061783,9622.677246
105.624534,76.609550,-0.000000,9622.677246
105.624842,0.000000,-74.020594,9474.636058
105.625149,229.828649,-148.041188,9696.697840
105.625457,153.219100,-74.020594,10066.800811
105.625765,0.000000,-74.020594,10140.821405
105.626073,229.828649,-0.000000,9992.780217
105.626381,229.828649,-0.000000,9770.718434
105.626689,383.047749,-148.041188,9696.697840
105.626997,306.438199,-0.000000,9548.656652
105.627305,536.266849,-222.061783,9548.656652
105.627613,766.095498,-148.041188,9474.636058
105.627921,459.657299,-0.000000,9474.636058
105.628229,1225.752797,-0.000000,9326.594869
105.628537,995.924147,296.082377,9326.594869
105.628845,842.705048,370.102971,9326.594869
105.629153,842.705048,296.082377,9400.615463
105.629460,995.924147,296.082377,9474.636058
105.629768,1072.533697,-0.000000,9474.636058
105.630076,1072.533697,-0.000000,9696.697840
105.630384,995.924147,-0.000000,9474.636058
105.630692,919.314598,-148.041188,9474.636058
105.631000,1072.533697,-0.000000,9622.677246
105.631308,1149.143247,-0.000000,9622.677246
105.631616,1149.143247,148.041188,9696.697840
105.631924,1072.533697,296.082377,9622.677246
105.632232,1302.362347,-0.000000,9918.759623
105.632540,1302.362347,-0.000000,9696.697840
105.632848,1685.410096,-0.000000,9918.759623
105.633156,1608.800546,148.041188,9474.636058
105.633463,1608.800546,370.102971,9474.636058
105.633771,1685.410096,370.102971,9474.636058
105.634079,1532.190996,666.185348,9696.697840
105.634387,1838.629195,592.164754,9326.594869
105.634695,1915.238745,592.164754,9548.656652
105.635003,1991.848295,592.164754,9622.677246
105.635311,2068.457845,444.123565,9474.636058
105.635619,1762.019645,592.164754,9844.739029
105.635927,1762.019645,370.102971,9696.697840
105.636235,1302.362347,370.102971,9622.677246
105.636543,1302.362347,444.123565,9696.697840
105.636851,1378.971896,296.082377,9918.759623
105.637159,1378.971896,444.123565,10362.883188
105.637467,1532.190996,-0.000000,9844.739029
105.637774,1532.190996,666.185348,9474.636058
105.638082,1072.533697,666.185348,9474.636058
105.638390,1378.971896,740.205942,9252.574275
105.638698,1762.019645,814.226536,9474.636058
105.639006,1532.190996,666.185348,9474.636058
105.639314,1072.533697,444.123565,9622.677246
105.639622,842.705048,370.102971,9770.718434
105.639930,1225.752797,370.102971,9992.780217
105.640238,842.705048,-0.000000,9696.697840
105.640546,689.485948,370.102971,9474.636058
105.640854,536.266849,296.082377,9548.656652
105.641162,459.657299,222.061783,9622.677246
105.641470,383.047749,370.102971,9696.697840
105.641778,766.095498,296.082377,9770.718434
105.642085,536.266849,-0.000000,9844.739029
105.642393,459.657299,-0.000000,9548.656652
105.642701,383.047749,-592.164754,9474.636058
105.643009,153.219100,-0.000000,9622.677246
105.643317,0.000000,-0.000000,9918.759623
105.643625,0.000000,-0.000000,9696.697840
105.643933,-306.438199,-0.000000,9474.636058
105.644241,76.609550,222.061783,9474.636058
105.644549,153.219100,-0.000000,9252.574275
105.644857,0.000000,-0.000000,9326.594869
105.645165,229.828649,-0.000000,9400.615463
105.645473,-153.219100,-74.020594,9474.636058
105.645781,-306.438199,-222.061783,9548.656652
105.646089,-612.876398,-74.020594,9696.697840
105.646396,-612.876398,-74.020594,9696.697840
105.646704,0.000000,-148.041188,9548.656652
105.647012,-153.219100,-148.041188,9696.697840
105.647320,-766.095498,-222.061783,9400.615463
105.647628,0.000000,-0.000000,9844.739029
105.647936,-766.095498,-74.020594,9548.656652
105.648244,-383.047749,-148.041188,9548.656652
105.648552,-383.047749,-0.000000,9548.656652
105.648860,-383.047749,148.041188,9474.636058
105.649168,-459.657299,-222.061783,9474.636058
105.649476,-306.438199,-296.082377,9622.677246
105.649784,-229.828649,-370.102971,9400.615463
105.650092,-383.047749,-0.000000,9622.677246
105.650399,-383.047749,-0.000000,9400.615463
105.650707,0.000000,222.061783,9400.615463
105.651015,0.000000,296.082377,9548.656652
105.651323,-153.219100,444.123565,9474.636058
105.651631,229.828649,518.144159,9400.615463
105.651939,459.657299,222.061783,9474.636058
105.652247,459.657299,-0.000000,9696.697840
105.652555,0.000000,-0.000000,9622.677246
105.652863,229.828649,222.061783,9474.636058
105.653171,229.828649,296.082377,9696.697840
105.653479,153.219100,-0.000000,9696.697840
105.653787,0.000000,-222.061783,9622.677246
105.654095,536.266849,-296.082377,10140.821405
105.654403,536.266849,-74.020594,9770.718434
105.654710,306.438199,-74.020594,9622.677246
105.655018,919.314598,296.082377,10066.800811
105.655326,919.314598,296.082377,9474.636058
105.655634,1149.143247,296.082377,9474.636058
105.655942,1072.533697,370.102971,9474.636058
105.656250,1225.752797,370.102971,9474.636058
105.656558,1455.581446,148.041188,9474.636058
105.656866,1302.362347,148.041188,9474.636058
105.657174,1608.800546,296.082377,9918.759623
105.657482,1378.971896,296.082377,9770.718434
105.657790,1532.190996,222.061783,9178.553681
105.658098,1455.581446,-0.000000,9400.615463
105.658406,1608.800546,444.123565,9474.636058
105.658714,1685.410096,370.102971,9548.656652
105.659021,1685.410096,74.020594,9696.697840
105.659329,2068.457845,148.041188,9474.636058
105.659637,1608.800546,296.082377,9844.739029
105.659945,1378.971896,444.123565,9844.739029
105.660253,1685.410096,518.144159,9474.636058
105.660561,1685.410096,-0.000000,9622.677246
105.660869,1378.971896,296.082377,9844.739029
105.661177,1455.581446,-0.000000,9770.718434
105.661485,1532.190996,370.102971,9992.780217
105.661793,1685.410096,148.041188,9844.739029
105.662101,1608.800546,-74.020594,9178.553681
105.662409,1762.019645,370.102971,9548.656652
105.662717,1838.629195,444.123565,9474.636058
105.663025,1762.019645,814.226536,9474.636058
105.663332,1685.410096,444.123565,9474.636058
105.663640,1608.800546,592.164754,9474.636058
105.663948,1302.362347,-0.000000,9400.615463
105.664256,1072.533697,296.082377,9992.780217
105.664564,1225.752797,370.102971,9622.677246
105.664872,1072.533697,-0.000000,9622.677246
105.665180,995.924147,296.082377,9770.718434
105.665488,1225.752797,-0.000000,9770.718434
105.665796,995.924147,444.123565,9844.739029
105.666104,842.705048,296.082377,9622.677246
105.666412,919.314598,-0.000000,9918.759623
105.666720,689.485948,296.082377,9844.739029
105.667028,919.314598,222.061783,9474.636058
105.667336,1072.533697,148.041188,9548.656652
105.667643,919.314598,370.102971,9474.636058
105.667951,612.876398,296.082377,9474.636058
105.668259,689.485948,222.061783,9696.697840
105.668567,153.219100,-0.000000,9548.656652
105.668875,383.047749,-0.000000,9770.718434
105.669183,229.828649,-0.000000,10066.800811
105.669491,153.219100,-222.061783,9474.636058
105.669799,306.438199,-0.000000,9770.718434
105.670107,229.828649,-0.000000,9622.677246
105.670415,229.828649,-0.000000,9548.656652
105.670723,229.828649,148.041188,9696.697840
105.671031,229.828649,-0.000000,9548.656652
105.671339,-153.219100,-148.041188,9548.656652
105.671646,766.095498,-0.000000,9548.656652
105.671954,919.314598,296.082377,9326.594869
105.672262,229.828649,296.082377,9548.656652
105.672570,0.000000,222.061783,9474.636058
105.672878,229.828649,296.082377,9474.636058
105.673186,383.047749,-0.000000,9474.636058
105.673494,459.657299,222.061783,9474.636058
105.673802,0.000000,-74.020594,9474.636058
105.674110,229.828649,-74.020594,9770.718434
105.674418,229.828649,-0.000000,9992.780217
105.674726,153.219100,-0.000000,9696.697840
105.675034,0.000000,-0.000000,9326.594869
105.675342,229.828649,-0.000000,9474.636058
105.675650,0.000000,296.082377,9548.656652
105.675957,76.609550,-74.020594,9548.656652
105.676265,536.266849,-0.000000,9400.615463
105.676573,76.609550,370.102971,9474.636058
105.676881,153.219100,-0.000000,9622.677246
105.677189,229.828649,148.041188,9548.656652
105.677497,153.219100,444.123565,9548.656652
105.677805,0.000000,222.061783,9474.636058
105.678113,0.000000,148.041188,9992.780217
105.678421,0.000000,370.102971,10288.862594
105.678729,0.000000,-0.000000,9696.697840
105.679037,0.000000,-296.082377,9770.718434
105.679345,0.000000,-0.000000,9696.697840
105.679653,0.000000,444.123565,9622.677246
105.679961,0.000000,444.123565,9474.636058
105.680268,0.000000,592.164754,9326.594869
105.680576,153.219100,518.144159,9474.636058
105.680884,459.657299,148.041188,9474.636058
105.681192,0.000000,296.082377,9474.636058
105.681500,153.219100,148.041188,9770.718434
105.681808,-612.876398,148.041188,9696.697840
105.682116,76.609550,-148.041188,9844.739029
105.682424,0.000000,-222.061783,9992.780217
105.682732,-76.609550,-148.041188,9770.718434
105.683040,0.000000,-370.102971,9696.697840
105.683348,153.219100,-74.020594,9622.677246
105.683656,229.828649,-74.020594,9474.636058
105.683964,383.047749,-370.102971,9548.656652
105.684272,383.047749,-0.000000,9844.739029
105.684579,919.314598,-0.000000,9252.574275
105.684887,459.657299,-0.000000,9252.574275
105.685195,766.095498,-0.000000,9326.594869
105.685503,842.705048,-0.000000,9400.615463
105.685811,919.314598,-148.041188,9696.697840
105.686119,1455.581446,-0.000000,9770.718434
105.686427,536.266849,-0.000000,9770.718434
105.686735,1225.752797,-0.000000,9696.697840
105.687043,1302.362347,-148.041188,9474.636058
105.687351,1378.971896,-0.000000,9622.677246
105.687659,1302.362347,222.061783,9474.636058
105.687967,1302.362347,444.123565,9474.636058
105.688275,1685.410096,-0.000000,9474.636058
105.688582,1378.971896,-148.041188,9548.656652
105.688890,1455.581446,-0.000000,9474.636058
105.689198,1072.533697,148.041188,9252.574275
105.689506,1455.581446,-0.000000,9622.677246
105.689814,1378.971896,222.061783,9548.656652
105.690122,1302.362347,148.041188,9696.697840
105.690430,1455.581446,370.102971,9696.697840
105.690738,1608.800546,148.041188,9918.759623
105.691046,2068.457845,444.123565,9696.697840
105.691354,2374.896044,148.041188,9548.656652
105.691662,1915.238745,296.082377,9252.574275
105.691970,1991.848295,592.164754,9474.636058
105.692278,1915.238745,592.164754,9696.697840
105.692586,1532.190996,370.102971,9474.636058
105.692893,1685.410096,592.164754,9474.636058
105.693201,1685.410096,518.144159,9696.697840
105.693509,1608.800546,296.082377,9770.718434
105.693817,2068.457845,444.123565,9622.677246
105.694125,1455.581446,518.144159,9918.759623
105.694433,1455.581446,666.185348,9474.636058
105.694741,1762.019645,592.164754,9696.697840
105.695049,1608.800546,814.226536,9548.656652
105.695357,1455.581446,666.185348,9474.636058
105.695665,919.314598,888.247130,9992.780217
105.695973,1302.362347,222.061783,9918.759623
105.696281,612.876398,518.144159,10066.800811
105.696589,76.609550,518.144159,9992.780217
105.696897,612.876398,296.082377,9918.759623
105.697204,536.266849,296.082377,10140.821405
105.697512,612.876398,-0.000000,9770.718434
105.697820,536.266849,222.061783,9770.718434
105.698128,459.657299,222.061783,9844.739029
105.698436,536.266849,518.144159,9696.697840
105.698744,612.876398,-74.020594,9474.636058
105.699052,383.047749,222.061783,9622.677246
105.699360,383.047749,370.102971,9400.615463
105.699668,229.828649,296.082377,9326.594869
105.699976,229.828649,-0.000000,9474.636058
105.700284,0.000000,74.020594,9696.697840
105.700592,0.000000,-0.000000,9992.780217
105.700900,-229.828649,-148.041188,9548.656652
105.701208,0.000000,-296.082377,8882.471304
105.701515,-229.828649,-0.000000,9622.677246
105.701823,-229.828649,-74.020594,9548.656652
105.702131,0.000000,-0.000000,9400.615463
105.702439,-229.828649,-0.000000,9400.615463
105.702747,-306.438199,-0.000000,9474.636058
105.703055,-383.047749,-222.061783,9474.636058
105.703363,-153.219100,-148.041188,9474.636058
105.703671,0.000000,-74.020594,9474.636058
105.703979,-766.095498,-370.102971,9400.615463
105.704287,-689.485948,-0.000000,9548.656652
105.704595,-612.876398,-0.000000,9696.697840
105.704903,-842.705048,-74.020594,9474.636058
105.705211,0.000000,-0.000000,9622.677246
105.705519,-306.438199,222.061783,9622.677246
105.705827,-229.828649,-0.000000,9252.574275
105.706135,0.000000,-0.000000,9474.636058
105.706443,229.828649,-0.000000,9770.718434
105.706750,-229.828649,296.082377,9696.697840
105.707058,-536.266849,-0.000000,9548.656652
105.707366,-536.266849,-0.000000,9844.739029
105.707674,-536.266849,-0.000000,9622.677246
105.707982,-612.876398,-148.041188,9844.739029
105.708290,-459.657299,-222.061783,9992.780217
105.708598,-229.828649,-74.020594,9548.656652
105.708906,-306.438199,-0.000000,9622.677246
105.709214,0.000000,370.102971,9622.677246
105.709522,229.828649,296.082377,9400.615463
105.709830,459.657299,296.082377,9252.574275
105.710138,612.876398,592.164754,9474.636058
105.710446,919.314598,148.041188,9400.615463
105.710754,229.828649,-0.000000,9474.636058
105.711062,766.095498,148.041188,9474.636058
105.711370,0.000000,-222.061783,9696.697840
105.711678,383.047749,-0.000000,9844.739029
105.711986,383.047749,-0.000000,9770.718434
105.712294,383.047749,-0.000000,9844.739029
105.712602,536.266849,-0.000000,9696.697840
105.712910,612.876398,-148.041188,9770.718434
105.713218,1072.533697,-0.000000,9770.718434
105.713526,1302.362347,-0.000000,9548.656652
105.713833,1072.533697,296.082377,9474.636058
105.714141,1378.971896,370.102971,9548.656652
105.714449,1302.362347,296.082377,9548.656652
105.714757,1225.752797,296.082377,9474.636058
105.715065,1455.581446,296.082377,9400.615463
105.715373,1378.971896,-0.000000,9474.636058
105.715681,1532.190996,370.102971,9474.636058
105.715989,1532.190996,148.041188,9696.697840
105.716297,1838.629195,-0.000000,9474.636058
105.716605,1685.410096,444.123565,9548.656652
105.716913,1685.410096,296.082377,9622.677246
105.717221,1532.190996,370.102971,9548.656652
105.717529,1838.629195,296.082377,9474.636058
105.717837,1838.629195,296.082377,9622.677246
105.718145,2145.067394,-0.000000,10066.800811
105.718453,1608.800546,222.061783,9844.739029
105.718761,1532.190996,592.164754,10066.800811
105.719069,1762.019645,370.102971,9696.697840
105.719377,1762.019645,592.164754,9622.677246
105.719685,1762.019645,296.082377,9548.656652
105.719993,2145.067394,592.164754,9252.574275
105.720301,1838.629195,592.164754,9696.697840
105.720609,1991.848295,296.082377,9548.656652
105.720916,1915.238745,296.082377,9548.656652
105.721224,1532.190996,-148.041188,9474.636058
105.721532,1302.362347,370.102971,9696.697840
105.721840,1302.362347,-0.000000,9696.697840
105.722148,1455.581446,222.061783,10066.800811
105.722456,1225.752797,148.041188,10066.800811
105.722764,1225.752797,222.061783,9770.718434
105.723072,1302.362347,370.102971,10214.842000
105.723380,1302.362347,-0.000000,9622.677246
105.723688,1225.752797,444.123565,9178.553681
105.723996,1149.143247,592.164754,9474.636058
105.724304,1072.533697,592.164754,9326.594869
105.724612,995.924147,370.102971,9326.594869
105.724920,766.095498,592.164754,9474.636058
105.725228,1072.533697,222.061783,9474.636058
105.725536,76.609550,296.082377,9770.718434
105.725844,229.828649,-148.041188,9548.656652
105.726152,306.438199,-148.041188,9548.656652
105.726460,0.000000,-0.000000,9770.718434
105.726768,76.609550,-0.000000,9918.759623
105.727076,0.000000,-0.000000,10066.800811
105.727384,153.219100,-74.020594,9622.677246
105.727692,229.828649,-0.000000,9326.594869
105.727999,842.705048,444.123565,9770.718434
105.728307,995.924147,-222.061783,9178.553681
105.728615,536.266849,-0.000000,9474.636058
105.728923,229.828649,-0.000000,9400.615463
105.729231,0.000000,-0.000000,9400.615463
105.729539,76.609550,-0.000000,9548.656652
105.729847,76.609550,-74.020594,9622.677246
105.730155,0.000000,148.041188,9918.759623
105.730463,229.828649,-0.000000,9844.739029
105.730771,0.000000,-444.123565,9696.697840
105.731079,76.609550,-74.020594,9474.636058
105.731387,0.000000,-0.000000,9548.656652
105.731695,0.000000,296.082377,9548.656652
105.732003,76.609550,148.041188,9474.636058
105.732311,229.828649,592.164754,9474.636058
105.732619,383.047749,296.082377,9474.636058
105.732927,306.438199,222.061783,9548.656652
105.733235,0.000000,222.061783,9622.677246
105.733543,-229.828649,148.041188,9548.656652
105.733851,0.000000,296.082377,9770.718434
105.734159,0.000000,296.082377,9622.677246
105.734467,0.000000,296.082377,9622.677246
105.734775,-153.219100,-148.041188,9474.636058
105.735082,0.000000,-296.082377,9918.759623
105.735390,76.609550,-222.061783,9918.759623
105.735698,459.657299,-0.000000,9992.780217
105.736006,0.000000,-0.000000,9844.739029
105.736314,0.000000,370.102971,9474.636058
105.736622,0.000000,444.123565,9474.636058
105.736930,153.219100,666.185348,9474.636058
105.737238,612.876398,740.205942,9474.636058
105.737546,842.705048,592.164754,9326.594869
105.737854,229.828649,888.247130,9474.636058
105.738162,306.438199,-0.000000,9474.636058
105.738470,76.609550,518.144159,9474.636058
105.738778,76.609550,444.123565,9474.636058
105.739086,76.609550,222.061783,9548.656652
105.739394,0.000000,-74.020594,9992.780217
105.739702,0.000000,-222.061783,9622.677246
105.740010,383.047749,-74.020594,9918.759623
105.740318,153.219100,-518.144159,9918.759623
105.740626,229.828649,-222.061783,9548.656652
105.740934,229.828649,-0.000000,9622.677246
105.741242,306.438199,-222.061783,9622.677246
105.741550,76.609550,-222.061783,9548.656652
105.741858,612.876398,-0.000000,9474.636058
105.742165,919.314598,-148.041188,9622.677246
105.742473,919.314598,-0.000000,9474.636058
105.742781,995.924147,-296.082377,9104.533087
105.743089,1225.752797,-0.000000,9400.615463
105.743397,919.314598,-74.020594,9252.574275
105.743705,1149.143247,296.082377,9252.574275
105.744013,919.314598,222.061783,9400.615463
105.744321,1225.752797,-0.000000,9326.594869
105.744629,919.314598,370.102971,9252.574275
105.744937,1225.752797,-0.000000,9326.594869
105.745245,1455.581446,-0.000000,9622.677246
105.745553,1225.752797,-296.082377,9548.656652
105.745861,919.314598,-0.000000,9622.677246
105.746169,995.924147,-0.000000,9622.677246
105.746477,1378.971896,148.041188,9992.780217
105.746785,1149.143247,-0.000000,9622.677246
105.747093,1455.581446,-0.000000,9548.656652
105.747401,1608.800546,148.041188,10066.800811
105.747709,2068.457845,296.082377,9474.636058
105.748017,2451.505594,518.144159,9548.656652
105.748325,2068.457845,1036.288319,9474.636058
105.748633,2068.457845,740.205942,9474.636058
105.748941,2145.067394,814.226536,9548.656652
105.749249,1762.019645,592.164754,9548.656652
105.749556,1838.629195,518.144159,9696.697840
105.749864,1378.971896,296.082377,9622.677246
105.750172,1915.238745,296.082377,10066.800811
105.750480,1378.971896,-0.000000,9918.759623
105.750788,1455.581446,222.061783,9696.697840
105.751096,1378.971896,296.082377,9918.759623
105.751404,1378.971896,296.082377,9696.697840
105.751712,1608.800546,592.164754,9844.739029
105.752020,1915.238745,666.185348,9696.697840
105.752328,1532.190996,666.185348,9770.718434
105.752636,2068.457845,1036.288319,9622.677246
105.752944,1838.629195,888.247130,9548.656652
105.753252,1455.581446,1184.329507,9696.697840
105.753560,1072.533697,592.164754,9770.718434
105.753868,689.485948,370.102971,9918.759623
105.754176,612.876398,148.041188,9844.739029
105.754484,766.095498,-0.000000,10288.862594
105.754792,536.266849,-74.020594,10066.800811
105.755100,306.438199,-0.000000,9992.780217
105.755408,612.876398,-0.000000,9548.656652
105.755716,459.657299,-0.000000,9622.677246
105.756024,612.876398,518.144159,9474.636058
105.756332,536.266849,444.123565,9622.677246
105.756639,766.095498,518.144159,9178.553681
105.756947,689.485948,444.123565,9326.594869
105.757255,766.095498,-0.000000,9474.636058
105.757563,0.000000,-0.000000,9696.697840
105.757871,383.047749,-0.000000,9918.759623
105.758179,-229.828649,-222.061783,9548.656652
105.758487,0.000000,-0.000000,9770.718434
105.758795,-229.828649,-148.041188,9696.697840
105.759103,0.000000,-148.041188,9400.615463
105.759411,0.000000,-444.123565,9548.656652
105.759719,153.219100,-74.020594,9474.636058
105.760027,-383.047749,-0.000000,9474.636058
105.760335,-229.828649,-0.000000,9400.615463
105.760643,0.000000,296.082377,9400.615463
105.760951,-229.828649,296.082377,9400.615463
105.761259,-383.047749,-0.000000,9474.636058
105.761567,-536.266849,148.041188,9474.636058
105.761875,0.000000,-148.041188,9474.636058
105.762183,-536.266849,-222.061783,9844.739029
105.762491,0.000000,-666.185348,9474.636058
105.762799,-919.314598,-518.144159,9548.656652
105.763107,-919.314598,-296.082377,9474.636058
105.763415,-689.485948,-74.020594,9622.677246
105.763722,-689.485948,-0.000000,9918.759623
105.764030,-383.047749,-74.020594,9622.677246
105.764338,-766.095498,-74.020594,9326.594869
105.764646,-612.876398,-0.000000,9474.636058
105.764954,-306.438199,148.041188,9622.677246
105.765262,-306.438199,370.102971,9696.697840
105.765570,-229.828649,222.061783,9474.636058
105.765878,-229.828649,-0.000000,9400.615463
105.766186,-383.047749,222.061783,9622.677246
105.766494,-383.047749,-0.000000,9400.615463
105.766802,-306.438199,-0.000000,9474.636058
105.767110,0.000000,296.082377,9844.739029
105.767418,0.000000,-74.020594,9548.656652
105.767726,153.219100,-0.000000,9918.759623
105.768034,0.000000,296.082377,9474.636058
105.768342,0.000000,-0.000000,9696.697840
105.768650,229.828649,-0.000000,9622.677246
105.768958,459.657299,-0.000000,9252.574275
105.769266,459.657299,-222.061783,9326.594869
105.769574,766.095498,-0.000000,9696.697840
105.769882,459.657299,148.041188,9622.677246
105.770190,612.876398,-0.000000,9770.718434
105.770498,919.314598,-0.000000,9474.636058
105.770805,995.924147,-0.000000,9918.759623
105.771113,1225.752797,-0.000000,9696.697840
105.771421,1149.143247,-0.000000,9844.739029
105.771729,1685.410096,444.123565,9918.759623
105.772037,1532.190996,222.061783,9548.656652
105.772345,1838.629195,148.041188,9474.636058
105.772653,1762.019645,296.082377,9400.615463
105.772961,1608.800546,444.123565,9252.574275
105.773269,2068.457845,592.164754,9400.615463
105.773577,1685.410096,296.082377,9400.615463
105.773885,1915.238745,444.123565,9474.636058
105.774193,2068.457845,296.082377,9548.656652
105.774501,2068.457845,592.164754,9178.553681
105.774809,2068.457845,222.061783,9622.677246
105.775117,1685.410096,222.061783,9622.677246
105.775425,1991.848295,518.144159,9770.718434
105.775733,1838.629195,444.123565,9696.697840
105.776041,1915.238745,444.123565,9474.636058
105.776349,1685.410096,518.144159,9474.636058
105.776657,1915.238745,518.144159,9696.697840
105.776965,2298.286494,222.061783,9400.615463
105.777273,2221.676944,444.123565,9696.697840
105.777581,1608.800546,592.164754,9622.677246
105.777888,1608.800546,444.123565,9844.739029
105.778196,1532.190996,222.061783,9474.636058
105.778504,1378.971896,296.082377,9696.697840
105.778812,1378.971896,74.020594,9992.780217
105.779120,1532.190996,-0.000000,9844.739029
105.779428,1455.581446,444.123565,9918.759623
105.779736,1915.238745,-0.000000,9696.697840
105.780044,1455.581446,814.226536,9548.656652
105.780352,1225.752797,592.164754,9474.636058
105.780660,1608.800546,740.205942,9400.615463
105.780968,1378.971896,740.205942,9178.553681
105.781276,1302.362347,666.185348,9252.574275
105.781584,1225.752797,518.144159,9474.636058
105.781892,1225.752797,518.144159,9770.718434
105.782200,306.438199,-0.000000,9696.697840
105.782508,689.485948,-0.000000,9992.780217
105.782816,0.000000,-0.000000,9770.718434
105.783124,76.609550,-148.041188,10066.800811
105.783432,76.609550,-222.061783,10066.800811
105.783740,459.657299,-148.041188,10140.821405
105.784048,0.000000,-222.061783,10214.842000
105.784356,0.000000,-370.102971,9992.780217
105.784664,0.000000,-370.102971,9474.636058
105.784971,229.828649,-0.000000,9622.677246
105.785279,153.219100,-0.000000,9474.636058
105.785587,306.438199,296.082377,9252.574275
105.785895,153.219100,222.061783,9326.594869
105.786203,459.657299,296.082377,9474.636058
105.786511,536.266849,-0.000000,9104.533087
105.786819,689.485948,666.185348,9548.656652
105.787127,536.266849,-0.000000,9400.615463
105.787435,459.657299,296.082377,9400.615463
105.787743,229.828649,370.102971,9474.636058
105.788051,229.828649,296.082377,9696.697840
105.788359,0.000000,-74.020594,9696.697840
105.788667,-229.828649,222.061783,9548.656652
105.788975,-229.828649,-222.061783,9770.718434
105.789283,-842.705048,-222.061783,9918.759623
105.789591,0.000000,-0.000000,10362.883188
105.789899,-536.266849,148.041188,9770.718434
105.790207,0.000000,148.041188,9770.718434
105.790515,0.000000,518.144159,9622.677246
105.790823,0.000000,444.123565,9696.697840
105.791131,459.657299,-0.000000,9326.594869
105.791439,0.000000,-0.000000,9474.636058
105.791747,536.266849,370.102971,9474.636058
105.792054,76.609550,148.041188,9622.677246
105.792362,0.000000,222.061783,9696.697840
105.792670,-229.828649,148.041188,9622.677246
105.792978,0.000000,222.061783,9918.759623
105.793286,-229.828649,148.041188,9696.697840
105.793594,-459.657299,444.123565,9918.759623
105.793902,0.000000,740.205942,9918.759623
105.794210,0.000000,222.061783,9252.574275
105.794518,0.000000,370.102971,9474.636058
105.794826,229.828649,444.123565,9474.636058
105.795134,153.219100,370.102971,9400.615463
105.795442,76.609550,518.144159,9474.636058
105.795750,0.000000,222.061783,9548.656652
105.796058,229.828649,-370.102971,9918.759623
105.796366,-383.047749,-74.020594,9770.718434
105.796674,0.000000,-296.082377,9770.718434
105.796982,0.000000,-296.082377,9696.697840
105.797290,0.000000,-370.102971,9770.718434
105.797598,76.609550,-148.041188,9696.697840
105.797906,306.438199,-222.061783,9548.656652
105.798214,229.828649,-148.041188,9474.636058
105.798522,995.924147,222.061783,9622.677246
105.798830,536.266849,-0.000000,9178.553681
105.799137,689.485948,444.123565,9548.656652
105.799445,995.924147,-222.061783,9400.615463
105.799753,689.485948,-0.000000,9326.594869
105.800061,919.314598,-0.000000,9548.656652
105.800369,919.314598,-0.000000,9400.615463
105.800677,1302.362347,-0.000000,9178.553681
105.800985,1455.581446,-0.000000,9696.697840
105.801293,1455.581446,-0.000000,9400.615463
105.801601,1302.362347,-370.102971,9474.636058
105.801909,1225.752797,518.144159,9474.636058
105.802217,1302.362347,222.061783,9474.636058
105.802525,919.314598,-0.000000,9474.636058
105.802833,1225.752797,148.041188,9622.677246
105.803141,1455.581446,148.041188,9474.636058
105.803449,1072.533697,-0.000000,9696.697840
105.803757,1302.362347,222.061783,10066.800811
105.804065,1225.752797,-0.000000,9844.739029
105.804373,1685.410096,222.061783,9622.677246
105.804681,1532.190996,296.082377,9548.656652
105.804989,1915.238745,370.102971,9474.636058
105.805297,1991.848295,370.102971,9474.636058
105.805604,1838.629195,518.144159,9474.636058
105.805912,1915.238745,296.082377,9474.636058
105.806220,2145.067394,592.164754,9474.636058
105.806528,1608.800546,518.144159,9622.677246
105.806836,1532.190996,444.123565,9474.636058
105.807144,1838.629195,296.082377,9474.636058
105.807452,1838.629195,370.102971,9696.697840
105.807760,1532.190996,222.061783,10066.800811
105.808068,1455.581446,370.102971,9918.759623
105.808376,1455.581446,296.082377,9844.739029
105.808684,1455.581446,592.164754,9992.780217
105.808992,1608.800546,962.267725,9844.739029
105.809300,1455.581446,592.164754,9918.759623
105.809608,1608.800546,888.247130,9474.636058
105.809916,1532.190996,814.226536,9474.636058
105.810224,1378.971896,740.205942,9474.636058
105.810532,1225.752797,666.185348,9696.697840
105.810840,1455.581446,148.041188,9696.697840
105.811148,459.657299,148.041188,10288.862594
105.811455,306.438199,-74.020594,9992.780217
105.811763,383.047749,222.061783,10288.862594
105.812071,459.657299,296.082377,9844.739029
105.812379,306.438199,370.102971,9918.759623
105.812687,689.485948,370.102971,9696.697840
105.812995,689.485948,222.061783,9474.636058
105.813303,689.485948,444.123565,9474.636058
105.813611,842.705048,222.061783,9622.677246
105.813919,612.876398,222.061783,9474.636058
105.814227,306.438199,-0.000000,9548.656652
105.814535,383.047749,444.123565,9474.636058
105.814843,0.000000,222.061783,9400.615463
105.815151,0.000000,-74.020594,9326.594869
105.815459,0.000000,-222.061783,9548.656652
105.815767,-306.438199,-74.020594,9696.697840
105.816075,-306.438199,-666.185348,9770.718434
105.816383,-229.828649,-296.082377,9770.718434
105.816691,-766.095498,-222.061783,9326.594869
105.816998,0.000000,-0.000000,9474.636058
105.817306,0.000000,-0.000000,9400.615463
105.817614,0.000000,-0.000000,9252.574275
105.817922,0.000000,-0.000000,9326.594869
105.818230,-383.047749,-0.000000,9474.636058
105.818538,0.000000,-0.000000,9400.615463
105.818846,0.000000,-0.000000,9104.533087
105.819154,-383.047749,-0.000000,9474.636058
105.819462,-229.828649,222.061783,9474.636058
105.819770,-612.876398,-0.000000,9474.636058
105.820078,-689.485948,-74.020594,9474.636058
105.820386,-536.266849,-148.041188,9770.718434
105.820694,-689.485948,-296.082377,9770.718434
105.821002,-612.876398,-444.123565,9844.739029
105.821310,-612.876398,-0.000000,9326.594869
105.821618,-689.485948,-0.000000,9918.759623
105.821926,-383.047749,222.061783,9770.718434
105.822234,-306.438199,296.082377,9696.697840
105.822542,-229.828649,-0.000000,9400.615463
105.822849,0.000000,148.041188,9474.636058
105.823157,-459.657299,-74.020594,9548.656652
105.823465,919.314598,-0.000000,9622.677246
105.823773,153.219100,-74.020594,9474.636058
105.824081,0.000000,-296.082377,9400.615463
105.824389,0.000000,-0.000000,9474.636058
105.824697,76.609550,-0.000000,9474.636058
105.825005,306.438199,148.041188,9548.656652
105.825313,306.438199,296.082377,9548.656652
105.825621,306.438199,296.082377,9696.697840
105.825929,0.000000,148.041188,9622.677246
105.826237,536.266849,222.061783,9474.636058
105.826545,612.876398,222.061783,9474.636058
105.826853,383.047749,370.102971,9696.697840
105.827161,612.876398,296.082377,9622.677246
105.827469,919.314598,148.041188,9844.739029
105.827777,689.485948,-0.000000,9844.739029
105.828085,842.705048,-222.061783,9770.718434
105.828392,1378.971896,-0.000000,9992.780217
105.828700,1072.533697,-148.041188,9918.759623
105.829008,1302.362347,-0.000000,10066.800811
105.829316,1302.362347,-0.000000,9696.697840
105.829624,1455.581446,222.061783,9622.677246
105.829932,1608.800546,592.164754,9474.636058
105.830240,1838.629195,518.144159,9474.636058
105.830548,2068.457845,740.205942,9696.697840
105.830856,1685.410096,444.123565,9178.553681
105.831164,2145.067394,444.123565,9474.636058
105.831472,2068.457845,444.123565,9474.636058
105.831780,1608.800546,518.144159,9326.594869
105.832088,1838.629195,444.123565,9474.636058
105.832396,1838.629195,444.123565,9474.636058
105.832704,1915.238745,296.082377,9548.656652
105.833012,1838.629195,518.144159,9696.697840
105.833320,1072.533697,-0.000000,9770.718434
105.833628,1149.143247,296.082377,10066.800811
105.833936,2145.067394,370.102971,9696.697840
105.834243,1838.629195,814.226536,9696.697840
105.834551,1838.629195,592.164754,9474.636058
105.834859,1762.019645,370.102971,9474.636058
105.835167,2528.115143,-0.000000,9622.677246
105.835475,1838.629195,148.041188,9622.677246
105.835783,1455.581446,148.041188,10140.821405
105.836091,1225.752797,-0.000000,9992.780217
105.836399,919.314598,-0.000000,9770.718434
105.836707,1302.362347,222.061783,9696.697840
105.837015,1225.752797,222.061783,9474.636058
105.837323,1532.190996,444.123565,9326.594869
105.837631,1762.019645,592.164754,9474.636058
105.837939,1915.238745,444.123565,9474.636058
105.838247,1225.752797,444.123565,9178.553681
105.838555,1608.800546,370.102971,9326.594869
105.838863,1072.533697,444.123565,9474.636058
105.839171,1072.533697,444.123565,9474.636058
105.839479,612.876398,296.082377,9548.656652
105.839786,536.266849,-0.000000,9696.697840
105.840094,689.485948,-74.020594,9918.759623
105.840402,0.000000,-222.061783,10140.821405
105.840710,0.000000,-222.061783,10288.862594
105.841018,0.000000,-444.123565,10066.800811
105.841326,76.609550,-370.102971,9992.780217
105.841634,153.219100,-0.000000,9992.780217
105.841942,306.438199,-74.020594,9622.677246
105.842250,536.266849,222.061783,9400.615463
105.842558,536.266849,370.102971,9548.656652
105.842866,383.047749,-0.000000,9400.615463
105.843174,536.266849,-0.000000,9622.677246
105.843482,383.047749,-0.000000,9326.594869
105.843790,383.047749,444.123565,9400.615463
105.844098,383.047749,222.061783,9474.636058
105.844406,229.828649,148.041188,9474.636058
105.844714,76.609550,222.061783,9548.656652
105.845022,383.047749,-148.041188,9326.594869
105.845330,306.438199,-0.000000,9326.594869
105.845637,0.000000,-0.000000,9696.697840
105.845945,0.000000,222.061783,10140.821405
105.846253,0.000000,148.041188,9696.697840
105.846561,-229.828649,148.041188,9474.636058
105.846869,0.000000,222.061783,9770.718434
105.847177,-153.219100,296.082377,9770.718434
105.847485,0.000000,296.082377,9622.677246
105.847793,229.828649,444.123565,9696.697840
105.848101,-153.219100,592.164754,9770.718434
105.848409,0.000000,148.041188,10140.821405
105.848717,-383.047749,222.061783,10066.800811
105.849025,-306.438199,296.082377,9696.697840
105.849333,-229.828649,222.061783,9770.718434
105.849641,-459.657299,-0.000000,9918.759623
105.849949,-842.705048,-74.020594,9548.656652
105.850257,-1149.143247,296.082377,9918.759623
105.850565,0.000000,222.061783,9696.697840
105.850873,-306.438199,-0.000000,9548.656652
105.851181,0.000000,444.123565,9474.636058
105.851488,0.000000,444.123565,9326.594869
105.851796,306.438199,518.144159,9252.574275
105.852104,306.438199,666.185348,9178.553681
105.852412,306.438199,222.061783,9326.594869
105.852720,229.828649,-0.000000,9474.636058
105.853028,-229.828649,-74.020594,9622.677246
105.853336,-306.438199,-296.082377,9918.759623
105.853644,-306.438199,-222.061783,9770.718434
105.853952,-383.047749,-0.000000,9770.718434
105.854260,0.000000,-222.061783,9622.677246
105.854568,0.000000,-222.061783,9696.697840
105.854876,306.438199,-518.144159,9400.615463
105.855184,459.657299,-0.000000,9770.718434
105.855492,689.485948,-296.082377,9696.697840
105.855800,153.219100,-222.061783,9548.656652
105.856108,612.876398,-0.000000,9696.697840
105.856416,459.657299,-0.000000,9622.677246
105.856724,689.485948,-0.000000,9400.615463
105.857031,459.657299,-0.000000,9474.636058
105.857339,766.095498,-0.000000,9770.718434
105.857647,919.314598,-0.000000,9696.697840
105.857955,1149.143247,-0.000000,9474.636058
105.858263,1225.752797,-0.000000,9400.615463
105.858571,1225.752797,222.061783,9252.574275
105.858879,1608.800546,370.102971,9252.574275
105.859187,1455.581446,444.123565,9326.594869
105.859495,1608.800546,-0.000000,9030.512492
105.859803,1302.362347,370.102971,9400.615463
105.860111,2068.457845,-0.000000,9474.636058
105.860419,1225.752797,-74.020594,9770.718434
105.860727,1455.581446,-0.000000,9474.636058
105.861035,1455.581446,-0.000000,9622.677246
105.861343,1225.752797,222.061783,9696.697840
105.861651,1532.190996,148.041188,9622.677246
105.861959,1762.019645,370.102971,9622.677246
105.862267,2145.067394,444.123565,9548.656652
105.862575,2451.505594,444.123565,9548.656652
105.862882,1915.238745,814.226536,9400.615463
105.863190,2145.067394,592.164754,9178.553681
105.863498,1915.238745,592.164754,9474.636058
105.863806,1991.848295,592.164754,9548.656652
105.864114,1762.019645,370.102971,9696.697840
105.864422,1685.410096,518.144159,9844.739029
105.864730,1915.238745,-0.000000,9918.759623
105.865038,2221.676944,296.082377,9992.780217
105.865346,1455.581446,296.082377,10066.800811
105.865654,1378.971896,444.123565,9622.677246
105.865962,1762.019645,370.102971,9474.636058
105.866270,1915.238745,518.144159,9474.636058
105.866578,1838.629195,666.185348,9548.656652
105.866886,1455.581446,592.164754,9474.636058
105.867194,1838.629195,1110.308913,9622.677246
105.867502,1762.019645,592.164754,9326.594869
105.867810,1455.581446,518.144159,9622.677246
105.868118,1302.362347,370.102971,9622.677246
105.868425,919.314598,444.123565,9770.718434
105.868733,842.705048,222.061783,9696.697840
105.869041,689.485948,222.061783,9844.739029
105.869349,612.876398,-0.000000,10066.800811
105.869657,612.876398,222.061783,9992.780217
105.869965,153.219100,-74.020594,9844.739029
105.870273,459.657299,-0.000000,9918.759623
105.870581,459.657299,-0.000000,9622.677246
105.870889,536.266849,370.102971,9548.656652
105.871197,153.219100,444.123565,9548.656652
105.871505,459.657299,296.082377,9622.677246
105.871813,536.266849,296.082377,9474.636058
105.872121,0.000000,-0.000000,9474.636058
105.872429,383.047749,-222.061783,9622.677246
105.872737,-153.219100,-148.041188,9696.697840
105.873045,-306.438199,-0.000000,9474.636058
105.873353,0.000000,-0.000000,9474.636058
105.873661,0.000000,-74.020594,9696.697840
105.873969,-383.047749,-148.041188,9474.636058
105.874276,-229.828649,-0.000000,9992.780217
105.874584,-536.266849,-148.041188,9622.677246
105.874892,0.000000,-0.000000,9622.677246
105.875200,-536.266849,370.102971,9400.615463
105.875508,-536.266849,-74.020594,9548.656652
105.875816,-459.657299,-0.000000,9474.636058
105.876124,-689.485948,-0.000000,9474.636058
105.876432,-766.095498,-0.000000,9548.656652
105.876740,-919.314598,-74.020594,9696.697840
105.877048,-383.047749,-148.041188,10066.800811
105.877356,-995.924147,-518.144159,9474.636058
105.877664,-1149.143247,-444.123565,9844.739029
105.877972,-842.705048,-296.082377,9696.697840
105.878280,-766.095498,-0.000000,9548.656652
105.878588,-689.485948,-0.000000,9622.677246
105.878896,-689.485948,-0.000000,9844.739029
105.879204,-766.095498,-0.000000,9474.636058
105.879512,-306.438199,222.061783,9474.636058
105.879820,0.000000,222.061783,9474.636058
105.880127,0.000000,370.102971,9178.553681
105.880435,-153.219100,518.144159,9178.553681
105.880743,76.609550,444.123565,9326.594869
105.881051,76.609550,222.061783,9252.574275
105.881359,-306.438199,148.041188,9622.677246
105.881667,0.000000,-0.000000,9696.697840
105.881975,229.828649,-0.000000,9696.697840
105.882283,0.000000,-370.102971,9548.656652
105.882591,383.047749,-148.041188,9770.718434
105.882899,306.438199,-0.000000,9844.739029
105.883207,383.047749,-0.000000,9696.697840
105.883515,536.266849,-0.000000,9548.656652
105.883823,536.266849,296.082377,9622.677246
105.884131,1149.143247,-0.000000,9696.697840
105.884439,842.705048,222.061783,9696.697840
105.884747,995.924147,-0.000000,9548.656652
105.885055,1302.362347,-0.000000,9474.636058
105.885363,995.924147,-0.000000,9474.636058
105.885670,995.924147,-0.000000,9622.677246
105.885978,1149.143247,-0.000000,9548.656652
105.886286,1608.800546,222.061783,9622.677246
105.886594,1378.971896,666.185348,9918.759623
105.886902,1838.629195,370.102971,9474.636058
105.887210,1991.848295,370.102971,9400.615463
105.887518,2068.457845,814.226536,9622.677246
105.887826,1991.848295,592.164754,9178.553681
105.888134,2068.457845,666.185348,9400.615463
105.888442,1685.410096,518.144159,9474.636058
105.888750,1762.019645,370.102971,9548.656652
105.889058,1762.019645,74.020594,9844.739029
105.889366,1685.410096,370.102971,9844.739029
105.889674,1532.190996,-0.000000,9770.718434
105.889982,1838.629195,-74.020594,9918.759623
105.890290,1685.410096,222.061783,9696.697840
105.890598,1838.629195,296.082377,9696.697840
105.890906,1915.238745,370.102971,9474.636058
105.891214,1991.848295,370.102971,9622.677246
105.891521,2374.896044,666.185348,9326.594869
105.891829,1838.629195,666.185348,9622.677246
105.892137,1991.848295,592.164754,9770.718434
105.892445,1455.581446,592.164754,9548.656652
105.892753,1685.410096,444.123565,9696.697840
105.893061,1455.581446,222.061783,9696.697840
105.893369,1302.362347,370.102971,9770.718434
105.893677,1685.410096,-296.082377,9770.718434
105.893985,1455.581446,-0.000000,9844.739029
105.894293,1378.971896,370.102971,9548.656652
105.894601,1838.629195,296.082377,9548.656652
105.894909,842.705048,592.164754,9548.656652
105.895217,1149.143247,222.061783,9548.656652
105.895525,1149.143247,592.164754,9104.533087
105.895833,1072.533697,444.123565,9474.636058
105.896141,1149.143247,444.123565,9992.780217
105.896449,1302.362347,296.082377,9474.636058
105.896757,459.657299,-148.041188,9548.656652
105.897064,919.314598,-0.000000,8956.491898
105.897372,842.705048,-0.000000,9622.677246
105.897680,383.047749,-0.000000,9696.697840
105.897988,229.828649,-0.000000,9696.697840
105.898296,153.219100,222.061783,9770.718434
105.898604,306.438199,-444.123565,10214.842000
105.898912,229.828649,-0.000000,10140.821405
105.899220,0.000000,-222.061783,9474.636058
105.899528,383.047749,-0.000000,10140.821405
105.899836,0.000000,-0.000000,9696.697840
105.900144,153.219100,-222.061783,9696.697840
105.900452,229.828649,-0.000000,9474.636058
105.900760,306.438199,444.123565,9400.615463
105.901068,612.876398,592.164754,9548.656652
105.901376,383.047749,370.102971,9326.594869
105.901684,612.876398,592.164754,9030.512492
105.901992,536.266849,518.144159,9326.594869
105.902300,459.657299,370.102971,9474.636058
105.902608,0.000000,-0.000000,9474.636058
105.902915,0.000000,222.061783,9770.718434
105.903223,0.000000,-0.000000,9992.780217
105.903531,-383.047749,-148.041188,9918.759623
105.903839,-383.047749,-296.082377,9770.718434
105.904147,0.000000,-0.000000,9844.739029
105.904455,383.047749,-0.000000,10214.842000
105.904763,0.000000,222.061783,9622.677246
105.905071,76.609550,222.061783,9548.656652
105.905379,153.219100,518.144159,9548.656652
105.905687,0.000000,444.123565,9474.636058
105.905995,0.000000,592.164754,9548.656652
105.906303,-153.219100,518.144159,9844.739029
105.906611,0.000000,148.041188,9474.636058
105.906919,229.828649,-0.000000,9622.677246
105.907227,0.000000,-0.000000,9548.656652
105.907535,-536.266849,-0.000000,9696.697840
105.907843,-306.438199,296.082377,10066.800811
105.908151,-306.438199,-0.000000,9696.697840
105.908459,-536.266849,222.061783,9400.615463
105.908767,76.609550,296.082377,9474.636058
105.909075,459.657299,444.123565,9622.677246
105.909383,153.219100,444.123565,9474.636058
105.909691,-383.047749,444.123565,9548.656652
105.909999,0.000000,148.041188,9622.677246
105.910307,-229.828649,-0.000000,9622.677246
105.910615,-383.047749,-74.020594,9918.759623
105.910923,-306.438199,-370.102971,9844.739029
105.911231,76.609550,-296.082377,9696.697840
105.911539,-459.657299,-666.185348,10066.800811
105.911847,383.047749,-222.061783,9918.759623
105.912155,229.828649,-0.000000,9696.697840
105.912463,306.438199,-0.000000,9548.656652
105.912771,459.657299,-0.000000,9400.615463
105.913079,383.047749,-0.000000,9326.594869
105.913387,1072.533697,-0.000000,9474.636058
105.913695,612.876398,-0.000000,9252.574275
105.914003,766.095498,296.082377,9474.636058
105.914311,995.924147,-74.020594,9622.677246
105.914619,689.485948,-222.061783,9474.636058
105.914927,689.485948,-148.041188,9474.636058
105.915235,995.924147,-0.000000,9474.636058
105.915543,1072.533697,-0.000000,9474.636058
105.915851,1455.581446,-0.000000,9474.636058
105.916159,1838.629195,-0.000000,9548.656652
105.916467,2068.457845,-0.000000,9104.533087
105.916775,1378.971896,-0.000000,9104.533087
105.917083,1991.848295,296.082377,9400.615463
105.917391,1838.629195,444.123565,9474.636058
105.917699,1608.800546,370.102971,9400.615463
105.918007,1532.190996,296.082377,9474.636058
105.918315,1915.238745,-0.000000,9548.656652
105.918623,1762.019645,-0.000000,9696.697840
105.918931,1685.410096,296.082377,9548.656652
105.919239,1685.410096,-0.000000,9696.697840
105.919547,1608.800546,518.144159,9770.718434
105.919855,1991.848295,296.082377,9770.718434
105.920163,1838.629195,296.082377,9548.656652
105.920471,1991.848295,444.123565,9548.656652
105.920779,2068.457845,592.164754,9918.759623
105.921087,2298.286494,444.123565,9474.636058
105.921395,1762.019645,444.123565,9696.697840
105.921703,1838.629195,518.144159,9770.718434
105.922011,1838.629195,666.185348,9844.739029
105.922319,1838.629195,666.185348,9918.759623
105.922627,2068.457845,740.205942,9844.739029
105.922935,1838.629195,814.226536,9474.636058
105.923243,1762.019645,962.267725,9326.594869
105.923551,2145.067394,814.226536,9696.697840
105.923859,1838.629195,666.185348,9474.636058
105.924167,1685.410096,370.102971,9474.636058
105.924475,1455.581446,592.164754,9622.677246
105.924783,1302.362347,296.082377,9696.697840
105.925091,842.705048,222.061783,9918.759623
105.925399,689.485948,370.102971,10066.800811
105.925707,536.266849,-0.000000,9992.780217
105.926015,689.485948,-0.000000,10066.800811
105.926323,383.047749,-0.000000,9918.759623
105.926631,459.657299,-0.000000,9696.697840
105.926939,459.657299,222.061783,9770.718434
105.927247,689.485948,444.123565,9770.718434
105.927555,766.095498,222.061783,9622.677246
105.927863,459.657299,444.123565,9474.636058
105.928171,689.485948,296.082377,9400.615463
105.928479,229.828649,444.123565,9474.636058
105.928787,0.000000,-0.000000,9770.718434
105.929095,0.000000,-0.000000,9474.636058
105.929403,0.000000,148.041188,9622.677246
105.929711,0.000000,-0.000000,9622.677246
105.930019,0.000000,-0.000000,9548.656652
105.930327,0.000000,-0.000000,9400.615463
105.930635,-153.219100,-0.000000,9548.656652
105.930943,0.000000,-0.000000,9548.656652
105.931251,-459.657299,-74.020594,9696.697840
105.931559,-612.876398,-222.061783,9622.677246
105.931867,-383.047749,-74.020594,9474.636058
105.932175,-689.485948,-0.000000,9548.656652
105.932483,-689.485948,-74.020594,9844.739029
105.932791,-842.705048,-148.041188,9696.697840
105.933099,-689.485948,-518.144159,9770.718434
105.933407,-1225.752797,-74.020594,9992.780217
105.933715,-612.876398,-444.123565,9918.759623
105.934023,-536.266849,-444.123565,9844.739029
105.934331,-766.095498,-0.000000,9548.656652
105.934639,-612.876398,148.041188,9400.615463
105.934947,-536.266849,-0.000000,9326.594869
105.935255,-229.828649,148.041188,9474.636058
105.935563,-766.095498,148.041188,9474.636058
105.935871,-383.047749,222.061783,9696.697840
105.936179,-459.657299,740.205942,10066.800811
105.936487,-842.705048,370.102971,9696.697840
105.936795,-229.828649,-0.000000,9622.677246
105.937103,-383.047749,-0.000000,9474.636058
105.937411,-153.219100,148.041188,9770.718434
105.937719,0.000000,-0.000000,9474.636058
105.938027,76.609550,592.164754,9696.697840
105.938335,383.047749,296.082377,9622.677246
105.938643,0.000000,370.102971,9548.656652
105.938951,0.000000,148.041188,9622.677246
105.939259,0.000000,148.041188,9696.697840
105.939567,153.219100,-0.000000,9548.656652
105.939875,306.438199,-0.000000,9770.718434
105.940183,229.828649,-0.000000,9622.677246
105.940491,153.219100,-0.000000,10066.800811
105.940799,0.000000,-74.020594,9696.697840
105.941107,229.828649,-0.000000,9696.697840
105.941415,612.876398,296.082377,9622.677246
105.941723,842.705048,222.061783,9770.718434
105.942031,689.485948,296.082377,9548.656652
105.942339,1149.143247,222.061783,9622.677246
105.942647,1685.410096,296.082377,9474.636058
105.942955,1225.752797,370.102971,9548.656652
105.943263,1532.190996,222.061783,9400.615463
105.943571,1685.410096,-0.000000,9622.677246
105.943879,1378.971896,222.061783,9474.636058
105.944187,1378.971896,370.102971,9474.636058
105.944495,1455.581446,296.082377,9474.636058
105.944803,1532.190996,222.061783,9474.636058
105.945111,1378.971896,370.102971,9696.697840
105.945419,1838.629195,222.061783,9474.636058
105.945727,1378.971896,370.102971,9400.615463
105.946035,1302.362347,222.061783,9548.656652
105.946343,1685.410096,222.061783,9992.780217
105.946651,1608.800546,222.061783,9474.636058
105.946959,1608.800546,296.082377,9548.656652
105.947267,1608.800546,296.082377,9548.656652
105.947575,1838.629195,666.185348,9622.677246
105.947883,2451.505594,444.123565,9548.656652
105.948191,1991.848295,-0.000000,9696.697840
105.948499,1991.848295,296.082377,9622.677246
105.948807,1608.800546,444.123565,9622.677246
105.949115,1685.410096,444.123565,9548.656652
105.949423,1762.019645,370.102971,9622.677246
105.949731,1608.800546,222.061783,9696.697840
105.950039,1762.019645,-0.000000,9844.739029
105.950347,1455.581446,-0.000000,9696.697840
105.950655,1532.190996,-148.041188,9622.677246
105.950963,1762.019645,148.041188,9696.697840
105.951271,1455.581446,296.082377,9474.636058
105.951579,1608.800546,518.144159,9548.656652
105.951887,1378.971896,444.123565,9548.656652
105.952195,1455.581446,666.185348,9474.636058
105.952503,1838.629195,296.082377,9474.636058
105.952811,1608.800546,296.082377,9178.553681
105.953119,1302.362347,-0.000000,9548.656652
105.953427,1072.533697,222.061783,9770.718434
105.953735,919.314598,370.102971,9696.697840
105.954043,689.485948,222.061783,9622.677246
105.954351,612.876398,-0.000000,9696.697840
105.954659,536.266849,296.082377,9918.759623
105.954967,612.876398,-222.061783,9992.780217
105.955275,229.828649,-0.000000,9918.759623
105.955583,383.047749,-222.061783,9992.780217
105.955891,383.047749,-74.020594,10066.800811
105.956199,306.438199,-0.000000,9696.697840
105.956507,0.000000,-0.000000,9474.636058
105.956815,383.047749,296.082377,9474.636058
105.957123,229.828649,296.082377,9548.656652
105.957431,459.657299,-0.000000,9252.574275
105.957739,306.438199,-0.000000,9326.594869
105.958047,306.438199,222.061783,9622.677246
105.958355,383.047749,-0.000000,9548.656652
105.958663,153.219100,296.082377,9400.615463
105.958971,0.000000,-0.000000,9474.636058
105.959279,0.000000,-0.000000,9474.636058
105.959587,0.000000,-0.000000,9622.677246
105.959895,-383.047749,-0.000000,9844.739029
105.960203,383.047749,-74.020594,9696.697840
105.960511,153.219100,-74.020594,9770.718434
105.960819,-229.828649,-74.020594,9696.697840
105.961127,0.000000,148.041188,9770.718434
105.961435,-536.266849,148.041188,9622.677246
105.961743,0.000000,148.041188,9548.656652
105.962051,0.000000,296.082377,9474.636058
105.962359,0.000000,222.061783,9844.739029
105.962667,0.000000,518.144159,9548.656652
105.962975,0.000000,592.164754,9770.718434
105.963283,0.000000,-0.000000,9252.574275
105.963591,-306.438199,-0.000000,9548.656652
105.963899,-306.438199,-0.000000,9844.739029
105.964207,-612.876398,222.061783,9770.718434
105.964515,-383.047749,-0.000000,9770.718434
105.964823,-306.438199,-222.061783,9992.780217
105.965131,-383.047749,-0.000000,9844.739029
105.965439,0.000000,148.041188,9770.718434
105.965747,-153.219100,-0.000000,9400.615463
105.966055,-229.828649,518.144159,9400.615463
105.966363,0.000000,444.123565,9474.636058
105.966671,0.000000,296.082377,9770.718434
105.966979,-229.828649,296.082377,9474.636058
105.967287,0.000000,-0.000000,9474.636058
105.967595,383.047749,-0.000000,9696.697840
105.967903,-153.219100,-148.041188,9844.739029
105.968211,0.000000,-0.000000,10140.821405
105.968519,0.000000,-148.041188,9770.718434
105.968827,-306.438199,-0.000000,9844.739029
105.969135,0.000000,-0.000000,9992.780217
105.969443,0.000000,-74.020594,9696.697840
105.969751,459.657299,74.020594,9992.780217
105.970059,689.485948,-222.061783,9474.636058
105.970367,766.095498,-0.000000,9770.718434
105.970675,689.485948,370.102971,9622.677246
105.970983,842.705048,-0.000000,9548.656652
105.971291,995.924147,222.061783,9548.656652
105.971599,919.314598,-0.000000,9548.656652
105.971907,1072.533697,-74.020594,9326.594869
105.972215,919.314598,148.041188,9400.615463
105.972523,1149.143247,-0.000000,9844.739029
105.972831,1685.410096,222.061783,9474.636058
105.973139,1455.581446,444.123565,9104.533087
105.973447,1378.971896,296.082377,9474.636058
105.973755,1378.971896,370.102971,9474.636058
105.974063,1378.971896,-0.000000,9474.636058
105.974371,1455.581446,222.061783,9622.677246
105.974679,1608.800546,-0.000000,9548.656652
105.974987,1685.410096,222.061783,9622.677246
105.975295,2145.067394,222.061783,9548.656652
105.975603,1685.410096,370.102971,9918.759623
105.975911,1915.238745,296.082377,9548.656652
105.976219,1991.848295,296.082377,9474.636058
105.976527,2298.286494,370.102971,9548.656652
105.976835,1915.238745,296.082377,9548.656652
105.977143,2221.676944,370.102971,9400.615463
105.977451,1838.629195,888.247130,9548.656652
105.977759,2221.676944,222.061783,9622.677246
105.978067,2068.457845,370.102971,9844.739029
105.978375,2145.067394,370.102971,9696.697840
105.978683,1762.019645,592.164754,9622.677246
105.978991,1991.848295,222.061783,9696.697840
105.979299,1991.848295,-0.000000,9770.718434
105.979607,2374.896044,518.144159,9622.677246
105.979915,1608.800546,370.102971,9474.636058
105.980223,1762.019645,666.185348,9770.718434
105.980531,1991.848295,592.164754,9252.574275
105.980839,1762.019645,814.226536,9178.553681
105.981147,2145.067394,962.267725,9252.574275
105.981455,1608.800546,814.226536,9400.615463
105.981763,1532.190996,592.164754,9474.636058
105.982072,995.924147,222.061783,9770.718434
105.982380,1072.533697,666.185348,10066.800811
105.982688,919.314598,148.041188,9918.759623
105.982996,919.314598,296.082377,9696.697840
105.983304,612.876398,222.061783,10066.800811
105.983612,612.876398,-0.000000,9918.759623
105.983920,536.266849,370.102971,9918.759623
105.984228,306.438199,-0.000000,9696.697840
105.984536,153.219100,-0.000000,9696.697840
105.984844,612.876398,370.102971,9770.718434
105.985152,459.657299,296.082377,9770.718434
105.985460,76.609550,518.144159,9696.697840
105.985768,153.219100,-0.000000,9548.656652
