#time,accel_x,accel_y,accel_z
40.819421,1225.752797,1110.308913,8660.409521
40.819729,1225.752797,1110.308913,8438.347739
40.820037,1532.190996,814.226536,8734.430116
40.820345,1072.533697,666.185348,8512.368333
40.820653,1225.752797,-0.000000,8734.430116
40.820961,1455.581446,-296.082377,9178.553681
40.821269,1455.581446,-592.164754,9178.553681
40.821577,1838.629195,-0.000000,9474.636058
40.821885,1378.971896,296.082377,9400.615463
40.822193,1302.362347,888.247130,9696.697840
40.822501,919.314598,1258.350101,9918.759623
40.822809,1149.143247,1406.391290,10066.800811
40.823117,1302.362347,1332.370696,10362.883188
40.823425,1225.752797,1258.350101,10436.903782
40.823733,995.924147,888.247130,10807.006753
40.824041,919.314598,740.205942,11029.068536
40.824349,1149.143247,592.164754,10955.047942
40.824657,612.876398,740.205942,11103.089130
40.824965,459.657299,666.185348,11251.130318
40.825273,919.314598,888.247130,11103.089130
40.825581,919.314598,1184.329507,10807.006753
40.825889,766.095498,1554.432478,10584.944971
40.826197,1762.019645,2072.576638,10510.924376
40.826504,842.705048,1776.494261,10510.924376
40.826812,1838.629195,2220.617826,10658.965565
40.827120,1762.019645,1776.494261,10436.903782
40.827428,1455.581446,2072.576638,10288.862594
40.827736,1378.971896,2072.576638,10288.862594
40.828044,842.705048,1776.494261,10955.047942
40.828352,383.047749,1554.432478,10955.047942
40.828660,306.438199,1554.432478,11103.089130
40.828968,0.000000,1702.473667,10732.986159
40.829276,-229.828649,1406.391290,11103.089130
40.829584,459.657299,1554.432478,10732.986159
40.829892,383.047749,1332.370696,10658.965565
40.830200,76.609550,666.185348,10732.986159
40.830508,0.000000,296.082377,10584.944971
40.830816,-229.828649,-148.041188,10955.047942
40.831124,-612.876398,-370.102971,10658.965565
40.831432,0.000000,-370.102971,10214.842000
40.831740,229.828649,222.061783,10066.800811
40.832048,153.219100,-0.000000,9474.636058
40.832356,229.828649,222.061783,9548.656652
40.832664,459.657299,-0.000000,9474.636058
40.832972,306.438199,-296.082377,9326.594869
40.833280,612.876398,-666.185348,9030.512492
40.833588,612.876398,-888.247130,9178.553681
40.833896,612.876398,-962.267725,9178.553681
40.834204,459.657299,-1258.350101,8808.450710
40.834512,153.219100,-888.247130,8734.430116
40.834820,76.609550,-888.247130,8882.471304
40.835128,229.828649,-666.185348,8512.368333
40.835436,229.828649,-814.226536,8438.347739
40.835743,689.485948,-814.226536,8660.409521
40.836051,919.314598,-740.205942,8586.388927
40.836359,536.266849,-1406.391290,8142.265362
40.836667,612.876398,-1184.329507,8734.430116
40.836975,536.266849,-1184.329507,8660.409521
40.837283,306.438199,-962.267725,8882.471304
40.837591,229.828649,-814.226536,9030.512492
40.837899,0.000000,-888.247130,9030.512492
40.838207,153.219100,-1036.288319,9030.512492
40.838515,536.266849,-740.205942,8808.450710
40.838823,612.876398,-962.267725,9104.533087
40.839131,766.095498,-296.082377,9252.574275
40.839439,612.876398,-370.102971,8734.430116
40.839747,995.924147,-370.102971,8734.430116
40.840055,1149.143247,-0.000000,8586.388927
40.840363,1455.581446,-74.020594,8438.347739
40.840671,1838.629195,-0.000000,8660.409521
40.840979,1302.362347,370.102971,8882.471304
40.841287,1302.362347,444.123565,8956.491898
40.841595,1225.752797,-0.000000,8734.430116
40.841903,1532.190996,592.164754,9252.574275
40.842211,1225.752797,296.082377,9178.553681
40.842519,1072.533697,-0.000000,9252.574275
40.842827,919.314598,148.041188,9400.615463
40.843135,1072.533697,-148.041188,9474.636058
40.843443,842.705048,-0.000000,9918.759623
40.843751,153.219100,-0.000000,10436.903782
40.844059,766.095498,148.041188,10214.842000
40.844367,689.485948,518.144159,9992.780217
40.844675,766.095498,814.226536,9992.780217
40.844983,842.705048,740.205942,9770.718434
40.845290,842.705048,888.247130,9696.697840
40.845598,995.924147,666.185348,9770.718434
40.845906,689.485948,814.226536,9770.718434
40.846214,1302.362347,666.185348,9844.739029
40.846522,995.924147,370.102971,10214.842000
40.846830,689.485948,592.164754,9918.759623
40.847138,842.705048,888.247130,9770.718434
40.847446,612.876398,1110.308913,9992.780217
40.847754,842.705048,962.267725,10066.800811
40.848062,459.657299,814.226536,10362.883188
40.848370,536.266849,592.164754,10214.842000
40.848678,1072.533697,148.041188,10066.800811
40.848986,0.000000,444.123565,9918.759623
40.849294,383.047749,444.123565,10066.800811
40.849602,0.000000,518.144159,10214.842000
40.849910,153.219100,-0.000000,10288.862594
40.850218,76.609550,-0.000000,10214.842000
40.850526,0.000000,370.102971,10362.883188
40.850834,153.219100,-148.041188,9992.780217
40.851142,612.876398,-0.000000,9992.780217
40.851450,383.047749,296.082377,9992.780217
40.851758,153.219100,-0.000000,9992.780217
40.852066,153.219100,222.061783,9844.739029
40.852374,306.438199,-0.000000,9548.656652
40.852682,306.438199,222.061783,9622.677246
40.852990,76.609550,-0.000000,9770.718434
40.853298,536.266849,-74.020594,9622.677246
40.853606,229.828649,-0.000000,9474.636058
40.853914,0.000000,444.123565,9696.697840
40.854222,612.876398,444.123565,9474.636058
40.854529,612.876398,444.123565,9548.656652
40.854837,689.485948,444.123565,9474.636058
40.855145,766.095498,148.041188,9400.615463
40.855453,306.438199,-148.041188,9030.512492
40.855761,459.657299,-0.000000,9918.759623
40.856069,612.876398,-222.061783,9548.656652
40.856377,306.438199,-74.020594,9844.739029
40.856685,612.876398,-0.000000,9622.677246
40.856993,612.876398,-0.000000,9622.677246
40.857301,612.876398,-0.000000,9548.656652
40.857609,842.705048,370.102971,9548.656652
40.857917,842.705048,444.123565,9918.759623
40.858225,995.924147,296.082377,9622.677246
40.858533,766.095498,296.082377,9474.636058
40.858841,919.314598,-0.000000,9252.574275
40.859149,919.314598,296.082377,9326.594869
40.859457,995.924147,296.082377,9474.636058
40.859765,1302.362347,444.123565,9400.615463
40.860073,1378.971896,518.144159,9474.636058
40.860381,1149.143247,222.061783,9474.636058
40.860689,1149.143247,370.102971,9474.636058
40.860997,1685.410096,518.144159,9474.636058
40.861305,1225.752797,222.061783,9400.615463
40.861613,919.314598,370.102971,9622.677246
40.861921,1072.533697,518.144159,9474.636058
40.862229,1225.752797,296.082377,9400.615463
40.862537,1838.629195,518.144159,9548.656652
40.862845,1455.581446,518.144159,9252.574275
40.863153,1455.581446,-0.000000,9326.594869
40.863461,995.924147,814.226536,9622.677246
40.863768,919.314598,592.164754,9844.739029
40.864076,1072.533697,296.082377,9474.636058
40.864384,766.095498,370.102971,9400.615463
40.864692,689.485948,222.061783,9326.594869
40.865000,612.876398,148.041188,9622.677246
40.865308,689.485948,-148.041188,9844.739029
40.865616,153.219100,-0.000000,9770.718434
40.865924,995.924147,-222.061783,9770.718434
40.866232,612.876398,-148.041188,9474.636058
40.866540,842.705048,-0.000000,9622.677246
40.866848,766.095498,-0.000000,9474.636058
40.867156,1072.533697,-0.000000,9252.574275
40.867464,919.314598,-0.000000,9030.512492
40.867772,919.314598,-0.000000,9474.636058
40.868080,766.095498,-0.000000,9178.553681
40.868388,842.705048,-296.082377,9030.512492
40.868696,459.657299,-222.061783,9252.574275
40.869004,383.047749,-222.061783,9326.594869
40.869312,153.219100,-222.061783,9474.636058
40.869620,0.000000,-148.041188,9696.697840
40.869928,-306.438199,-296.082377,9696.697840
40.870236,0.000000,-518.144159,9696.697840
40.870544,-229.828649,-592.164754,10066.800811
40.870852,76.609550,-296.082377,9696.697840
40.871160,0.000000,-74.020594,9622.677246
40.871468,-229.828649,-0.000000,9548.656652
40.871776,0.000000,-74.020594,9548.656652
40.872084,0.000000,-0.000000,9696.697840
40.872392,0.000000,-74.020594,9474.636058
40.872700,536.266849,-74.020594,9548.656652
40.873008,153.219100,-0.000000,9622.677246
40.873315,306.438199,-0.000000,9770.718434
40.873623,229.828649,-0.000000,9548.656652
40.873931,76.609550,296.082377,9918.759623
40.874239,76.609550,222.061783,9474.636058
40.874547,153.219100,444.123565,9474.636058
40.874855,229.828649,296.082377,9770.718434
40.875163,153.219100,148.041188,9548.656652
40.875471,842.705048,296.082377,9696.697840
40.875779,459.657299,-0.000000,9696.697840
40.876087,383.047749,592.164754,9622.677246
40.876395,306.438199,296.082377,9844.739029
40.876703,459.657299,-0.000000,9992.780217
40.877011,383.047749,296.082377,9992.780217
40.877319,383.047749,518.144159,10510.924376
40.877627,459.657299,-0.000000,10214.842000
40.877935,612.876398,148.041188,10066.800811
40.878243,842.705048,222.061783,9844.739029
40.878551,536.266849,444.123565,9992.780217
40.878859,689.485948,518.144159,9696.697840
40.879167,919.314598,666.185348,9696.697840
40.879475,995.924147,962.267725,9622.677246
40.879783,1149.143247,592.164754,9770.718434
40.880091,1302.362347,592.164754,9548.656652
40.880399,1302.362347,370.102971,9696.697840
40.880707,1149.143247,518.144159,9400.615463
40.881015,1378.971896,888.247130,9548.656652
40.881323,1302.362347,1184.329507,9770.718434
40.881631,1225.752797,666.185348,9622.677246
40.881939,1072.533697,740.205942,9696.697840
40.882247,1072.533697,296.082377,9696.697840
40.882554,919.314598,-0.000000,9548.656652
40.882862,995.924147,-0.000000,10066.800811
40.883170,1072.533697,148.041188,9696.697840
40.883478,842.705048,370.102971,9474.636058
40.883786,919.314598,222.061783,9474.636058
40.884094,1072.533697,518.144159,9696.697840
40.884402,1455.581446,518.144159,9474.636058
40.884710,919.314598,592.164754,9548.656652
40.885018,1685.410096,296.082377,9326.594869
40.885326,995.924147,370.102971,9104.533087
40.885634,1302.362347,296.082377,9326.594869
40.885942,1225.752797,296.082377,9252.574275
40.886250,1149.143247,370.102971,9178.553681
40.886558,1072.533697,222.061783,9400.615463
40.886866,995.924147,-0.000000,9252.574275
40.887174,689.485948,-74.020594,9326.594869
40.887482,76.609550,-0.000000,9400.615463
40.887790,1225.752797,-0.000000,9474.636058
40.888098,459.657299,370.102971,9474.636058
40.888406,383.047749,-0.000000,9326.594869
40.888714,536.266849,-148.041188,9326.594869
40.889022,383.047749,-148.041188,9178.553681
40.889330,153.219100,-74.020594,9474.636058
40.889638,536.266849,-222.061783,9474.636058
40.889946,229.828649,-74.020594,9474.636058
40.890254,612.876398,-0.000000,9622.677246
40.890562,76.609550,-0.000000,9696.697840
40.890870,153.219100,-444.123565,9622.677246
40.891178,153.219100,-370.102971,9474.636058
40.891486,306.438199,-0.000000,9548.656652
40.891794,612.876398,-0.000000,9400.615463
40.892101,689.485948,148.041188,9474.636058
40.892409,842.705048,296.082377,8882.471304
40.892717,766.095498,222.061783,9104.533087
40.893025,766.095498,-0.000000,9252.574275
40.893333,536.266849,444.123565,9400.615463
40.893641,229.828649,-0.000000,9622.677246
40.893949,153.219100,-0.000000,9696.697840
40.894257,0.000000,-0.000000,9992.780217
40.894565,-229.828649,-444.123565,9992.780217
40.894873,0.000000,-148.041188,10214.842000
40.895181,229.828649,-0.000000,9992.780217
40.895489,0.000000,-0.000000,10584.944971
40.895797,229.828649,-0.000000,9992.780217
40.896105,229.828649,296.082377,9918.759623
40.896413,229.828649,222.061783,9548.656652
40.896721,0.000000,296.082377,9548.656652
40.897029,612.876398,518.144159,9696.697840
40.897337,536.266849,814.226536,9844.739029
40.897645,919.314598,592.164754,9548.656652
40.897953,842.705048,592.164754,9548.656652
40.898261,842.705048,444.123565,9622.677246
40.898569,612.876398,370.102971,9844.739029
40.898877,536.266849,222.061783,9844.739029
40.899185,0.000000,296.082377,9992.780217
40.899493,306.438199,-0.000000,10066.800811
40.899801,459.657299,296.082377,9696.697840
40.900109,842.705048,222.061783,10066.800811
40.900417,919.314598,740.205942,10066.800811
40.900725,689.485948,666.185348,9474.636058
40.901033,612.876398,444.123565,9918.759623
40.901340,459.657299,370.102971,9696.697840
40.901648,536.266849,222.061783,9844.739029
40.901956,306.438199,296.082377,10140.821405
40.902264,995.924147,-296.082377,9696.697840
40.902572,459.657299,148.041188,9548.656652
40.902880,766.095498,-0.000000,9622.677246
40.903188,689.485948,370.102971,9474.636058
40.903496,995.924147,222.061783,9474.636058
40.903804,1225.752797,370.102971,9474.636058
40.904112,1072.533697,296.082377,9252.574275
40.904420,919.314598,222.061783,9030.512492
40.904728,1149.143247,592.164754,9622.677246
40.905036,995.924147,-0.000000,9474.636058
40.905344,1149.143247,370.102971,9622.677246
40.905652,995.924147,296.082377,9326.594869
40.905960,766.095498,-0.000000,9474.636058
40.906268,919.314598,148.041188,9400.615463
40.906576,919.314598,-0.000000,9400.615463
40.906884,766.095498,-222.061783,9326.594869
40.907192,1149.143247,-0.000000,9400.615463
40.907500,612.876398,-148.041188,9474.636058
40.907808,842.705048,-74.020594,9548.656652
40.908116,536.266849,-0.000000,9474.636058
40.908424,536.266849,-0.000000,9252.574275
40.908732,612.876398,222.061783,9326.594869
40.909040,919.314598,-0.000000,9252.574275
40.909348,919.314598,-74.020594,9474.636058
40.909656,766.095498,-0.000000,9474.636058
40.909964,919.314598,-74.020594,9474.636058
40.910272,612.876398,-0.000000,9474.636058
40.910580,766.095498,222.061783,9474.636058
40.910887,612.876398,222.061783,9622.677246
40.911195,536.266849,222.061783,9622.677246
40.911503,383.047749,-0.000000,9548.656652
40.911811,766.095498,-0.000000,9548.656652
40.912119,306.438199,-0.000000,9474.636058
40.912427,459.657299,222.061783,9918.759623
40.912735,153.219100,222.061783,9770.718434
40.913043,383.047749,-0.000000,9696.697840
40.913351,153.219100,296.082377,9918.759623
40.913659,383.047749,222.061783,9696.697840
40.913967,536.266849,888.247130,9992.780217
40.914275,153.219100,222.061783,9992.780217
40.914583,995.924147,296.082377,9548.656652
40.914891,919.314598,296.082377,9770.718434
40.915199,919.314598,296.082377,9474.636058
40.915507,842.705048,592.164754,9474.636058
40.915815,689.485948,518.144159,9474.636058
40.916123,383.047749,592.164754,9548.656652
40.916431,689.485948,222.061783,9548.656652
40.916739,612.876398,592.164754,9622.677246
40.917047,612.876398,592.164754,9696.697840
40.917355,842.705048,222.061783,9844.739029
40.917663,612.876398,-0.000000,9992.780217
40.917971,383.047749,222.061783,9918.759623
40.918279,229.828649,148.041188,10066.800811
40.918587,306.438199,-0.000000,10066.800811
40.918895,306.438199,-74.020594,10214.842000
40.919202,306.438199,-74.020594,10066.800811
40.919510,229.828649,-74.020594,9992.780217
40.919818,612.876398,-0.000000,9696.697840
40.920126,612.876398,222.061783,9622.677246
40.920434,689.485948,370.102971,9474.636058
40.920742,919.314598,370.102971,9326.594869
40.921050,919.314598,444.123565,9252.574275
40.921358,995.924147,444.123565,9104.533087
40.921666,1072.533697,370.102971,9178.553681
40.921974,1378.971896,-0.000000,9178.553681
40.922282,1072.533697,-0.000000,9252.574275
40.922590,766.095498,-0.000000,9474.636058
40.922898,612.876398,-0.000000,9770.718434
40.923206,536.266849,-0.000000,9770.718434
40.923514,459.657299,-222.061783,9474.636058
40.923822,995.924147,-0.000000,9474.636058
40.924130,612.876398,-148.041188,9696.697840
40.924438,536.266849,-0.000000,9696.697840
40.924746,1149.143247,-148.041188,9326.594869
40.925054,536.266849,296.082377,9104.533087
40.925362,689.485948,-0.000000,9252.574275
40.925670,842.705048,-0.000000,9400.615463
40.925978,536.266849,-0.000000,9474.636058
40.926286,536.266849,-148.041188,9474.636058
40.926594,459.657299,-74.020594,9252.574275
40.926902,383.047749,-0.000000,9548.656652
40.927209,995.924147,-74.020594,9622.677246
40.927517,383.047749,-0.000000,9104.533087
40.927825,689.485948,-0.000000,9326.594869
40.928133,459.657299,-0.000000,9474.636058
40.928441,612.876398,148.041188,9474.636058
40.928749,842.705048,-0.000000,9918.759623
40.929057,612.876398,-0.000000,9548.656652
40.929365,689.485948,-0.000000,9474.636058
40.929673,0.000000,296.082377,9474.636058
40.929981,689.485948,296.082377,9400.615463
40.930289,229.828649,296.082377,9474.636058
40.930597,612.876398,222.061783,9400.615463
40.930905,459.657299,296.082377,9252.574275
40.931213,612.876398,-0.000000,9474.636058
40.931521,229.828649,-0.000000,10214.842000
40.931829,919.314598,-518.144159,10066.800811
40.932137,-76.609550,-0.000000,10140.821405
40.932445,0.000000,-0.000000,10214.842000
40.932753,153.219100,222.061783,10288.862594
40.933061,536.266849,444.123565,10066.800811
40.933369,766.095498,666.185348,9696.697840
40.933677,919.314598,666.185348,9326.594869
40.933985,919.314598,740.205942,9252.574275
40.934293,1455.581446,666.185348,9400.615463
40.934601,919.314598,1036.288319,9474.636058
40.934909,995.924147,666.185348,9252.574275
40.935216,689.485948,518.144159,9548.656652
40.935524,689.485948,296.082377,9844.739029
40.935832,306.438199,-0.000000,10214.842000
40.936140,766.095498,-0.000000,10214.842000
40.936448,306.438199,-0.000000,10140.821405
40.936756,0.000000,148.041188,10584.944971
40.937064,1072.533697,-0.000000,10214.842000
40.937372,612.876398,296.082377,9844.739029
40.937680,842.705048,592.164754,9622.677246
40.937988,1149.143247,740.205942,9474.636058
40.938296,919.314598,518.144159,9474.636058
40.938604,995.924147,222.061783,9474.636058
40.938912,536.266849,148.041188,9474.636058
40.939220,0.000000,-0.000000,9696.697840
40.939528,536.266849,296.082377,9622.677246
40.939836,536.266849,-0.000000,9622.677246
40.940144,612.876398,-0.000000,9622.677246
40.940452,919.314598,-0.000000,9548.656652
40.940760,995.924147,-0.000000,9474.636058
40.941068,1149.143247,296.082377,9474.636058
40.941376,1302.362347,222.061783,9622.677246
40.941684,919.314598,222.061783,9474.636058
40.941992,919.314598,888.247130,9770.718434
40.942300,689.485948,592.164754,9326.594869
40.942608,919.314598,518.144159,9326.594869
40.942916,689.485948,370.102971,9252.574275
40.943223,383.047749,148.041188,9548.656652
40.943531,612.876398,-0.000000,9918.759623
40.943839,383.047749,-296.082377,9918.759623
40.944147,229.828649,-444.123565,9844.739029
40.944455,76.609550,-74.020594,10214.842000
40.944763,306.438199,-222.061783,9844.739029
40.945071,689.485948,-0.000000,9622.677246
40.945379,612.876398,-74.020594,9474.636058
40.945687,459.657299,-0.000000,9400.615463
40.945995,689.485948,-0.000000,9400.615463
40.946303,995.924147,444.123565,9474.636058
40.946611,689.485948,-74.020594,9252.574275
40.946919,612.876398,222.061783,9326.594869
40.947227,612.876398,370.102971,9178.553681
40.947535,766.095498,296.082377,9326.594869
40.947843,536.266849,-0.000000,9252.574275
40.948151,1225.752797,148.041188,9400.615463
40.948459,919.314598,-222.061783,9400.615463
40.948767,459.657299,-74.020594,9696.697840
40.949075,459.657299,-0.000000,9400.615463
40.949383,536.266849,-222.061783,9622.677246
40.949691,229.828649,148.041188,9770.718434
40.949999,153.219100,222.061783,9474.636058
40.950307,76.609550,-0.000000,9622.677246
40.950615,383.047749,222.061783,9696.697840
40.950923,459.657299,-0.000000,9622.677246
40.951230,306.438199,296.082377,9474.636058
40.951538,536.266849,74.020594,9548.656652
40.951846,536.266849,444.123565,9844.739029
40.952154,383.047749,148.041188,9696.697840
40.952462,689.485948,222.061783,9918.759623
40.952770,612.876398,370.102971,9918.759623
40.953078,536.266849,-0.000000,9696.697840
40.953386,459.657299,-74.020594,9770.718434
40.953694,919.314598,222.061783,9548.656652
40.954002,995.924147,296.082377,9474.636058
40.954310,536.266849,370.102971,9622.677246
40.954618,612.876398,296.082377,9400.615463
40.954926,612.876398,592.164754,9474.636058
40.955234,689.485948,518.144159,9474.636058
40.955542,689.485948,592.164754,9474.636058
40.955850,612.876398,222.061783,9844.739029
40.956158,536.266849,-0.000000,9696.697840
40.956466,612.876398,-0.000000,9918.759623
40.956774,459.657299,148.041188,9918.759623
40.957082,383.047749,-0.000000,9918.759623
40.957390,459.657299,-0.000000,9770.718434
40.957698,459.657299,-0.000000,9770.718434
40.958006,612.876398,-148.041188,9770.718434
40.958314,536.266849,-74.020594,9622.677246
40.958622,766.095498,-0.000000,9474.636058
40.958930,1149.143247,148.041188,9474.636058
40.959237,689.485948,296.082377,9400.615463
40.959545,919.314598,296.082377,9474.636058
40.959853,689.485948,370.102971,9474.636058
40.960161,842.705048,-0.000000,9548.656652
40.960469,842.705048,-0.000000,9548.656652
40.960777,1225.752797,-74.020594,9770.718434
40.961085,842.705048,-74.020594,9474.636058
40.961393,995.924147,-0.000000,9770.718434
40.961701,459.657299,-0.000000,9844.739029
40.962009,842.705048,148.041188,9548.656652
40.962317,766.095498,296.082377,9474.636058
40.962625,766.095498,370.102971,9474.636058
40.962933,1149.143247,370.102971,9326.594869
40.963241,1072.533697,370.102971,9474.636058
40.963549,306.438199,-0.000000,9548.656652
40.963857,995.924147,-148.041188,9400.615463
40.964165,383.047749,148.041188,9918.759623
40.964473,229.828649,-148.041188,9992.780217
40.964781,153.219100,-370.102971,9992.780217
40.965089,383.047749,-74.020594,9844.739029
40.965397,536.266849,-74.020594,9844.739029
40.965705,919.314598,-0.000000,9548.656652
40.966013,1608.800546,148.041188,9548.656652
40.966321,1532.190996,222.061783,9178.553681
40.966629,1302.362347,666.185348,9178.553681
40.966937,1072.533697,444.123565,9252.574275
40.967244,1072.533697,370.102971,9474.636058
40.967552,995.924147,592.164754,9474.636058
40.967860,919.314598,296.082377,9622.677246
40.968168,766.095498,222.061783,9696.697840
40.968476,459.657299,148.041188,9622.677246
40.968784,1072.533697,592.164754,9696.697840
40.969092,612.876398,-0.000000,9770.718434
40.969400,459.657299,148.041188,9696.697840
40.969708,383.047749,148.041188,9770.718434
40.970016,612.876398,222.061783,9696.697840
40.970324,766.095498,-74.020594,9548.656652
40.970632,766.095498,518.144159,9844.739029
40.970940,689.485948,222.061783,9918.759623
40.971248,612.876398,148.041188,9770.718434
40.971556,383.047749,444.123565,9696.697840
40.971864,383.047749,444.123565,9696.697840
40.972172,306.438199,296.082377,9696.697840
40.972480,536.266849,-0.000000,9696.697840
40.972788,612.876398,222.061783,9844.739029
40.973096,612.876398,-0.000000,9770.718434
40.973404,766.095498,-0.000000,9474.636058
40.973712,383.047749,-0.000000,9622.677246
40.974020,536.266849,-0.000000,9474.636058
40.974328,536.266849,222.061783,9474.636058
40.974636,612.876398,-0.000000,9548.656652
40.974944,383.047749,296.082377,9474.636058
40.975251,612.876398,296.082377,9548.656652
40.975559,766.095498,444.123565,9548.656652
40.975867,306.438199,-0.000000,9622.677246
40.976175,612.876398,-0.000000,9696.697840
40.976483,153.219100,-0.000000,9474.636058
40.976791,459.657299,-0.000000,9844.739029
40.977099,306.438199,-74.020594,9918.759623
40.977407,229.828649,-74.020594,9770.718434
40.977715,536.266849,-222.061783,9918.759623
40.978023,459.657299,-148.041188,9548.656652
40.978331,842.705048,-0.000000,9696.697840
40.978639,1072.533697,148.041188,9548.656652
40.978947,842.705048,370.102971,9474.636058
40.979255,995.924147,370.102971,9474.636058
40.979563,766.095498,296.082377,9252.574275
40.979871,919.314598,296.082377,9326.594869
40.980179,689.485948,296.082377,9474.636058
40.980487,536.266849,222.061783,9622.677246
40.980795,459.657299,-0.000000,9474.636058
40.981103,536.266849,-74.020594,9622.677246
40.981411,842.705048,370.102971,9474.636058
40.981719,842.705048,296.082377,9548.656652
40.982027,536.266849,-0.000000,9474.636058
40.982335,689.485948,-0.000000,9770.718434
40.982643,919.314598,444.123565,10140.821405
40.982951,689.485948,-74.020594,9696.697840
40.983258,766.095498,-0.000000,9548.656652
40.983566,-153.219100,-0.000000,9770.718434
40.983874,459.657299,222.061783,9770.718434
40.984182,383.047749,148.041188,9770.718434
40.984490,459.657299,-0.000000,9474.636058
40.984798,612.876398,296.082377,9696.697840
40.985106,766.095498,148.041188,9696.697840
40.985414,995.924147,370.102971,9696.697840
40.985722,919.314598,-0.000000,9696.697840
40.986030,689.485948,296.082377,9400.615463
40.986338,842.705048,518.144159,9400.615463
40.986646,459.657299,444.123565,9474.636058
40.986954,842.705048,518.144159,9548.656652
40.987262,766.095498,296.082377,9548.656652
40.987570,612.876398,296.082377,9844.739029
40.987878,842.705048,-74.020594,9474.636058
40.988186,842.705048,-74.020594,9548.656652
40.988494,536.266849,-0.000000,10066.800811
40.988802,306.438199,222.061783,9992.780217
40.989110,612.876398,296.082377,9844.739029
40.989418,459.657299,296.082377,9696.697840
40.989726,459.657299,148.041188,9548.656652
40.990034,306.438199,-0.000000,9918.759623
40.990342,612.876398,296.082377,9770.718434
40.990650,76.609550,-74.020594,9770.718434
40.990958,536.266849,296.082377,9474.636058
40.991265,383.047749,370.102971,9622.677246
40.991573,689.485948,444.123565,9474.636058
40.991881,842.705048,444.123565,9400.615463
40.992189,1072.533697,444.123565,9474.636058
40.992497,919.314598,-0.000000,9622.677246
40.992805,842.705048,370.102971,9622.677246
40.993113,919.314598,-148.041188,9474.636058
40.993421,459.657299,-74.020594,9696.697840
40.993729,536.266849,-0.000000,9770.718434
40.994037,612.876398,296.082377,9696.697840
40.994345,536.266849,222.061783,9400.615463
40.994653,766.095498,296.082377,9400.615463
40.994961,842.705048,148.041188,9622.677246
40.995269,842.705048,296.082377,9474.636058
40.995577,689.485948,-0.000000,9622.677246
40.995885,536.266849,518.144159,9548.656652
40.996193,536.266849,148.041188,9400.615463
40.996501,536.266849,222.061783,9622.677246
40.996809,459.657299,222.061783,9622.677246
40.997117,842.705048,148.041188,9474.636058
40.997425,919.314598,296.082377,9696.697840
40.997733,842.705048,296.082377,9178.553681
40.998041,842.705048,-0.000000,9770.718434
40.998349,689.485948,-74.020594,9474.636058
40.998657,689.485948,148.041188,9474.636058
40.998965,689.485948,296.082377,9548.656652
40.999272,459.657299,148.041188,9770.718434
40.999580,383.047749,-0.000000,9548.656652
40.999888,306.438199,74.020594,9548.656652
41.000196,1225.752797,-0.000000,9622.677246
41.000504,1072.533697,-74.020594,9548.656652
41.000812,612.876398,222.061783,9474.636058
41.001120,689.485948,518.144159,9622.677246
41.001428,612.876398,222.061783,9474.636058
41.001736,842.705048,-0.000000,9548.656652
41.002044,536.266849,148.041188,9696.697840
41.002352,842.705048,148.041188,9770.718434
41.002660,995.924147,518.144159,9844.739029
41.002968,612.876398,-0.000000,9548.656652
41.003276,536.266849,-0.000000,9770.718434
41.003584,612.876398,-0.000000,9548.656652
41.003892,536.266849,-0.000000,9918.759623
41.004200,612.876398,222.061783,9992.780217
41.004508,689.485948,-0.000000,9548.656652
41.004816,612.876398,222.061783,9696.697840
41.005124,1072.533697,-0.000000,9400.615463
41.005432,459.657299,444.123565,9622.677246
41.005740,536.266849,148.041188,9622.677246
41.006048,612.876398,444.123565,9622.677246
41.006356,689.485948,518.144159,9548.656652
41.006664,306.438199,370.102971,9622.677246
41.006972,612.876398,296.082377,9622.677246
41.007279,842.705048,296.082377,9696.697840
41.007587,459.657299,-0.000000,9844.739029
41.007895,766.095498,-0.000000,9400.615463
41.008203,536.266849,-0.000000,9770.718434
41.008511,689.485948,518.144159,9474.636058
41.008819,459.657299,370.102971,9548.656652
41.009127,536.266849,148.041188,9548.656652
41.009435,383.047749,-0.000000,9696.697840
41.009743,536.266849,-0.000000,9844.739029
41.010051,536.266849,-0.000000,9770.718434
41.010359,306.438199,518.144159,9918.759623
41.010667,383.047749,-74.020594,9474.636058
41.010975,689.485948,296.082377,9474.636058
41.011283,536.266849,-0.000000,9696.697840
41.011591,536.266849,222.061783,9474.636058
41.011899,842.705048,370.102971,9474.636058
41.012207,842.705048,-0.000000,9400.615463
41.012515,842.705048,-0.000000,9622.677246
41.012823,536.266849,-74.020594,9474.636058
41.013131,689.485948,-0.000000,9252.574275
41.013439,536.266849,296.082377,9474.636058
41.013747,383.047749,296.082377,9622.677246
41.014055,383.047749,-0.000000,9474.636058
41.014363,612.876398,-148.041188,9474.636058
41.014671,842.705048,-0.000000,9770.718434
41.014978,689.485948,-222.061783,9474.636058
41.015286,612.876398,-0.000000,9548.656652
41.015594,689.485948,148.041188,9622.677246
41.015902,536.266849,222.061783,9696.697840
41.016210,766.095498,296.082377,9474.636058
41.016518,842.705048,296.082377,9548.656652
41.016826,536.266849,148.041188,9400.615463
41.017134,459.657299,-0.000000,9474.636058
41.017442,766.095498,-0.000000,9474.636058
41.017750,842.705048,222.061783,9918.759623
41.018058,842.705048,-296.082377,9252.574275
41.018366,766.095498,148.041188,9548.656652
41.018673,689.485948,-0.000000,9696.697840
41.018981,536.266849,-0.000000,9548.656652
41.019289,689.485948,222.061783,9770.718434
41.019597,842.705048,-0.000000,9622.677246
41.019905,612.876398,222.061783,9770.718434
41.020213,766.095498,296.082377,9770.718434
41.020521,1072.533697,-0.000000,9400.615463
41.020829,612.876398,148.041188,9474.636058
41.021137,842.705048,370.102971,9474.636058
41.021445,689.485948,296.082377,9474.636058
41.021753,689.485948,296.082377,9622.677246
41.022060,689.485948,296.082377,10140.821405
41.022368,919.314598,-74.020594,9770.718434
41.022676,383.047749,222.061783,9696.697840
41.022984,536.266849,-0.000000,9622.677246
41.023292,766.095498,444.123565,9696.697840
41.023600,766.095498,296.082377,9622.677246
41.023908,919.314598,370.102971,9474.636058
41.024216,995.924147,370.102971,9474.636058
41.024524,689.485948,518.144159,9474.636058
41.024832,1149.143247,444.123565,9696.697840
41.025140,689.485948,-74.020594,9326.594869
41.025447,689.485948,148.041188,9474.636058
41.025755,536.266849,148.041188,9992.780217
41.026063,383.047749,-0.000000,9992.780217
41.026371,229.828649,-0.000000,9696.697840
41.026679,229.828649,148.041188,9696.697840
41.026987,536.266849,-74.020594,9548.656652
41.027295,1149.143247,296.082377,9548.656652
41.027603,1072.533697,-0.000000,9770.718434
41.027911,842.705048,370.102971,9548.656652
41.028219,766.095498,370.102971,9400.615463
41.028527,689.485948,148.041188,9622.677246
41.028834,612.876398,296.082377,9696.697840
41.029142,612.876398,-0.000000,9548.656652
41.029450,383.047749,148.041188,9622.677246
41.029758,995.924147,518.144159,9696.697840
41.030066,766.095498,222.061783,9548.656652
41.030374,689.485948,-0.000000,9252.574275
41.030682,689.485948,222.061783,9474.636058
41.030990,536.266849,296.082377,9178.553681
41.031298,306.438199,222.061783,9696.697840
41.031606,689.485948,-0.000000,9696.697840
41.031914,459.657299,-0.000000,9622.677246
41.032221,0.000000,148.041188,10066.800811
41.032529,766.095498,-0.000000,9844.739029
41.032837,383.047749,-0.000000,9918.759623
41.033145,459.657299,-0.000000,9770.718434
41.033453,689.485948,222.061783,9474.636058
41.033761,842.705048,222.061783,9252.574275
41.034069,995.924147,-0.000000,9474.636058
41.034377,1225.752797,148.041188,9252.574275
41.034685,689.485948,-0.000000,9030.512492
41.034993,1225.752797,-0.000000,8956.491898
41.035301,766.095498,296.082377,9474.636058
41.035608,459.657299,-0.000000,9474.636058
41.035916,536.266849,-0.000000,9548.656652
41.036224,612.876398,222.061783,9696.697840
41.036532,689.485948,148.041188,9696.697840
41.036840,689.485948,-148.041188,9844.739029
41.037148,383.047749,-0.000000,9770.718434
41.037456,689.485948,-74.020594,9622.677246
41.037764,689.485948,148.041188,9400.615463
41.038072,919.314598,370.102971,9696.697840
41.038380,842.705048,296.082377,9548.656652
41.038688,919.314598,444.123565,9474.636058
41.038996,689.485948,148.041188,9474.636058
41.039303,689.485948,222.061783,9992.780217
41.039611,536.266849,222.061783,9992.780217
41.039919,383.047749,296.082377,9992.780217
41.040227,536.266849,-0.000000,9770.718434
41.040535,306.438199,-0.000000,9844.739029
41.040843,612.876398,-0.000000,9844.739029
41.041151,995.924147,444.123565,9918.759623
41.041459,689.485948,-74.020594,9918.759623
41.041767,1072.533697,222.061783,9548.656652
41.042075,1225.752797,370.102971,9548.656652
41.042383,1149.143247,222.061783,9548.656652
41.042690,919.314598,592.164754,9474.636058
41.042998,689.485948,518.144159,9474.636058
41.043306,766.095498,444.123565,9474.636058
41.043614,612.876398,296.082377,9548.656652
41.043922,689.485948,370.102971,9696.697840
41.044230,766.095498,370.102971,9918.759623
41.044538,1225.752797,-222.061783,9400.615463
41.044846,0.000000,-592.164754,9844.739029
41.045154,459.657299,-0.000000,9992.780217
41.045462,459.657299,222.061783,9992.780217
41.045770,536.266849,222.061783,9770.718434
41.046077,459.657299,370.102971,9548.656652
41.046385,689.485948,222.061783,9400.615463
41.046693,1378.971896,296.082377,9548.656652
41.047001,919.314598,-74.020594,9770.718434
41.047309,766.095498,148.041188,9326.594869
41.047617,766.095498,222.061783,9474.636058
41.047925,612.876398,-0.000000,9622.677246
41.048233,689.485948,-0.000000,9548.656652
41.048541,536.266849,-148.041188,9548.656652
41.048849,229.828649,-74.020594,10066.800811
41.049157,229.828649,-444.123565,9474.636058
41.049464,383.047749,-0.000000,9992.780217
41.049772,842.705048,296.082377,9622.677246
41.050080,842.705048,296.082377,9548.656652
41.050388,459.657299,444.123565,9400.615463
41.050696,689.485948,222.061783,9326.594869
41.051004,459.657299,222.061783,9400.615463
41.051312,536.266849,222.061783,9474.636058
41.051620,536.266849,222.061783,9474.636058
41.051928,612.876398,-0.000000,9474.636058
41.052236,153.219100,222.061783,9770.718434
41.052544,459.657299,-0.000000,9622.677246
41.052851,306.438199,-74.020594,9622.677246
41.053159,459.657299,-0.000000,9770.718434
41.053467,536.266849,-296.082377,9992.780217
41.053775,612.876398,296.082377,9770.718434
41.054083,919.314598,-0.000000,9844.739029
41.054391,0.000000,-0.000000,9622.677246
41.054699,689.485948,-0.000000,9400.615463
41.055007,612.876398,518.144159,9474.636058
41.055315,766.095498,296.082377,9178.553681
41.055623,842.705048,592.164754,9400.615463
41.055931,842.705048,592.164754,9252.574275
41.056239,1149.143247,592.164754,9474.636058
41.056546,612.876398,370.102971,9548.656652
41.056854,536.266849,370.102971,9918.759623
41.057162,612.876398,-0.000000,9326.594869
41.057470,229.828649,-0.000000,9770.718434
41.057778,383.047749,-0.000000,9992.780217
41.058086,229.828649,-74.020594,10066.800811
41.058394,383.047749,74.020594,9844.739029
41.058702,306.438199,222.061783,9474.636058
41.059010,383.047749,444.123565,9918.759623
41.059318,919.314598,666.185348,9548.656652
41.059626,1149.143247,444.123565,9474.636058
41.059933,919.314598,148.041188,9474.636058
41.060241,919.314598,296.082377,9400.615463
41.060549,766.095498,222.061783,9548.656652
41.060857,0.000000,148.041188,9400.615463
41.061165,612.876398,-148.041188,9548.656652
41.061473,1149.143247,222.061783,9548.656652
41.061781,842.705048,-148.041188,9622.677246
41.062089,612.876398,296.082377,9474.636058
41.062397,689.485948,370.102971,9474.636058
41.062705,612.876398,666.185348,9548.656652
41.063013,612.876398,592.164754,9400.615463
41.063320,1455.581446,444.123565,9622.677246
41.063628,612.876398,296.082377,9696.697840
41.063936,536.266849,222.061783,9844.739029
41.064244,306.438199,222.061783,9918.759623
41.064552,383.047749,-0.000000,9844.739029
41.064860,229.828649,-74.020594,9918.759623
41.065168,229.828649,-148.041188,9918.759623
41.065476,383.047749,-74.020594,9844.739029
41.065784,459.657299,-0.000000,9622.677246
41.066092,229.828649,-222.061783,9992.780217
41.066400,1072.533697,148.041188,9400.615463
41.066707,1225.752797,370.102971,9474.636058
41.067015,919.314598,296.082377,9474.636058
41.067323,1149.143247,444.123565,9252.574275
41.067631,842.705048,518.144159,9252.574275
41.067939,995.924147,444.123565,9252.574275
41.068247,383.047749,296.082377,9474.636058
41.068555,689.485948,-0.000000,9474.636058
41.068863,1072.533697,222.061783,9696.697840
41.069171,766.095498,296.082377,9548.656652
41.069479,383.047749,222.061783,9474.636058
41.069787,459.657299,222.061783,9696.697840
41.070094,536.266849,-0.000000,9548.656652
41.070402,459.657299,-0.000000,9622.677246
41.070710,536.266849,-0.000000,9918.759623
41.071018,689.485948,-222.061783,9918.759623
41.071326,536.266849,-0.000000,9548.656652
41.071634,383.047749,-0.000000,9770.718434
41.071942,919.314598,-0.000000,9548.656652
41.072250,766.095498,-0.000000,9696.697840
41.072558,612.876398,370.102971,9474.636058
41.072866,919.314598,296.082377,9548.656652
41.073174,919.314598,-0.000000,9474.636058
41.073481,919.314598,222.061783,9622.677246
41.073789,689.485948,-0.000000,9622.677246
41.074097,766.095498,370.102971,9622.677246
41.074405,995.924147,444.123565,9548.656652
41.074713,919.314598,666.185348,9474.636058
41.075021,842.705048,296.082377,9696.697840
41.075329,919.314598,370.102971,9548.656652
41.075637,919.314598,-0.000000,9770.718434
41.075945,766.095498,-148.041188,9548.656652
41.076253,76.609550,-0.000000,9770.718434
41.076561,459.657299,-148.041188,9622.677246
41.076869,383.047749,148.041188,9696.697840
41.077176,612.876398,148.041188,9696.697840
41.077484,229.828649,-74.020594,9474.636058
41.077792,383.047749,222.061783,9696.697840
41.078100,383.047749,-0.000000,9844.739029
41.078408,766.095498,-0.000000,9696.697840
41.078716,536.266849,148.041188,9548.656652
41.079024,459.657299,-0.000000,9548.656652
41.079332,689.485948,222.061783,9474.636058
41.079640,536.266849,370.102971,9622.677246
41.079948,689.485948,-0.000000,9770.718434
41.080256,383.047749,-0.000000,9770.718434
41.080563,536.266849,-0.000000,9696.697840
41.080871,383.047749,-0.000000,9844.739029
41.081179,919.314598,222.061783,9622.677246
41.081487,612.876398,518.144159,9474.636058
41.081795,995.924147,370.102971,9474.636058
41.082103,919.314598,296.082377,9474.636058
41.082411,766.095498,296.082377,9326.594869
41.082719,766.095498,296.082377,9548.656652
41.083027,919.314598,296.082377,9622.677246
41.083335,0.000000,-0.000000,9622.677246
41.083643,383.047749,518.144159,9844.739029
41.083950,536.266849,-0.000000,9770.718434
41.084258,306.438199,-0.000000,9548.656652
41.084566,0.000000,296.082377,9696.697840
41.084874,459.657299,-0.000000,9622.677246
41.085182,306.438199,-0.000000,9474.636058
41.085490,459.657299,-0.000000,9696.697840
41.085798,536.266849,-148.041188,9622.677246
41.086106,689.485948,-0.000000,9770.718434
41.086414,766.095498,148.041188,9770.718434
41.086722,612.876398,148.041188,9622.677246
41.087030,689.485948,148.041188,9696.697840
41.087337,536.266849,-0.000000,9548.656652
41.087645,919.314598,296.082377,9474.636058
41.087953,383.047749,148.041188,9474.636058
41.088261,842.705048,222.061783,9326.594869
41.088569,536.266849,-0.000000,9622.677246
41.088877,766.095498,592.164754,9844.739029
41.089185,689.485948,222.061783,9474.636058
41.089493,612.876398,148.041188,9252.574275
41.089801,459.657299,-0.000000,9474.636058
41.090109,536.266849,-0.000000,9770.718434
41.090417,842.705048,148.041188,9770.718434
41.090724,919.314598,-0.000000,9548.656652
41.091032,689.485948,-74.020594,9770.718434
41.091340,229.828649,-0.000000,9696.697840
41.091648,612.876398,296.082377,9770.718434
41.091956,536.266849,-0.000000,9548.656652
41.092264,536.266849,370.102971,9474.636058
41.092572,612.876398,148.041188,9696.697840
41.092880,536.266849,222.061783,10214.842000
41.093188,459.657299,296.082377,9770.718434
41.093496,536.266849,-0.000000,9548.656652
41.093804,689.485948,-296.082377,9696.697840
41.094111,689.485948,148.041188,9696.697840
41.094419,536.266849,-0.000000,9474.636058
41.094727,842.705048,296.082377,9696.697840
41.095035,919.314598,222.061783,9474.636058
41.095343,919.314598,296.082377,9548.656652
41.095651,919.314598,518.144159,9844.739029
41.095959,1149.143247,148.041188,9326.594869
41.096267,766.095498,518.144159,9178.553681
41.096575,766.095498,518.144159,9474.636058
41.096883,459.657299,148.041188,9696.697840
41.097191,459.657299,296.082377,9622.677246
41.097499,536.266849,296.082377,9622.677246
41.097806,536.266849,-74.020594,9696.697840
41.098114,76.609550,-296.082377,9696.697840
41.098422,612.876398,-296.082377,9770.718434
41.098730,459.657299,-0.000000,9548.656652
41.099038,612.876398,-0.000000,9696.697840
41.099346,536.266849,296.082377,9548.656652
41.099654,842.705048,444.123565,9474.636058
41.099962,612.876398,296.082377,9400.615463
41.100270,536.266849,592.164754,9104.533087
41.100578,842.705048,518.144159,9474.636058
41.100886,995.924147,-0.000000,9326.594869
41.101193,766.095498,-0.000000,9548.656652
41.101501,919.314598,-0.000000,9548.656652
41.101809,612.876398,-0.000000,9622.677246
41.102117,689.485948,-0.000000,9770.718434
41.102425,689.485948,-370.102971,9918.759623
41.102733,766.095498,-0.000000,9844.739029
41.103041,612.876398,-74.020594,9400.615463
41.103349,842.705048,296.082377,9474.636058
41.103657,1072.533697,296.082377,9326.594869
41.103965,536.266849,370.102971,9696.697840
41.104273,766.095498,370.102971,9474.636058
41.104580,766.095498,148.041188,9474.636058
41.104888,383.047749,370.102971,9696.697840
41.105196,383.047749,296.082377,9770.718434
41.105504,766.095498,370.102971,9918.759623
41.105812,842.705048,-0.000000,9326.594869
41.106120,612.876398,370.102971,9622.677246
41.106428,536.266849,-0.000000,9770.718434
41.106736,689.485948,148.041188,9622.677246
41.107044,306.438199,-0.000000,9844.739029
41.107352,689.485948,-0.000000,9696.697840
41.107660,459.657299,-222.061783,9474.636058
41.107967,842.705048,-0.000000,9992.780217
41.108275,1072.533697,-0.000000,9696.697840
41.108583,766.095498,222.061783,9474.636058
41.108891,612.876398,518.144159,9326.594869
41.109199,842.705048,370.102971,9474.636058
41.109507,766.095498,518.144159,9548.656652
41.109815,766.095498,444.123565,9252.574275
41.110123,842.705048,444.123565,9474.636058
41.110431,459.657299,-0.000000,9696.697840
41.110739,612.876398,-0.000000,9770.718434
41.111047,153.219100,-0.000000,9918.759623
41.111354,229.828649,-148.041188,9918.759623
41.111662,0.000000,-0.000000,9918.759623
41.111970,153.219100,-0.000000,9918.759623
41.112278,919.314598,-74.020594,9992.780217
41.112586,612.876398,-0.000000,9844.739029
41.112894,766.095498,666.185348,9770.718434
41.113202,919.314598,740.205942,9992.780217
41.113510,842.705048,518.144159,9548.656652
41.113818,1072.533697,444.123565,9178.553681
41.114126,766.095498,518.144159,9474.636058
41.114434,536.266849,444.123565,9474.636058
41.114741,612.876398,592.164754,9770.718434
41.115049,612.876398,-0.000000,9770.718434
41.115357,842.705048,222.061783,9770.718434
41.115665,995.924147,-148.041188,9622.677246
41.115973,766.095498,296.082377,9548.656652
41.116281,536.266849,222.061783,9548.656652
41.116589,536.266849,-0.000000,9696.697840
41.116897,536.266849,222.061783,9770.718434
41.117204,536.266849,-0.000000,9474.636058
41.117512,536.266849,148.041188,9992.780217
41.117820,919.314598,666.185348,9696.697840
41.118128,229.828649,222.061783,9696.697840
41.118436,1149.143247,666.185348,9548.656652
41.118744,689.485948,148.041188,9400.615463
41.119052,612.876398,148.041188,9696.697840
41.119360,459.657299,222.061783,9918.759623
41.119668,459.657299,-0.000000,9918.759623
41.119975,536.266849,-0.000000,9696.697840
41.120283,766.095498,-0.000000,9474.636058
41.120591,536.266849,-0.000000,9474.636058
41.120899,766.095498,-0.000000,9770.718434
41.121207,766.095498,296.082377,9474.636058
41.121515,689.485948,222.061783,9400.615463
41.121823,689.485948,148.041188,9474.636058
41.122131,919.314598,148.041188,9474.636058
41.122439,459.657299,148.041188,9400.615463
41.122746,1302.362347,370.102971,9400.615463
41.123054,919.314598,296.082377,9252.574275
41.123362,919.314598,296.082377,9474.636058
41.123670,842.705048,222.061783,9474.636058
41.123978,612.876398,296.082377,9474.636058
41.124286,459.657299,-148.041188,9548.656652
41.124594,306.438199,-296.082377,9992.780217
41.124902,306.438199,-0.000000,10140.821405
41.125210,0.000000,-0.000000,9770.718434
41.125517,536.266849,-148.041188,9474.636058
41.125825,612.876398,222.061783,9696.697840
41.126133,612.876398,370.102971,9474.636058
41.126441,766.095498,518.144159,9326.594869
41.126749,919.314598,444.123565,9178.553681
41.127057,842.705048,592.164754,9400.615463
41.127365,1149.143247,-0.000000,9622.677246
41.127673,995.924147,296.082377,9696.697840
41.127981,229.828649,-0.000000,9696.697840
41.128288,689.485948,-0.000000,9696.697840
41.128596,459.657299,148.041188,9696.697840
41.128904,536.266849,-0.000000,9696.697840
41.129212,689.485948,-0.000000,9548.656652
41.129520,919.314598,148.041188,9622.677246
41.129828,383.047749,-74.020594,9474.636058
41.130136,536.266849,-74.020594,9548.656652
41.130444,919.314598,222.061783,9474.636058
41.130752,612.876398,-0.000000,9474.636058
41.131059,612.876398,-0.000000,9548.656652
41.131367,229.828649,148.041188,9696.697840
41.131675,306.438199,-0.000000,9696.697840
41.131983,153.219100,-74.020594,9474.636058
41.132291,459.657299,-74.020594,9622.677246
41.132599,919.314598,-0.000000,10066.800811
41.132907,689.485948,-0.000000,10066.800811
41.133215,612.876398,148.041188,9622.677246
41.133523,919.314598,444.123565,9474.636058
41.133830,995.924147,444.123565,9104.533087
41.134138,919.314598,592.164754,9178.553681
41.134446,995.924147,444.123565,9474.636058
41.134754,995.924147,296.082377,9474.636058
41.135062,1072.533697,-0.000000,9696.697840
41.135370,459.657299,-0.000000,9770.718434
41.135678,153.219100,-0.000000,9844.739029
41.135986,306.438199,222.061783,9918.759623
41.136294,459.657299,222.061783,9770.718434
41.136601,689.485948,-0.000000,9770.718434
41.136909,842.705048,222.061783,9696.697840
41.137217,1225.752797,444.123565,9844.739029
41.137525,689.485948,148.041188,9622.677246
41.137833,383.047749,-0.000000,9548.656652
41.138141,459.657299,-0.000000,9622.677246
41.138449,306.438199,-0.000000,9696.697840
41.138757,536.266849,-0.000000,9474.636058
41.139064,536.266849,-0.000000,9696.697840
41.139372,536.266849,-296.082377,9474.636058
41.139680,842.705048,-74.020594,9696.697840
41.139988,766.095498,370.102971,9696.697840
41.140296,1225.752797,222.061783,9622.677246
41.140604,1302.362347,296.082377,9104.533087
41.140912,1225.752797,592.164754,9178.553681
41.141220,1378.971896,592.164754,9104.533087
41.141528,1378.971896,518.144159,9030.512492
41.141835,1072.533697,666.185348,9400.615463
41.142143,689.485948,74.020594,9474.636058
41.142451,842.705048,-0.000000,9696.697840
41.142759,536.266849,-0.000000,9770.718434
41.143067,306.438199,-0.000000,9992.780217
41.143375,0.000000,-222.061783,9696.697840
41.143683,76.609550,-148.041188,9992.780217
41.143991,383.047749,-74.020594,10140.821405
41.144299,842.705048,-222.061783,10066.800811
41.144606,766.095498,222.061783,9844.739029
41.144914,919.314598,296.082377,9474.636058
41.145222,459.657299,592.164754,9548.656652
41.145530,766.095498,518.144159,9474.636058
41.145838,1149.143247,444.123565,9326.594869
41.146146,766.095498,370.102971,9474.636058
41.146454,459.657299,370.102971,9474.636058
41.146762,1302.362347,296.082377,9622.677246
41.147070,995.924147,-0.000000,9548.656652
41.147377,536.266849,-0.000000,9474.636058
41.147685,919.314598,444.123565,9844.739029
41.147993,612.876398,-0.000000,9770.718434
41.148301,536.266849,-0.000000,9622.677246
41.148609,536.266849,222.061783,9696.697840
41.148917,612.876398,444.123565,9474.636058
41.149225,612.876398,370.102971,9548.656652
41.149533,76.609550,296.082377,9770.718434
41.149841,919.314598,-0.000000,10140.821405
41.150148,76.609550,-0.000000,9474.636058
41.150456,153.219100,222.061783,9474.636058
41.150764,229.828649,-0.000000,9696.697840
41.151072,306.438199,-0.000000,9548.656652
41.151380,536.266849,148.041188,9622.677246
41.151688,459.657299,222.061783,9844.739029
41.151996,995.924147,-222.061783,9770.718434
41.152304,766.095498,296.082377,9770.718434
41.152612,766.095498,296.082377,9992.780217
41.152919,919.314598,222.061783,9622.677246
41.153227,766.095498,444.123565,9474.636058
41.153535,689.485948,444.123565,9326.594869
41.153843,995.924147,296.082377,9474.636058
41.154151,995.924147,444.123565,9326.594869
41.154459,536.266849,370.102971,9326.594869
41.154767,536.266849,444.123565,9844.739029
41.155075,995.924147,-0.000000,9770.718434
41.155383,842.705048,296.082377,9622.677246
41.155690,459.657299,444.123565,9622.677246
41.155998,536.266849,296.082377,9474.636058
41.156306,536.266849,296.082377,9696.697840
41.156614,306.438199,222.061783,10140.821405
41.156922,306.438199,-222.061783,9918.759623
41.157230,689.485948,-0.000000,9622.677246
41.157538,612.876398,-0.000000,9696.697840
41.157846,383.047749,-0.000000,9918.759623
41.158154,76.609550,-0.000000,9844.739029
41.158461,459.657299,296.082377,9622.677246
41.158769,919.314598,444.123565,9548.656652
41.159077,919.314598,444.123565,9474.636058
41.159385,1378.971896,-0.000000,9474.636058
41.159693,1225.752797,-0.000000,9474.636058
41.160001,1225.752797,444.123565,9474.636058
41.160309,995.924147,222.061783,9104.533087
41.160617,995.924147,222.061783,9696.697840
41.160925,842.705048,-0.000000,9622.677246
41.161232,383.047749,-148.041188,9844.739029
41.161540,0.000000,-0.000000,9622.677246
41.161848,536.266849,-0.000000,9918.759623
41.162156,689.485948,370.102971,9474.636058
41.162464,306.438199,296.082377,9622.677246
41.162772,612.876398,592.164754,9474.636058
41.163080,842.705048,370.102971,9326.594869
41.163388,842.705048,518.144159,9474.636058
41.163695,536.266849,-0.000000,10066.800811
41.164003,612.876398,-0.000000,9992.780217
41.164311,612.876398,-0.000000,10140.821405
41.164619,612.876398,-74.020594,10066.800811
41.164927,153.219100,-222.061783,10066.800811
41.165235,689.485948,-0.000000,9844.739029
41.165543,536.266849,-0.000000,9400.615463
41.165851,689.485948,518.144159,9474.636058
41.166159,919.314598,222.061783,9474.636058
41.166466,1149.143247,518.144159,9474.636058
41.166774,1225.752797,592.164754,9474.636058
41.167082,1149.143247,814.226536,9326.594869
41.167390,1072.533697,444.123565,9474.636058
41.167698,766.095498,370.102971,9622.677246
41.168006,612.876398,296.082377,9770.718434
41.168314,306.438199,-0.000000,9770.718434
41.168622,536.266849,370.102971,9918.759623
41.168930,0.000000,-74.020594,9696.697840
41.169237,-153.219100,-74.020594,9992.780217
41.169545,229.828649,-148.041188,9474.636058
41.169853,689.485948,-0.000000,9622.677246
41.170161,612.876398,370.102971,9696.697840
41.170469,612.876398,370.102971,9474.636058
41.170777,689.485948,370.102971,9696.697840
41.171085,689.485948,370.102971,9474.636058
41.171393,536.266849,148.041188,9770.718434
41.171701,766.095498,370.102971,9696.697840
41.172008,383.047749,-222.061783,9696.697840
41.172316,229.828649,222.061783,9474.636058
41.172624,612.876398,222.061783,9548.656652
41.172932,536.266849,148.041188,9474.636058
41.173240,383.047749,148.041188,9622.677246
41.173548,689.485948,-0.000000,9474.636058
41.173856,1149.143247,-0.000000,9400.615463
41.174164,1149.143247,-0.000000,9548.656652
41.174472,306.438199,-0.000000,9622.677246
41.174779,306.438199,370.102971,9770.718434
41.175087,689.485948,518.144159,9548.656652
41.175395,612.876398,370.102971,9474.636058
41.175703,612.876398,222.061783,9474.636058
41.176011,612.876398,222.061783,9622.677246
41.176319,612.876398,-222.061783,10140.821405
41.176627,536.266849,-148.041188,9548.656652
41.176935,383.047749,222.061783,9844.739029
41.177243,459.657299,-0.000000,9696.697840
41.177550,612.876398,-0.000000,9696.697840
41.177858,383.047749,-0.000000,9474.636058
41.178166,536.266849,-0.000000,9474.636058
41.178474,689.485948,-0.000000,9548.656652
41.178782,1302.362347,-0.000000,9474.636058
41.179090,995.924147,222.061783,9548.656652
41.179398,1149.143247,296.082377,9474.636058
41.179706,766.095498,222.061783,9400.615463
41.180014,766.095498,370.102971,9474.636058
41.180321,612.876398,222.061783,9548.656652
41.180629,612.876398,222.061783,9548.656652
41.180937,919.314598,370.102971,9474.636058
41.181245,689.485948,444.123565,9696.697840
41.181553,689.485948,740.205942,9548.656652
41.181861,1072.533697,-0.000000,9548.656652
41.182169,766.095498,148.041188,9474.636058
41.182477,612.876398,222.061783,9622.677246
41.182785,612.876398,-0.000000,9844.739029
41.183092,689.485948,222.061783,9992.780217
41.183400,76.609550,-222.061783,9992.780217
41.183708,76.609550,-0.000000,9696.697840
41.184016,76.609550,370.102971,10066.800811
41.184324,459.657299,222.061783,9696.697840
41.184632,459.657299,296.082377,9548.656652
41.184940,689.485948,296.082377,9548.656652
41.185248,842.705048,296.082377,9400.615463
41.185555,995.924147,222.061783,9400.615463
41.185863,1532.190996,370.102971,9696.697840
41.186171,1302.362347,-0.000000,10362.883188
41.186479,536.266849,-0.000000,9548.656652
41.186787,612.876398,-0.000000,9770.718434
41.187095,536.266849,222.061783,9548.656652
41.187403,612.876398,222.061783,9622.677246
41.187711,536.266849,296.082377,9622.677246
41.188019,612.876398,444.123565,9548.656652
41.188326,766.095498,-0.000000,9252.574275
41.188634,919.314598,74.020594,9770.718434
41.188942,536.266849,-74.020594,9770.718434
41.189250,842.705048,-296.082377,9548.656652
41.189558,612.876398,-0.000000,9918.759623
41.189866,153.219100,-0.000000,9918.759623
41.190174,153.219100,-0.000000,9918.759623
41.190482,536.266849,-0.000000,9844.739029
41.190790,766.095498,-0.000000,9474.636058
41.191097,229.828649,444.123565,9622.677246
41.191405,766.095498,-0.000000,9474.636058
41.191713,1072.533697,444.123565,9548.656652
41.192021,766.095498,370.102971,9474.636058
41.192329,306.438199,222.061783,9474.636058
41.192637,612.876398,222.061783,9474.636058
41.192945,612.876398,296.082377,9474.636058
41.193253,383.047749,-0.000000,9548.656652
41.193561,766.095498,148.041188,9770.718434
41.193868,766.095498,-0.000000,9696.697840
41.194176,612.876398,222.061783,9918.759623
41.194484,612.876398,222.061783,9548.656652
41.194792,536.266849,222.061783,9770.718434
41.195100,612.876398,370.102971,9474.636058
41.195408,153.219100,-0.000000,9622.677246
41.195716,766.095498,-0.000000,9696.697840
41.196024,995.924147,222.061783,9474.636058
41.196332,842.705048,-74.020594,9474.636058
41.196639,689.485948,-0.000000,9622.677246
41.196947,383.047749,-0.000000,9548.656652
41.197255,459.657299,222.061783,9844.739029
41.197563,689.485948,222.061783,9548.656652
41.197871,536.266849,-0.000000,9622.677246
41.198179,919.314598,370.102971,9770.718434
41.198487,919.314598,148.041188,9844.739029
41.198795,459.657299,444.123565,9622.677246
41.199103,689.485948,370.102971,9326.594869
41.199410,536.266849,222.061783,9474.636058
41.199718,842.705048,444.123565,9474.636058
41.200026,612.876398,296.082377,9474.636058
41.200334,689.485948,-0.000000,9770.718434
41.200642,536.266849,-0.000000,9474.636058
41.200950,153.219100,-0.000000,9622.677246
41.201258,919.314598,-0.000000,9992.780217
41.201566,612.876398,148.041188,9844.739029
41.201874,766.095498,-0.000000,9622.677246
41.202181,842.705048,222.061783,9548.656652
41.202489,842.705048,-0.000000,9548.656652
41.202797,689.485948,444.123565,9474.636058
41.203105,1072.533697,222.061783,9474.636058
41.203413,919.314598,222.061783,9548.656652
41.203721,995.924147,-0.000000,9844.739029
41.204029,842.705048,148.041188,9844.739029
41.204337,842.705048,296.082377,9474.636058
41.204645,612.876398,518.144159,9474.636058
41.204952,766.095498,370.102971,9622.677246
41.205260,919.314598,222.061783,9696.697840
41.205568,919.314598,222.061783,9770.718434
41.205876,766.095498,296.082377,9548.656652
41.206184,459.657299,222.061783,9622.677246
41.206492,459.657299,-0.000000,9696.697840
41.206800,536.266849,-0.000000,9770.718434
41.207108,459.657299,148.041188,9770.718434
41.207415,306.438199,296.082377,9696.697840
41.207723,536.266849,-0.000000,9696.697840
41.208031,306.438199,-0.000000,9622.677246
41.208339,995.924147,148.041188,9622.677246
41.208647,1072.533697,-0.000000,9326.594869
41.208955,612.876398,148.041188,9696.697840
41.209263,689.485948,-0.000000,9548.656652
41.209571,459.657299,222.061783,9474.636058
41.209879,689.485948,148.041188,9622.677246
41.210186,842.705048,-0.000000,9770.718434
41.210494,612.876398,-0.000000,9622.677246
41.210802,842.705048,-0.000000,9622.677246
41.211110,995.924147,222.061783,9474.636058
41.211418,306.438199,-0.000000,9474.636058
41.211726,612.876398,296.082377,9474.636058
41.212034,689.485948,148.041188,9474.636058
41.212342,612.876398,-0.000000,9400.615463
41.212650,306.438199,-0.000000,9622.677246
41.212957,536.266849,-148.041188,9844.739029
41.213265,306.438199,-74.020594,9992.780217
41.213573,459.657299,-222.061783,9770.718434
41.213881,766.095498,148.041188,9622.677246
41.214189,536.266849,518.144159,9770.718434
41.214497,459.657299,296.082377,9548.656652
41.214805,766.095498,148.041188,9474.636058
41.215113,919.314598,296.082377,9474.636058
41.215421,612.876398,296.082377,9622.677246
41.215729,766.095498,222.061783,9770.718434
41.216036,919.314598,-0.000000,9770.718434
41.216344,612.876398,-0.000000,9622.677246
41.216652,612.876398,296.082377,9696.697840
41.216960,766.095498,148.041188,9474.636058
41.217268,689.485948,370.102971,9770.718434
41.217576,612.876398,444.123565,9770.718434
41.217884,919.314598,-0.000000,9622.677246
41.218192,536.266849,518.144159,9770.718434
41.218500,306.438199,518.144159,9992.780217
41.218808,536.266849,296.082377,9622.677246
41.219116,459.657299,222.061783,9622.677246
41.219424,766.095498,296.082377,9548.656652
41.219731,459.657299,222.061783,9770.718434
41.220039,459.657299,-0.000000,9548.656652
41.220347,842.705048,-0.000000,9622.677246
41.220655,689.485948,-0.000000,9474.636058
41.220963,689.485948,-0.000000,9696.697840
41.221271,689.485948,-0.000000,9548.656652
41.221579,689.485948,148.041188,9474.636058
41.221887,536.266849,222.061783,9696.697840
41.222195,766.095498,296.082377,9548.656652
41.222503,1072.533697,148.041188,9622.677246
41.222811,919.314598,296.082377,9622.677246
41.223119,1302.362347,-0.000000,9622.677246
41.223426,1149.143247,444.123565,9696.697840
41.223734,459.657299,222.061783,9770.718434
41.224042,612.876398,222.061783,9548.656652
41.224350,536.266849,296.082377,9622.677246
41.224658,612.876398,-0.000000,9474.636058
41.224966,919.314598,-148.041188,9326.594869
41.225274,306.438199,-148.041188,9400.615463
41.225582,383.047749,296.082377,9770.718434
41.225890,306.438199,296.082377,9696.697840
41.226198,766.095498,222.061783,9770.718434
41.226506,612.876398,148.041188,9622.677246
41.226814,612.876398,296.082377,9474.636058
41.227122,612.876398,-0.000000,9474.636058
41.227429,689.485948,222.061783,9770.718434
41.227737,612.876398,370.102971,9770.718434
41.228045,383.047749,370.102971,9992.780217
41.228353,306.438199,-0.000000,9474.636058
41.228661,536.266849,-0.000000,9622.677246
41.228969,612.876398,-0.000000,9474.636058
41.229277,842.705048,148.041188,9696.697840
41.229585,842.705048,148.041188,9622.677246
41.229893,995.924147,592.164754,9252.574275
41.230201,842.705048,518.144159,9622.677246
41.230509,842.705048,370.102971,9548.656652
41.230817,689.485948,370.102971,9252.574275
41.231124,612.876398,370.102971,9030.512492
41.231432,689.485948,148.041188,9400.615463
41.231740,306.438199,-74.020594,9770.718434
41.232048,383.047749,-370.102971,9548.656652
41.232356,536.266849,-222.061783,9770.718434
41.232664,229.828649,-222.061783,10140.821405
41.232972,306.438199,592.164754,10066.800811
41.233280,229.828649,-0.000000,9770.718434
41.233588,995.924147,148.041188,9400.615463
41.233896,689.485948,296.082377,9400.615463
41.234204,842.705048,370.102971,9474.636058
41.234512,995.924147,592.164754,9474.636058
41.234819,766.095498,296.082377,9474.636058
41.235127,766.095498,148.041188,9474.636058
41.235435,1072.533697,370.102971,9548.656652
41.235743,689.485948,296.082377,9696.697840
41.236051,689.485948,-0.000000,9474.636058
41.236359,536.266849,-0.000000,9548.656652
41.236667,459.657299,222.061783,9622.677246
41.236975,919.314598,222.061783,9696.697840
41.237283,766.095498,-0.000000,9770.718434
41.237591,689.485948,296.082377,9548.656652
41.237899,612.876398,222.061783,9548.656652
41.238207,766.095498,222.061783,9844.739029
41.238515,919.314598,296.082377,9622.677246
41.238822,459.657299,222.061783,9696.697840
41.239130,383.047749,222.061783,9696.697840
41.239438,919.314598,-0.000000,9696.697840
41.239746,153.219100,-0.000000,9770.718434
41.240054,919.314598,-222.061783,9696.697840
41.240362,459.657299,-74.020594,9622.677246
41.240670,842.705048,222.061783,9844.739029
41.240978,919.314598,370.102971,9474.636058
41.241286,766.095498,370.102971,9474.636058
41.241594,842.705048,296.082377,9400.615463
41.241902,536.266849,370.102971,9400.615463
41.242210,689.485948,370.102971,9474.636058
41.242517,842.705048,370.102971,9770.718434
41.242825,1225.752797,222.061783,9622.677246
41.243133,536.266849,222.061783,9696.697840
41.243441,536.266849,-0.000000,9696.697840
41.243749,383.047749,-0.000000,9992.780217
41.244057,536.266849,-0.000000,9844.739029
41.244365,-153.219100,-0.000000,9844.739029
41.244673,0.000000,-0.000000,9770.718434
41.244981,459.657299,148.041188,9548.656652
41.245289,1072.533697,-0.000000,9548.656652
41.245597,766.095498,518.144159,9474.636058
41.245905,766.095498,592.164754,9474.636058
41.246213,919.314598,370.102971,9474.636058
41.246520,842.705048,296.082377,9622.677246
41.246828,612.876398,148.041188,9844.739029
41.247136,612.876398,-0.000000,9622.677246
41.247444,919.314598,-0.000000,9474.636058
41.247752,689.485948,-0.000000,9622.677246
41.248060,689.485948,-0.000000,9770.718434
41.248368,612.876398,148.041188,9770.718434
41.248676,689.485948,-0.000000,9622.677246
41.248984,459.657299,222.061783,9548.656652
41.249292,1225.752797,-0.000000,9844.739029
41.249600,766.095498,-0.000000,9696.697840
41.249908,612.876398,222.061783,9696.697840
41.250215,919.314598,370.102971,9474.636058
41.250523,306.438199,444.123565,9770.718434
41.250831,689.485948,222.061783,9548.656652
41.251139,536.266849,148.041188,9474.636058
41.251447,459.657299,-0.000000,9622.677246
41.251755,536.266849,-148.041188,9252.574275
41.252063,229.828649,74.020594,9770.718434
41.252371,842.705048,-148.041188,9400.615463
41.252679,1149.143247,-0.000000,9770.718434
41.252987,919.314598,222.061783,9474.636058
41.253295,689.485948,444.123565,9696.697840
41.253603,459.657299,-0.000000,9474.636058
41.253910,306.438199,148.041188,9696.697840
41.254218,229.828649,296.082377,9622.677246
41.254526,536.266849,148.041188,9696.697840
41.254834,536.266849,-0.000000,9474.636058
41.255142,919.314598,-0.000000,9474.636058
41.255450,536.266849,296.082377,9474.636058
41.255758,689.485948,518.144159,9474.636058
41.256066,612.876398,-0.000000,9474.636058
41.256374,612.876398,-0.000000,9696.697840
41.256682,383.047749,296.082377,9548.656652
41.256990,612.876398,222.061783,9548.656652
41.257298,919.314598,-0.000000,9696.697840
41.257606,995.924147,-74.020594,9548.656652
41.257913,536.266849,-0.000000,9548.656652
41.258221,536.266849,148.041188,9696.697840
41.258529,229.828649,296.082377,9548.656652
41.258837,842.705048,-0.000000,9474.636058
41.259145,689.485948,222.061783,9548.656652
41.259453,536.266849,222.061783,9474.636058
41.259761,842.705048,296.082377,9474.636058
41.260069,536.266849,740.205942,9918.759623
41.260377,689.485948,222.061783,9474.636058
41.260685,689.485948,148.041188,9474.636058
41.260993,919.314598,-0.000000,9696.697840
41.261301,536.266849,222.061783,9548.656652
41.261608,612.876398,-74.020594,9918.759623
41.261916,995.924147,-222.061783,9622.677246
41.262224,689.485948,-0.000000,9622.677246
41.262532,842.705048,296.082377,9548.656652
41.262840,842.705048,296.082377,9474.636058
41.263148,612.876398,370.102971,9474.636058
41.263456,459.657299,518.144159,9474.636058
41.263764,689.485948,296.082377,9548.656652
41.264072,689.485948,-0.000000,9474.636058
41.264380,153.219100,-74.020594,9770.718434
41.264688,612.876398,-148.041188,9696.697840
41.264996,689.485948,-148.041188,9696.697840
41.265303,536.266849,222.061783,9548.656652
41.265611,612.876398,148.041188,9548.656652
41.265919,383.047749,-0.000000,9770.718434
41.266227,459.657299,222.061783,9622.677246
41.266535,1072.533697,-370.102971,9770.718434
41.266843,383.047749,-0.000000,9622.677246
41.267151,612.876398,-0.000000,9770.718434
41.267459,306.438199,-222.061783,9474.636058
41.267767,689.485948,296.082377,9474.636058
41.268075,842.705048,444.123565,9400.615463
41.268383,612.876398,148.041188,9326.594869
41.268691,842.705048,518.144159,9474.636058
41.268999,842.705048,296.082377,9622.677246
41.269306,612.876398,518.144159,9474.636058
41.269614,919.314598,-74.020594,9844.739029
41.269922,153.219100,-0.000000,9622.677246
41.270230,612.876398,-0.000000,9622.677246
41.270538,689.485948,-0.000000,9696.697840
41.270846,689.485948,296.082377,9622.677246
41.271154,689.485948,148.041188,9474.636058
41.271462,842.705048,-0.000000,9844.739029
41.271770,612.876398,-0.000000,9696.697840
41.272078,842.705048,-296.082377,9696.697840
41.272386,995.924147,-0.000000,9622.677246
41.272694,766.095498,222.061783,9474.636058
41.273001,612.876398,296.082377,9548.656652
41.273309,612.876398,370.102971,9474.636058
41.273617,919.314598,-0.000000,9548.656652
41.273925,536.266849,-74.020594,9622.677246
41.274233,995.924147,-222.061783,9992.780217
41.274541,383.047749,-74.020594,9918.759623
41.274849,383.047749,-0.000000,9474.636058
41.275157,766.095498,-0.000000,9474.636058
41.275465,689.485948,296.082377,9474.636058
41.275773,536.266849,296.082377,9474.636058
41.276081,689.485948,444.123565,9548.656652
41.276389,766.095498,444.123565,9696.697840
41.276696,842.705048,222.061783,9844.739029
41.277004,612.876398,-0.000000,9548.656652
41.277312,76.609550,-0.000000,9770.718434
41.277620,459.657299,222.061783,9622.677246
41.277928,306.438199,-0.000000,9770.718434
41.278236,459.657299,-0.000000,9844.739029
41.278544,76.609550,-74.020594,9992.780217
41.278852,76.609550,-296.082377,10140.821405
41.279160,919.314598,-0.000000,9622.677246
41.279468,306.438199,-148.041188,9770.718434
41.279776,612.876398,-0.000000,9548.656652
41.280084,689.485948,370.102971,9548.656652
41.280392,612.876398,370.102971,9474.636058
41.280699,689.485948,296.082377,9474.636058
41.281007,919.314598,518.144159,9252.574275
41.281315,919.314598,592.164754,9474.636058
41.281623,842.705048,-0.000000,9326.594869
41.281931,766.095498,-0.000000,9178.553681
41.282239,459.657299,-74.020594,9844.739029
41.282547,536.266849,-0.000000,9548.656652
41.282855,459.657299,-0.000000,9770.718434
41.283163,229.828649,148.041188,9696.697840
41.283471,536.266849,-0.000000,9770.718434
41.283779,-306.438199,222.061783,9992.780217
41.284087,536.266849,222.061783,9918.759623
41.284394,536.266849,-0.000000,9622.677246
41.284702,0.000000,370.102971,9474.636058
41.285010,536.266849,444.123565,9548.656652
41.285318,536.266849,518.144159,9474.636058
41.285626,689.485948,370.102971,9770.718434
41.285934,689.485948,148.041188,9622.677246
41.286242,536.266849,-74.020594,9770.718434
41.286550,612.876398,-148.041188,9696.697840
41.286858,612.876398,-148.041188,9474.636058
41.287166,995.924147,-0.000000,9548.656652
41.287474,766.095498,222.061783,9474.636058
41.287782,766.095498,-0.000000,9474.636058
41.288089,995.924147,-0.000000,9548.656652
41.288397,689.485948,148.041188,9474.636058
41.288705,919.314598,148.041188,9622.677246
41.289013,766.095498,370.102971,9400.615463
41.289321,919.314598,444.123565,9548.656652
41.289629,919.314598,296.082377,9326.594869
41.289937,842.705048,444.123565,9474.636058
41.290245,689.485948,444.123565,9178.553681
41.290553,612.876398,296.082377,9548.656652
41.290861,459.657299,-0.000000,9696.697840
41.291169,153.219100,-296.082377,9918.759623
41.291477,306.438199,-370.102971,10066.800811
41.291785,76.609550,-222.061783,9844.739029
41.292092,229.828649,-148.041188,9548.656652
41.292400,153.219100,148.041188,9548.656652
41.292708,612.876398,296.082377,9474.636058
41.293016,842.705048,518.144159,9326.594869
41.293324,306.438199,296.082377,9326.594869
41.293632,842.705048,-74.020594,9252.574275
41.293940,689.485948,-0.000000,9252.574275
41.294248,536.266849,296.082377,9474.636058
41.294556,766.095498,-0.000000,9474.636058
41.294864,459.657299,222.061783,9548.656652
41.295172,459.657299,296.082377,9696.697840
41.295480,689.485948,-0.000000,9696.697840
41.295787,612.876398,-0.000000,9474.636058
41.296095,842.705048,518.144159,9326.594869
41.296403,1149.143247,-0.000000,9622.677246
41.296711,919.314598,222.061783,9474.636058
41.297019,612.876398,222.061783,9252.574275
41.297327,689.485948,518.144159,9474.636058
41.297635,536.266849,370.102971,9474.636058
41.297943,536.266849,296.082377,9622.677246
41.298251,842.705048,222.061783,9918.759623
41.298559,612.876398,-0.000000,9696.697840
41.298867,459.657299,-0.000000,9770.718434
41.299175,459.657299,-222.061783,10140.821405
41.299482,153.219100,-74.020594,9844.739029
41.299790,536.266849,-0.000000,9696.697840
41.300098,689.485948,370.102971,9696.697840
41.300406,766.095498,370.102971,9474.636058
41.300714,1149.143247,444.123565,9474.636058
41.301022,1455.581446,666.185348,9548.656652
41.301330,612.876398,296.082377,9326.594869
41.301638,383.047749,444.123565,9400.615463
41.301946,612.876398,370.102971,9622.677246
41.302254,766.095498,-0.000000,9696.697840
41.302562,459.657299,-0.000000,9696.697840
41.302870,612.876398,222.061783,9622.677246
41.303178,842.705048,-0.000000,9696.697840
41.303485,383.047749,-0.000000,9622.677246
41.303793,459.657299,-148.041188,9770.718434
41.304101,995.924147,148.041188,9696.697840
41.304409,612.876398,370.102971,9696.697840
41.304717,306.438199,-0.000000,9548.656652
41.305025,536.266849,-0.000000,9622.677246
41.305333,306.438199,222.061783,9918.759623
41.305641,995.924147,-0.000000,9770.718434
41.305949,153.219100,296.082377,10140.821405
41.306257,229.828649,296.082377,9474.636058
41.306565,689.485948,-0.000000,9622.677246
41.306873,766.095498,74.020594,9474.636058
41.307180,995.924147,148.041188,9474.636058
41.307488,995.924147,-0.000000,9474.636058
41.307796,919.314598,-0.000000,9548.656652
41.308104,766.095498,222.061783,9474.636058
41.308412,1072.533697,-0.000000,9400.615463
41.308720,689.485948,518.144159,9474.636058
41.309028,689.485948,222.061783,9474.636058
41.309336,919.314598,518.144159,9474.636058
41.309644,689.485948,518.144159,9474.636058
41.309952,536.266849,-0.000000,9474.636058
41.310260,229.828649,370.102971,9696.697840
41.310568,76.609550,-0.000000,9992.780217
41.310875,0.000000,-0.000000,10140.821405
41.311183,459.657299,-148.041188,9548.656652
41.311491,306.438199,-518.144159,9622.677246
41.311799,306.438199,-0.000000,9918.759623
41.312107,153.219100,-0.000000,9622.677246
41.312415,536.266849,296.082377,9696.697840
41.312723,536.266849,296.082377,9548.656652
41.313031,919.314598,222.061783,9548.656652
41.313339,1225.752797,-0.000000,9030.512492
41.313647,919.314598,-0.000000,9400.615463
41.313955,766.095498,-0.000000,9400.615463
41.314263,842.705048,296.082377,9548.656652
41.314571,842.705048,444.123565,9696.697840
41.314878,919.314598,370.102971,9548.656652
41.315186,1072.533697,370.102971,9400.615463
41.315494,919.314598,296.082377,9400.615463
41.315802,919.314598,370.102971,9252.574275
41.316110,689.485948,-0.000000,9400.615463
41.316418,766.095498,222.061783,9474.636058
41.316726,766.095498,444.123565,9548.656652
41.317057,306.438199,370.102971,9696.697840
41.317365,459.657299,222.061783,9622.677246
41.317673,306.438199,-0.000000,9918.759623
41.317981,689.485948,-0.000000,10066.800811
41.318289,306.438199,-296.082377,10362.883188
41.318597,612.876398,-74.020594,10288.862594
41.318905,536.266849,-444.123565,9918.759623
41.319212,383.047749,-148.041188,9770.718434
41.319520,766.095498,-0.000000,9622.677246
41.319828,766.095498,-0.000000,9474.636058
41.320136,1072.533697,444.123565,9178.553681
41.320444,766.095498,222.061783,9474.636058
41.320752,842.705048,370.102971,9400.615463
41.321060,1225.752797,296.082377,9326.594869
41.321368,995.924147,444.123565,9178.553681
41.321676,1072.533697,444.123565,8956.491898
41.321984,842.705048,592.164754,9400.615463
41.322291,612.876398,222.061783,9548.656652
41.322599,536.266849,-0.000000,9770.718434
41.322907,383.047749,-74.020594,9918.759623
41.323215,459.657299,-0.000000,10066.800811
41.323523,536.266849,-74.020594,9696.697840
41.323831,229.828649,-148.041188,9918.759623
41.324139,306.438199,-0.000000,9770.718434
41.324447,536.266849,222.061783,9622.677246
41.324755,689.485948,222.061783,9548.656652
41.325062,612.876398,370.102971,9400.615463
41.325370,995.924147,370.102971,9622.677246
41.325678,1072.533697,-0.000000,9622.677246
41.325986,229.828649,-0.000000,10288.862594
41.326294,383.047749,-0.000000,9770.718434
41.326602,459.657299,148.041188,9474.636058
41.326910,459.657299,222.061783,9474.636058
41.327218,612.876398,148.041188,9696.697840
41.327526,766.095498,222.061783,9474.636058
41.327834,536.266849,296.082377,9992.780217
41.328141,536.266849,-0.000000,9548.656652
41.328449,919.314598,-0.000000,9696.697840
41.328757,842.705048,-296.082377,9474.636058
41.329065,612.876398,444.123565,9474.636058
41.329373,919.314598,370.102971,9252.574275
41.329681,766.095498,518.144159,9622.677246
41.329989,689.485948,518.144159,9474.636058
41.330297,766.095498,222.061783,9548.656652
41.330605,459.657299,592.164754,9474.636058
41.330912,842.705048,-0.000000,9770.718434
41.331220,229.828649,-222.061783,9770.718434
41.331528,383.047749,-74.020594,9918.759623
41.331836,153.219100,-0.000000,9992.780217
41.332144,306.438199,-74.020594,9992.780217
41.332452,306.438199,-0.000000,10066.800811
41.332760,229.828649,-222.061783,9770.718434
41.333068,612.876398,-0.000000,9918.759623
41.333376,536.266849,296.082377,9622.677246
41.333684,1225.752797,444.123565,9252.574275
41.333991,995.924147,592.164754,9104.533087
41.334299,1225.752797,592.164754,9104.533087
41.334607,995.924147,444.123565,9104.533087
41.334915,842.705048,444.123565,9326.594869
41.335223,612.876398,222.061783,9696.697840
41.335531,612.876398,-296.082377,9696.697840
41.335839,306.438199,-444.123565,9622.677246
41.336147,0.000000,-0.000000,10066.800811
41.336455,306.438199,-0.000000,9918.759623
41.336762,536.266849,-0.000000,9844.739029
41.337070,842.705048,148.041188,9992.780217
41.337378,995.924147,296.082377,9622.677246
41.337686,1378.971896,370.102971,9474.636058
41.337994,536.266849,518.144159,9030.512492
41.338302,612.876398,-0.000000,9326.594869
41.338610,306.438199,-0.000000,9326.594869
41.338918,536.266849,-0.000000,9474.636058
41.339226,229.828649,-74.020594,9548.656652
41.339533,459.657299,-74.020594,9770.718434
41.339841,842.705048,-0.000000,10066.800811
41.340149,383.047749,-222.061783,9844.739029
41.340457,1225.752797,-0.000000,9622.677246
41.340765,306.438199,-296.082377,9474.636058
41.341073,1149.143247,296.082377,9548.656652
41.341381,1149.143247,370.102971,9400.615463
41.341689,1225.752797,740.205942,9030.512492
41.341997,919.314598,666.185348,9178.553681
41.342305,689.485948,444.123565,9252.574275
41.342612,766.095498,148.041188,9548.656652
41.342920,842.705048,-0.000000,9696.697840
41.343228,229.828649,370.102971,9844.739029
41.343536,0.000000,-0.000000,9696.697840
41.343844,153.219100,-148.041188,9844.739029
41.344152,229.828649,-222.061783,10066.800811
41.344460,306.438199,-74.020594,9918.759623
41.344768,306.438199,296.082377,9844.739029
41.345076,536.266849,148.041188,9622.677246
41.345383,689.485948,148.041188,9696.697840
41.345691,1072.533697,222.061783,9326.594869
41.345999,919.314598,222.061783,9178.553681
41.346307,766.095498,370.102971,9104.533087
41.346615,306.438199,222.061783,9474.636058
41.346923,612.876398,222.061783,9326.594869
41.347231,766.095498,444.123565,9548.656652
41.347539,1072.533697,370.102971,9400.615463
41.347847,919.314598,-74.020594,9622.677246
41.348155,766.095498,-148.041188,9844.739029
41.348462,689.485948,-0.000000,9918.759623
41.348770,689.485948,-0.000000,9622.677246
41.349078,689.485948,-0.000000,9696.697840
41.349386,689.485948,-0.000000,9622.677246
41.349694,919.314598,296.082377,9548.656652
41.350002,459.657299,-0.000000,9326.594869
41.350310,842.705048,148.041188,9252.574275
41.350618,1149.143247,444.123565,9696.697840
41.350926,689.485948,370.102971,9474.636058
41.351233,612.876398,444.123565,9474.636058
41.351541,842.705048,296.082377,9548.656652
41.351849,766.095498,296.082377,9548.656652
41.352157,842.705048,-0.000000,9622.677246
41.352465,1149.143247,-296.082377,9622.677246
41.352773,766.095498,-0.000000,9844.739029
41.353081,229.828649,-74.020594,9992.780217
41.353389,306.438199,-0.000000,9696.697840
41.353697,459.657299,-0.000000,9474.636058
41.354005,689.485948,222.061783,9474.636058
41.354312,919.314598,444.123565,9252.574275
41.354620,995.924147,74.020594,9474.636058
41.354928,919.314598,222.061783,9252.574275
41.355236,1072.533697,222.061783,9622.677246
41.355544,842.705048,-0.000000,9400.615463
41.355852,689.485948,-0.000000,9474.636058
41.356160,842.705048,222.061783,9696.697840
41.356468,536.266849,-0.000000,9548.656652
41.356776,612.876398,148.041188,9770.718434
41.357083,1072.533697,-148.041188,9696.697840
41.357391,459.657299,-296.082377,10066.800811
41.357699,153.219100,-0.000000,10066.800811
41.358007,0.000000,370.102971,9770.718434
41.358315,459.657299,296.082377,9844.739029
41.358623,689.485948,296.082377,9474.636058
41.358931,612.876398,592.164754,9474.636058
41.359239,689.485948,296.082377,9474.636058
41.359547,1072.533697,-0.000000,9474.636058
41.359855,0.000000,222.061783,9622.677246
41.360162,459.657299,296.082377,9622.677246
41.360470,919.314598,-148.041188,9770.718434
41.360778,612.876398,-0.000000,9622.677246
41.361086,612.876398,-0.000000,9696.697840
41.361394,612.876398,-0.000000,9622.677246
41.361702,383.047749,74.020594,9474.636058
41.362010,995.924147,-0.000000,9474.636058
41.362318,919.314598,296.082377,9474.636058
41.362626,766.095498,222.061783,9474.636058
41.362933,842.705048,296.082377,9474.636058
41.363241,919.314598,370.102971,9474.636058
41.363549,689.485948,296.082377,9474.636058
41.363857,766.095498,-0.000000,9622.677246
41.364165,459.657299,-74.020594,9918.759623
41.364473,0.000000,-296.082377,9696.697840
41.364781,536.266849,-74.020594,10214.842000
41.365089,766.095498,-0.000000,10140.821405
41.365397,153.219100,-222.061783,9474.636058
41.365704,536.266849,74.020594,9474.636058
41.366012,919.314598,444.123565,9326.594869
41.366320,919.314598,518.144159,9474.636058
41.366628,1072.533697,518.144159,9400.615463
41.366936,689.485948,222.061783,9104.533087
41.367244,766.095498,518.144159,9548.656652
41.367552,766.095498,-0.000000,9770.718434
41.367860,919.314598,-0.000000,9548.656652
41.368168,536.266849,370.102971,9548.656652
41.368476,612.876398,296.082377,9696.697840
41.368783,536.266849,296.082377,9770.718434
41.369091,383.047749,148.041188,9696.697840
41.369399,306.438199,-148.041188,9474.636058
41.369707,766.095498,-0.000000,9548.656652
41.370015,306.438199,-0.000000,9030.512492
41.370323,229.828649,-0.000000,9770.718434
41.370631,536.266849,296.082377,9696.697840
41.370939,459.657299,222.061783,9622.677246
41.371247,459.657299,-0.000000,9696.697840
41.371554,459.657299,-0.000000,9770.718434
41.371862,612.876398,-0.000000,9548.656652
41.372170,612.876398,148.041188,9770.718434
41.372478,1149.143247,-148.041188,9696.697840
41.372786,919.314598,222.061783,9622.677246
41.373094,919.314598,296.082377,9474.636058
41.373402,842.705048,296.082377,9326.594869
41.373710,842.705048,370.102971,9326.594869
41.374018,995.924147,518.144159,9400.615463
41.374326,459.657299,370.102971,9548.656652
41.374633,536.266849,296.082377,9918.759623
41.374941,306.438199,222.061783,9104.533087
41.375249,1072.533697,148.041188,9770.718434
41.375557,536.266849,222.061783,9548.656652
41.375865,612.876398,222.061783,9696.697840
41.376173,459.657299,-0.000000,9622.677246
41.376481,536.266849,222.061783,9770.718434
41.376789,766.095498,-148.041188,9696.697840
41.377097,919.314598,-74.020594,9548.656652
41.377404,842.705048,-0.000000,9696.697840
41.377712,689.485948,-222.061783,9474.636058
41.378020,536.266849,296.082377,9770.718434
41.378328,689.485948,-0.000000,9548.656652
41.378636,459.657299,222.061783,9622.677246
41.378944,1149.143247,370.102971,9548.656652
41.379252,919.314598,222.061783,9474.636058
41.379560,995.924147,148.041188,9104.533087
41.379868,919.314598,444.123565,9548.656652
41.380176,536.266849,370.102971,9548.656652
41.380483,842.705048,444.123565,9548.656652
41.380791,689.485948,222.061783,9474.636058
41.381099,842.705048,370.102971,9326.594869
41.381407,842.705048,370.102971,9474.636058
41.381715,766.095498,-0.000000,9770.718434
41.382023,689.485948,-0.000000,9770.718434
41.382331,229.828649,-148.041188,9770.718434
41.382639,306.438199,-148.041188,9622.677246
41.382947,306.438199,-74.020594,9918.759623
41.383254,383.047749,222.061783,9918.759623
41.383562,612.876398,-0.000000,9770.718434
41.383870,459.657299,296.082377,9918.759623
41.384178,306.438199,148.041188,9548.656652
41.384486,842.705048,148.041188,9696.697840
41.384794,919.314598,-0.000000,9474.636058
41.385102,612.876398,222.061783,9548.656652
41.385410,689.485948,148.041188,9474.636058
41.385718,689.485948,-0.000000,9474.636058
41.386025,536.266849,296.082377,9548.656652
41.386333,536.266849,-74.020594,9622.677246
41.386641,995.924147,222.061783,9548.656652
41.386949,995.924147,296.082377,9474.636058
41.387257,536.266849,-0.000000,9474.636058
41.387565,689.485948,370.102971,9474.636058
41.387873,766.095498,296.082377,9548.656652
41.388181,612.876398,296.082377,9622.677246
41.388489,536.266849,148.041188,9696.697840
41.388797,842.705048,222.061783,9918.759623
41.389104,766.095498,-0.000000,9696.697840
41.389412,766.095498,-148.041188,9400.615463
41.389720,842.705048,370.102971,9696.697840
41.390028,306.438199,-0.000000,9844.739029
41.390336,459.657299,-0.000000,9622.677246
41.390644,459.657299,-0.000000,9696.697840
41.390952,229.828649,-0.000000,9548.656652
41.391260,383.047749,-0.000000,9622.677246
41.391568,536.266849,222.061783,9696.697840
41.391875,842.705048,444.123565,9548.656652
41.392183,766.095498,222.061783,9400.615463
41.392491,842.705048,148.041188,9548.656652
41.392799,842.705048,370.102971,9696.697840
41.393107,766.095498,296.082377,9474.636058
41.393415,459.657299,370.102971,9474.636058
41.393723,842.705048,222.061783,9770.718434
41.394031,766.095498,-74.020594,9770.718434
41.394339,536.266849,-0.000000,9474.636058
41.394647,536.266849,-0.000000,9622.677246
41.394954,383.047749,296.082377,9696.697840
41.395262,536.266849,-0.000000,9770.718434
41.395570,459.657299,-0.000000,9548.656652
41.395878,612.876398,-0.000000,9474.636058
41.396186,1072.533697,222.061783,9474.636058
41.396494,1225.752797,148.041188,9474.636058
41.396802,919.314598,296.082377,9696.697840
41.397110,612.876398,370.102971,9548.656652
41.397418,689.485948,444.123565,9474.636058
41.397725,842.705048,-0.000000,9474.636058
41.398033,536.266849,370.102971,9474.636058
41.398341,459.657299,74.020594,9474.636058
41.398649,995.924147,148.041188,9696.697840
41.398957,689.485948,-74.020594,9992.780217
41.399265,612.876398,-0.000000,9992.780217
41.399573,76.609550,-74.020594,10140.821405
41.399881,689.485948,-0.000000,9622.677246
41.400189,766.095498,222.061783,9548.656652
41.400497,689.485948,518.144159,9474.636058
41.400804,612.876398,370.102971,9400.615463
41.401112,459.657299,370.102971,9770.718434
41.401420,536.266849,444.123565,9770.718434
41.401728,689.485948,-0.000000,9622.677246
41.402036,842.705048,296.082377,9844.739029
41.402344,689.485948,-0.000000,9696.697840
41.402652,459.657299,-0.000000,9696.697840
41.402960,459.657299,148.041188,9696.697840
41.403268,612.876398,-0.000000,9770.718434
41.403575,612.876398,-74.020594,9696.697840
41.403883,689.485948,-0.000000,9622.677246
41.404191,919.314598,-0.000000,9400.615463
41.404499,1225.752797,296.082377,9844.739029
41.404807,766.095498,296.082377,9474.636058
41.405115,995.924147,296.082377,9770.718434
41.405423,536.266849,296.082377,9622.677246
41.405731,689.485948,296.082377,9548.656652
41.406039,306.438199,-148.041188,9696.697840
41.406347,1072.533697,-0.000000,9992.780217
41.406654,995.924147,-0.000000,9474.636058
41.406962,766.095498,148.041188,9770.718434
41.407270,383.047749,222.061783,9844.739029
41.407578,383.047749,-0.000000,9474.636058
41.407886,536.266849,-0.000000,9622.677246
41.408194,612.876398,296.082377,9548.656652
41.408502,612.876398,444.123565,9400.615463
41.408810,689.485948,148.041188,9696.697840
41.409118,1225.752797,-0.000000,9548.656652
41.409425,459.657299,-0.000000,9548.656652
41.409733,536.266849,-0.000000,9696.697840
41.410041,536.266849,-0.000000,9844.739029
41.410349,536.266849,-0.000000,9696.697840
41.410657,536.266849,-0.000000,9696.697840
41.410965,536.266849,222.061783,9622.677246
41.411273,689.485948,370.102971,9622.677246
41.411581,995.924147,296.082377,9696.697840
41.411889,536.266849,222.061783,9400.615463
41.412196,536.266849,222.061783,9474.636058
41.412504,536.266849,222.061783,9474.636058
41.412812,766.095498,296.082377,9474.636058
41.413120,612.876398,-0.000000,9696.697840
41.413428,612.876398,-0.000000,9770.718434
41.413736,306.438199,370.102971,9696.697840
41.414044,459.657299,370.102971,9326.594869
41.414352,689.485948,-0.000000,9918.759623
41.414660,459.657299,-0.000000,9696.697840
41.414968,689.485948,-0.000000,9548.656652
41.415275,612.876398,-0.000000,9622.677246
41.415583,229.828649,148.041188,9474.636058
41.415891,536.266849,-74.020594,9400.615463
41.416199,459.657299,370.102971,9548.656652
41.416507,842.705048,148.041188,9474.636058
41.416815,766.095498,370.102971,9622.677246
41.417123,612.876398,444.123565,9474.636058
41.417431,842.705048,222.061783,9326.594869
41.417739,766.095498,222.061783,9474.636058
41.418046,689.485948,222.061783,9622.677246
41.418354,689.485948,-222.061783,9474.636058
41.418662,689.485948,-0.000000,10214.842000
41.418970,1149.143247,296.082377,9918.759623
41.419278,383.047749,-0.000000,9770.718434
41.419586,383.047749,-0.000000,9548.656652
41.419894,536.266849,-0.000000,9622.677246
41.420202,766.095498,444.123565,9548.656652
41.420510,612.876398,592.164754,9844.739029
41.420817,153.219100,222.061783,9770.718434
41.421125,995.924147,222.061783,9474.636058
41.421433,919.314598,370.102971,9622.677246
41.421741,536.266849,74.020594,9696.697840
41.422049,689.485948,296.082377,9622.677246
41.422357,536.266849,296.082377,9474.636058
41.422665,536.266849,222.061783,9474.636058
41.422973,536.266849,518.144159,9770.718434
41.423281,842.705048,592.164754,9696.697840
41.423589,1149.143247,-0.000000,9474.636058
41.423896,919.314598,370.102971,9474.636058
41.424204,842.705048,296.082377,9104.533087
41.424512,536.266849,370.102971,9622.677246
41.424820,612.876398,222.061783,9400.615463
41.425128,536.266849,148.041188,9474.636058
41.425436,0.000000,148.041188,9622.677246
41.425744,306.438199,-222.061783,9622.677246
41.426052,0.000000,-0.000000,9844.739029
41.426360,536.266849,222.061783,9770.718434
41.426667,689.485948,-0.000000,9474.636058
41.426975,383.047749,-0.000000,9474.636058
41.427283,536.266849,296.082377,9770.718434
41.427591,536.266849,296.082377,9622.677246
41.427899,766.095498,222.061783,9474.636058
41.428207,842.705048,148.041188,9252.574275
41.428515,1302.362347,-148.041188,9474.636058
41.428823,612.876398,222.061783,9474.636058
41.429131,689.485948,370.102971,9474.636058
41.429438,689.485948,296.082377,9696.697840
41.429746,612.876398,296.082377,9474.636058
41.430054,919.314598,444.123565,9474.636058
41.430362,306.438199,222.061783,9474.636058
41.430670,919.314598,-74.020594,9400.615463
41.430978,1149.143247,-0.000000,9400.615463
41.431286,1072.533697,-0.000000,9622.677246
41.431594,459.657299,148.041188,9844.739029
41.431902,459.657299,-0.000000,9622.677246
41.432209,306.438199,-0.000000,9844.739029
41.432517,229.828649,-74.020594,9992.780217
41.432825,306.438199,-0.000000,9918.759623
41.433133,689.485948,-0.000000,9696.697840
41.433441,919.314598,296.082377,10066.800811
41.433749,842.705048,370.102971,9474.636058
41.434057,1072.533697,222.061783,9326.594869
41.434365,995.924147,518.144159,9178.553681
41.434673,689.485948,370.102971,9326.594869
41.434980,919.314598,444.123565,9474.636058
41.435288,842.705048,-0.000000,9548.656652
41.435596,689.485948,222.061783,9622.677246
41.435904,459.657299,-0.000000,9696.697840
41.436212,766.095498,-0.000000,10066.800811
41.436520,459.657299,-0.000000,9770.718434
41.436828,383.047749,-0.000000,9696.697840
41.437136,766.095498,148.041188,9770.718434
41.437444,612.876398,-0.000000,9696.697840
41.437751,1072.533697,148.041188,9252.574275
41.438059,1072.533697,222.061783,9548.656652
41.438367,842.705048,444.123565,9326.594869
41.438675,995.924147,370.102971,9474.636058
41.438983,306.438199,-0.000000,9474.636058
41.439291,229.828649,-0.000000,9548.656652
41.439599,383.047749,-0.000000,9696.697840
41.439907,306.438199,-0.000000,9992.780217
41.440215,306.438199,-222.061783,9622.677246
41.440522,689.485948,-0.000000,9844.739029
41.440830,689.485948,-0.000000,9844.739029
41.441138,842.705048,-0.000000,9548.656652
41.441446,766.095498,370.102971,9474.636058
41.441754,1072.533697,592.164754,9474.636058
41.442062,919.314598,666.185348,9326.594869
41.442370,842.705048,370.102971,9178.553681
41.442678,1149.143247,814.226536,9474.636058
41.442986,1302.362347,370.102971,9474.636058
41.443294,459.657299,-0.000000,9474.636058
41.443601,536.266849,-74.020594,9622.677246
41.443909,536.266849,-0.000000,9844.739029
41.444217,306.438199,-0.000000,9992.780217
41.444525,459.657299,-74.020594,9844.739029
41.444833,459.657299,-0.000000,9918.759623
41.445141,306.438199,-74.020594,10362.883188
41.445449,153.219100,-74.020594,9992.780217
41.445757,842.705048,-0.000000,9770.718434
41.446065,459.657299,370.102971,9622.677246
41.446372,612.876398,370.102971,9252.574275
41.446680,1149.143247,592.164754,9474.636058
41.446988,766.095498,444.123565,9178.553681
41.447296,919.314598,518.144159,9400.615463
41.447604,1225.752797,296.082377,9548.656652
41.447912,919.314598,-0.000000,9844.739029
41.448220,459.657299,-296.082377,9622.677246
41.448528,995.924147,-74.020594,9918.759623
41.448836,612.876398,-148.041188,9622.677246
41.449143,459.657299,-0.000000,9918.759623
41.449451,689.485948,-0.000000,9696.697840
41.449759,383.047749,222.061783,9770.718434
41.450067,842.705048,148.041188,9622.677246
41.450375,-153.219100,518.144159,9918.759623
41.450683,1225.752797,148.041188,9622.677246
41.450991,459.657299,296.082377,9400.615463
41.451299,689.485948,518.144159,9326.594869
41.451607,536.266849,518.144159,9474.636058
41.451914,536.266849,222.061783,9400.615463
41.452222,612.876398,148.041188,9622.677246
41.452530,306.438199,-0.000000,9770.718434
41.452838,153.219100,-296.082377,10066.800811
41.453146,536.266849,222.061783,10140.821405
41.453454,842.705048,-0.000000,9992.780217
41.453762,612.876398,148.041188,9696.697840
41.454070,689.485948,-0.000000,9622.677246
41.454378,766.095498,222.061783,9622.677246
41.454685,919.314598,-0.000000,9474.636058
41.454993,76.609550,-0.000000,9474.636058
41.455301,1302.362347,148.041188,9400.615463
41.455609,995.924147,370.102971,9326.594869
41.455917,1149.143247,592.164754,9622.677246
41.456225,919.314598,814.226536,9326.594869
41.456533,612.876398,444.123565,9400.615463
41.456841,689.485948,222.061783,9696.697840
41.457149,536.266849,-0.000000,9918.759623
41.457456,-306.438199,-0.000000,9918.759623
41.457764,689.485948,-148.041188,9992.780217
41.458072,153.219100,-370.102971,9844.739029
41.458380,383.047749,-296.082377,9770.718434
41.458688,306.438199,-0.000000,9696.697840
41.458996,689.485948,222.061783,9474.636058
41.459304,689.485948,296.082377,9326.594869
41.459612,995.924147,518.144159,9474.636058
41.459920,1302.362347,222.061783,9400.615463
41.460227,1302.362347,-0.000000,9548.656652
41.460535,766.095498,-0.000000,9474.636058
41.460843,1072.533697,-0.000000,9844.739029
41.461151,459.657299,-0.000000,9622.677246
41.461459,536.266849,148.041188,9918.759623
41.461767,536.266849,-0.000000,9474.636058
41.462075,689.485948,222.061783,9474.636058
41.462383,536.266849,222.061783,9474.636058
41.462691,689.485948,-0.000000,9030.512492
41.462998,612.876398,518.144159,9548.656652
41.463306,842.705048,148.041188,9548.656652
41.463614,689.485948,518.144159,9474.636058
41.463922,689.485948,296.082377,9178.553681
41.464230,536.266849,148.041188,9622.677246
41.464538,459.657299,-0.000000,9844.739029
41.464846,459.657299,-74.020594,9992.780217
41.465154,229.828649,-0.000000,10066.800811
41.465462,-153.219100,-148.041188,10140.821405
41.465770,306.438199,-74.020594,9918.759623
41.466077,459.657299,-0.000000,9844.739029
41.466385,689.485948,-0.000000,9548.656652
41.466693,1072.533697,222.061783,9474.636058
41.467001,1685.410096,518.144159,9400.615463
41.467309,1225.752797,518.144159,9474.636058
41.467617,1072.533697,444.123565,9252.574275
41.467925,995.924147,740.205942,9178.553681
41.468233,842.705048,518.144159,9326.594869
41.468541,766.095498,444.123565,9622.677246
41.468848,612.876398,370.102971,9548.656652
41.469156,536.266849,296.082377,9696.697840
41.469464,383.047749,-0.000000,9622.677246
41.469772,383.047749,-0.000000,9548.656652
41.470080,536.266849,296.082377,9474.636058
41.470388,842.705048,-74.020594,9844.739029
41.470696,689.485948,-0.000000,9844.739029
41.471004,459.657299,-0.000000,9770.718434
41.471312,459.657299,222.061783,9844.739029
41.471619,459.657299,370.102971,9696.697840
41.471927,919.314598,-74.020594,9770.718434
41.472235,612.876398,-0.000000,9696.697840
41.472543,383.047749,148.041188,9918.759623
41.472851,459.657299,-0.000000,9252.574275
41.473159,842.705048,222.061783,9622.677246
41.473467,689.485948,148.041188,9474.636058
41.473775,842.705048,296.082377,9474.636058
41.474083,919.314598,296.082377,9474.636058
41.474390,919.314598,444.123565,9474.636058
41.474698,919.314598,-0.000000,9474.636058
41.475006,1149.143247,444.123565,9770.718434
41.475314,689.485948,-74.020594,9326.594869
41.475622,612.876398,296.082377,9622.677246
41.475930,842.705048,370.102971,9696.697840
41.476238,459.657299,-0.000000,9622.677246
41.476546,383.047749,222.061783,9696.697840
41.476854,0.000000,-0.000000,9844.739029
41.477161,229.828649,-222.061783,9918.759623
41.477469,229.828649,-222.061783,9474.636058
41.477777,612.876398,-148.041188,9474.636058
41.478085,306.438199,-222.061783,9696.697840
41.478393,459.657299,222.061783,9400.615463
41.478701,689.485948,222.061783,9474.636058
41.479009,919.314598,444.123565,9622.677246
41.479317,689.485948,148.041188,9474.636058
41.479625,766.095498,296.082377,9474.636058
41.479932,689.485948,-0.000000,9548.656652
41.480240,766.095498,-0.000000,9992.780217
41.480548,459.657299,-0.000000,9622.677246
41.480856,689.485948,222.061783,9622.677246
41.481164,536.266849,-0.000000,9400.615463
41.481472,612.876398,222.061783,9474.636058
41.481780,919.314598,148.041188,9696.697840
41.482088,1225.752797,-222.061783,9474.636058
41.482396,766.095498,296.082377,9622.677246
41.482703,306.438199,-0.000000,9400.615463
41.483011,459.657299,148.041188,9474.636058
41.483319,459.657299,370.102971,9770.718434
41.483627,689.485948,370.102971,9622.677246
41.483935,459.657299,222.061783,9622.677246
41.484243,612.876398,222.061783,9548.656652
41.484551,842.705048,148.041188,9696.697840
41.484859,919.314598,-370.102971,9696.697840
41.485167,612.876398,-0.000000,9622.677246
41.485475,383.047749,370.102971,9844.739029
41.485782,536.266849,-0.000000,9696.697840
41.486090,612.876398,-0.000000,9696.697840
41.486398,689.485948,222.061783,9474.636058
41.486706,995.924147,296.082377,9474.636058
41.487014,612.876398,-74.020594,9844.739029
41.487322,689.485948,222.061783,9548.656652
41.487630,0.000000,296.082377,9548.656652
41.487938,842.705048,370.102971,9474.636058
41.488246,766.095498,370.102971,9178.553681
41.488553,766.095498,370.102971,9622.677246
41.488861,689.485948,148.041188,9548.656652
41.489169,383.047749,296.082377,9622.677246
41.489477,459.657299,222.061783,9622.677246
41.489785,689.485948,-0.000000,9696.697840
41.490093,459.657299,-0.000000,9622.677246
41.490401,383.047749,-74.020594,9548.656652
41.490709,459.657299,148.041188,9474.636058
41.491017,459.657299,-0.000000,9844.739029
41.491324,689.485948,296.082377,9770.718434
41.491632,919.314598,-0.000000,9992.780217
41.491940,306.438199,-0.000000,9474.636058
41.492248,459.657299,296.082377,9770.718434
41.492556,536.266849,-222.061783,9696.697840
41.492864,689.485948,370.102971,9696.697840
41.493172,689.485948,296.082377,9474.636058
41.493480,995.924147,222.061783,9326.594869
41.493788,842.705048,296.082377,9326.594869
41.494095,842.705048,222.061783,9326.594869
41.494403,919.314598,-0.000000,9474.636058
41.494711,306.438199,148.041188,9918.759623
41.495019,919.314598,370.102971,9918.759623
41.495327,383.047749,-0.000000,9770.718434
41.495635,383.047749,-0.000000,9696.697840
41.495943,459.657299,222.061783,9548.656652
41.496251,536.266849,148.041188,9770.718434
41.496559,536.266849,-0.000000,9770.718434
41.496866,229.828649,-74.020594,9622.677246
41.497174,383.047749,-74.020594,9918.759623
41.497482,766.095498,-148.041188,9252.574275
41.497790,766.095498,296.082377,9474.636058
41.498098,842.705048,296.082377,9696.697840
41.498406,612.876398,-0.000000,9548.656652
41.498714,919.314598,296.082377,9400.615463
41.499022,842.705048,370.102971,9474.636058
41.499330,306.438199,-148.041188,9474.636058
41.499637,459.657299,-0.000000,9400.615463
41.499945,306.438199,-0.000000,9474.636058
41.500253,536.266849,-0.000000,9474.636058
41.500561,689.485948,296.082377,9326.594869
41.500869,612.876398,-0.000000,9548.656652
41.501177,536.266849,-0.000000,9622.677246
41.501485,689.485948,-0.000000,9622.677246
41.501793,842.705048,-0.000000,9770.718434
41.502101,459.657299,-148.041188,9770.718434
41.502408,1072.533697,-0.000000,9844.739029
41.502716,766.095498,296.082377,9770.718434
41.503024,689.485948,222.061783,9474.636058
41.503332,536.266849,-0.000000,9548.656652
41.503640,689.485948,222.061783,9770.718434
41.503948,612.876398,-222.061783,9548.656652
41.504256,-76.609550,518.144159,10140.821405
41.504564,689.485948,296.082377,9844.739029
41.504872,689.485948,444.123565,9400.615463
41.505180,689.485948,222.061783,9474.636058
41.505487,766.095498,370.102971,9474.636058
41.505795,919.314598,518.144159,9178.553681
41.506103,1378.971896,592.164754,9400.615463
41.506411,842.705048,370.102971,9844.739029
41.506719,842.705048,-0.000000,9474.636058
41.507027,842.705048,222.061783,9696.697840
41.507335,459.657299,-74.020594,9696.697840
41.507643,229.828649,-0.000000,9844.739029
41.507951,153.219100,-0.000000,9844.739029
41.508258,306.438199,148.041188,9696.697840
41.508566,459.657299,148.041188,9474.636058
41.508874,995.924147,-0.000000,9400.615463
41.509182,766.095498,444.123565,9770.718434
41.509490,995.924147,222.061783,9474.636058
41.509798,1149.143247,-0.000000,9622.677246
41.510106,766.095498,444.123565,9770.718434
41.510414,766.095498,370.102971,9696.697840
41.510722,612.876398,-0.000000,9770.718434
41.511029,536.266849,-0.000000,9696.697840
41.511337,536.266849,-74.020594,9622.677246
41.511645,153.219100,-0.000000,9918.759623
41.511953,153.219100,-0.000000,9696.697840
41.512261,1072.533697,-0.000000,9252.574275
41.512569,766.095498,222.061783,9474.636058
41.512877,766.095498,296.082377,9400.615463
41.513185,766.095498,370.102971,9326.594869
41.513493,766.095498,370.102971,9548.656652
41.513800,919.314598,-222.061783,9474.636058
41.514108,383.047749,-74.020594,9474.636058
41.514416,689.485948,-0.000000,9844.739029
41.514724,306.438199,296.082377,9622.677246
41.515032,153.219100,222.061783,9918.759623
41.515340,229.828649,148.041188,9992.780217
41.515648,383.047749,-222.061783,9696.697840
41.515956,612.876398,-0.000000,9622.677246
41.516264,842.705048,-222.061783,9400.615463
41.516571,536.266849,74.020594,9548.656652
41.516879,766.095498,296.082377,9326.594869
41.517187,306.438199,444.123565,9400.615463
41.517495,536.266849,444.123565,9252.574275
41.517803,995.924147,592.164754,9252.574275
41.518111,995.924147,296.082377,9474.636058
41.518419,919.314598,370.102971,9770.718434
41.518727,995.924147,-0.000000,9474.636058
41.519035,76.609550,-0.000000,9770.718434
41.519342,229.828649,-370.102971,9844.739029
41.519650,76.609550,-0.000000,10066.800811
41.519958,153.219100,-0.000000,9770.718434
41.520266,459.657299,222.061783,9696.697840
41.520574,536.266849,-0.000000,9548.656652
41.520882,536.266849,-0.000000,9770.718434
41.521190,689.485948,-0.000000,9622.677246
41.521498,766.095498,222.061783,9474.636058
41.521806,766.095498,296.082377,9696.697840
41.522113,995.924147,148.041188,9400.615463
41.522421,689.485948,518.144159,9326.594869
41.522729,766.095498,370.102971,9474.636058
41.523037,995.924147,444.123565,9474.636058
41.523345,919.314598,222.061783,9178.553681
41.523653,919.314598,370.102971,9992.780217
41.523961,459.657299,148.041188,9844.739029
41.524269,153.219100,-0.000000,9622.677246
41.524577,689.485948,-0.000000,9918.759623
41.524885,689.485948,-0.000000,9548.656652
41.525193,766.095498,222.061783,9474.636058
41.525501,766.095498,518.144159,9548.656652
41.525809,842.705048,296.082377,9474.636058
41.526116,689.485948,666.185348,9918.759623
41.526424,766.095498,-0.000000,9770.718434
41.526732,919.314598,-148.041188,9770.718434
41.527040,459.657299,222.061783,9548.656652
41.527348,536.266849,-0.000000,9548.656652
41.527656,536.266849,-0.000000,9918.759623
41.527964,536.266849,222.061783,9622.677246
41.528272,612.876398,-74.020594,9326.594869
41.528580,842.705048,222.061783,9696.697840
41.528888,1455.581446,296.082377,9770.718434
41.529196,919.314598,222.061783,9548.656652
41.529504,766.095498,444.123565,9474.636058
41.529812,689.485948,222.061783,9326.594869
41.530120,689.485948,222.061783,9474.636058
41.530427,536.266849,296.082377,9696.697840
41.530735,919.314598,370.102971,9474.636058
41.531043,919.314598,-0.000000,9400.615463
41.531351,229.828649,-0.000000,9918.759623
41.531659,459.657299,-0.000000,9474.636058
41.531967,612.876398,-222.061783,9918.759623
41.532275,459.657299,-0.000000,9548.656652
41.532583,383.047749,-0.000000,9696.697840
41.532891,536.266849,222.061783,9770.718434
41.533199,919.314598,296.082377,9992.780217
41.533507,842.705048,296.082377,9770.718434
41.533815,995.924147,-0.000000,9326.594869
41.534123,1072.533697,444.123565,9326.594869
41.534431,766.095498,518.144159,9622.677246
41.534739,612.876398,222.061783,9474.636058
41.535046,612.876398,222.061783,9474.636058
41.535354,536.266849,-0.000000,9474.636058
41.535662,766.095498,148.041188,9622.677246
41.535970,766.095498,-74.020594,9992.780217
41.536278,1072.533697,-296.082377,9844.739029
41.536586,306.438199,-74.020594,9696.697840
41.536894,612.876398,-0.000000,9844.739029
41.537202,536.266849,148.041188,9622.677246
41.537510,689.485948,148.041188,9474.636058
41.537818,919.314598,666.185348,9474.636058
41.538126,1455.581446,370.102971,9474.636058
41.538434,612.876398,370.102971,9400.615463
41.538742,229.828649,-0.000000,9548.656652
41.539050,306.438199,-518.144159,9400.615463
41.539357,383.047749,-74.020594,9474.636058
41.539665,383.047749,-222.061783,9696.697840
41.539973,306.438199,-0.000000,9770.718434
41.540281,459.657299,-74.020594,9770.718434
41.540589,766.095498,222.061783,9770.718434
41.540897,1302.362347,296.082377,9548.656652
41.541205,1302.362347,222.061783,9474.636058
41.541513,1302.362347,-0.000000,9992.780217
41.541821,842.705048,666.185348,9474.636058
41.542129,689.485948,518.144159,9474.636058
41.542437,689.485948,370.102971,9474.636058
41.542745,536.266849,-0.000000,9770.718434
41.543053,76.609550,-0.000000,9918.759623
41.543361,153.219100,-74.020594,9992.780217
41.543669,383.047749,-74.020594,10214.842000
41.543976,766.095498,-296.082377,9844.739029
41.544284,229.828649,-0.000000,9696.697840
41.544592,842.705048,222.061783,9844.739029
41.544900,919.314598,444.123565,9548.656652
41.545208,995.924147,518.144159,9326.594869
41.545516,689.485948,444.123565,9474.636058
41.545824,612.876398,592.164754,9030.512492
41.546132,919.314598,296.082377,9326.594869
41.546440,689.485948,444.123565,9548.656652
41.546748,689.485948,444.123565,9696.697840
41.547056,383.047749,-0.000000,9770.718434
41.547364,689.485948,-0.000000,9548.656652
41.547672,383.047749,-222.061783,9696.697840
41.547980,536.266849,-0.000000,9992.780217
41.548287,459.657299,-444.123565,10214.842000
41.548595,153.219100,-0.000000,10140.821405
41.548903,689.485948,148.041188,9770.718434
41.549211,612.876398,222.061783,9548.656652
41.549519,689.485948,444.123565,9548.656652
41.549827,842.705048,962.267725,9548.656652
41.550135,689.485948,592.164754,9252.574275
41.550443,842.705048,296.082377,9326.594869
41.550751,536.266849,148.041188,9474.636058
41.551059,612.876398,222.061783,9400.615463
41.551367,0.000000,370.102971,9548.656652
41.551675,612.876398,148.041188,9622.677246
41.551983,689.485948,-0.000000,9548.656652
41.552291,689.485948,-0.000000,9548.656652
41.552599,459.657299,-0.000000,9696.697840
41.552906,383.047749,296.082377,10066.800811
41.553214,1149.143247,296.082377,9622.677246
41.553522,1302.362347,-0.000000,9474.636058
41.553830,766.095498,370.102971,9548.656652
41.554138,766.095498,296.082377,9474.636058
41.554446,536.266849,296.082377,9400.615463
41.554754,459.657299,296.082377,9474.636058
41.555062,459.657299,444.123565,9622.677246
41.555370,536.266849,-74.020594,9696.697840
41.555678,383.047749,-0.000000,9918.759623
41.555986,536.266849,518.144159,9918.759623
41.556294,1149.143247,-0.000000,9992.780217
41.556602,229.828649,-0.000000,9770.718434
41.556910,306.438199,-0.000000,9770.718434
41.557217,306.438199,148.041188,9696.697840
41.557525,459.657299,-0.000000,9844.739029
41.557833,919.314598,-74.020594,9918.759623
41.558141,0.000000,-148.041188,9548.656652
41.558449,306.438199,148.041188,9696.697840
41.558757,842.705048,370.102971,9400.615463
41.559065,766.095498,518.144159,9252.574275
41.559373,919.314598,444.123565,9400.615463
41.559681,1149.143247,592.164754,9400.615463
41.559989,766.095498,370.102971,9400.615463
41.560297,842.705048,-0.000000,9622.677246
41.560605,229.828649,-0.000000,9770.718434
41.560913,76.609550,296.082377,10066.800811
41.561221,612.876398,-74.020594,9918.759623
41.561528,459.657299,-0.000000,9770.718434
41.561836,306.438199,-0.000000,9548.656652
41.562144,459.657299,518.144159,9474.636058
41.562452,306.438199,222.061783,9548.656652
41.562760,689.485948,296.082377,9326.594869
41.563068,1149.143247,296.082377,9474.636058
41.563376,1149.143247,444.123565,9400.615463
41.563684,995.924147,296.082377,9548.656652
41.563992,689.485948,222.061783,9548.656652
41.564300,536.266849,-0.000000,9770.718434
41.564608,459.657299,-0.000000,9992.780217
41.564916,612.876398,-0.000000,9770.718434
41.565224,383.047749,-0.000000,9548.656652
41.565532,459.657299,-0.000000,10066.800811
41.565840,842.705048,592.164754,10066.800811
41.566147,766.095498,296.082377,9474.636058
41.566455,842.705048,370.102971,9400.615463
41.566763,995.924147,518.144159,9326.594869
41.567071,1072.533697,962.267725,9326.594869
41.567379,1149.143247,518.144159,9400.615463
41.567687,766.095498,-0.000000,9400.615463
41.567995,842.705048,148.041188,9474.636058
41.568303,459.657299,296.082377,9992.780217
41.568611,459.657299,-0.000000,10066.800811
41.568919,153.219100,-0.000000,9770.718434
41.569227,536.266849,-0.000000,9696.697840
41.569535,229.828649,-0.000000,9696.697840
41.569843,229.828649,-0.000000,9548.656652
41.570151,536.266849,148.041188,9918.759623
41.570458,536.266849,-0.000000,9326.594869
41.570766,1072.533697,222.061783,9474.636058
41.571074,842.705048,222.061783,9548.656652
41.571382,995.924147,296.082377,9252.574275
41.571690,689.485948,148.041188,9474.636058
41.571998,536.266849,222.061783,9696.697840
41.572306,689.485948,-0.000000,9622.677246
41.572614,459.657299,74.020594,9696.697840
41.572922,459.657299,-370.102971,9992.780217
41.573230,842.705048,-148.041188,9548.656652
41.573538,689.485948,370.102971,9696.697840
41.573846,689.485948,370.102971,9474.636058
41.574154,612.876398,-0.000000,9548.656652
41.574462,689.485948,222.061783,9548.656652
41.574770,306.438199,-0.000000,9770.718434
41.575077,689.485948,444.123565,9696.697840
41.575385,995.924147,370.102971,9548.656652
41.575693,842.705048,444.123565,9548.656652
41.576001,842.705048,-0.000000,9326.594869
41.576309,689.485948,370.102971,9548.656652
41.576617,383.047749,222.061783,9696.697840
41.576925,229.828649,-0.000000,9770.718434
41.577233,1072.533697,-222.061783,9844.739029
41.577541,229.828649,-74.020594,9622.677246
41.577849,306.438199,-518.144159,9696.697840
41.578157,1225.752797,148.041188,9474.636058
41.578465,919.314598,222.061783,9474.636058
41.578773,919.314598,370.102971,9326.594869
41.579081,766.095498,518.144159,9474.636058
41.579388,842.705048,592.164754,9400.615463
41.579696,459.657299,222.061783,9252.574275
41.580004,919.314598,518.144159,9696.697840
41.580312,459.657299,-0.000000,9474.636058
41.580620,689.485948,222.061783,9770.718434
41.580928,153.219100,-0.000000,9918.759623
41.581236,459.657299,-0.000000,9622.677246
41.581544,383.047749,-0.000000,9770.718434
41.581852,612.876398,-0.000000,9770.718434
41.582160,229.828649,-0.000000,9844.739029
41.582468,306.438199,-0.000000,9474.636058
41.582776,1072.533697,-74.020594,9474.636058
41.583084,306.438199,296.082377,9400.615463
41.583392,536.266849,518.144159,9770.718434
41.583700,766.095498,592.164754,9474.636058
41.584007,612.876398,148.041188,9548.656652
41.584315,766.095498,444.123565,9548.656652
41.584623,995.924147,444.123565,9622.677246
41.584931,1072.533697,296.082377,9474.636058
41.585239,689.485948,-0.000000,9474.636058
41.585547,229.828649,-0.000000,9474.636058
41.585855,536.266849,-148.041188,9474.636058
41.586163,306.438199,148.041188,9474.636058
41.586471,689.485948,-0.000000,9326.594869
41.586779,689.485948,370.102971,9548.656652
41.587087,536.266849,370.102971,9696.697840
41.587395,459.657299,518.144159,9844.739029
41.587703,536.266849,370.102971,9548.656652
41.588011,459.657299,148.041188,9622.677246
41.588318,689.485948,-0.000000,9400.615463
41.588626,612.876398,-0.000000,9696.697840
41.588934,536.266849,-0.000000,9622.677246
41.589242,459.657299,-0.000000,9696.697840
41.589550,536.266849,-74.020594,9622.677246
41.589858,306.438199,-148.041188,9918.759623
41.590166,689.485948,-296.082377,9992.780217
41.590474,995.924147,296.082377,9770.718434
41.590782,536.266849,296.082377,9622.677246
41.591090,766.095498,592.164754,9622.677246
41.591398,766.095498,370.102971,9326.594869
41.591706,842.705048,518.144159,9474.636058
41.592014,1378.971896,518.144159,9474.636058
41.592322,919.314598,518.144159,9474.636058
41.592629,689.485948,296.082377,9992.780217
41.592937,766.095498,-222.061783,9622.677246
41.593245,689.485948,444.123565,9474.636058
41.593553,536.266849,148.041188,9696.697840
41.593861,612.876398,148.041188,9696.697840
41.594169,383.047749,-0.000000,9696.697840
41.594477,459.657299,296.082377,9844.739029
41.594785,689.485948,148.041188,9918.759623
41.595093,536.266849,-0.000000,9696.697840
41.595401,0.000000,-0.000000,9696.697840
41.595709,612.876398,222.061783,9622.677246
41.596017,459.657299,296.082377,9548.656652
41.596325,536.266849,444.123565,9696.697840
41.596633,536.266849,222.061783,9548.656652
41.596941,766.095498,-148.041188,9918.759623
41.597248,536.266849,-0.000000,9696.697840
41.597556,459.657299,-0.000000,9548.656652
41.597864,766.095498,296.082377,9400.615463
41.598172,689.485948,370.102971,9474.636058
41.598480,459.657299,222.061783,9474.636058
41.598788,919.314598,370.102971,9474.636058
41.599096,842.705048,148.041188,9474.636058
41.599404,842.705048,222.061783,9400.615463
41.599712,536.266849,-0.000000,9918.759623
41.600020,995.924147,-0.000000,9844.739029
41.600328,0.000000,-0.000000,9844.739029
41.600636,612.876398,370.102971,9622.677246
41.600944,766.095498,-0.000000,9622.677246
41.601252,536.266849,-0.000000,9548.656652
41.601559,459.657299,148.041188,9622.677246
41.601867,459.657299,222.061783,9770.718434
41.602175,689.485948,-222.061783,9622.677246
41.602483,1072.533697,-74.020594,9474.636058
41.602791,1225.752797,-0.000000,9400.615463
41.603099,689.485948,-0.000000,9474.636058
41.603407,689.485948,222.061783,9548.656652
41.603715,612.876398,148.041188,9548.656652
41.604023,612.876398,222.061783,9622.677246
41.604331,229.828649,-0.000000,9548.656652
41.604639,919.314598,222.061783,9474.636058
41.604947,459.657299,296.082377,9474.636058
41.605255,919.314598,-0.000000,9400.615463
41.605563,919.314598,296.082377,9400.615463
41.605871,766.095498,444.123565,9400.615463
41.606178,919.314598,-0.000000,9474.636058
41.606486,536.266849,-0.000000,9696.697840
41.606794,766.095498,296.082377,9770.718434
41.607102,229.828649,-0.000000,9622.677246
41.607410,383.047749,-222.061783,9548.656652
41.607718,536.266849,148.041188,9770.718434
41.608026,459.657299,148.041188,9770.718434
41.608334,383.047749,148.041188,9622.677246
41.608642,766.095498,148.041188,9548.656652
41.608950,919.314598,-0.000000,9474.636058
41.609258,459.657299,-0.000000,9474.636058
41.609566,842.705048,-0.000000,9696.697840
41.609874,995.924147,-0.000000,9400.615463
41.610182,612.876398,370.102971,9474.636058
41.610489,689.485948,296.082377,9474.636058
41.610797,689.485948,222.061783,9548.656652
41.611105,919.314598,370.102971,9474.636058
41.611413,536.266849,296.082377,9548.656652
41.611721,612.876398,-0.000000,9770.718434
41.612029,689.485948,-148.041188,9474.636058
41.612337,612.876398,-0.000000,9696.697840
41.612645,612.876398,222.061783,9696.697840
41.612953,459.657299,-0.000000,9622.677246
41.613261,383.047749,-0.000000,9622.677246
41.613569,536.266849,-0.000000,9474.636058
41.613877,536.266849,-0.000000,9548.656652
41.614185,919.314598,-0.000000,9844.739029
41.614493,612.876398,296.082377,9474.636058
41.614801,995.924147,-0.000000,9474.636058
41.615108,612.876398,296.082377,9622.677246
41.615416,612.876398,370.102971,9474.636058
41.615724,459.657299,-0.000000,9622.677246
41.616032,459.657299,296.082377,9548.656652
41.616340,766.095498,222.061783,9400.615463
41.616648,919.314598,296.082377,9400.615463
41.616956,995.924147,370.102971,9474.636058
41.617264,1149.143247,222.061783,9474.636058
41.617572,766.095498,222.061783,9622.677246
41.617880,842.705048,-0.000000,9400.615463
41.618188,612.876398,222.061783,9474.636058
41.618496,612.876398,148.041188,9622.677246
41.618804,76.609550,-0.000000,9696.697840
41.619112,306.438199,222.061783,9622.677246
41.619419,459.657299,-0.000000,9696.697840
41.619727,612.876398,-0.000000,9696.697840
41.620035,383.047749,-0.000000,9770.718434
41.620343,459.657299,296.082377,9844.739029
41.620651,612.876398,148.041188,9770.718434
41.620959,766.095498,-0.000000,9622.677246
41.621267,995.924147,370.102971,9548.656652
41.621575,1072.533697,-0.000000,9474.636058
41.621883,689.485948,222.061783,9770.718434
41.622191,536.266849,-0.000000,9474.636058
41.622499,536.266849,148.041188,9696.697840
41.622807,459.657299,296.082377,9474.636058
41.623115,1072.533697,296.082377,9474.636058
41.623423,612.876398,-0.000000,9548.656652
41.623731,919.314598,-0.000000,9696.697840
41.624039,459.657299,-0.000000,9474.636058
41.624347,229.828649,-0.000000,9696.697840
41.624655,1072.533697,296.082377,9474.636058
41.624962,612.876398,296.082377,9548.656652
41.625270,766.095498,222.061783,9696.697840
41.625578,689.485948,222.061783,9622.677246
41.625886,383.047749,-0.000000,9474.636058
41.626194,76.609550,-0.000000,9992.780217
41.626502,459.657299,-0.000000,9992.780217
41.626810,919.314598,444.123565,9844.739029
41.627118,1225.752797,-74.020594,9474.636058
41.627426,689.485948,222.061783,9474.636058
41.627734,612.876398,148.041188,9474.636058
41.628042,842.705048,296.082377,9474.636058
41.628350,536.266849,296.082377,9474.636058
41.628658,842.705048,-0.000000,9770.718434
41.628966,536.266849,-0.000000,9844.739029
41.629274,229.828649,-0.000000,9770.718434
41.629582,1072.533697,-0.000000,9770.718434
41.629890,919.314598,222.061783,9474.636058
41.630198,536.266849,444.123565,9548.656652
41.630506,689.485948,444.123565,9474.636058
41.630814,766.095498,296.082377,9400.615463
41.631122,766.095498,-0.000000,9400.615463
41.631430,-153.219100,148.041188,9622.677246
41.631738,536.266849,-0.000000,9622.677246
41.632045,306.438199,-148.041188,9696.697840
41.632353,76.609550,-148.041188,9696.697840
41.632661,153.219100,-0.000000,9918.759623
41.632969,306.438199,148.041188,9918.759623
41.633277,536.266849,148.041188,9770.718434
41.633585,995.924147,222.061783,9770.718434
41.633893,612.876398,-0.000000,9474.636058
41.634201,919.314598,740.205942,9622.677246
41.634509,689.485948,-0.000000,9474.636058
41.634817,842.705048,296.082377,9400.615463
41.635125,919.314598,370.102971,9474.636058
41.635433,689.485948,222.061783,9474.636058
41.635741,383.047749,222.061783,9474.636058
41.636049,459.657299,148.041188,9548.656652
41.636357,383.047749,-0.000000,9770.718434
41.636665,536.266849,222.061783,9622.677246
41.636973,536.266849,592.164754,9770.718434
41.637281,689.485948,296.082377,9474.636058
41.637589,766.095498,296.082377,9622.677246
41.637897,919.314598,444.123565,9474.636058
41.638205,1072.533697,444.123565,9622.677246
41.638513,383.047749,296.082377,9548.656652
41.638821,153.219100,-148.041188,9918.759623
41.639128,459.657299,-148.041188,9622.677246
41.639436,229.828649,-148.041188,9844.739029
41.639744,383.047749,-0.000000,9622.677246
41.640052,153.219100,-0.000000,9474.636058
41.640360,536.266849,-0.000000,9696.697840
41.640668,1072.533697,-0.000000,9622.677246
41.640976,919.314598,444.123565,9844.739029
41.641284,1225.752797,-0.000000,9474.636058
41.641592,1225.752797,518.144159,9474.636058
41.641900,459.657299,592.164754,9178.553681
41.642208,612.876398,518.144159,9474.636058
41.642516,842.705048,592.164754,9474.636058
41.642824,689.485948,370.102971,9178.553681
41.643132,229.828649,222.061783,9474.636058
41.643440,306.438199,222.061783,10140.821405
41.643748,229.828649,-296.082377,9696.697840
41.644056,612.876398,-296.082377,9918.759623
41.644364,689.485948,-0.000000,9696.697840
41.644672,459.657299,-74.020594,9844.739029
41.644980,536.266849,296.082377,9770.718434
41.645288,842.705048,222.061783,9474.636058
41.645596,995.924147,296.082377,9548.656652
41.645904,1149.143247,296.082377,9622.677246
41.646211,766.095498,888.247130,9400.615463
41.646519,919.314598,296.082377,9696.697840
41.646827,689.485948,296.082377,9326.594869
41.647135,919.314598,370.102971,9474.636058
41.647443,612.876398,370.102971,9474.636058
41.647751,536.266849,-0.000000,9474.636058
41.648059,306.438199,-74.020594,9474.636058
41.648367,229.828649,-148.041188,9918.759623
41.648675,1072.533697,-148.041188,9918.759623
41.648983,383.047749,-0.000000,9548.656652
41.649291,612.876398,370.102971,9770.718434
41.649599,612.876398,296.082377,9770.718434
41.649907,766.095498,518.144159,9474.636058
41.650215,689.485948,518.144159,9474.636058
41.650523,766.095498,370.102971,9474.636058
41.650831,995.924147,370.102971,9548.656652
41.651139,919.314598,-0.000000,9400.615463
41.651447,919.314598,296.082377,9474.636058
41.651755,689.485948,-74.020594,9400.615463
41.652063,689.485948,296.082377,9548.656652
41.652371,383.047749,-0.000000,9696.697840
41.652679,383.047749,-0.000000,9622.677246
41.652987,612.876398,-296.082377,9992.780217
41.653294,612.876398,-0.000000,9770.718434
41.653602,689.485948,-74.020594,10066.800811
41.653910,306.438199,-74.020594,9696.697840
41.654218,919.314598,-0.000000,9548.656652
41.654526,842.705048,222.061783,9474.636058
41.654834,689.485948,740.205942,9548.656652
41.655142,842.705048,370.102971,9400.615463
41.655450,995.924147,444.123565,9474.636058
41.655758,766.095498,148.041188,9178.553681
41.656066,1149.143247,296.082377,9548.656652
41.656374,612.876398,222.061783,10066.800811
41.656682,842.705048,-0.000000,9770.718434
41.656990,306.438199,222.061783,9844.739029
41.657298,536.266849,-0.000000,9918.759623
41.657606,383.047749,-0.000000,9696.697840
41.657914,229.828649,-0.000000,9696.697840
41.658222,612.876398,148.041188,9844.739029
41.658530,536.266849,-0.000000,9474.636058
41.658838,919.314598,-0.000000,9474.636058
41.659146,459.657299,222.061783,9474.636058
41.659454,689.485948,296.082377,9400.615463
41.659762,842.705048,370.102971,9326.594869
41.660070,842.705048,444.123565,9548.656652
41.660377,842.705048,-74.020594,9474.636058
41.660685,459.657299,-0.000000,9548.656652
