#time,accel_x,accel_y,accel_z
297.251828,689.485948,296.082377,9696.697840
297.252136,459.657299,148.041188,9548.656652
297.252444,842.705048,296.082377,9400.615463
297.252752,459.657299,444.123565,9844.739029
297.253060,689.485948,-0.000000,9548.656652
297.253368,689.485948,148.041188,9474.636058
297.253676,229.828649,370.102971,9844.739029
297.253984,536.266849,222.061783,9548.656652
297.254292,766.095498,222.061783,9622.677246
297.254599,306.438199,222.061783,9548.656652
297.254907,536.266849,222.061783,9696.697840
297.255215,1225.752797,-0.000000,9474.636058
297.255523,383.047749,222.061783,9548.656652
297.255831,1072.533697,-0.000000,9918.759623
297.256139,536.266849,592.164754,9696.697840
297.256447,536.266849,-0.000000,9474.636058
297.256755,612.876398,222.061783,9622.677246
297.257063,536.266849,148.041188,9622.677246
297.257370,459.657299,-0.000000,9622.677246
297.257678,306.438199,222.061783,9548.656652
297.257986,919.314598,-74.020594,9474.636058
297.258294,766.095498,-0.000000,9474.636058
297.258602,689.485948,666.185348,9696.697840
297.258910,536.266849,296.082377,9474.636058
297.259218,842.705048,222.061783,9474.636058
297.259526,536.266849,-0.000000,9474.636058
297.259834,612.876398,222.061783,9548.656652
297.260141,459.657299,-0.000000,9696.697840
297.260449,919.314598,148.041188,9696.697840
297.260757,612.876398,-0.000000,9178.553681
297.261065,536.266849,370.102971,9696.697840
297.261373,459.657299,296.082377,9548.656652
297.261681,689.485948,148.041188,9548.656652
297.261989,383.047749,148.041188,9474.636058
297.262297,536.266849,148.041188,9474.636058
297.262605,842.705048,-148.041188,9548.656652
297.262912,766.095498,-0.000000,9474.636058
297.263220,689.485948,-0.000000,9474.636058
297.263528,766.095498,296.082377,9474.636058
297.263836,459.657299,296.082377,9696.697840
297.264144,536.266849,222.061783,9696.697840
297.264452,612.876398,148.041188,9770.718434
297.264760,536.266849,-0.000000,9548.656652
297.265068,459.657299,-74.020594,9474.636058
297.265376,842.705048,-74.020594,9622.677246
297.265683,459.657299,-74.020594,9770.718434
297.265991,306.438199,-0.000000,9770.718434
297.266299,459.657299,-74.020594,10066.800811
297.266607,536.266849,-296.082377,9992.780217
297.266915,76.609550,-296.082377,9622.677246
297.267223,842.705048,-444.123565,9992.780217
297.267531,919.314598,-444.123565,10362.883188
297.267839,842.705048,222.061783,9696.697840
297.268147,612.876398,-0.000000,9474.636058
297.268454,1455.581446,296.082377,9030.512492
297.268762,1915.238745,296.082377,9326.594869
297.269070,1685.410096,296.082377,9030.512492
297.269378,1455.581446,222.061783,9474.636058
297.269686,1532.190996,-0.000000,9474.636058
297.269994,842.705048,-592.164754,9770.718434
297.270302,1685.410096,-148.041188,10288.862594
297.270610,1685.410096,-222.061783,9622.677246
297.270918,1685.410096,-444.123565,9622.677246
297.271225,2145.067394,-0.000000,9770.718434
297.271533,2221.676944,-0.000000,9844.739029
297.271841,2374.896044,-0.000000,9622.677246
297.272149,2681.334243,-0.000000,9474.636058
297.272457,3140.991542,370.102971,9252.574275
297.272765,2987.772442,444.123565,9474.636058
297.273073,3140.991542,666.185348,9696.697840
297.273381,3064.381992,814.226536,9178.553681
297.273689,2987.772442,740.205942,9252.574275
297.273996,3140.991542,296.082377,9400.615463
297.274304,2911.162892,296.082377,9326.594869
297.274612,3447.429741,-0.000000,9474.636058
297.274920,3294.210641,-222.061783,9622.677246
297.275228,3524.039291,-222.061783,10066.800811
297.275536,3294.210641,-370.102971,10140.821405
297.275844,3064.381992,-0.000000,10066.800811
297.276152,3524.039291,-0.000000,9696.697840
297.276460,3907.087040,148.041188,9918.759623
297.276767,4290.134789,296.082377,9548.656652
297.277075,4290.134789,-0.000000,9844.739029
297.277383,4443.353888,666.185348,9474.636058
297.277691,4443.353888,444.123565,9178.553681
297.277999,4903.011187,518.144159,9252.574275
297.278307,4826.401637,740.205942,9252.574275
297.278615,4903.011187,444.123565,9178.553681
297.278923,4673.182538,592.164754,9252.574275
297.279231,4673.182538,296.082377,9400.615463
297.279538,4826.401637,444.123565,9474.636058
297.279846,4903.011187,518.144159,9474.636058
297.280154,4826.401637,148.041188,9474.636058
297.280462,4749.792088,370.102971,9178.553681
297.280770,4749.792088,962.267725,9104.533087
297.281078,5056.230287,1406.391290,9030.512492
297.281386,4903.011187,1406.391290,9104.533087
297.281694,4749.792088,962.267725,9104.533087
297.282002,4519.963438,1332.370696,8882.471304
297.282309,3907.087040,370.102971,9178.553681
297.282617,4290.134789,1036.288319,9326.594869
297.282925,3600.648841,666.185348,9400.615463
297.283233,3217.601092,518.144159,10214.842000
297.283541,2757.943793,592.164754,9548.656652
297.283849,2451.505594,592.164754,10362.883188
297.284157,2987.772442,1036.288319,10436.903782
297.284465,2451.505594,740.205942,9918.759623
297.284773,2451.505594,148.041188,10140.821405
297.285080,2528.115143,296.082377,9474.636058
297.285388,1608.800546,444.123565,10436.903782
297.285696,1838.629195,-0.000000,9992.780217
297.286004,1608.800546,-148.041188,10214.842000
297.286312,995.924147,-666.185348,10584.944971
297.286620,1302.362347,-592.164754,10584.944971
297.286928,1302.362347,-1258.350101,11103.089130
297.287236,1455.581446,-1702.473667,10955.047942
297.287544,1302.362347,-2294.638420,10584.944971
297.287851,2681.334243,-1924.535449,10066.800811
297.288159,2911.162892,-1850.514855,9992.780217
297.288467,3294.210641,-1554.432478,9696.697840
297.288775,3600.648841,-1258.350101,9326.594869
297.289083,3907.087040,-444.123565,8956.491898
297.289391,4213.525239,-74.020594,8808.450710
297.289699,4826.401637,-0.000000,9030.512492
297.290007,4826.401637,1110.308913,8438.347739
297.290315,4366.744339,814.226536,8216.285956
297.290622,4519.963438,962.267725,8290.306550
297.290930,3830.477490,518.144159,8586.388927
297.291238,3600.648841,444.123565,9178.553681
297.291546,2757.943793,74.020594,9474.636058
297.291854,3217.601092,-0.000000,9844.739029
297.292162,2987.772442,444.123565,9696.697840
297.292470,3140.991542,592.164754,9252.574275
297.292778,3753.867940,1850.514855,9400.615463
297.293086,3677.258390,2294.638420,8808.450710
297.293393,4213.525239,2590.720797,8882.471304
297.293701,3830.477490,2368.659014,8734.430116
297.294009,3677.258390,2294.638420,9178.553681
297.294317,3217.601092,1184.329507,9696.697840
297.294625,2757.943793,-0.000000,10584.944971
297.294933,1455.581446,-1332.370696,12139.377449
297.295241,766.095498,-2886.803174,12805.562797
297.295549,689.485948,-3478.967927,13027.624579
297.295857,1149.143247,-3256.906145,13101.645173
297.296164,2374.896044,-2664.741391,12065.356855
297.296472,3830.477490,-1480.411884,10436.903782
297.296780,5209.449386,-296.082377,10510.924376
297.297088,7277.907231,296.082377,8142.265362
297.297396,6971.469032,2368.659014,6143.709319
297.297704,7660.954980,3108.864956,6439.791695
297.298012,7737.564530,3997.112087,5699.585753
297.298320,7201.297681,4885.359217,5477.523971
297.298628,6435.202183,4367.215058,5625.565159
297.298935,5056.230287,3849.070898,6883.915261
297.299243,3830.477490,2146.597232,7624.121203
297.299551,2374.896044,1110.308913,9400.615463
297.299859,1685.410096,-814.226536,11325.150913
297.300167,0.000000,-2220.617826,11991.336260
297.300475,0.000000,-3923.091493,13545.768739
297.300783,-153.219100,-4367.215058,13841.851115
297.301091,306.438199,-4219.173869,13841.851115
297.301398,1225.752797,-3552.988522,13323.706956
297.301706,3064.381992,-2516.700203,11917.315666
297.302014,4749.792088,-1998.556043,10807.006753
297.302322,5515.887586,-592.164754,8438.347739
297.302630,6205.373534,1480.411884,7328.038826
297.302938,6971.469032,2368.659014,6365.771101
297.303246,6588.421283,3330.926739,5921.647536
297.303554,6588.421283,4145.153275,5699.585753
297.303862,6665.030833,3330.926739,5625.565159
297.304169,4903.011187,2738.761985,6735.874072
297.304477,3753.867940,888.247130,8142.265362
297.304785,2911.162892,-962.267725,10510.924376
297.305093,766.095498,-2886.803174,12361.439231
297.305401,0.000000,-4367.215058,13397.727550
297.305709,153.219100,-3849.070898,13619.789333
297.306017,1149.143247,-2664.741391,12583.501014
297.306325,3677.258390,-666.185348,11399.171507
297.306633,5132.839837,1258.350101,8956.491898
297.306940,6358.592633,4515.256246,6365.771101
297.307248,7431.126331,6069.688724,4441.235652
297.307556,8044.002729,6883.915261,4145.153275
297.307864,7354.516781,6957.935855,5033.400406
297.308172,5515.887586,4737.318029,6735.874072
297.308480,2987.772442,1110.308913,9622.677246
297.308788,306.438199,-1702.473667,11325.150913
297.309096,-3447.429741,-3552.988522,13989.892304
297.309404,-4290.134789,-5699.585753,16876.695478
297.309711,-4903.011187,-7476.080014,17912.983796
297.310019,-3907.087040,-6217.729913,17394.839637
297.310327,-1225.752797,-4367.215058,14211.954086
297.310635,1149.143247,-1924.535449,10510.924376
297.310943,4443.353888,1406.391290,7624.121203
297.311251,6971.469032,4219.173869,5773.606348
297.311559,8197.221829,5995.668130,4293.194464
297.311867,8963.317327,6217.729913,2590.720797
297.312175,8503.660028,6883.915261,2812.782580
297.312482,5515.887586,3775.050304,5181.441594
297.312790,2757.943793,-370.102971,8956.491898
297.313098,-766.095498,-2812.782580,11251.130318
297.313406,-3064.381992,-5773.606348,14063.912898
297.313714,-4136.915689,-6513.812290,14508.036463
297.314022,-3217.601092,-5329.482782,14211.954086
297.314330,306.438199,-2590.720797,12361.439231
297.314638,2451.505594,370.102971,9474.636058
297.314946,5898.935335,1480.411884,8512.368333
297.315253,6128.763984,4737.318029,5255.462188
297.315561,7201.297681,5699.585753,5181.441594
297.315869,6588.421283,4959.379811,6217.729913
297.316177,4213.525239,4219.173869,6439.791695
297.316485,1532.190996,1258.350101,9992.780217
297.316793,-1072.533697,-1702.473667,12287.418637
297.317101,-2987.772442,-4737.318029,15322.262999
297.317409,-5592.497135,-5403.503377,15174.221811
297.317717,-5132.839837,-6143.709319,15766.386565
297.318024,-3830.477490,-5329.482782,14582.057057
297.318332,-229.828649,-1850.514855,11473.192101
297.318640,2987.772442,518.144159,9252.574275
297.318948,5592.497135,2368.659014,6217.729913
297.319256,7277.907231,4293.194464,4589.276840
297.319564,7431.126331,5699.585753,3997.112087
297.319872,6971.469032,6069.688724,4367.215058
297.320180,5209.449386,4885.359217,6365.771101
297.320488,2681.334243,3627.009116,7402.059420
297.320795,1455.581446,2368.659014,8586.388927
297.321103,-459.657299,1110.308913,9622.677246
297.321411,-1915.238745,370.102971,10955.047942
297.321719,-842.705048,-666.185348,11843.295072
297.322027,76.609550,-1110.308913,12213.398043
297.322335,-612.876398,-1998.556043,11251.130318
297.322643,-766.095498,-3108.864956,10955.047942
297.322950,-612.876398,-4367.215058,13101.645173
297.323258,-1762.019645,-3997.112087,13027.624579
297.323566,-2374.896044,-3330.926739,12065.356855
297.323874,-1838.629195,-1480.411884,11695.253884
297.324182,-2451.505594,-74.020594,9844.739029
297.324490,-306.438199,2220.617826,8068.244768
297.324797,1608.800546,3552.988522,7698.141797
297.325105,2987.772442,3775.050304,6439.791695
297.325413,3140.991542,3330.926739,5699.585753
297.325721,3140.991542,962.267725,7179.997637
297.326029,1225.752797,-1702.473667,9104.533087
297.326337,0.000000,-3552.988522,10955.047942
297.326644,-1915.238745,-4737.318029,11843.295072
297.326952,-1608.800546,-3923.091493,11695.253884
297.327260,-612.876398,-2220.617826,10658.965565
297.327568,842.705048,518.144159,8882.471304
297.327876,3600.648841,2368.659014,7772.162391
297.328184,5132.839837,4145.153275,5551.544565
297.328491,5745.716235,4811.338623,4441.235652
297.328799,5209.449386,3997.112087,6365.771101
297.329107,4826.401637,2072.576638,8068.244768
297.329415,1455.581446,222.061783,10214.842000
297.329723,-1455.581446,-2294.638420,12805.562797
297.330031,-3753.867940,-4589.276840,14211.954086
297.330338,-5286.058936,-4293.194464,14434.015869
297.330646,-4443.353888,-2738.761985,14211.954086
297.330954,-2757.943793,-1406.391290,11843.295072
297.331262,-612.876398,-0.000000,10584.944971
297.331570,2145.067394,1480.411884,8586.388927
297.331878,3217.601092,3108.864956,6513.812290
297.332185,3753.867940,2886.803174,6735.874072
297.332493,4060.306139,2960.823768,6883.915261
297.332801,3524.039291,2220.617826,8290.306550
297.333109,1838.629195,1332.370696,9252.574275
297.333417,919.314598,1036.288319,9178.553681
297.333725,612.876398,1036.288319,9252.574275
297.334033,306.438199,1406.391290,9622.677246
297.334340,1072.533697,1110.308913,9548.656652
297.334648,1302.362347,296.082377,10066.800811
297.334956,689.485948,-296.082377,9696.697840
297.335264,229.828649,-1998.556043,10066.800811
297.335572,0.000000,-3478.967927,12065.356855
297.335880,-1762.019645,-3923.091493,12287.418637
297.336187,-2298.286494,-3108.864956,12213.398043
297.336495,-2068.457845,-1998.556043,11547.212695
297.336803,-1378.971896,148.041188,10066.800811
297.337111,-383.047749,2738.761985,8734.430116
297.337419,1838.629195,3256.906145,8216.285956
297.337727,2757.943793,3775.050304,6439.791695
297.338034,2834.553343,3034.844362,6217.729913
297.338342,2451.505594,592.164754,8364.327145
297.338650,842.705048,-1628.453072,9992.780217
297.338958,-459.657299,-3108.864956,12583.501014
297.339266,-1302.362347,-3478.967927,12065.356855
297.339574,-1302.362347,-2738.761985,11399.171507
297.339881,0.000000,-1036.288319,10732.986159
297.340189,1762.019645,1554.432478,8512.368333
297.340497,3830.477490,2960.823768,7920.203579
297.340805,3830.477490,3627.009116,6883.915261
297.341113,4673.182538,3552.988522,5773.606348
297.341421,3830.477490,2368.659014,6883.915261
297.341728,2757.943793,1110.308913,9104.533087
297.342036,766.095498,-814.226536,10955.047942
297.342344,-1225.752797,-2072.576638,12361.439231
297.342652,-3830.477490,-2738.761985,13471.748144
297.342960,-4443.353888,-2146.597232,12509.480420
297.343268,-3753.867940,-148.041188,12139.377449
297.343575,-1455.581446,1110.308913,11325.150913
297.343883,536.266849,2368.659014,9252.574275
297.344191,2068.457845,2294.638420,7402.059420
297.344499,2451.505594,2146.597232,7476.080014
297.344807,2528.115143,814.226536,8438.347739
297.345115,1608.800546,444.123565,9548.656652
297.345422,1072.533697,-740.205942,10955.047942
297.345730,229.828649,-444.123565,9622.677246
297.346038,76.609550,-148.041188,9770.718434
297.346346,306.438199,1332.370696,9104.533087
297.346654,1608.800546,1776.494261,8882.471304
297.346962,2451.505594,1776.494261,8290.306550
297.347269,2834.553343,1406.391290,7328.038826
297.347577,2757.943793,296.082377,8216.285956
297.347885,1072.533697,-740.205942,8734.430116
297.348193,-153.219100,-2738.761985,11103.089130
297.348501,-1378.971896,-2664.741391,11177.109724
297.348809,-2451.505594,-2516.700203,11473.192101
297.349116,-2911.162892,-888.247130,10510.924376
297.349424,-1915.238745,1110.308913,10658.965565
297.349732,-306.438199,1776.494261,9770.718434
297.350040,229.828649,2812.782580,7698.141797
297.350348,2374.896044,1850.514855,7994.224174
297.350656,306.438199,1258.350101,6957.935855
297.350963,1455.581446,-592.164754,10214.842000
297.351271,0.000000,-1480.411884,10584.944971
297.351579,-1608.800546,-2294.638420,11399.171507
297.351887,-1685.410096,-2960.823768,12361.439231
297.352195,-1378.971896,-1332.370696,10807.006753
297.352503,-153.219100,296.082377,10584.944971
297.352810,1532.190996,1628.453072,8586.388927
297.353118,3140.991542,2590.720797,7254.018232
297.353426,3600.648841,2516.700203,6957.935855
297.353734,3677.258390,2220.617826,7105.977043
297.354042,2911.162892,1554.432478,8216.285956
297.354350,1072.533697,-74.020594,9770.718434
297.354657,153.219100,-1258.350101,10732.986159
297.354965,-1762.019645,-1628.453072,11251.130318
297.355273,-2374.896044,-1924.535449,12139.377449
297.355581,-2374.896044,-444.123565,10807.006753
297.355889,-536.266849,814.226536,9992.780217
297.356197,919.314598,1332.370696,9474.636058
297.356504,1455.581446,1924.535449,7550.100608
297.356812,2298.286494,1406.391290,7550.100608
297.357120,2145.067394,518.144159,8882.471304
297.357428,1915.238745,-666.185348,10214.842000
297.357736,536.266849,-1258.350101,10288.862594
297.358044,306.438199,-1776.494261,11325.150913
297.358351,-1072.533697,-1332.370696,10510.924376
297.358659,229.828649,-296.082377,10881.027347
297.358967,1378.971896,1480.411884,9474.636058
297.359275,2451.505594,1850.514855,8438.347739
297.359583,3370.820191,1924.535449,7920.203579
297.359891,3753.867940,1628.453072,7402.059420
297.360198,3140.991542,148.041188,7994.224174
297.360506,1991.848295,-370.102971,8956.491898
297.360814,842.705048,-1480.411884,11251.130318
297.361122,-1302.362347,-2368.659014,11177.109724
297.361430,-1225.752797,-1776.494261,11695.253884
297.361738,-1455.581446,296.082377,10881.027347
297.362045,-383.047749,1406.391290,9474.636058
297.362353,1532.190996,2442.679609,8660.409521
297.362661,2374.896044,2960.823768,7772.162391
297.362969,2911.162892,2220.617826,8438.347739
297.363277,2145.067394,1480.411884,7994.224174
297.363585,1608.800546,-0.000000,9992.780217
297.363892,306.438199,-1184.329507,11103.089130
297.364200,-842.705048,-2072.576638,11103.089130
297.364508,-1991.848295,-2220.617826,12435.459826
297.364816,-1149.143247,-888.247130,11251.130318
297.365124,0.000000,1036.288319,10658.965565
297.365432,842.705048,1184.329507,9622.677246
297.365739,2221.676944,2072.576638,8068.244768
297.366047,3064.381992,2516.700203,6957.935855
297.366355,3217.601092,1998.556043,7846.182985
297.366663,2528.115143,814.226536,8808.450710
297.366971,1532.190996,-148.041188,10066.800811
297.367279,-536.266849,-1110.308913,10955.047942
297.367586,-2145.067394,-1628.453072,11251.130318
297.367894,-1991.848295,-592.164754,11103.089130
297.368202,-1915.238745,592.164754,9844.739029
297.368510,-306.438199,1110.308913,9400.615463
297.368818,1149.143247,1406.391290,7846.182985
297.369126,1149.143247,1110.308913,7772.162391
297.369433,1762.019645,222.061783,8068.244768
297.369741,1225.752797,-888.247130,9400.615463
297.370049,153.219100,-1332.370696,10955.047942
297.370357,229.828649,-2146.597232,11325.150913
297.370665,-842.705048,-1702.473667,10658.965565
297.370973,-383.047749,-592.164754,10288.862594
297.371280,536.266849,518.144159,9622.677246
297.371588,1302.362347,1702.473667,8364.327145
297.371896,2145.067394,1998.556043,8364.327145
297.372204,2757.943793,1702.473667,8142.265362
297.372512,3064.381992,888.247130,8068.244768
297.372820,1915.238745,-370.102971,8734.430116
297.373127,0.000000,-1850.514855,10436.903782
297.373435,-1149.143247,-2812.782580,11547.212695
297.373743,-2451.505594,-2368.659014,12065.356855
297.374051,-2528.115143,-1258.350101,11547.212695
297.374359,-1685.410096,-0.000000,10214.842000
297.374667,-1072.533697,1924.535449,9548.656652
297.374974,995.924147,2368.659014,8512.368333
297.375282,2221.676944,2442.679609,7550.100608
297.375590,2145.067394,2664.741391,6661.853478
297.375898,2451.505594,1184.329507,8364.327145
297.376206,1532.190996,-0.000000,9474.636058
297.376514,76.609550,-888.247130,10510.924376
297.376821,-459.657299,-1628.453072,11103.089130
297.377129,-306.438199,-1480.411884,10658.965565
297.377437,0.000000,-0.000000,10510.924376
297.377745,689.485948,1184.329507,9326.594869
297.378053,2451.505594,1850.514855,9548.656652
297.378361,2451.505594,1998.556043,8216.285956
297.378668,2298.286494,1332.370696,7920.203579
297.378976,2374.896044,370.102971,8734.430116
297.379284,1302.362347,-1110.308913,10436.903782
297.379592,-689.485948,-2072.576638,11917.315666
297.379900,-1762.019645,-2516.700203,11843.295072
297.380208,-2451.505594,-1776.494261,11843.295072
297.380515,-2221.676944,-518.144159,11103.089130
297.380823,-1149.143247,1036.288319,10288.862594
297.381131,689.485948,2146.597232,9474.636058
297.381439,1991.848295,2368.659014,7698.141797
297.381747,2298.286494,2072.576638,6957.935855
297.382055,2221.676944,666.185348,7920.203579
297.382362,1838.629195,-0.000000,9844.739029
297.382670,1149.143247,-740.205942,10362.883188
297.382978,-229.828649,-1036.288319,10658.965565
297.383286,-229.828649,-1184.329507,10362.883188
297.383594,-766.095498,518.144159,9844.739029
297.383902,612.876398,1554.432478,10140.821405
297.384209,1991.848295,2368.659014,8660.409521
297.384517,2604.724693,2146.597232,7994.224174
297.384825,3294.210641,740.205942,7624.121203
297.385133,2298.286494,296.082377,8216.285956
297.385441,1455.581446,-740.205942,10436.903782
297.385749,-153.219100,-2294.638420,11769.274478
297.386056,-1378.971896,-2516.700203,12139.377449
297.386364,-2451.505594,-1776.494261,11621.233289
297.386672,-1608.800546,-888.247130,11325.150913
297.386980,-766.095498,1480.411884,9770.718434
297.387288,536.266849,2146.597232,8586.388927
297.387596,2145.067394,2516.700203,7328.038826
297.387904,2451.505594,2442.679609,7254.018232
297.388211,2911.162892,1554.432478,7105.977043
297.388519,2145.067394,740.205942,8068.244768
297.388827,1762.019645,-888.247130,9918.759623
297.389135,229.828649,-1998.556043,10807.006753
297.389443,-766.095498,-1776.494261,10732.986159
297.389751,-842.705048,-1258.350101,11325.150913
297.390058,76.609550,-296.082377,10140.821405
297.390366,153.219100,1036.288319,9326.594869
297.390674,1685.410096,1480.411884,9178.553681
297.390982,2528.115143,888.247130,7772.162391
297.391290,2681.334243,518.144159,7624.121203
297.391598,1915.238745,-370.102971,9326.594869
297.391905,919.314598,-2072.576638,10732.986159
297.392213,-995.924147,-2738.761985,11769.274478
297.392521,-1532.190996,-2516.700203,11769.274478
297.392829,-2451.505594,-962.267725,10732.986159
297.393137,-1608.800546,370.102971,10214.842000
297.393445,76.609550,1776.494261,9622.677246
297.393752,1685.410096,2886.803174,7772.162391
297.394060,2834.553343,2442.679609,7624.121203
297.394368,2757.943793,2146.597232,6661.853478
297.394676,2528.115143,814.226536,7624.121203
297.394984,1915.238745,222.061783,9696.697840
297.395292,842.705048,-962.267725,10955.047942
297.395599,-306.438199,-962.267725,10807.006753
297.395907,-1072.533697,-0.000000,10955.047942
297.396215,-766.095498,666.185348,10807.006753
297.396523,0.000000,1776.494261,9992.780217
297.396831,1762.019645,1702.473667,9474.636058
297.397139,2221.676944,1332.370696,8734.430116
297.397446,2451.505594,222.061783,8438.347739
297.397754,1149.143247,-592.164754,9918.759623
297.398062,0.000000,-1776.494261,11547.212695
297.398370,-1072.533697,-2368.659014,12287.418637
297.398678,-2298.286494,-2442.679609,12361.439231
297.398986,-2068.457845,-1258.350101,11473.192101
297.399293,-1149.143247,370.102971,10288.862594
297.399601,0.000000,1998.556043,9400.615463
297.399909,2068.457845,3256.906145,7105.977043
297.400217,3064.381992,2886.803174,7031.956449
297.400525,3830.477490,2442.679609,6587.832884
297.400833,3140.991542,1628.453072,7402.059420
297.401140,2451.505594,370.102971,9178.553681
297.401448,1302.362347,-1184.329507,10362.883188
297.401756,0.000000,-1332.370696,11029.068536
297.402064,-1149.143247,-1628.453072,11251.130318
297.402372,-1225.752797,-444.123565,11251.130318
297.402680,0.000000,1406.391290,9992.780217
297.402987,1532.190996,1850.514855,8808.450710
297.403295,2374.896044,1554.432478,8142.265362
297.403603,2374.896044,814.226536,8364.327145
297.403911,1991.848295,-222.061783,9178.553681
297.404219,536.266849,-1406.391290,10436.903782
297.404527,-766.095498,-2812.782580,12065.356855
297.404834,-2451.505594,-3108.864956,12361.439231
297.405142,-2911.162892,-1776.494261,11917.315666
297.405450,-2068.457845,-888.247130,11473.192101
297.405758,-1455.581446,1554.432478,9030.512492
297.406066,1072.533697,2368.659014,8882.471304
297.406374,2145.067394,2072.576638,6513.812290
297.406681,2911.162892,2590.720797,6143.709319
297.406989,3064.381992,1332.370696,7105.977043
297.407297,2528.115143,592.164754,7254.018232
297.407605,2068.457845,-518.144159,9696.697840
297.407913,612.876398,-962.267725,10140.821405
297.408221,-383.047749,-592.164754,10510.924376
297.408528,-766.095498,-370.102971,10066.800811
297.408836,0.000000,666.185348,9548.656652
297.409144,1532.190996,1184.329507,9474.636058
297.409452,1991.848295,888.247130,8364.327145
297.409760,2528.115143,740.205942,8216.285956
297.410068,2145.067394,-148.041188,9030.512492
297.410375,1302.362347,-1628.453072,10584.944971
297.410683,-153.219100,-2516.700203,12139.377449
297.410991,-1532.190996,-3330.926739,12361.439231
297.411299,-2451.505594,-2886.803174,11917.315666
297.411607,-3064.381992,-1184.329507,11473.192101
297.411915,-1455.581446,666.185348,11177.109724
297.412222,76.609550,1998.556043,9252.574275
297.412530,1991.848295,2738.761985,7698.141797
297.412838,3217.601092,3034.844362,6809.894666
297.413146,3600.648841,2812.782580,6439.791695
297.413454,3447.429741,1480.411884,7550.100608
297.413762,2834.553343,-0.000000,8734.430116
297.414069,1762.019645,-518.144159,10510.924376
297.414377,-536.266849,-1036.288319,10732.986159
297.414685,-689.485948,-222.061783,11251.130318
297.414993,-766.095498,518.144159,10584.944971
297.415301,919.314598,2146.597232,9548.656652
297.415609,2451.505594,2146.597232,8882.471304
297.415916,2374.896044,2072.576638,8142.265362
297.416224,2987.772442,592.164754,8512.368333
297.416532,1991.848295,-148.041188,10214.842000
297.416840,76.609550,-2220.617826,12139.377449
297.417148,-1532.190996,-3330.926739,11991.336260
297.417456,-2604.724693,-2442.679609,12879.583391
297.417763,-2451.505594,-1776.494261,12435.459826
297.418071,-1608.800546,370.102971,9622.677246
297.418379,0.000000,1998.556043,9548.656652
297.418687,1149.143247,2220.617826,8808.450710
297.418995,3140.991542,2886.803174,6957.935855
297.419303,3447.429741,2442.679609,6513.812290
297.419610,3064.381992,1184.329507,7476.080014
297.419918,2298.286494,74.020594,8142.265362
297.420226,842.705048,-444.123565,10140.821405
297.420534,0.000000,-1406.391290,11177.109724
297.420842,-919.314598,-814.226536,10362.883188
297.421150,-383.047749,296.082377,10881.027347
297.421457,919.314598,1258.350101,9622.677246
297.421765,1838.629195,1628.453072,8068.244768
297.422073,2604.724693,1258.350101,8734.430116
297.422381,2374.896044,444.123565,8142.265362
297.422689,1302.362347,-592.164754,9178.553681
297.422997,0.000000,-1850.514855,11547.212695
297.423304,-995.924147,-2886.803174,12435.459826
297.423612,-2298.286494,-3775.050304,12287.418637
297.423920,-2987.772442,-2516.700203,12361.439231
297.424228,-2298.286494,-148.041188,11103.089130
297.424536,-612.876398,814.226536,9844.739029
297.424844,842.705048,2294.638420,8290.306550
297.425152,2374.896044,2516.700203,7179.997637
297.425460,2834.553343,2220.617826,6513.812290
297.425768,2528.115143,1036.288319,7328.038826
297.426076,2528.115143,-74.020594,8290.306550
297.426383,1762.019645,-518.144159,9474.636058
297.426691,383.047749,-814.226536,10584.944971
297.426999,-612.876398,-1110.308913,10288.862594
297.427307,-612.876398,666.185348,10140.821405
297.427615,306.438199,1924.535449,9400.615463
297.427923,1608.800546,2516.700203,8734.430116
297.428231,2298.286494,2368.659014,7994.224174
297.428539,2757.943793,1406.391290,8364.327145
297.428847,1608.800546,-222.061783,8956.491898
297.429155,0.000000,-1554.432478,11325.150913
297.429462,-1685.410096,-3256.906145,12805.562797
297.429770,-2757.943793,-2960.823768,13249.686362
297.430078,-3217.601092,-2886.803174,12731.542202
297.430386,-3064.381992,-740.205942,11177.109724
297.430694,-1225.752797,1258.350101,10436.903782
297.431002,842.705048,1628.453072,9030.512492
297.431310,2374.896044,2886.803174,7105.977043
297.431618,3524.039291,3034.844362,6513.812290
297.431926,3907.087040,1850.514855,6365.771101
297.432234,3370.820191,814.226536,7402.059420
297.432541,2451.505594,296.082377,8438.347739
297.432849,1225.752797,-222.061783,9844.739029
297.433157,689.485948,-740.205942,10658.965565
297.433465,-229.828649,-148.041188,9474.636058
297.433773,536.266849,1776.494261,9696.697840
297.434081,1225.752797,1184.329507,9474.636058
297.434389,2451.505594,1480.411884,8512.368333
297.434697,2068.457845,1332.370696,8068.244768
297.435005,1838.629195,-222.061783,9326.594869
297.435313,612.876398,-1998.556043,11325.150913
297.435620,-995.924147,-2368.659014,12065.356855
297.435928,-2145.067394,-3404.947333,13027.624579
297.436236,-3140.991542,-3034.844362,12879.583391
297.436544,-2604.724693,-2072.576638,11991.336260
297.436852,-2298.286494,-148.041188,10955.047942
297.437160,0.000000,1628.453072,8882.471304
297.437468,1685.410096,2590.720797,7550.100608
297.437776,2911.162892,2368.659014,7031.956449
297.438084,3830.477490,1924.535449,6291.750507
297.438392,2987.772442,1258.350101,7105.977043
297.438699,2987.772442,-0.000000,8882.471304
297.439007,1608.800546,-370.102971,9030.512492
297.439315,0.000000,-296.082377,10214.842000
297.439623,-612.876398,370.102971,10288.862594
297.439931,0.000000,962.267725,9992.780217
297.440239,1149.143247,2368.659014,8956.491898
297.440547,2451.505594,2072.576638,8586.388927
297.440855,3447.429741,1702.473667,7772.162391
297.441163,2068.457845,814.226536,8660.409521
297.441471,766.095498,-1406.391290,11177.109724
297.441778,-536.266849,-2146.597232,11991.336260
297.442086,-2145.067394,-3108.864956,12583.501014
297.442394,-3294.210641,-2738.761985,13249.686362
297.442702,-3140.991542,-2072.576638,11769.274478
297.443010,-2451.505594,-370.102971,11177.109724
297.443318,-383.047749,666.185348,10362.883188
297.443626,1608.800546,2146.597232,7994.224174
297.443934,2911.162892,2368.659014,7624.121203
297.444242,3600.648841,2220.617826,6735.874072
297.444550,3753.867940,1554.432478,6883.915261
297.444857,3064.381992,518.144159,8512.368333
297.445165,2068.457845,222.061783,9400.615463
297.445473,689.485948,-296.082377,9992.780217
297.445781,0.000000,-0.000000,10510.924376
297.446089,0.000000,444.123565,10066.800811
297.446397,689.485948,1184.329507,9178.553681
297.446705,2068.457845,1554.432478,8956.491898
297.447013,2451.505594,1184.329507,7994.224174
297.447321,1838.629195,370.102971,8438.347739
297.447629,1455.581446,-666.185348,9326.594869
297.447936,-459.657299,-1628.453072,11251.130318
297.448244,-1532.190996,-3034.844362,13323.706956
297.448552,-2374.896044,-2738.761985,13027.624579
297.448860,-3370.820191,-1776.494261,12287.418637
297.449168,-2068.457845,-1184.329507,11769.274478
297.449476,-1149.143247,1036.288319,10066.800811
297.449784,689.485948,1554.432478,9474.636058
297.450092,1838.629195,2368.659014,7254.018232
297.450400,3140.991542,2368.659014,6735.874072
297.450708,3140.991542,1850.514855,6957.935855
297.451015,3064.381992,518.144159,7772.162391
297.451323,1915.238745,-222.061783,9326.594869
297.451631,1072.533697,-962.267725,9696.697840
297.451939,-153.219100,-518.144159,9918.759623
297.452247,-612.876398,148.041188,9474.636058
297.452555,459.657299,1184.329507,9844.739029
297.452863,1455.581446,1776.494261,9252.574275
297.453171,2987.772442,1480.411884,7994.224174
297.453479,2834.553343,1702.473667,7846.182985
297.453787,2221.676944,-0.000000,8956.491898
297.454094,919.314598,-1258.350101,10510.924376
297.454402,-1149.143247,-2220.617826,12287.418637
297.454710,-2451.505594,-3034.844362,13027.624579
297.455018,-4060.306139,-2960.823768,12879.583391
297.455326,-3140.991542,-1776.494261,13027.624579
297.455634,-2068.457845,-666.185348,10955.047942
297.455942,-459.657299,1702.473667,9474.636058
297.456250,1608.800546,1332.370696,8512.368333
297.456558,2604.724693,1850.514855,6439.791695
297.456866,3217.601092,2294.638420,7105.977043
297.457173,3753.867940,1184.329507,7254.018232
297.457481,2604.724693,1332.370696,7920.203579
297.457789,2068.457845,-0.000000,9252.574275
297.458097,766.095498,296.082377,9548.656652
297.458405,76.609550,296.082377,10214.842000
297.458713,229.828649,962.267725,9030.512492
297.459021,2451.505594,2368.659014,8882.471304
297.459329,2987.772442,2146.597232,8290.306550
297.459637,2451.505594,1628.453072,7624.121203
297.459945,2451.505594,814.226536,9104.533087
297.460252,995.924147,-888.247130,10214.842000
297.460560,-689.485948,-2442.679609,12435.459826
297.460868,-1915.238745,-3108.864956,13323.706956
297.461176,-2987.772442,-3256.906145,13323.706956
297.461484,-3370.820191,-1850.514855,12583.501014
297.461792,-2374.896044,-444.123565,11399.171507
297.462100,-1225.752797,814.226536,10658.965565
297.462408,1302.362347,1554.432478,8808.450710
297.462716,2451.505594,2516.700203,6883.915261
297.463024,3140.991542,2220.617826,6883.915261
297.463331,3677.258390,444.123565,6735.874072
297.463639,2987.772442,740.205942,7994.224174
297.463947,1991.848295,-222.061783,9474.636058
297.464255,689.485948,-1036.288319,10066.800811
297.464563,0.000000,222.061783,10214.842000
297.464871,229.828649,1258.350101,9474.636058
297.465179,995.924147,2146.597232,8808.450710
297.465487,2911.162892,2664.741391,8586.388927
297.465795,3294.210641,1998.556043,7698.141797
297.466103,2528.115143,1406.391290,7624.121203
297.466411,1455.581446,-0.000000,9326.594869
297.466718,383.047749,-1628.453072,11547.212695
297.467026,-1991.848295,-2442.679609,12287.418637
297.467334,-3140.991542,-3182.885551,13027.624579
297.467642,-3907.087040,-2812.782580,13101.645173
297.467950,-3753.867940,-1554.432478,12361.439231
297.468258,-1991.848295,-148.041188,11547.212695
297.468566,-306.438199,1332.370696,10288.862594
297.468874,1149.143247,1702.473667,8512.368333
297.469182,2298.286494,1628.453072,7031.956449
297.469490,2834.553343,1258.350101,7105.977043
297.469797,2757.943793,-0.000000,8290.306550
297.470105,1838.629195,-0.000000,8660.409521
297.470413,1302.362347,-148.041188,9548.656652
297.470721,383.047749,-518.144159,9992.780217
297.471029,229.828649,592.164754,8882.471304
297.471337,1378.971896,2072.576638,8808.450710
297.471645,2681.334243,2220.617826,7624.121203
297.471953,2987.772442,2294.638420,7254.018232
297.472261,2911.162892,1406.391290,8068.244768
297.472569,1685.410096,-0.000000,8808.450710
297.472876,0.000000,-1406.391290,10955.047942
297.473184,-1302.362347,-2960.823768,12879.583391
297.473492,-2528.115143,-3108.864956,12805.562797
297.473800,-3294.210641,-2812.782580,12953.603985
297.474108,-3524.039291,-1480.411884,12213.398043
297.474416,-2145.067394,370.102971,11473.192101
297.474724,-459.657299,1406.391290,10288.862594
297.475032,1072.533697,1924.535449,8734.430116
297.475340,2451.505594,1998.556043,7402.059420
297.475648,2987.772442,1480.411884,7772.162391
297.475955,2528.115143,740.205942,8216.285956
297.476263,1915.238745,-0.000000,9104.533087
297.476571,536.266849,-444.123565,10362.883188
297.476879,-536.266849,-888.247130,11325.150913
297.477187,0.000000,222.061783,9992.780217
297.477495,766.095498,1998.556043,9030.512492
297.477803,2604.724693,2294.638420,8882.471304
297.478111,3677.258390,2368.659014,7328.038826
297.478419,4443.353888,2220.617826,6957.935855
297.478727,3140.991542,1702.473667,7550.100608
297.479034,2145.067394,-74.020594,8882.471304
297.479342,612.876398,-1184.329507,10584.944971
297.479650,-1149.143247,-2442.679609,11917.315666
297.479958,-2451.505594,-2516.700203,12435.459826
297.480266,-3447.429741,-1702.473667,12435.459826
297.480574,-3140.991542,-962.267725,12065.356855
297.480882,-1532.190996,-0.000000,10881.027347
297.481190,689.485948,592.164754,9622.677246
297.481498,1455.581446,1110.308913,8364.327145
297.481806,2374.896044,1036.288319,7254.018232
297.482113,2757.943793,592.164754,8216.285956
297.482421,2145.067394,-370.102971,8956.491898
297.482729,1378.971896,-222.061783,9622.677246
297.483037,1072.533697,-666.185348,10362.883188
297.483345,383.047749,222.061783,9548.656652
297.483653,1072.533697,1406.391290,8586.388927
297.483961,2145.067394,2146.597232,8068.244768
297.484269,2911.162892,2590.720797,7476.080014
297.484577,3524.039291,2146.597232,7328.038826
297.484885,3447.429741,1332.370696,6957.935855
297.485192,1685.410096,-444.123565,8660.409521
297.485500,229.828649,-1850.514855,11029.068536
297.485808,-1608.800546,-2590.720797,12139.377449
297.486116,-3064.381992,-2960.823768,12583.501014
297.486424,-4136.915689,-2368.659014,12213.398043
297.486732,-3447.429741,-1184.329507,11991.336260
297.487040,-2145.067394,444.123565,11029.068536
297.487348,0.000000,888.247130,9548.656652
297.487656,1762.019645,1406.391290,8512.368333
297.487964,2451.505594,1776.494261,7476.080014
297.488271,2681.334243,740.205942,7402.059420
297.488579,2145.067394,296.082377,8512.368333
297.488887,1149.143247,-222.061783,9770.718434
297.489195,229.828649,-518.144159,10436.903782
297.489503,-153.219100,-370.102971,10436.903782
297.489811,229.828649,962.267725,9474.636058
297.490119,1149.143247,1406.391290,8660.409521
297.490427,2911.162892,2368.659014,7846.182985
297.490735,3524.039291,1998.556043,7994.224174
297.491043,3064.381992,1628.453072,7031.956449
297.491350,2068.457845,296.082377,8660.409521
297.491658,612.876398,-1258.350101,10955.047942
297.491966,-766.095498,-2294.638420,12139.377449
297.492274,-2528.115143,-3182.885551,12657.521608
297.492582,-3140.991542,-2368.659014,12583.501014
297.492890,-3677.258390,-888.247130,10955.047942
297.493198,-2298.286494,740.205942,12139.377449
297.493506,842.705048,518.144159,11399.171507
297.493814,0.000000,2886.803174,7402.059420
297.494122,3447.429741,1036.288319,9252.574275
297.494429,2987.772442,1406.391290,6957.935855
297.494737,2145.067394,814.226536,8512.368333
297.495045,2298.286494,-444.123565,9918.759623
297.495353,995.924147,-518.144159,9918.759623
297.495661,0.000000,-1110.308913,11695.253884
297.495969,-306.438199,740.205942,9326.594869
297.496277,1762.019645,1480.411884,9474.636058
297.496585,2145.067394,2072.576638,7550.100608
297.496893,3524.039291,2220.617826,7624.121203
297.497201,3217.601092,1850.514855,7550.100608
297.497508,2604.724693,222.061783,7994.224174
297.497816,2451.505594,-148.041188,9844.739029
297.498124,766.095498,-740.205942,9770.718434
297.498432,-766.095498,-2664.741391,12213.398043
297.498740,-3217.601092,-2516.700203,12509.480420
297.499048,-3370.820191,-1406.391290,11769.274478
297.499356,-2911.162892,-592.164754,11843.295072
297.499664,-1378.971896,740.205942,9918.759623
297.499972,1762.019645,962.267725,9474.636058
297.500280,1608.800546,1332.370696,8364.327145
297.500587,2528.115143,370.102971,7402.059420
297.500895,2298.286494,592.164754,7550.100608
297.501203,1915.238745,-222.061783,9622.677246
297.501511,842.705048,-1184.329507,9918.759623
297.501819,383.047749,-888.247130,10288.862594
297.502127,76.609550,-222.061783,9918.759623
297.502435,766.095498,1184.329507,8808.450710
297.502743,2528.115143,2516.700203,7698.141797
297.503051,3064.381992,2294.638420,7550.100608
297.503359,3600.648841,1998.556043,7846.182985
297.503666,2911.162892,1110.308913,7624.121203
297.503974,1838.629195,-74.020594,9326.594869
297.504282,0.000000,-1258.350101,10584.944971
297.504590,-1378.971896,-2590.720797,12435.459826
297.504898,-3140.991542,-2220.617826,12287.418637
297.505206,-4290.134789,-1036.288319,12287.418637
297.505514,-2834.553343,-0.000000,11917.315666
297.505822,-1302.362347,1628.453072,10584.944971
297.506130,229.828649,2072.576638,9326.594869
297.506438,1915.238745,2146.597232,8290.306550
297.506745,2298.286494,1184.329507,8142.265362
297.507053,1915.238745,666.185348,8068.244768
297.507361,1915.238745,-222.061783,9622.677246
297.507669,612.876398,-1184.329507,10807.006753
297.507977,-383.047749,-1258.350101,11473.192101
297.508285,-306.438199,-518.144159,10881.027347
297.508593,0.000000,370.102971,9770.718434
297.508901,1455.581446,1924.535449,8882.471304
297.509209,3140.991542,2294.638420,8216.285956
297.509517,3830.477490,2368.659014,7772.162391
297.509824,3753.867940,1628.453072,7031.956449
297.510132,2757.943793,814.226536,7550.100608
297.510440,2068.457845,-148.041188,9252.574275
297.510748,-153.219100,-1480.411884,10214.842000
297.511056,-1685.410096,-1776.494261,11473.192101
297.511364,-3370.820191,-1332.370696,11843.295072
297.511672,-2834.553343,-666.185348,11695.253884
297.511980,-1762.019645,-0.000000,11473.192101
297.512288,-229.828649,740.205942,10066.800811
297.512596,1378.971896,444.123565,8808.450710
297.512903,2221.676944,1332.370696,7402.059420
297.513211,2374.896044,592.164754,7994.224174
297.513519,1838.629195,-222.061783,9326.594869
297.513827,1072.533697,-740.205942,9918.759623
297.514135,459.657299,-1702.473667,11029.068536
297.514443,-612.876398,-1258.350101,10214.842000
297.514751,-306.438199,222.061783,10066.800811
297.515059,1072.533697,1184.329507,9400.615463
297.515367,1608.800546,1850.514855,7846.182985
297.515675,2834.553343,1850.514855,7994.224174
297.515982,3217.601092,1702.473667,7105.977043
297.516290,2987.772442,1036.288319,7772.162391
297.516598,2145.067394,-296.082377,9548.656652
297.516906,306.438199,-1406.391290,10732.986159
297.517214,-1455.581446,-2072.576638,12065.356855
297.517522,-2221.676944,-1924.535449,11473.192101
297.517830,-2757.943793,-1036.288319,11843.295072
297.518138,-1915.238745,518.144159,10658.965565
297.518446,76.609550,1554.432478,9844.739029
297.518754,1302.362347,1850.514855,8956.491898
297.519061,2451.505594,1258.350101,7328.038826
297.519369,2757.943793,1258.350101,7254.018232
297.519677,2298.286494,-0.000000,8734.430116
297.519985,1608.800546,-666.185348,9474.636058
297.520293,0.000000,-666.185348,10658.965565
297.520601,-306.438199,-1184.329507,11251.130318
297.520909,-689.485948,-222.061783,10214.842000
297.521217,229.828649,1332.370696,9918.759623
297.521525,1915.238745,1850.514855,9400.615463
297.521833,2374.896044,2146.597232,8290.306550
297.522141,3140.991542,2146.597232,8290.306550
297.522448,3064.381992,740.205942,7772.162391
297.522756,1838.629195,-148.041188,9104.533087
297.523064,306.438199,-1258.350101,10510.924376
297.523372,-1072.533697,-1998.556043,11843.295072
297.523680,-2987.772442,-2146.597232,12065.356855
297.523988,-3294.210641,-1184.329507,12361.439231
297.524296,-2068.457845,-0.000000,11325.150913
297.524604,0.000000,888.247130,9770.718434
297.524912,1149.143247,1998.556043,8438.347739
297.525220,2374.896044,1776.494261,7476.080014
297.525528,3140.991542,1258.350101,7624.121203
297.525836,2221.676944,962.267725,7846.182985
297.526144,1915.238745,-0.000000,9400.615463
297.526452,1532.190996,-666.185348,10510.924376
297.526760,-306.438199,-740.205942,10807.006753
297.527068,-536.266849,-296.082377,10214.842000
297.527376,229.828649,444.123565,10066.800811
297.527684,766.095498,1554.432478,9178.553681
297.527992,1608.800546,1998.556043,8586.388927
297.528300,2451.505594,1628.453072,8660.409521
297.528607,2681.334243,666.185348,8290.306550
297.528915,1991.848295,-0.000000,8660.409521
297.529223,229.828649,-1332.370696,10214.842000
297.529531,-1225.752797,-2516.700203,11177.109724
297.529839,-2757.943793,-2368.659014,12139.377449
297.530147,-2987.772442,-1628.453072,12805.562797
297.530455,-2987.772442,-518.144159,11177.109724
297.530763,-1685.410096,962.267725,9992.780217
297.531071,306.438199,1850.514855,9548.656652
297.531379,1762.019645,2146.597232,7402.059420
297.531687,2911.162892,1628.453072,7105.977043
297.531995,2834.553343,1480.411884,7254.018232
297.532303,2145.067394,222.061783,8068.244768
297.532611,919.314598,-592.164754,9178.553681
297.532919,459.657299,-1110.308913,10140.821405
297.533227,-306.438199,-370.102971,9844.739029
297.533535,-383.047749,-74.020594,9770.718434
297.533843,383.047749,888.247130,9770.718434
297.534151,1302.362347,1554.432478,9400.615463
297.534459,2528.115143,814.226536,8882.471304
297.534766,2681.334243,740.205942,8364.327145
297.535074,2298.286494,148.041188,8734.430116
297.535382,1072.533697,-1258.350101,10362.883188
297.535690,-459.657299,-1998.556043,11547.212695
297.535998,-1455.581446,-2220.617826,11843.295072
297.536306,-2528.115143,-1332.370696,11621.233289
297.536614,-1991.848295,-444.123565,11103.089130
297.536922,-995.924147,888.247130,10658.965565
297.537230,0.000000,1850.514855,9326.594869
297.537538,2068.457845,2294.638420,7476.080014
297.537846,2911.162892,2442.679609,6735.874072
297.538154,2757.943793,1554.432478,7476.080014
297.538462,2374.896044,148.041188,8364.327145
297.538770,1608.800546,-740.205942,9918.759623
297.539078,536.266849,-1110.308913,10658.965565
297.539386,0.000000,-1258.350101,11029.068536
297.539694,0.000000,-222.061783,10362.883188
297.540002,612.876398,962.267725,10066.800811
297.540310,1608.800546,2368.659014,9548.656652
297.540618,2451.505594,2072.576638,8512.368333
297.540926,3447.429741,1480.411884,7994.224174
297.541233,2374.896044,888.247130,7846.182985
297.541541,1685.410096,-444.123565,10214.842000
297.541849,612.876398,-1776.494261,11695.253884
297.542157,-1915.238745,-2590.720797,12139.377449
297.542465,-2987.772442,-2442.679609,12287.418637
297.542773,-2911.162892,-814.226536,11769.274478
297.543081,-2145.067394,592.164754,11029.068536
297.543389,0.000000,1702.473667,9918.759623
297.543697,2374.896044,2220.617826,7994.224174
297.544005,2834.553343,2072.576638,7105.977043
297.544313,3140.991542,1480.411884,7105.977043
297.544621,2987.772442,1332.370696,7698.141797
297.544929,2528.115143,-0.000000,9030.512492
297.545237,842.705048,-1110.308913,9696.697840
297.545545,-153.219100,-1036.288319,10288.862594
297.545853,-612.876398,-740.205942,10584.944971
297.546161,0.000000,-0.000000,9622.677246
297.546469,919.314598,1628.453072,9548.656652
297.546777,2145.067394,1776.494261,9474.636058
297.547085,2374.896044,814.226536,7846.182985
297.547392,2451.505594,814.226536,8068.244768
297.547700,1762.019645,-740.205942,9474.636058
297.548008,-383.047749,-1776.494261,10732.986159
297.548316,-1915.238745,-3182.885551,12435.459826
297.548624,-2604.724693,-3108.864956,12509.480420
297.548932,-2987.772442,-2368.659014,11843.295072
297.549240,-2911.162892,-518.144159,10955.047942
297.549548,-842.705048,1258.350101,9770.718434
297.549856,689.485948,2220.617826,8660.409521
297.550164,2145.067394,2368.659014,7402.059420
297.550472,2911.162892,2072.576638,6661.853478
297.550780,2987.772442,1628.453072,7328.038826
297.551088,2221.676944,296.082377,8734.430116
297.551396,1455.581446,-962.267725,9474.636058
297.551704,229.828649,-1406.391290,10510.924376
297.552012,-919.314598,-518.144159,10140.821405
297.552320,-153.219100,740.205942,9474.636058
297.552628,229.828649,1184.329507,9696.697840
297.552936,1532.190996,2072.576638,9252.574275
297.553244,2604.724693,1776.494261,8142.265362
297.553551,2528.115143,1554.432478,7994.224174
297.553859,1762.019645,-222.061783,9030.512492
297.554167,306.438199,-1110.308913,10807.006753
297.554475,-1225.752797,-2368.659014,11991.336260
297.554783,-2911.162892,-3330.926739,13175.665768
297.555091,-3600.648841,-2664.741391,12509.480420
297.555399,-3064.381992,-888.247130,11695.253884
297.555707,-1225.752797,740.205942,10288.862594
297.556015,842.705048,1702.473667,9178.553681
297.556323,2681.334243,2294.638420,8216.285956
297.556631,3753.867940,2146.597232,5995.668130
297.556939,3983.696590,2368.659014,6809.894666
297.557247,3294.210641,1332.370696,7772.162391
297.557555,2451.505594,370.102971,8734.430116
297.557863,1149.143247,-148.041188,9548.656652
297.558171,0.000000,-222.061783,10288.862594
297.558479,-229.828649,-0.000000,10288.862594
297.558787,229.828649,1258.350101,10140.821405
297.559095,1685.410096,1258.350101,9844.739029
297.559403,2604.724693,1480.411884,9252.574275
297.559710,2834.553343,1258.350101,8216.285956
297.560018,2451.505594,296.082377,8808.450710
297.560326,1225.752797,-1036.288319,10288.862594
297.560634,-229.828649,-1850.514855,11991.336260
297.560942,-1915.238745,-2886.803174,12435.459826
297.561250,-2451.505594,-2220.617826,12287.418637
297.561558,-2834.553343,-1258.350101,11695.253884
297.561866,-1532.190996,296.082377,10584.944971
297.562174,459.657299,1702.473667,9770.718434
297.562482,1455.581446,2590.720797,7476.080014
297.562790,2757.943793,2294.638420,7179.997637
297.563098,3064.381992,1924.535449,7105.977043
297.563406,2757.943793,740.205942,7476.080014
297.563714,1072.533697,-0.000000,8808.450710
297.564022,1225.752797,-888.247130,10066.800811
297.564330,0.000000,-740.205942,10140.821405
297.564638,-1072.533697,-0.000000,10214.842000
297.564946,229.828649,592.164754,10362.883188
297.565254,1149.143247,1776.494261,9400.615463
297.565562,1685.410096,1850.514855,8660.409521
297.565870,2987.772442,962.267725,8216.285956
297.566177,2681.334243,814.226536,7772.162391
297.566485,1455.581446,-222.061783,9474.636058
297.566793,536.266849,-1702.473667,11029.068536
297.567101,-1685.410096,-2590.720797,12139.377449
297.567409,-3524.039291,-2886.803174,12657.521608
297.567717,-3524.039291,-1628.453072,11769.274478
297.568025,-2374.896044,-74.020594,11177.109724
297.568333,-766.095498,962.267725,10362.883188
297.568641,919.314598,1850.514855,8364.327145
297.568949,2681.334243,1998.556043,7624.121203
297.569257,2604.724693,1776.494261,7254.018232
297.569565,2604.724693,1258.350101,7550.100608
297.569873,2068.457845,444.123565,9178.553681
297.570181,612.876398,-888.247130,10362.883188
297.570489,-383.047749,-1184.329507,10362.883188
297.570797,-689.485948,-444.123565,10436.903782
297.571105,-689.485948,-74.020594,10140.821405
297.571413,766.095498,1776.494261,9400.615463
297.571721,2528.115143,1924.535449,8586.388927
297.572029,2911.162892,1776.494261,7994.224174
297.572336,3294.210641,962.267725,7550.100608
297.572644,2374.896044,222.061783,8734.430116
297.572952,536.266849,-1628.453072,10881.027347
297.573260,-766.095498,-2738.761985,11695.253884
297.573568,-3064.381992,-2368.659014,12139.377449
297.573876,-3294.210641,-1998.556043,12657.521608
297.574184,-2221.676944,-1258.350101,11325.150913
297.574492,-1072.533697,1480.411884,9844.739029
297.574800,1149.143247,1554.432478,9548.656652
297.575108,2451.505594,2146.597232,7624.121203
297.575416,3600.648841,2812.782580,7105.977043
297.575724,3600.648841,1554.432478,7179.997637
297.576032,2911.162892,1184.329507,7105.977043
297.576340,1991.848295,-0.000000,9474.636058
297.576648,459.657299,-444.123565,10066.800811
297.576956,-153.219100,-74.020594,9548.656652
297.577264,0.000000,518.144159,10288.862594
297.577572,842.705048,1628.453072,9918.759623
297.577880,2145.067394,2294.638420,8882.471304
297.578188,3677.258390,1776.494261,9178.553681
297.578495,2987.772442,814.226536,8068.244768
297.578803,2221.676944,-0.000000,8586.388927
297.579111,919.314598,-1332.370696,10658.965565
297.579419,-766.095498,-2516.700203,11843.295072
297.579727,-2681.334243,-2960.823768,12287.418637
297.580035,-3217.601092,-2442.679609,12879.583391
297.580343,-2451.505594,-1702.473667,11843.295072
297.580651,-1991.848295,222.061783,10214.842000
297.580959,0.000000,962.267725,9696.697840
297.581267,1915.238745,1998.556043,8216.285956
297.581575,2451.505594,2072.576638,7179.997637
297.581883,3217.601092,2072.576638,7031.956449
297.582191,2987.772442,1554.432478,7624.121203
297.582499,2298.286494,296.082377,8956.491898
297.582807,459.657299,-370.102971,9178.553681
297.583115,-229.828649,-222.061783,10066.800811
297.583423,-766.095498,-0.000000,9622.677246
297.583731,-229.828649,1258.350101,9696.697840
297.584039,919.314598,1924.535449,9326.594869
297.584347,2374.896044,1184.329507,8882.471304
297.584654,2374.896044,1110.308913,7624.121203
297.584962,1532.190996,370.102971,8808.450710
297.585270,76.609550,-1702.473667,10584.944971
297.585578,-995.924147,-2146.597232,11769.274478
297.585886,-2681.334243,-3330.926739,12805.562797
297.586194,-3983.696590,-3108.864956,12805.562797
297.586502,-3294.210641,-1924.535449,11917.315666
297.586810,-2757.943793,-0.000000,10955.047942
297.587118,-229.828649,962.267725,9770.718434
297.587426,1302.362347,1776.494261,7994.224174
297.587734,2757.943793,2590.720797,7105.977043
297.588042,4213.525239,1776.494261,6735.874072
297.588350,3600.648841,1554.432478,6735.874072
297.588658,2987.772442,518.144159,8956.491898
297.588966,1532.190996,-148.041188,8956.491898
297.589274,766.095498,-0.000000,9178.553681
297.589582,306.438199,296.082377,9844.739029
297.589890,612.876398,1554.432478,9400.615463
297.590198,2604.724693,2146.597232,9178.553681
297.590506,2681.334243,1554.432478,8660.409521
297.590814,3830.477490,1554.432478,7846.182985
297.591121,2528.115143,518.144159,7772.162391
297.591429,1762.019645,-518.144159,9770.718434
297.591737,0.000000,-1850.514855,11399.171507
297.592045,-2145.067394,-2886.803174,12509.480420
297.592353,-3140.991542,-3404.947333,13545.768739
297.592661,-3370.820191,-2738.761985,12731.542202
297.592969,-2528.115143,-1110.308913,12139.377449
297.593277,-1072.533697,370.102971,11695.253884
297.593585,383.047749,1184.329507,9918.759623
297.593893,2221.676944,1850.514855,8290.306550
297.594201,3370.820191,2220.617826,6587.832884
297.594509,3524.039291,1850.514855,7105.977043
297.594817,3140.991542,962.267725,8586.388927
297.595125,2757.943793,-0.000000,8882.471304
297.595433,919.314598,148.041188,9770.718434
297.595741,383.047749,296.082377,9474.636058
297.596049,919.314598,1332.370696,9252.574275
297.596357,1302.362347,2072.576638,9326.594869
297.596665,2528.115143,1628.453072,8882.471304
297.596973,3294.210641,2294.638420,7920.203579
297.597280,2911.162892,962.267725,7698.141797
297.597588,1991.848295,-296.082377,8956.491898
297.597896,612.876398,-1406.391290,10510.924376
297.598204,-995.924147,-2368.659014,11843.295072
297.598512,-2834.553343,-3034.844362,12213.398043
297.598820,-2834.553343,-2220.617826,12287.418637
297.599128,-2757.943793,-888.247130,12065.356855
297.599436,-1608.800546,444.123565,10955.047942
297.599744,0.000000,1184.329507,9770.718434
297.600052,1378.971896,1258.350101,9178.553681
297.600360,2145.067394,1480.411884,7624.121203
297.600668,2604.724693,1480.411884,7179.997637
297.600976,1685.410096,518.144159,9252.574275
297.601284,1455.581446,-0.000000,9252.574275
297.601592,153.219100,-592.164754,10066.800811
297.601900,-612.876398,-222.061783,10214.842000
297.602208,-76.609550,962.267725,9548.656652
297.602516,0.000000,2146.597232,9548.656652
297.602824,2221.676944,1628.453072,9326.594869
297.603132,2528.115143,1998.556043,7772.162391
297.603439,2451.505594,1480.411884,7698.141797
297.603747,2298.286494,296.082377,7994.224174
297.604055,766.095498,-444.123565,9104.533087
297.604363,-842.705048,-2368.659014,11917.315666
297.604671,-2528.115143,-3034.844362,11843.295072
297.604979,-3830.477490,-2812.782580,12879.583391
297.605287,-3524.039291,-2368.659014,11843.295072
297.605595,-2068.457845,-74.020594,10214.842000
297.605903,-229.828649,1110.308913,10140.821405
297.606211,1455.581446,962.267725,8512.368333
297.606519,2451.505594,2072.576638,6661.853478
297.606827,2757.943793,1628.453072,7328.038826
297.607135,2987.772442,666.185348,7772.162391
297.607443,1838.629195,-0.000000,8438.347739
297.607751,1072.533697,-296.082377,9622.677246
297.608059,536.266849,-1184.329507,10066.800811
297.608367,-612.876398,222.061783,9918.759623
297.608675,306.438199,592.164754,10066.800811
297.608983,1149.143247,1776.494261,8956.491898
297.609291,2528.115143,1480.411884,8364.327145
297.609598,2451.505594,1184.329507,8438.347739
297.609906,2221.676944,444.123565,7772.162391
297.610214,1378.971896,-518.144159,9178.553681
297.610522,153.219100,-1332.370696,10881.027347
297.610830,-995.924147,-2220.617826,11843.295072
297.611138,-2145.067394,-2146.597232,12287.418637
297.611446,-2911.162892,-1184.329507,11695.253884
297.611754,-2451.505594,-518.144159,11251.130318
297.612062,-459.657299,666.185348,10807.006753
297.612370,919.314598,1036.288319,9548.656652
297.612678,1838.629195,1406.391290,8068.244768
297.612986,3140.991542,1258.350101,7402.059420
297.613294,3217.601092,888.247130,7550.100608
297.613602,2987.772442,444.123565,8512.368333
297.613910,1915.238745,-148.041188,9326.594869
297.614218,919.314598,-222.061783,9030.512492
297.614526,995.924147,666.185348,9918.759623
297.614834,1149.143247,1258.350101,9474.636058
297.615142,1072.533697,2368.659014,9326.594869
297.615450,2987.772442,2590.720797,9030.512492
297.615757,2987.772442,2368.659014,8216.285956
297.616065,2068.457845,1184.329507,8364.327145
297.616373,919.314598,-74.020594,10288.862594
297.616681,-612.876398,-1406.391290,12065.356855
297.616989,-2145.067394,-3256.906145,13101.645173
297.617297,-3447.429741,-2886.803174,13249.686362
297.617605,-3753.867940,-2368.659014,13101.645173
297.617913,-3064.381992,-1406.391290,12065.356855
297.618221,-1608.800546,444.123565,10732.986159
297.618529,689.485948,1776.494261,9548.656652
297.618837,2374.896044,1998.556043,7846.182985
297.619145,3217.601092,2442.679609,7105.977043
297.619453,3524.039291,1554.432478,6439.791695
297.619761,3677.258390,1110.308913,7920.203579
297.620069,2221.676944,-0.000000,9104.533087
297.620377,1149.143247,-740.205942,9326.594869
297.620685,-383.047749,-592.164754,10436.903782
297.620993,153.219100,148.041188,9992.780217
297.621301,1149.143247,1850.514855,8956.491898
297.621609,2145.067394,2146.597232,8808.450710
297.621917,3524.039291,1480.411884,7772.162391
297.622224,3447.429741,1332.370696,7254.018232
297.622532,2221.676944,518.144159,7994.224174
297.622840,1072.533697,-1554.432478,9844.739029
297.623148,-766.095498,-2072.576638,11251.130318
297.623456,-2451.505594,-2442.679609,12287.418637
297.623764,-3447.429741,-2664.741391,12065.356855
297.624072,-3830.477490,-1628.453072,12065.356855
297.624380,-2374.896044,-888.247130,12213.398043
297.624688,-689.485948,370.102971,9992.780217
297.624996,229.828649,740.205942,9030.512492
297.625304,1991.848295,518.144159,8142.265362
297.625612,2221.676944,592.164754,7031.956449
297.625920,2834.553343,-296.082377,8216.285956
297.626228,2068.457845,-666.185348,8660.409521
297.626536,1072.533697,-814.226536,9030.512492
297.626844,612.876398,-518.144159,9400.615463
297.627152,1225.752797,518.144159,8956.491898
297.627460,1762.019645,1924.535449,8808.450710
297.627768,2757.943793,2664.741391,7846.182985
297.628076,3830.477490,3034.844362,7328.038826
297.628385,3677.258390,2664.741391,6809.894666
297.628693,3064.381992,1628.453072,7698.141797
297.629001,1685.410096,-0.000000,9622.677246
297.629309,0.000000,-1702.473667,11695.253884
297.629617,-2221.676944,-3034.844362,12731.542202
297.629925,-3370.820191,-3404.947333,13323.706956
297.630233,-4673.182538,-2368.659014,13619.789333
297.630542,-3677.258390,-740.205942,12361.439231
297.630850,-2145.067394,592.164754,11325.150913
297.631158,229.828649,1628.453072,10214.842000
297.631466,1532.190996,1480.411884,8438.347739
297.631774,2528.115143,2368.659014,7624.121203
297.632082,2834.553343,740.205942,8438.347739
297.632390,2604.724693,666.185348,9178.553681
297.632698,1378.971896,-666.185348,10436.903782
297.633007,153.219100,-0.000000,10140.821405
297.633315,229.828649,296.082377,9992.780217
297.633623,766.095498,1554.432478,9400.615463
297.633931,1915.238745,2368.659014,8364.327145
297.634239,3677.258390,2146.597232,8364.327145
297.634547,4136.915689,2072.576638,7105.977043
297.634855,3140.991542,1554.432478,7105.977043
297.635164,1915.238745,-0.000000,9252.574275
297.635472,689.485948,-1258.350101,10510.924376
297.635780,-1378.971896,-2590.720797,11843.295072
297.636088,-2604.724693,-2664.741391,12657.521608
297.636396,-3447.429741,-2220.617826,12361.439231
297.636704,-3140.991542,-1332.370696,11769.274478
297.637012,-995.924147,370.102971,11473.192101
297.637321,-153.219100,1036.288319,9696.697840
297.637629,1685.410096,1776.494261,8364.327145
297.637937,2451.505594,1554.432478,7402.059420
297.638245,2298.286494,666.185348,7772.162391
297.638553,1991.848295,-296.082377,9178.553681
297.638861,1149.143247,-888.247130,9622.677246
297.639169,766.095498,-1480.411884,10436.903782
297.639477,229.828649,-1036.288319,9992.780217
297.639786,536.266849,296.082377,9622.677246
297.640094,1608.800546,1554.432478,9252.574275
297.640402,3294.210641,2146.597232,8142.265362
297.640710,4060.306139,2442.679609,7179.997637
297.641018,4060.306139,2146.597232,6587.832884
297.641326,2987.772442,518.144159,7846.182985
297.641634,2068.457845,-148.041188,9474.636058
297.641943,-76.609550,-1924.535449,11177.109724
297.642251,-2145.067394,-2368.659014,11473.192101
297.642559,-3294.210641,-2442.679609,11843.295072
297.642867,-3447.429741,-1258.350101,11991.336260
297.643175,-2604.724693,-0.000000,11177.109724
297.643483,-995.924147,888.247130,10658.965565
297.643791,766.095498,1628.453072,9326.594869
297.644099,2374.896044,1776.494261,7698.141797
297.644408,2451.505594,1036.288319,7550.100608
297.644716,2911.162892,148.041188,8438.347739
297.645024,2298.286494,-148.041188,9548.656652
297.645332,229.828649,-1480.411884,10066.800811
297.645640,0.000000,-962.267725,10362.883188
297.645948,76.609550,-0.000000,9474.636058
297.646256,1378.971896,1480.411884,8956.491898
297.646565,1915.238745,1998.556043,8586.388927
297.646873,3753.867940,1554.432478,7846.182985
297.647181,2757.943793,1702.473667,7846.182985
297.647489,2145.067394,666.185348,8364.327145
297.647797,1149.143247,-74.020594,9770.718434
297.648105,-842.705048,-1332.370696,11473.192101
297.648413,-2145.067394,-2664.741391,12657.521608
297.648722,-3217.601092,-2294.638420,11917.315666
297.649030,-3447.429741,-1184.329507,12213.398043
297.649338,-3064.381992,-0.000000,11029.068536
297.649646,-842.705048,1554.432478,10732.986159
297.649954,1455.581446,1480.411884,9622.677246
297.650262,1915.238745,2072.576638,6957.935855
297.650570,2604.724693,1406.391290,7179.997637
297.650878,3370.820191,-0.000000,8808.450710
297.651187,1378.971896,-0.000000,8734.430116
297.651495,536.266849,-1110.308913,10584.944971
297.651803,536.266849,-740.205942,11103.089130
297.652111,76.609550,-148.041188,10288.862594
297.652419,1225.752797,1332.370696,9252.574275
297.652727,2374.896044,2368.659014,8734.430116
297.653035,2834.553343,2442.679609,7920.203579
297.653344,3370.820191,2368.659014,7476.080014
297.653652,3447.429741,1924.535449,7994.224174
297.653960,1762.019645,-0.000000,9622.677246
297.654268,536.266849,-1258.350101,10584.944971
297.654576,-1149.143247,-1924.535449,11621.233289
297.654884,-2681.334243,-2738.761985,11843.295072
297.655192,-3217.601092,-1924.535449,12139.377449
297.655501,-2681.334243,-444.123565,11695.253884
297.655809,-1149.143247,814.226536,10436.903782
297.656117,383.047749,1480.411884,9400.615463
297.656425,2834.553343,1702.473667,8290.306550
297.656733,1838.629195,1110.308913,6957.935855
297.657041,2298.286494,296.082377,7920.203579
297.657349,1685.410096,-74.020594,9400.615463
297.657657,766.095498,-1406.391290,10510.924376
297.657966,-612.876398,-1702.473667,10584.944971
297.658274,-383.047749,-1036.288319,10807.006753
297.658582,-229.828649,222.061783,9474.636058
297.658890,1072.533697,1258.350101,8808.450710
297.659198,2911.162892,2072.576638,8216.285956
297.659506,4213.525239,1850.514855,6957.935855
297.659814,3600.648841,1628.453072,6735.874072
297.660123,2681.334243,1036.288319,7254.018232
297.660431,1532.190996,-518.144159,9770.718434
297.660739,-306.438199,-1628.453072,10955.047942
297.661047,-2451.505594,-2220.617826,11769.274478
297.661355,-3447.429741,-1850.514855,12065.356855
297.661663,-3140.991542,-1110.308913,12139.377449
297.661971,-2068.457845,592.164754,11029.068536
297.662279,-612.876398,1110.308913,9696.697840
297.662588,919.314598,1332.370696,9400.615463
297.662896,1378.971896,1258.350101,7772.162391
297.663204,1685.410096,444.123565,7994.224174
297.663512,1302.362347,-148.041188,9474.636058
297.663820,766.095498,-888.247130,10658.965565
297.664128,306.438199,-1480.411884,10658.965565
297.664436,-766.095498,-666.185348,10807.006753
297.664745,-153.219100,370.102971,10066.800811
297.665053,1072.533697,1554.432478,9474.636058
297.665361,2374.896044,2368.659014,8734.430116
297.665669,3294.210641,2516.700203,7402.059420
297.665977,4060.306139,2220.617826,7550.100608
297.666285,2987.772442,1332.370696,7920.203579
297.666593,2374.896044,-0.000000,9696.697840
297.666902,-306.438199,-962.267725,10510.924376
297.667210,-1608.800546,-2072.576638,11695.253884
297.667518,-2374.896044,-2072.576638,12065.356855
297.667826,-2451.505594,-740.205942,11251.130318
297.668134,-1915.238745,740.205942,11103.089130
297.668442,0.000000,1332.370696,10140.821405
297.668750,1685.410096,1628.453072,9030.512492
297.669058,2451.505594,1850.514855,7772.162391
297.669367,2451.505594,1184.329507,7254.018232
297.669675,2068.457845,444.123565,8956.491898
297.669983,1149.143247,-370.102971,10214.842000
297.670291,-306.438199,-1258.350101,11325.150913
297.670599,-842.705048,-1332.370696,11547.212695
297.670907,-919.314598,-518.144159,11103.089130
297.671215,0.000000,370.102971,10214.842000
297.671524,2145.067394,1850.514855,9326.594869
297.671832,3064.381992,2146.597232,8290.306550
297.672140,3294.210641,1702.473667,7624.121203
297.672448,3217.601092,1480.411884,7254.018232
297.672756,2145.067394,222.061783,8808.450710
297.673064,919.314598,-1184.329507,10584.944971
297.673372,-306.438199,-2146.597232,11473.192101
297.673681,-1685.410096,-2072.576638,11177.109724
297.673989,-3140.991542,-1332.370696,11547.212695
297.674297,-2298.286494,-0.000000,11473.192101
297.674605,-459.657299,1184.329507,10140.821405
297.674913,1225.752797,1554.432478,8660.409521
297.675221,2528.115143,2146.597232,7179.997637
297.675529,2451.505594,1332.370696,6957.935855
297.675837,2451.505594,518.144159,8808.450710
297.676146,1378.971896,-148.041188,9104.533087
297.676454,0.000000,-1406.391290,10807.006753
297.676762,-689.485948,-2368.659014,11473.192101
297.677070,-1225.752797,-740.205942,10288.862594
297.677378,-383.047749,-0.000000,10881.027347
297.677686,612.876398,1850.514855,8512.368333
297.677994,2451.505594,1628.453072,9104.533087
297.678303,2834.553343,1628.453072,8068.244768
297.678611,2451.505594,1776.494261,7698.141797
297.678919,3064.381992,222.061783,9400.615463
297.679227,536.266849,-740.205942,9770.718434
297.679535,-689.485948,-1628.453072,11473.192101
297.679843,-1991.848295,-2590.720797,11695.253884
297.680151,-3983.696590,-1406.391290,11325.150913
297.680459,-1685.410096,-1406.391290,12213.398043
297.680768,-995.924147,1480.411884,9474.636058
297.681076,229.828649,666.185348,9992.780217
297.681384,2145.067394,1406.391290,7105.977043
297.681692,2604.724693,2072.576638,6883.915261
297.682000,2451.505594,592.164754,7476.080014
297.682308,1915.238745,296.082377,7772.162391
297.682616,1608.800546,-666.185348,10510.924376
297.682925,-306.438199,-1036.288319,10807.006753
297.683233,229.828649,-962.267725,10436.903782
297.683541,-153.219100,518.144159,10362.883188
297.683849,919.314598,740.205942,10214.842000
297.684157,1685.410096,1924.535449,8660.409521
297.684465,2681.334243,2368.659014,8290.306550
297.684773,3600.648841,1628.453072,8290.306550
297.685082,2298.286494,1036.288319,8142.265362
297.685390,2298.286494,-296.082377,10140.821405
297.685698,-459.657299,-2072.576638,11695.253884
297.686006,-2451.505594,-2368.659014,12065.356855
297.686314,-2681.334243,-2368.659014,13175.665768
297.686622,-3140.991542,-888.247130,11251.130318
297.686930,-1455.581446,-0.000000,10881.027347
297.687238,0.000000,1924.535449,9770.718434
297.687547,1762.019645,1998.556043,8512.368333
297.687855,2145.067394,2294.638420,6217.729913
297.688163,2987.772442,1850.514855,7105.977043
297.688471,2068.457845,740.205942,8364.327145
297.688779,1072.533697,-0.000000,9030.512492
297.689087,76.609550,-444.123565,10881.027347
297.689395,-919.314598,-666.185348,10584.944971
297.689704,-842.705048,-74.020594,10288.862594
297.690012,536.266849,1184.329507,10140.821405
297.690320,1532.190996,1628.453072,9326.594869
297.690628,2298.286494,1480.411884,8660.409521
297.690936,3524.039291,1184.329507,7994.224174
297.691244,2834.553343,-0.000000,8364.327145
297.691552,1225.752797,-1184.329507,9622.677246
297.691861,229.828649,-2072.576638,11547.212695
297.692169,-1532.190996,-2960.823768,12435.459826
297.692477,-3064.381992,-3330.926739,12435.459826
297.692785,-2528.115143,-2220.617826,12361.439231
297.693093,-1455.581446,-0.000000,11399.171507
297.693401,0.000000,962.267725,9622.677246
297.693709,1302.362347,1850.514855,8364.327145
297.694017,2987.772442,2368.659014,7328.038826
297.694326,2834.553343,2368.659014,6217.729913
297.694634,2757.943793,1332.370696,7402.059420
297.694942,2145.067394,592.164754,9252.574275
297.695250,995.924147,-444.123565,10288.862594
297.695558,0.000000,-888.247130,10510.924376
297.695866,-919.314598,-814.226536,10510.924376
297.696174,-306.438199,222.061783,10288.862594
297.696483,1072.533697,1184.329507,9474.636058
297.696791,2068.457845,1776.494261,8512.368333
297.697099,2757.943793,1184.329507,7698.141797
297.697407,2604.724693,814.226536,7772.162391
297.697715,2374.896044,-370.102971,9474.636058
297.698023,229.828649,-1850.514855,10584.944971
297.698331,-766.095498,-2590.720797,12361.439231
297.698639,-2528.115143,-2368.659014,12509.480420
297.698948,-2911.162892,-1554.432478,11769.274478
297.699256,-2451.505594,-74.020594,11325.150913
297.699564,-459.657299,1628.453072,9918.759623
297.699872,1455.581446,2590.720797,8660.409521
297.700180,3217.601092,2886.803174,7031.956449
297.700488,3907.087040,3182.885551,6069.688724
297.700796,3294.210641,2368.659014,6735.874072
297.701105,2298.286494,666.185348,8808.450710
297.701413,1302.362347,-148.041188,10140.821405
297.701721,0.000000,-962.267725,10881.027347
297.702029,-1225.752797,-1036.288319,10732.986159
297.702337,-995.924147,-148.041188,10955.047942
297.702645,0.000000,370.102971,11251.130318
297.702953,1455.581446,740.205942,10066.800811
297.703262,2681.334243,666.185348,8142.265362
297.703570,3294.210641,518.144159,8586.388927
297.703878,1532.190996,-1110.308913,9326.594869
297.704186,459.657299,-1776.494261,11473.192101
297.704494,-919.314598,-2368.659014,11917.315666
297.704802,-2681.334243,-2738.761985,12583.501014
297.705110,-2757.943793,-1554.432478,12361.439231
297.705418,-1991.848295,-222.061783,11769.274478
297.705727,-612.876398,2072.576638,10436.903782
297.706035,1608.800546,2664.741391,7920.203579
297.706343,2911.162892,3552.988522,6957.935855
297.706651,3370.820191,3256.906145,6365.771101
297.706959,3294.210641,2368.659014,6439.791695
297.707267,2451.505594,1776.494261,7994.224174
297.707575,1685.410096,-222.061783,9992.780217
297.707884,-229.828649,-1110.308913,10140.821405
297.708192,-1302.362347,-814.226536,10807.006753
297.708500,-689.485948,-888.247130,11399.171507
297.708808,0.000000,518.144159,9622.677246
297.709116,612.876398,962.267725,9992.780217
297.709424,2451.505594,814.226536,9104.533087
297.709732,2681.334243,1036.288319,7698.141797
297.710041,2221.676944,-0.000000,9104.533087
297.710349,1302.362347,-1480.411884,10140.821405
297.710657,-459.657299,-2368.659014,11547.212695
297.710965,-2298.286494,-2738.761985,12879.583391
297.711273,-2451.505594,-2146.597232,12139.377449
297.711581,-2298.286494,-1036.288319,11473.192101
297.711889,-1532.190996,370.102971,10362.883188
297.712197,536.266849,1850.514855,8734.430116
297.712506,2834.553343,2664.741391,6957.935855
297.712814,3907.087040,2442.679609,6069.688724
297.713122,3907.087040,2146.597232,6143.709319
297.713430,2604.724693,740.205942,7624.121203
297.713738,1532.190996,-222.061783,8660.409521
297.714046,919.314598,-740.205942,10584.944971
297.714354,0.000000,-1110.308913,10362.883188
297.714663,-919.314598,-222.061783,10362.883188
297.714971,383.047749,-0.000000,11029.068536
297.715279,1072.533697,1480.411884,9178.553681
297.715587,1915.238745,1184.329507,9696.697840
297.715895,2451.505594,888.247130,8660.409521
297.716203,2451.505594,444.123565,8734.430116
297.716511,842.705048,-1184.329507,10658.965565
297.716819,-995.924147,-2072.576638,11843.295072
297.717128,-2528.115143,-2886.803174,13619.789333
297.717436,-4366.744339,-2960.823768,13101.645173
297.717744,-2987.772442,-1480.411884,11843.295072
297.718052,-1608.800546,444.123565,10140.821405
297.718360,306.438199,1702.473667,9474.636058
297.718668,2221.676944,2812.782580,7550.100608
297.718976,3294.210641,3404.947333,5847.626942
297.719285,4443.353888,3034.844362,6069.688724
297.719593,2987.772442,1924.535449,6587.832884
297.719901,1915.238745,370.102971,8882.471304
297.720209,1225.752797,-888.247130,10214.842000
297.720517,0.000000,-1332.370696,11029.068536
297.720825,-1072.533697,-1702.473667,11547.212695
297.721133,-842.705048,-148.041188,10510.924376
297.721442,306.438199,962.267725,10066.800811
297.721750,1685.410096,1258.350101,9400.615463
297.722058,2911.162892,1258.350101,8216.285956
297.722366,2451.505594,962.267725,7994.224174
297.722674,2221.676944,-444.123565,9992.780217
297.722982,1149.143247,-2146.597232,11251.130318
297.723290,-1915.238745,-2516.700203,12287.418637
297.723598,-2911.162892,-3256.906145,13249.686362
297.723907,-3370.820191,-2516.700203,12435.459826
297.724215,-2221.676944,-1110.308913,11399.171507
297.724523,-612.876398,1036.288319,9770.718434
297.724831,1532.190996,2442.679609,7994.224174
297.725139,2528.115143,2664.741391,6883.915261
297.725447,3294.210641,2886.803174,5995.668130
297.725755,3140.991542,2368.659014,6661.853478
297.726064,2451.505594,1332.370696,8068.244768
297.726372,1149.143247,370.102971,9548.656652
297.726680,-383.047749,-370.102971,10510.924376
297.726988,-229.828649,-222.061783,11325.150913
297.727296,-766.095498,222.061783,9770.718434
297.727604,766.095498,1702.473667,9326.594869
297.727912,2374.896044,1924.535449,9104.533087
297.728220,2528.115143,1702.473667,8142.265362
297.728529,3447.429741,1036.288319,7920.203579
297.728837,1991.848295,-148.041188,8734.430116
297.729145,689.485948,-1850.514855,10881.027347
297.729453,-1225.752797,-2886.803174,11843.295072
297.729761,-2681.334243,-3108.864956,13471.748144
297.730069,-3217.601092,-3256.906145,13101.645173
297.730377,-2834.553343,-1184.329507,11177.109724
297.730686,-1225.752797,518.144159,9622.677246
297.730994,1225.752797,2072.576638,8364.327145
297.731302,2528.115143,2886.803174,7105.977043
297.731610,3677.258390,2960.823768,5921.647536
297.731918,3064.381992,2294.638420,5699.585753
297.732226,2834.553343,1406.391290,7254.018232
297.732534,2451.505594,-444.123565,9252.574275
297.732842,383.047749,-444.123565,10288.862594
297.733151,-1532.190996,-1110.308913,10288.862594
297.733459,-536.266849,-1110.308913,10584.944971
297.733767,-459.657299,296.082377,10288.862594
297.734075,919.314598,1332.370696,10214.842000
297.734383,2681.334243,592.164754,9104.533087
297.734691,2987.772442,888.247130,7476.080014
297.734999,2681.334243,-592.164754,8586.388927
297.735308,1608.800546,-1554.432478,10510.924376
297.735616,-383.047749,-2590.720797,11769.274478
297.735924,-2451.505594,-3034.844362,13027.624579
297.736232,-3524.039291,-2738.761985,12731.542202
297.736540,-3064.381992,-1702.473667,11843.295072
297.736848,-1915.238745,-222.061783,11325.150913
297.737156,229.828649,1776.494261,9030.512492
297.737464,2451.505594,2738.761985,7624.121203
297.737773,3140.991542,3182.885551,6883.915261
297.738081,3600.648841,2442.679609,6661.853478
297.738389,3294.210641,2146.597232,7105.977043
297.738697,2451.505594,1184.329507,8586.388927
297.739005,1302.362347,-0.000000,9252.574275
297.739313,0.000000,-0.000000,9844.739029
297.739621,0.000000,296.082377,10584.944971
297.739930,306.438199,814.226536,10362.883188
297.740238,1302.362347,1850.514855,9252.574275
297.740546,2374.896044,1924.535449,9030.512492
297.740854,2757.943793,1258.350101,8438.347739
297.741162,2221.676944,592.164754,8660.409521
297.741470,1225.752797,-1184.329507,10140.821405
297.741778,-766.095498,-2294.638420,11695.253884
297.742086,-2604.724693,-3849.070898,13027.624579
297.742395,-3753.867940,-3256.906145,14359.995275
297.742703,-3677.258390,-2072.576638,12287.418637
297.743011,-2451.505594,-888.247130,11177.109724
297.743319,-383.047749,1332.370696,9696.697840
297.743627,1991.848295,2664.741391,7994.224174
297.743935,3064.381992,2590.720797,6587.832884
297.744243,3524.039291,2664.741391,6439.791695
297.744552,3524.039291,1924.535449,7846.182985
297.744860,3447.429741,888.247130,9030.512492
297.745168,1762.019645,518.144159,8512.368333
297.745476,612.876398,-370.102971,9918.759623
297.745784,0.000000,-370.102971,10362.883188
297.746092,76.609550,962.267725,9696.697840
297.746400,1225.752797,1628.453072,9400.615463
297.746708,2528.115143,1554.432478,8512.368333
297.747017,3753.867940,1628.453072,7772.162391
297.747325,3217.601092,592.164754,7920.203579
297.747633,1991.848295,-518.144159,8586.388927
297.747941,76.609550,-1850.514855,11177.109724
297.748249,-2374.896044,-3182.885551,13101.645173
297.748557,-3600.648841,-3552.988522,13619.789333
297.748865,-3983.696590,-2664.741391,12435.459826
297.749173,-2298.286494,-1554.432478,11843.295072
297.749482,-1608.800546,-0.000000,10214.842000
297.749790,919.314598,1184.329507,9400.615463
297.750098,2068.457845,1924.535449,7920.203579
297.750406,2374.896044,2442.679609,6365.771101
297.750714,3217.601092,1702.473667,7031.956449
297.751022,2528.115143,962.267725,7846.182985
297.751330,1225.752797,370.102971,8808.450710
297.751639,459.657299,-814.226536,10288.862594
297.751947,-689.485948,-0.000000,9696.697840
297.752255,-153.219100,-0.000000,10214.842000
297.752563,536.266849,1480.411884,8734.430116
297.752871,2068.457845,1850.514855,9400.615463
297.753179,2834.553343,1702.473667,8364.327145
297.753487,3140.991542,1332.370696,7476.080014
297.753795,2068.457845,444.123565,8512.368333
297.754104,1302.362347,-1554.432478,10140.821405
297.754412,-1532.190996,-2886.803174,12139.377449
297.754720,-2757.943793,-2960.823768,12583.501014
297.755028,-3753.867940,-3404.947333,13471.748144
297.755336,-3140.991542,-1628.453072,11843.295072
297.755644,-2221.676944,-296.082377,11103.089130
297.755952,0.000000,1184.329507,9770.718434
297.756261,1378.971896,2146.597232,8216.285956
297.756569,3370.820191,2368.659014,7994.224174
297.756877,2911.162892,1924.535449,6365.771101
297.757185,2987.772442,740.205942,8808.450710
297.757493,1991.848295,444.123565,9252.574275
297.757801,1072.533697,148.041188,9770.718434
297.758109,459.657299,222.061783,10510.924376
297.758417,306.438199,1110.308913,9326.594869
297.758726,1378.971896,2146.597232,9252.574275
297.759034,2374.896044,2516.700203,8586.388927
297.759342,2987.772442,2442.679609,8290.306550
297.759650,3140.991542,1924.535449,7328.038826
297.759958,3217.601092,1184.329507,7698.141797
297.760266,1072.533697,-740.205942,9844.739029
297.760574,-766.095498,-2072.576638,11399.171507
297.760883,-2374.896044,-2812.782580,13101.645173
297.761191,-3140.991542,-3256.906145,13471.748144
297.761499,-2987.772442,-1924.535449,12879.583391
297.761807,-2681.334243,-666.185348,11473.192101
297.762115,76.609550,222.061783,10955.047942
297.762423,1302.362347,1480.411884,8734.430116
297.762731,2451.505594,2368.659014,7624.121203
297.763039,3294.210641,2146.597232,7105.977043
297.763348,2911.162892,1110.308913,7179.997637
297.763656,1838.629195,444.123565,8808.450710
297.763964,842.705048,-666.185348,9474.636058
297.764272,459.657299,-222.061783,10362.883188
297.764580,76.609550,222.061783,9992.780217
297.764888,-383.047749,814.226536,9474.636058
297.765196,1685.410096,1480.411884,9400.615463
297.765505,2681.334243,2368.659014,7994.224174
297.765813,3524.039291,2146.597232,7105.977043
297.766121,3447.429741,1036.288319,7179.997637
297.766429,2145.067394,-592.164754,8660.409521
297.766737,0.000000,-1850.514855,11251.130318
297.767045,-1455.581446,-2738.761985,12139.377449
297.767353,-3140.991542,-3849.070898,12213.398043
297.767661,-3753.867940,-2812.782580,12583.501014
297.767970,-3217.601092,-1258.350101,11547.212695
297.768278,-1378.971896,-0.000000,11029.068536
297.768586,0.000000,1480.411884,9770.718434
297.768894,1149.143247,1776.494261,7624.121203
297.769202,2757.943793,1480.411884,7105.977043
297.769510,2757.943793,1036.288319,8142.265362
297.769818,3064.381992,-0.000000,8216.285956
297.770127,1302.362347,148.041188,8734.430116
297.770435,306.438199,-444.123565,10066.800811
297.770743,-153.219100,148.041188,9696.697840
297.771051,0.000000,1110.308913,9770.718434
297.771359,1302.362347,2072.576638,9474.636058
297.771667,2834.553343,2368.659014,7994.224174
297.771975,3140.991542,2294.638420,7476.080014
297.772283,2834.553343,1332.370696,7328.038826
297.772592,2298.286494,370.102971,8290.306550
297.772900,306.438199,-888.247130,10288.862594
297.773208,-1532.190996,-2368.659014,12139.377449
297.773516,-2451.505594,-3034.844362,12731.542202
297.773824,-3524.039291,-3478.967927,12879.583391
297.774132,-3064.381992,-1776.494261,12583.501014
297.774440,-1685.410096,-296.082377,11251.130318
297.774748,306.438199,1480.411884,10362.883188
297.775057,1608.800546,2294.638420,8586.388927
297.775365,2987.772442,2294.638420,7179.997637
297.775673,3370.820191,2072.576638,7179.997637
297.775981,2987.772442,1036.288319,7994.224174
297.776289,2068.457845,-0.000000,9030.512492
297.776597,306.438199,-444.123565,10362.883188
297.776905,536.266849,-444.123565,10362.883188
297.777214,0.000000,444.123565,10214.842000
297.777522,1149.143247,1184.329507,9696.697840
297.777830,2068.457845,2146.597232,8438.347739
297.778138,3370.820191,2516.700203,7846.182985
297.778446,3753.867940,2294.638420,6809.894666
297.778754,2834.553343,1332.370696,7920.203579
297.779062,1302.362347,-0.000000,9400.615463
297.779370,76.609550,-962.267725,11103.089130
297.779679,-1608.800546,-2664.741391,12287.418637
297.779987,-3294.210641,-3108.864956,13027.624579
297.780295,-3447.429741,-2072.576638,12731.542202
297.780603,-2757.943793,-1480.411884,12139.377449
297.780911,-1149.143247,444.123565,10881.027347
297.781219,919.314598,1184.329507,9326.594869
297.781527,1762.019645,1554.432478,8290.306550
297.781836,2374.896044,1332.370696,8068.244768
297.782144,3140.991542,1036.288319,7846.182985
297.782452,1608.800546,814.226536,8882.471304
297.782760,76.609550,-592.164754,9992.780217
297.783068,0.000000,-296.082377,10436.903782
297.783376,-689.485948,814.226536,9918.759623
297.783684,306.438199,1702.473667,9474.636058
297.783992,1685.410096,2294.638420,8586.388927
297.784301,3447.429741,2960.823768,7105.977043
297.784609,3753.867940,2368.659014,7031.956449
297.784917,3370.820191,740.205942,7698.141797
297.785225,1838.629195,-296.082377,9326.594869
297.785533,-383.047749,-1998.556043,11103.089130
297.785841,-2451.505594,-2812.782580,12583.501014
297.786149,-3140.991542,-3701.029710,12509.480420
297.786458,-3983.696590,-2664.741391,12583.501014
297.786766,-2604.724693,-2146.597232,11547.212695
297.787074,-612.876398,296.082377,10214.842000
297.787382,919.314598,1776.494261,8734.430116
297.787690,2221.676944,1924.535449,7698.141797
297.787998,2681.334243,2220.617826,7402.059420
297.788306,2604.724693,1332.370696,8142.265362
297.788614,1685.410096,592.164754,8586.388927
297.788923,1149.143247,-740.205942,9548.656652
297.789231,76.609550,-1406.391290,10732.986159
297.789539,-919.314598,-370.102971,9992.780217
297.789847,459.657299,666.185348,10140.821405
297.790155,1072.533697,1628.453072,9696.697840
297.790463,2604.724693,1850.514855,8586.388927
297.790771,3217.601092,2442.679609,7031.956449
297.791080,3907.087040,1406.391290,7105.977043
297.791388,2528.115143,740.205942,8068.244768
297.791696,536.266849,-962.267725,10807.006753
297.792004,-842.705048,-2516.700203,12065.356855
297.792312,-2987.772442,-3404.947333,12065.356855
297.792620,-3370.820191,-2590.720797,12509.480420
297.792928,-2604.724693,-1480.411884,11991.336260
297.793236,-1762.019645,592.164754,10658.965565
297.793545,383.047749,1332.370696,9696.697840
297.793853,2068.457845,2516.700203,8512.368333
297.794161,2834.553343,2812.782580,6883.915261
297.794469,2757.943793,2072.576638,7476.080014
297.794777,2757.943793,1406.391290,8290.306550
297.795085,1762.019645,-0.000000,9622.677246
297.795393,76.609550,-518.144159,10066.800811
297.795702,-766.095498,-1184.329507,10732.986159
297.796010,-689.485948,-0.000000,10288.862594
297.796318,766.095498,1184.329507,9622.677246
297.796626,2145.067394,1998.556043,8660.409521
297.796934,3600.648841,1924.535449,7550.100608
297.797242,3677.258390,1776.494261,7254.018232
297.797550,2911.162892,518.144159,7772.162391
297.797858,1532.190996,-962.267725,9696.697840
297.798167,383.047749,-2738.761985,11547.212695
297.798475,-1685.410096,-3256.906145,11547.212695
297.798783,-3524.039291,-3182.885551,12953.603985
297.799091,-3140.991542,-1850.514855,12139.377449
297.799399,-1762.019645,814.226536,11177.109724
297.799707,0.000000,1480.411884,10658.965565
297.800015,1532.190996,2516.700203,8586.388927
297.800324,2834.553343,2886.803174,7402.059420
297.800632,2298.286494,2516.700203,7846.182985
297.800940,1838.629195,888.247130,9474.636058
297.801248,766.095498,-74.020594,10881.027347
297.801556,-459.657299,-888.247130,11251.130318
297.801864,-1608.800546,-740.205942,10881.027347
297.802172,-1149.143247,-0.000000,10732.986159
297.802480,689.485948,1258.350101,9992.780217
297.802789,2068.457845,2664.741391,8808.450710
297.803097,2911.162892,2368.659014,8438.347739
297.803405,3370.820191,1702.473667,7550.100608
297.803713,3064.381992,1702.473667,7698.141797
297.804021,2068.457845,148.041188,9548.656652
297.804329,229.828649,-1628.453072,11029.068536
297.804637,-1838.629195,-2072.576638,12435.459826
297.804945,-3217.601092,-3034.844362,12509.480420
297.805254,-3600.648841,-1628.453072,12065.356855
297.805562,-1915.238745,-148.041188,11695.253884
297.805870,-459.657299,1406.391290,10214.842000
297.806178,1532.190996,2220.617826,8586.388927
297.806486,3294.210641,2442.679609,7031.956449
297.806794,3524.039291,2220.617826,6217.729913
297.807102,2911.162892,1480.411884,6957.935855
297.807411,2681.334243,-74.020594,8142.265362
297.807719,1685.410096,-1406.391290,9474.636058
297.808027,0.000000,-1998.556043,9844.739029
297.808335,0.000000,-1554.432478,9918.759623
297.808643,459.657299,-1110.308913,9252.574275
297.808951,1149.143247,518.144159,9178.553681
297.809259,2757.943793,888.247130,8290.306550
297.809567,3600.648841,1036.288319,7994.224174
297.809876,2681.334243,962.267725,7624.121203
297.810184,1915.238745,-888.247130,8512.368333
297.810492,229.828649,-2072.576638,10436.903782
297.810800,-1378.971896,-3108.864956,11769.274478
297.811108,-2911.162892,-3404.947333,11991.336260
297.811416,-2834.553343,-2664.741391,11695.253884
297.811724,-2834.553343,-1184.329507,11473.192101
297.812033,-1685.410096,666.185348,9918.759623
297.812341,612.876398,2220.617826,9252.574275
297.812649,2298.286494,2368.659014,7624.121203
297.812957,2834.553343,2220.617826,5847.626942
297.813265,2681.334243,1702.473667,7254.018232
297.813573,1685.410096,148.041188,8586.388927
297.813881,536.266849,-222.061783,9918.759623
297.814189,76.609550,-740.205942,10288.862594
297.814498,-612.876398,-592.164754,10288.862594
297.814806,-153.219100,518.144159,9696.697840
297.815114,919.314598,1554.432478,9474.636058
297.815422,2604.724693,2516.700203,9178.553681
297.815730,2987.772442,2294.638420,8290.306550
297.816038,2528.115143,1702.473667,7328.038826
297.816346,2298.286494,666.185348,9252.574275
297.816655,612.876398,-592.164754,10658.965565
297.816963,-919.314598,-2072.576638,12139.377449
297.817271,-2451.505594,-2664.741391,12731.542202
297.817579,-3753.867940,-2812.782580,12731.542202
297.817887,-3140.991542,-1850.514855,12509.480420
297.818195,-1915.238745,-0.000000,11029.068536
297.818503,153.219100,888.247130,10288.862594
297.818811,1455.581446,1776.494261,8734.430116
297.819120,2757.943793,2368.659014,7328.038826
297.819428,2834.553343,1702.473667,7920.203579
297.819736,2145.067394,666.185348,8734.430116
297.820044,1378.971896,148.041188,9622.677246
297.820352,536.266849,-592.164754,9918.759623
297.820660,229.828649,-444.123565,10510.924376
297.820968,-536.266849,222.061783,9992.780217
297.821277,1072.533697,1554.432478,9252.574275
297.821585,2221.676944,2368.659014,8956.491898
297.821893,2987.772442,2368.659014,8142.265362
297.822201,3677.258390,2072.576638,7698.141797
297.822509,3140.991542,1258.350101,7772.162391
297.822817,1302.362347,-296.082377,9844.739029
297.823125,0.000000,-1184.329507,11547.212695
297.823433,-1608.800546,-2738.761985,12213.398043
297.823742,-3064.381992,-3404.947333,12065.356855
297.824050,-3064.381992,-2220.617826,11991.336260
297.824358,-2298.286494,-222.061783,11251.130318
297.824666,0.000000,1184.329507,10140.821405
297.824974,1838.629195,2072.576638,8660.409521
297.825282,2834.553343,2960.823768,7476.080014
297.825590,3753.867940,1702.473667,6809.894666
297.825899,3217.601092,1480.411884,7698.141797
297.826207,2374.896044,-0.000000,9400.615463
297.826515,995.924147,-1258.350101,10288.862594
297.826823,-306.438199,-1332.370696,10362.883188
297.827131,-612.876398,-592.164754,10066.800811
297.827439,229.828649,444.123565,9622.677246
297.827747,1532.190996,1406.391290,9178.553681
297.828055,3140.991542,1628.453072,8364.327145
297.828363,3217.601092,1554.432478,6809.894666
297.828671,2911.162892,814.226536,7550.100608
297.828979,1991.848295,-518.144159,8808.450710
297.829287,229.828649,-1480.411884,9918.759623
297.829595,-1685.410096,-2738.761985,11473.192101
297.829903,-2681.334243,-3330.926739,12065.356855
297.830211,-3524.039291,-2516.700203,12583.501014
297.830519,-2757.943793,-1110.308913,11399.171507
297.830827,-1225.752797,148.041188,10140.821405
297.831135,842.705048,1850.514855,9770.718434
297.831443,1991.848295,2294.638420,7846.182985
297.831751,2451.505594,2294.638420,6809.894666
297.832059,2757.943793,1332.370696,7698.141797
297.832367,1608.800546,592.164754,8734.430116
297.832675,919.314598,-148.041188,10066.800811
297.832983,306.438199,-962.267725,10658.965565
297.833291,-229.828649,-0.000000,10807.006753
297.833599,0.000000,-0.000000,9918.759623
297.833907,919.314598,2294.638420,8882.471304
297.834215,2374.896044,2146.597232,9400.615463
297.834523,2834.553343,2294.638420,7772.162391
297.834831,3064.381992,1332.370696,7254.018232
297.835139,1532.190996,518.144159,8808.450710
297.835447,1149.143247,-1406.391290,11473.192101
297.835755,-1532.190996,-2146.597232,12139.377449
297.836063,-2451.505594,-2812.782580,12435.459826
297.836371,-3217.601092,-2590.720797,12879.583391
297.836679,-3140.991542,-814.226536,11547.212695
297.836987,-1302.362347,740.205942,11029.068536
297.837295,612.876398,2516.700203,9104.533087
297.837603,2987.772442,1924.535449,7920.203579
297.837911,1991.848295,3108.864956,6365.771101
297.838219,3217.601092,1554.432478,7476.080014
297.838527,2145.067394,666.185348,8882.471304
297.838835,1072.533697,-296.082377,9992.780217
297.839143,0.000000,-814.226536,10510.924376
297.839451,76.609550,-888.247130,10658.965565
297.839759,-383.047749,-222.061783,10658.965565
297.840067,306.438199,740.205942,9104.533087
297.840375,2911.162892,1998.556043,9178.553681
297.840683,3217.601092,2146.597232,7624.121203
297.840991,3370.820191,1776.494261,6661.853478
297.841299,3294.210641,1554.432478,7698.141797
297.841607,2374.896044,-296.082377,9770.718434
297.841915,-153.219100,-1332.370696,10214.842000
297.842223,-2221.676944,-2590.720797,11917.315666
297.842531,-2451.505594,-2886.803174,13767.830521
297.842839,-3753.867940,-1554.432478,11695.253884
297.843147,-1838.629195,-0.000000,11473.192101
297.843455,-612.876398,1110.308913,9992.780217
297.843763,1378.971896,1850.514855,9178.553681
297.844071,2451.505594,2368.659014,8068.244768
297.844379,2911.162892,2368.659014,6735.874072
297.844687,2757.943793,148.041188,7846.182985
297.844995,1991.848295,-518.144159,9178.553681
297.845303,1149.143247,-1036.288319,10288.862594
297.845611,-459.657299,-1998.556043,10066.800811
297.845919,-689.485948,-444.123565,9918.759623
297.846227,689.485948,-0.000000,9622.677246
297.846535,1762.019645,1036.288319,9252.574275
297.846843,2757.943793,1332.370696,8438.347739
297.847151,3294.210641,1776.494261,7402.059420
297.847459,3524.039291,444.123565,8438.347739
297.847767,2221.676944,-962.267725,9400.615463
297.848075,919.314598,-2072.576638,10658.965565
297.848383,-919.314598,-2368.659014,11621.233289
297.848691,-2987.772442,-2738.761985,11547.212695
297.848999,-2911.162892,-2072.576638,11991.336260
297.849307,-2145.067394,-74.020594,10881.027347
297.849615,-919.314598,888.247130,9770.718434
297.849923,689.485948,2146.597232,8290.306550
297.850231,2911.162892,2294.638420,7476.080014
297.850539,2451.505594,2590.720797,7550.100608
297.850847,1762.019645,2220.617826,7994.224174
297.851155,1608.800546,592.164754,9548.656652
297.851463,306.438199,-222.061783,9770.718434
297.851771,-842.705048,-814.226536,10732.986159
297.852079,-766.095498,-888.247130,10584.944971
297.852387,-689.485948,666.185348,10436.903782
297.852695,919.314598,1406.391290,9844.739029
297.853003,2068.457845,1998.556043,9400.615463
297.853311,3064.381992,1702.473667,8660.409521
297.853619,2681.334243,1628.453072,7328.038826
297.853927,1532.190996,-518.144159,9918.759623
297.854235,153.219100,-1184.329507,10436.903782
297.854543,-919.314598,-2368.659014,11769.274478
297.854851,-2911.162892,-3627.009116,12213.398043
297.855159,-3064.381992,-2738.761985,12287.418637
297.855467,-2145.067394,-888.247130,11843.295072
297.855775,-995.924147,1258.350101,10140.821405
297.856083,1302.362347,2442.679609,8882.471304
297.856391,2911.162892,3701.029710,6957.935855
297.856699,3217.601092,3182.885551,6735.874072
297.857007,3064.381992,2368.659014,7476.080014
297.857315,2757.943793,1628.453072,7846.182985
297.857623,1072.533697,-222.061783,9252.574275
297.857931,76.609550,-888.247130,10288.862594
297.858239,-612.876398,-962.267725,10881.027347
297.858547,-842.705048,-888.247130,10584.944971
297.858855,0.000000,592.164754,10140.821405
297.859163,1915.238745,962.267725,9548.656652
297.859471,2757.943793,1480.411884,8734.430116
297.859779,2834.553343,814.226536,8216.285956
297.860087,1915.238745,-0.000000,8438.347739
297.860395,995.924147,-1406.391290,10214.842000
297.860703,-1225.752797,-2146.597232,11843.295072
297.861011,-2145.067394,-3478.967927,12361.439231
297.861319,-3370.820191,-2368.659014,12287.418637
297.861627,-3064.381992,-1702.473667,11547.212695
297.861935,-995.924147,296.082377,9992.780217
297.862243,459.657299,2072.576638,9178.553681
297.862551,2451.505594,2442.679609,7476.080014
297.862859,3677.258390,3330.926739,6143.709319
297.863167,3677.258390,3256.906145,5847.626942
297.863475,3370.820191,1850.514855,7328.038826
297.863783,2068.457845,666.185348,8512.368333
297.864091,1225.752797,-740.205942,9918.759623
297.864399,-766.095498,-1110.308913,9696.697840
297.864707,-766.095498,-1110.308913,10288.862594
297.865015,-766.095498,-0.000000,10955.047942
297.865323,1225.752797,592.164754,9992.780217
297.865631,1838.629195,962.267725,9104.533087
297.865939,2451.505594,1258.350101,8956.491898
297.866247,2681.334243,-0.000000,8586.388927
297.866555,1072.533697,-444.123565,9918.759623
297.866863,0.000000,-2368.659014,11917.315666
297.867171,-2221.676944,-3256.906145,12361.439231
297.867479,-2451.505594,-3256.906145,12139.377449
297.867787,-3140.991542,-2294.638420,11695.253884
297.868095,-2298.286494,-444.123565,10955.047942
297.868403,0.000000,2072.576638,9844.739029
297.868711,1838.629195,2886.803174,8290.306550
297.869019,3677.258390,3108.864956,6513.812290
297.869327,3830.477490,3108.864956,5551.544565
297.869635,3983.696590,2516.700203,7328.038826
297.869943,2681.334243,814.226536,8142.265362
297.870251,1532.190996,-222.061783,9474.636058
297.870559,0.000000,-1184.329507,11029.068536
297.870867,-766.095498,-666.185348,10510.924376
297.871175,-612.876398,222.061783,10288.862594
297.871483,459.657299,1258.350101,9918.759623
297.871791,2451.505594,1554.432478,9178.553681
297.872099,2451.505594,1628.453072,8068.244768
297.872407,2911.162892,740.205942,8512.368333
297.872715,1991.848295,-0.000000,9400.615463
297.873023,76.609550,-1702.473667,11103.089130
297.873331,-1532.190996,-3034.844362,13027.624579
297.873639,-3447.429741,-3478.967927,13249.686362
297.873947,-3447.429741,-2812.782580,13619.789333
297.874255,-2834.553343,-740.205942,11843.295072
297.874563,-383.047749,518.144159,10955.047942
297.874871,1149.143247,2516.700203,8956.491898
297.875179,2834.553343,2812.782580,7328.038826
297.875487,2987.772442,3034.844362,6883.915261
297.875795,3294.210641,2442.679609,7105.977043
297.876103,2911.162892,1184.329507,7698.141797
297.876411,1762.019645,592.164754,9252.574275
297.876719,842.705048,-1332.370696,9844.739029
297.877027,-689.485948,-1110.308913,9992.780217
297.877335,-306.438199,-222.061783,9992.780217
297.877643,766.095498,814.226536,9622.677246
297.877951,1762.019645,1702.473667,9104.533087
297.878259,2681.334243,1554.432478,8808.450710
297.878567,2987.772442,740.205942,8142.265362
297.878875,2451.505594,296.082377,8808.450710
297.879183,306.438199,-1258.350101,10362.883188
297.879491,-1149.143247,-2738.761985,11917.315666
297.879799,-2374.896044,-3330.926739,12583.501014
297.880107,-3600.648841,-2442.679609,12731.542202
297.880415,-2911.162892,-1332.370696,11325.150913
297.880723,-1762.019645,592.164754,10436.903782
297.881031,76.609550,1406.391290,9474.636058
297.881339,1915.238745,2294.638420,7550.100608
297.881647,2911.162892,2886.803174,7105.977043
297.881955,3140.991542,1924.535449,7476.080014
297.882263,2911.162892,444.123565,7476.080014
297.882571,1149.143247,-74.020594,9030.512492
297.882879,-459.657299,-1406.391290,10658.965565
297.883187,-153.219100,-814.226536,10436.903782
297.883495,-1302.362347,-0.000000,10214.842000
297.883803,689.485948,814.226536,11103.089130
297.884112,2451.505594,2294.638420,8216.285956
297.884420,2911.162892,2368.659014,8068.244768
297.884728,3677.258390,1998.556043,8660.409521
297.885036,2911.162892,1184.329507,7328.038826
297.885344,1378.971896,-148.041188,9918.759623
297.885652,-383.047749,-2146.597232,11325.150913
297.885960,-1838.629195,-3256.906145,12361.439231
297.886268,-3830.477490,-3627.009116,13027.624579
297.886576,-2834.553343,-2072.576638,12731.542202
297.886884,-1302.362347,-296.082377,9918.759623
297.887192,-229.828649,1554.432478,9474.636058
297.887500,1532.190996,2294.638420,8290.306550
297.887808,3217.601092,2960.823768,7031.956449
297.888116,4060.306139,2220.617826,7179.997637
297.888424,2911.162892,1776.494261,6809.894666
297.888732,2298.286494,296.082377,9400.615463
297.889040,1149.143247,-1110.308913,10288.862594
297.889348,-766.095498,-1332.370696,10362.883188
297.889656,0.000000,-1036.288319,10807.006753
297.889964,76.609550,740.205942,9474.636058
297.890272,1225.752797,1776.494261,9622.677246
297.890580,2604.724693,1702.473667,9104.533087
297.890888,3677.258390,1924.535449,7698.141797
297.891196,3294.210641,1184.329507,8438.347739
297.891504,1302.362347,-0.000000,9252.574275
297.891812,76.609550,-1702.473667,11695.253884
297.892120,-2374.896044,-2960.823768,12213.398043
297.892428,-3447.429741,-2812.782580,12953.603985
297.892736,-3447.429741,-1850.514855,11917.315666
297.893044,-2604.724693,-0.000000,11843.295072
297.893352,-1072.533697,1850.514855,10214.842000
297.893660,995.924147,2664.741391,8882.471304
297.893968,2604.724693,2886.803174,8216.285956
297.894276,2757.943793,3108.864956,6735.874072
297.894584,3294.210641,2146.597232,7550.100608
297.894892,2374.896044,962.267725,8586.388927
297.895200,1532.190996,-666.185348,9918.759623
297.895508,0.000000,-962.267725,10214.842000
297.895816,-536.266849,-666.185348,10881.027347
297.896124,-383.047749,444.123565,9770.718434
297.896432,842.705048,1628.453072,10288.862594
297.896740,2528.115143,2368.659014,9474.636058
297.897048,2681.334243,1924.535449,7920.203579
297.897356,2604.724693,1850.514855,7920.203579
297.897664,1532.190996,-222.061783,9400.615463
297.897972,0.000000,-1406.391290,11251.130318
297.898280,-2451.505594,-2590.720797,12065.356855
297.898588,-3217.601092,-3849.070898,13101.645173
297.898896,-3907.087040,-3330.926739,13101.645173
297.899204,-3753.867940,-1184.329507,11991.336260
297.899512,-1455.581446,-0.000000,10658.965565
297.899820,459.657299,1406.391290,8512.368333
297.900128,2451.505594,2368.659014,7254.018232
297.900436,3370.820191,1998.556043,6587.832884
297.900744,3907.087040,1776.494261,5995.668130
297.901052,4060.306139,666.185348,6661.853478
297.901360,3447.429741,-0.000000,8068.244768
297.901668,1455.581446,-1480.411884,9030.512492
297.901976,383.047749,-1110.308913,9992.780217
297.902284,0.000000,-148.041188,9992.780217
297.902592,995.924147,1480.411884,9178.553681
297.902900,2604.724693,1628.453072,9104.533087
297.903208,2911.162892,1702.473667,7846.182985
297.903516,2911.162892,1480.411884,7550.100608
297.903824,2451.505594,148.041188,8512.368333
297.904132,842.705048,-1628.453072,10807.006753
297.904440,-1072.533697,-2886.803174,11917.315666
297.904748,-2911.162892,-3997.112087,12953.603985
297.905056,-3600.648841,-3330.926739,12879.583391
297.905364,-3294.210641,-2072.576638,11843.295072
297.905672,-2145.067394,-222.061783,10955.047942
297.905980,459.657299,1110.308913,9696.697840
297.906288,1915.238745,1924.535449,7994.224174
297.906596,2528.115143,2738.761985,6661.853478
297.906904,4213.525239,2368.659014,7105.977043
297.907212,3677.258390,1628.453072,7105.977043
297.907520,2911.162892,814.226536,8586.388927
297.907828,1685.410096,-296.082377,9178.553681
297.908136,76.609550,-148.041188,9770.718434
297.908444,766.095498,-296.082377,10658.965565
297.908752,689.485948,1554.432478,9178.553681
297.909060,1072.533697,2220.617826,9696.697840
297.909368,2987.772442,2442.679609,8586.388927
297.909676,2451.505594,2294.638420,8068.244768
297.909984,2068.457845,1184.329507,9178.553681
297.910292,459.657299,-74.020594,10288.862594
297.910600,-1072.533697,-1406.391290,12435.459826
297.910908,-3140.991542,-2812.782580,13471.748144
297.911216,-3907.087040,-3627.009116,13989.892304
297.911524,-4060.306139,-2220.617826,13397.727550
297.911832,-2911.162892,-888.247130,12509.480420
297.912140,-842.705048,1036.288319,10658.965565
297.912448,536.266849,1850.514855,9474.636058
297.912756,2451.505594,2664.741391,8216.285956
297.913064,3064.381992,2738.761985,6809.894666
297.913372,3140.991542,1702.473667,7476.080014
297.913680,2604.724693,740.205942,8290.306550
297.913988,1991.848295,370.102971,8882.471304
297.914296,689.485948,-814.226536,9992.780217
297.914604,-459.657299,296.082377,9326.594869
297.914912,76.609550,1258.350101,9992.780217
297.915220,1302.362347,2072.576638,9474.636058
297.915528,2528.115143,2368.659014,8142.265362
297.915836,2987.772442,1776.494261,8068.244768
297.916144,2604.724693,1036.288319,7994.224174
297.916452,229.828649,-222.061783,9622.677246
297.916760,-536.266849,-2072.576638,11769.274478
297.917068,-2221.676944,-3701.029710,12065.356855
297.917376,-3907.087040,-3923.091493,13101.645173
297.917684,-4213.525239,-3775.050304,13101.645173
297.917992,-3294.210641,-2072.576638,12139.377449
297.918300,-1608.800546,-0.000000,10658.965565
297.918608,842.705048,888.247130,8586.388927
297.918916,2757.943793,1850.514855,7179.997637
297.919224,3830.477490,2294.638420,6587.832884
297.919532,3753.867940,1850.514855,6069.688724
297.919840,3524.039291,740.205942,7179.997637
297.920148,2451.505594,-370.102971,8438.347739
297.920456,995.924147,-1036.288319,9918.759623
297.920764,0.000000,-592.164754,9548.656652
297.921072,153.219100,296.082377,9696.697840
297.921380,1685.410096,1332.370696,9252.574275
297.921688,2374.896044,2516.700203,7920.203579
297.921996,3064.381992,2146.597232,7624.121203
297.922304,2681.334243,1628.453072,7179.997637
297.922612,1991.848295,296.082377,8438.347739
297.922920,0.000000,-1258.350101,10510.924376
297.923228,-1455.581446,-3034.844362,12065.356855
297.923536,-3064.381992,-3923.091493,13323.706956
297.923844,-3983.696590,-3256.906145,13101.645173
297.924152,-3524.039291,-1998.556043,12361.439231
297.924460,-2221.676944,-370.102971,11473.192101
297.924768,-153.219100,1332.370696,10214.842000
297.925076,1685.410096,2146.597232,8438.347739
297.925384,2987.772442,2812.782580,7105.977043
297.925692,3677.258390,2664.741391,6661.853478
297.926000,4213.525239,1554.432478,7254.018232
297.926308,2681.334243,370.102971,8142.265362
297.926616,1149.143247,-666.185348,9918.759623
297.926924,229.828649,-222.061783,9844.739029
297.927232,306.438199,888.247130,9844.739029
297.927541,842.705048,1850.514855,9548.656652
297.927849,1838.629195,2294.638420,9030.512492
297.928157,2298.286494,2516.700203,9104.533087
297.928465,2451.505594,1702.473667,7994.224174
297.928773,1685.410096,814.226536,8734.430116
297.929081,306.438199,-370.102971,10955.047942
297.929389,-1378.971896,-1998.556043,12583.501014
297.929697,-3907.087040,-3404.947333,13767.830521
297.930005,-3907.087040,-2812.782580,13841.851115
297.930313,-4213.525239,-1998.556043,12805.562797
297.930621,-3677.258390,-740.205942,12287.418637
297.930929,-766.095498,962.267725,11251.130318
297.931237,1225.752797,1998.556043,9030.512492
297.931546,2221.676944,2368.659014,7846.182985
297.931854,3447.429741,2368.659014,6587.832884
297.932162,3600.648841,1776.494261,7031.956449
297.932470,2757.943793,592.164754,8734.430116
297.932778,2145.067394,-74.020594,9104.533087
297.933086,766.095498,-444.123565,9326.594869
297.933394,536.266849,-148.041188,9326.594869
297.933702,1225.752797,1184.329507,9030.512492
297.934010,2451.505594,2442.679609,8438.347739
297.934318,3677.258390,2886.803174,7846.182985
297.934626,3907.087040,2738.761985,6513.812290
297.934934,3753.867940,1776.494261,7328.038826
297.935243,1685.410096,-148.041188,9770.718434
297.935551,0.000000,-2368.659014,10807.006753
297.935859,-2145.067394,-4145.153275,13175.665768
297.936167,-4060.306139,-4737.318029,13915.871710
297.936475,-4596.572988,-3997.112087,13101.645173
297.936783,-3830.477490,-2368.659014,12879.583391
297.937091,-1915.238745,-740.205942,11251.130318
297.937399,383.047749,1184.329507,9326.594869
297.937707,2834.553343,1998.556043,7624.121203
297.938015,3294.210641,2146.597232,6735.874072
297.938323,4213.525239,1480.411884,6587.832884
297.938631,3753.867940,962.267725,7179.997637
297.938940,2604.724693,-148.041188,8438.347739
297.939248,995.924147,-962.267725,9326.594869
297.939556,0.000000,-444.123565,9326.594869
297.939864,995.924147,592.164754,9400.615463
297.940172,1608.800546,1406.391290,8660.409521
297.940480,2911.162892,1998.556043,8660.409521
297.940788,2987.772442,2072.576638,7994.224174
297.941096,2757.943793,1554.432478,7179.997637
297.941404,1762.019645,370.102971,8882.471304
297.941712,76.609550,-1110.308913,10658.965565
297.942020,-1302.362347,-2368.659014,11843.295072
297.942328,-3677.258390,-3182.885551,13101.645173
297.942637,-3524.039291,-3256.906145,12805.562797
297.942945,-3370.820191,-1702.473667,12065.356855
297.943253,-2374.896044,518.144159,11769.274478
297.943561,-229.828649,1554.432478,10214.842000
297.943869,1149.143247,2516.700203,8364.327145
297.944177,2145.067394,2812.782580,7772.162391
297.944485,2757.943793,2368.659014,7624.121203
297.944793,2451.505594,1110.308913,7994.224174
297.945101,1455.581446,296.082377,9548.656652
297.945409,229.828649,-1036.288319,9844.739029
297.945717,0.000000,-962.267725,10658.965565
297.946025,-229.828649,296.082377,9992.780217
297.946334,612.876398,1628.453072,10288.862594
297.946642,2604.724693,2220.617826,8882.471304
297.946950,3140.991542,2886.803174,7846.182985
297.947258,3830.477490,2368.659014,7476.080014
297.947566,3064.381992,962.267725,7920.203579
297.947874,919.314598,-444.123565,10362.883188
297.948182,-612.876398,-2146.597232,12139.377449
297.948490,-2604.724693,-3182.885551,12805.562797
297.948798,-3447.429741,-3330.926739,13175.665768
297.949106,-4060.306139,-1998.556043,12287.418637
297.949414,-2451.505594,-222.061783,11843.295072
297.949722,-612.876398,1480.411884,10436.903782
297.950031,995.924147,2368.659014,8734.430116
297.950339,2987.772442,2368.659014,7328.038826
297.950647,3217.601092,2146.597232,6143.709319
297.950955,3370.820191,1406.391290,7624.121203
297.951263,2451.505594,-74.020594,8438.347739
297.951571,1455.581446,-1110.308913,9770.718434
297.951879,612.876398,-1332.370696,9992.780217
297.952187,-229.828649,-888.247130,10436.903782
297.952495,689.485948,-0.000000,9770.718434
297.952803,2604.724693,1406.391290,8734.430116
297.953111,3140.991542,2368.659014,8142.265362
297.953419,3753.867940,1924.535449,7105.977043
297.953728,3217.601092,1332.370696,7105.977043
297.954036,1532.190996,-74.020594,9474.636058
297.954344,0.000000,-2368.659014,11177.109724
297.954652,-1838.629195,-2960.823768,12139.377449
297.954960,-2834.553343,-3775.050304,13101.645173
297.955268,-4060.306139,-2516.700203,12287.418637
297.955576,-2757.943793,-518.144159,11695.253884
297.955884,-1072.533697,518.144159,10658.965565
297.956192,459.657299,2146.597232,8660.409521
297.956500,2451.505594,2590.720797,7328.038826
297.956808,3447.429741,2368.659014,6735.874072
297.957116,3140.991542,1258.350101,7105.977043
297.957425,2834.553343,148.041188,8364.327145
297.957733,1149.143247,-592.164754,9178.553681
297.958041,306.438199,-1258.350101,10362.883188
297.958349,0.000000,-962.267725,10807.006753
297.958657,0.000000,666.185348,9844.739029
297.958965,842.705048,1924.535449,9400.615463
297.959273,2681.334243,2072.576638,8512.368333
297.959581,2834.553343,2442.679609,7624.121203
297.959889,2604.724693,1554.432478,7550.100608
297.960197,1532.190996,370.102971,8808.450710
297.960505,0.000000,-666.185348,11251.130318
297.960813,-1532.190996,-2664.741391,13027.624579
297.961121,-3294.210641,-2664.741391,12657.521608
297.961430,-4213.525239,-2368.659014,12065.356855
297.961738,-3217.601092,-1332.370696,11843.295072
297.962046,-1838.629195,740.205942,10807.006753
297.962354,306.438199,1480.411884,9622.677246
297.962662,2451.505594,2442.679609,8216.285956
297.962970,3370.820191,2516.700203,6513.812290
297.963278,3447.429741,1776.494261,6439.791695
297.963586,2987.772442,666.185348,8142.265362
297.963894,2068.457845,-518.144159,9326.594869
297.964202,-536.266849,-1036.288319,10066.800811
297.964510,612.876398,-1776.494261,12213.398043
297.964818,-995.924147,222.061783,9178.553681
297.965127,536.266849,1110.308913,9474.636058
297.965435,3064.381992,1850.514855,9844.739029
297.965743,2757.943793,3108.864956,7031.956449
297.966051,3524.039291,1776.494261,8586.388927
297.966359,2528.115143,1776.494261,7476.080014
297.966667,1225.752797,-518.144159,10881.027347
297.966975,-1149.143247,-1924.535449,11695.253884
297.967283,-2374.896044,-2960.823768,12213.398043
297.967591,-3830.477490,-3330.926739,13323.706956
297.967899,-4290.134789,-1924.535449,11621.233289
297.968207,-2374.896044,-0.000000,11695.253884
297.968515,-153.219100,1258.350101,10066.800811
297.968824,1838.629195,2220.617826,8290.306550
297.969132,3140.991542,3034.844362,6587.832884
297.969440,4519.963438,1554.432478,6809.894666
297.969748,3370.820191,1036.288319,7698.141797
297.970056,2145.067394,-0.000000,8586.388927
297.970364,1685.410096,-1110.308913,10066.800811
297.970672,-383.047749,-1110.308913,9992.780217
297.970980,76.609550,-370.102971,9992.780217
297.971288,842.705048,1406.391290,9104.533087
297.971596,2451.505594,2368.659014,8512.368333
297.971904,3983.696590,2368.659014,7994.224174
297.972212,3830.477490,2516.700203,7476.080014
297.972521,3370.820191,1036.288319,7624.121203
297.972829,919.314598,-444.123565,9474.636058
297.973137,-306.438199,-2146.597232,11843.295072
297.973445,-2451.505594,-3404.947333,12509.480420
297.973753,-3907.087040,-3552.988522,13101.645173
297.974061,-3524.039291,-2442.679609,12805.562797
297.974369,-2451.505594,-814.226536,11843.295072
297.974677,-383.047749,740.205942,10362.883188
297.974985,1302.362347,2072.576638,7994.224174
297.975293,2911.162892,2442.679609,7105.977043
297.975601,3140.991542,2294.638420,6513.812290
297.975909,2911.162892,1628.453072,7254.018232
297.976218,2145.067394,296.082377,9104.533087
297.976526,306.438199,-1036.288319,10584.944971
297.976834,-306.438199,-1628.453072,11029.068536
297.977142,-1302.362347,-962.267725,10510.924376
297.977450,-383.047749,148.041188,10510.924376
297.977758,1072.533697,1628.453072,9992.780217
297.978066,2451.505594,2516.700203,8586.388927
297.978374,3064.381992,2220.617826,7624.121203
297.978682,3370.820191,1850.514855,7254.018232
297.978990,2451.505594,740.205942,8586.388927
297.979298,766.095498,-592.164754,10436.903782
297.979606,-1072.533697,-2368.659014,11547.212695
297.979915,-2911.162892,-2812.782580,12213.398043
297.980223,-3600.648841,-2294.638420,12435.459826
297.980531,-2451.505594,-962.267725,11695.253884
297.980839,-1302.362347,962.267725,10510.924376
297.981147,689.485948,1406.391290,9400.615463
297.981455,2681.334243,2368.659014,7624.121203
297.981763,3140.991542,1776.494261,7105.977043
297.982071,2374.896044,1332.370696,8364.327145
297.982379,1991.848295,-0.000000,9548.656652
297.982687,919.314598,-962.267725,10510.924376
297.982995,-536.266849,-1850.514855,10658.965565
297.983303,-842.705048,-888.247130,10140.821405
297.983612,0.000000,148.041188,10214.842000
297.983920,1072.533697,1554.432478,9474.636058
297.984228,2834.553343,2442.679609,7846.182985
297.984536,3753.867940,2368.659014,7846.182985
297.984844,3370.820191,2072.576638,7254.018232
297.985152,2681.334243,1110.308913,8290.306550
297.985460,1302.362347,-444.123565,9696.697840
297.985768,-612.876398,-1998.556043,11399.171507
297.986076,-2451.505594,-3182.885551,12583.501014
297.986384,-3370.820191,-2886.803174,12657.521608
297.986692,-3064.381992,-1554.432478,12657.521608
297.987000,-1685.410096,-0.000000,11399.171507
297.987308,306.438199,1480.411884,9992.780217
297.987617,2068.457845,2368.659014,7550.100608
297.987925,2834.553343,2812.782580,6143.709319
297.988233,2911.162892,1998.556043,6439.791695
297.988541,3370.820191,1406.391290,8364.327145
297.988849,1838.629195,-0.000000,8216.285956
297.989157,-1532.190996,-148.041188,9918.759623
297.989465,766.095498,-2220.617826,12065.356855
297.989773,-1225.752797,-0.000000,9622.677246
297.990081,-306.438199,-0.000000,11029.068536
297.990389,1762.019645,1332.370696,9030.512492
297.990697,2145.067394,1702.473667,8364.327145
297.991005,2374.896044,1184.329507,8882.471304
297.991314,2451.505594,1258.350101,7846.182985
297.991622,1685.410096,-444.123565,10214.842000
297.991930,-689.485948,-2294.638420,10955.047942
297.992238,-995.924147,-2886.803174,11251.130318
297.992546,-3294.210641,-2072.576638,11843.295072
297.992854,-2987.772442,-1924.535449,11991.336260
297.993162,-1915.238745,666.185348,10288.862594
297.993470,-383.047749,1850.514855,9622.677246
297.993778,1532.190996,1702.473667,9104.533087
297.994086,1991.848295,2146.597232,6661.853478
297.994394,2681.334243,1998.556043,7328.038826
297.994702,1762.019645,222.061783,7994.224174
297.995011,1455.581446,-74.020594,9030.512492
297.995319,459.657299,-1332.370696,11325.150913
297.995627,-842.705048,-1554.432478,10658.965565
297.995935,-612.876398,-74.020594,10066.800811
297.996243,689.485948,814.226536,10288.862594
297.996551,1685.410096,1776.494261,8512.368333
297.996859,3294.210641,2960.823768,7772.162391
297.997167,4443.353888,2368.659014,7624.121203
297.997475,3370.820191,1850.514855,7179.997637
297.997783,2374.896044,592.164754,8512.368333
297.998091,995.924147,-1406.391290,10955.047942
297.998399,-1838.629195,-2738.761985,12065.356855
297.998708,-3294.210641,-3552.988522,12879.583391
297.999016,-3600.648841,-2294.638420,12657.521608
297.999324,-3294.210641,-592.164754,12065.356855
297.999632,-1149.143247,888.247130,10510.924376
297.999940,1302.362347,2368.659014,8808.450710
298.000248,2528.115143,3034.844362,7031.956449
298.000556,3140.991542,2960.823768,6069.688724
298.000864,2604.724693,2146.597232,7105.977043
298.001172,2298.286494,518.144159,8734.430116
298.001480,1225.752797,-814.226536,9474.636058
298.001788,306.438199,-1258.350101,10658.965565
298.002096,-229.828649,-1480.411884,11103.089130
298.002405,-689.485948,-0.000000,9918.759623
298.002713,536.266849,1110.308913,9918.759623
298.003021,2528.115143,1480.411884,9770.718434
298.003329,2528.115143,1628.453072,7698.141797
298.003637,3217.601092,1406.391290,7920.203579
298.003945,3217.601092,-0.000000,9030.512492
298.004253,919.314598,-592.164754,10066.800811
298.004561,-766.095498,-2220.617826,11843.295072
298.004869,-2068.457845,-2738.761985,12583.501014
298.005177,-3600.648841,-2072.576638,11843.295072
298.005485,-2528.115143,-370.102971,11695.253884
298.005793,-1072.533697,1628.453072,10214.842000
298.006102,383.047749,2220.617826,9030.512492
298.006410,2145.067394,2812.782580,8290.306550
298.006718,2987.772442,2886.803174,6883.915261
298.007026,2298.286494,1702.473667,7105.977043
298.007334,1991.848295,740.205942,9030.512492
298.007642,919.314598,-370.102971,9918.759623
298.007950,-383.047749,-1406.391290,10584.944971
298.008258,-842.705048,-1702.473667,11103.089130
298.008566,0.000000,-518.144159,10288.862594
298.008874,689.485948,962.267725,9992.780217
298.009182,2528.115143,1480.411884,9474.636058
298.009490,3140.991542,1924.535449,8142.265362
298.009799,3447.429741,1702.473667,7105.977043
298.010107,2911.162892,888.247130,7105.977043
298.010415,1762.019645,-222.061783,9400.615463
298.010723,0.000000,-1850.514855,10955.047942
298.011031,-1378.971896,-2886.803174,12435.459826
298.011339,-3294.210641,-3182.885551,12879.583391
298.011647,-2834.553343,-1702.473667,12361.439231
298.011955,-2068.457845,296.082377,10807.006753
298.012263,-153.219100,1850.514855,9326.594869
298.012571,2145.067394,2220.617826,7994.224174
298.012879,2834.553343,3108.864956,5921.647536
298.013187,3524.039291,2368.659014,6661.853478
298.013495,2911.162892,1258.350101,7550.100608
298.013804,2374.896044,-0.000000,9252.574275
298.014112,459.657299,-1110.308913,9844.739029
298.014420,-919.314598,-1850.514855,11177.109724
298.014728,-842.705048,-1258.350101,11103.089130
298.015036,-842.705048,370.102971,10214.842000
298.015344,689.485948,888.247130,10436.903782
298.015652,2068.457845,1036.288319,9252.574275
298.015960,2451.505594,1554.432478,8438.347739
298.016268,2604.724693,666.185348,8068.244768
298.016576,1455.581446,-518.144159,8734.430116
298.016884,306.438199,-1776.494261,10881.027347
298.017192,-2221.676944,-2812.782580,12065.356855
298.017501,-2068.457845,-2516.700203,12361.439231
298.017809,-3370.820191,-1480.411884,11177.109724
298.018117,-2221.676944,-0.000000,10955.047942
298.018425,459.657299,1702.473667,9400.615463
298.018733,1762.019645,2738.761985,7772.162391
298.019041,3447.429741,2812.782580,7254.018232
298.019349,3294.210641,2516.700203,5921.647536
298.019657,2681.334243,1258.350101,7846.182985
298.019965,1532.190996,-222.061783,9252.574275
298.020273,383.047749,-1184.329507,10066.800811
298.020581,-689.485948,-2590.720797,11843.295072
298.020889,-536.266849,-1850.514855,10881.027347
298.021198,-306.438199,222.061783,10362.883188
298.021506,1072.533697,1258.350101,10732.986159
298.021814,2298.286494,2220.617826,8956.491898
298.022122,2681.334243,2590.720797,7846.182985
298.022430,2987.772442,1776.494261,7994.224174
298.022738,1838.629195,444.123565,8586.388927
298.023046,919.314598,-1036.288319,11029.068536
298.023354,-919.314598,-2590.720797,12509.480420
298.023662,-2757.943793,-3182.885551,12731.542202
298.023970,-3600.648841,-2664.741391,12583.501014
298.024278,-2451.505594,-962.267725,11695.253884
298.024586,-919.314598,888.247130,10066.800811
298.024895,1378.971896,2072.576638,8660.409521
298.025203,3064.381992,2886.803174,7105.977043
298.025511,4366.744339,2960.823768,5921.647536
298.025819,4290.134789,2294.638420,6809.894666
298.026127,3983.696590,1480.411884,7920.203579
298.026435,2221.676944,-148.041188,8956.491898
298.026743,689.485948,-666.185348,10288.862594
298.027051,-153.219100,-1258.350101,10807.006753
298.027360,-766.095498,-148.041188,10140.821405
298.027668,229.828649,666.185348,10807.006753
298.027976,1762.019645,1258.350101,9770.718434
298.028284,2298.286494,1554.432478,8734.430116
298.028592,2911.162892,1184.329507,8734.430116
298.028900,2298.286494,-148.041188,8956.491898
298.029208,229.828649,-1406.391290,10362.883188
298.029516,-1072.533697,-3256.906145,12435.459826
298.029824,-2757.943793,-3775.050304,12435.459826
298.030132,-3830.477490,-2812.782580,12805.562797
298.030440,-2145.067394,-1332.370696,11769.274478
298.030748,-689.485948,1184.329507,10140.821405
298.031056,919.314598,2738.761985,8882.471304
298.031364,2451.505594,2812.782580,6513.812290
298.031672,3524.039291,3627.009116,5847.626942
298.031980,3753.867940,2516.700203,6735.874072
298.032288,2911.162892,1406.391290,7328.038826
298.032596,1608.800546,296.082377,8734.430116
