#time,accel_x,accel_y,accel_z
675.657976,-478.564520,-19.142581,-10107.282662
675.660674,38.285162,1416.550979,-9781.858789
675.663371,-191.425808,4555.934230,-9743.573627
675.666069,133.998066,5359.922624,-9513.862658
675.668767,-229.710970,5340.780043,-10509.276859
675.671465,459.421939,2316.252277,-7580.461997
675.674162,-248.853550,861.416136,-11542.976222
675.676860,-440.279358,-5034.498750,-8173.882002
675.679558,133.998066,-9896.714274,-8633.303941
675.682256,-191.425808,-10681.560086,-11791.829773
675.684954,1397.408398,-3349.951640,-10011.569758
675.687651,-2450.250342,1914.258080,-8097.311678
675.690349,1225.125171,-2239.681954,-10585.847182
675.693047,-267.996131,-497.707101,-9896.714274
675.695745,229.710970,-1990.828403,-7446.463931
675.698442,114.855485,-2928.814862,-11657.831707
675.701078,-689.132909,-4498.506488,-8116.454259
675.703713,133.998066,-7312.465866,-9207.581365
675.706348,-133.998066,-10528.419440,-9379.864592
675.708983,-459.421939,-7523.034254,-11198.409768
675.711619,-172.283227,-3407.379382,-9456.434915
675.714254,421.136778,-2048.256146,-7676.174901
675.716889,650.847747,4689.932296,-10777.272990
675.719524,-631.705166,8824.729749,-11523.833642
675.722160,-689.132909,3809.373579,-6489.334891
675.724795,38.285162,-2794.816797,-8997.012976
675.727430,-57.427742,-5283.352301,-8078.169098
675.730066,-153.140646,-5934.200048,-12748.958813
675.732701,-574.277424,-6680.760699,-8920.442653
675.735336,574.277424,-4058.227130,-6795.616184
675.737971,-172.283227,2756.531635,-14376.078181
675.740607,-19.142581,5321.637462,-9054.440718
675.743242,-114.855485,2890.529701,-4670.789715
675.745877,459.421939,2450.250342,-13782.658176
675.748512,-727.418070,38.285162,-10432.706536
675.751148,248.853550,-7159.325219,-4115.654872
675.753783,-612.562586,-6240.481341,-14337.793019
675.756418,-1129.412267,-1205.982590,-12289.536874
675.759054,57.427742,-3617.947771,-2507.678085
675.761689,-248.853550,-1167.697429,-14088.939469
675.764324,1186.840010,1971.685822,-7657.032320
675.766959,-689.132909,4785.645200,-11179.267187
675.769595,-172.283227,1359.123237,-11830.114934
675.772230,1052.841944,-1531.406464,-3426.521963
675.774865,-344.566454,-1416.550979,-14031.511726
675.777500,-784.845813,-3790.230998,-11810.972354
675.780136,574.277424,-6661.618118,-2871.387120
675.782771,-382.851616,-1818.545176,-15352.349802
675.785077,-516.849682,746.560651,-11619.546546
675.787384,401.994197,-459.421939,-2182.254211
675.789690,-95.712904,2909.672282,-14452.648504
675.791996,-248.853550,3943.371645,-11026.126541
675.794302,-325.423874,-1684.547110,-3062.812928
675.796609,153.140646,-4383.651003,-14146.367211
675.798915,287.138712,-2392.822600,-11140.982026
675.801221,-325.423874,-2526.820666,-10068.997501
675.803528,-382.851616,-2411.965181,-13131.810429
675.805834,-746.560651,1684.547110,-5053.641331
675.808140,727.418070,3292.523898,-10796.415571
675.810447,-1110.269686,1741.974853,-14069.796888
675.812753,727.418070,-1761.117434,-2450.250342
675.815059,-19.142581,-1071.984525,-12346.964616
675.817366,-803.988394,-1895.115499,-14376.078181
675.819672,478.564520,-5627.918755,-440.279358
675.821978,-38.285162,-2335.394858,-14758.929797
675.824284,-957.129040,1493.121302,-13476.376883
675.826591,478.564520,-803.988394,-1531.406464
675.828897,-114.855485,1033.699363,-14261.222696
675.831203,-95.712904,3349.951640,-11734.402030
675.833510,344.566454,57.427742,-8288.737486
675.835816,-287.138712,-3426.521963,-12270.394293
675.838122,593.420005,-3790.230998,-7216.752962
675.840429,-382.851616,-2584.248408,-9954.142016
675.842735,-210.568389,-4421.936165,-12863.814298
675.845041,248.853550,-1761.117434,-5283.352301
675.847347,57.427742,2737.389054,-11638.689126
675.849654,-516.849682,2431.107762,-13361.521398
675.851960,153.140646,210.568389,-2450.250342
675.854266,210.568389,1129.412267,-12634.103328
675.856573,-727.418070,-267.996131,-13418.949141
675.858879,-95.712904,-5685.346498,-1837.687757
675.861185,669.990328,-4689.932296,-14529.218827
675.863492,-899.701298,-191.425808,-12748.958813
675.865798,-19.142581,-1895.115499,-2756.531635
675.868104,-248.853550,-95.712904,-12863.814298
675.870411,459.421939,1837.687757,-6719.045861
675.872717,-114.855485,2258.824534,-10241.280728
675.875023,-229.710970,-1990.828403,-12346.964616
675.877448,306.281293,-3503.092286,-4460.221326
675.879873,325.423874,-2813.959378,-12098.111066
675.882299,-153.140646,-3483.949706,-12825.529136
675.884724,-440.279358,-2201.396792,-3407.379382
675.887149,-248.853550,2029.113565,-13629.517530
675.889574,-344.566454,3235.096155,-11849.257515
675.891999,-248.853550,-133.998066,-2871.387120
675.894424,344.566454,-535.992262,-13514.662045
675.896849,-1014.556782,306.281293,-10834.700733
675.899274,-248.853550,-4900.500685,-4517.649069
675.901700,-95.712904,-4364.508422,-12538.390424
675.904125,172.283227,-1014.556782,-10145.567824
675.906550,-1110.269686,2258.824534,-9245.866526
675.908975,2373.680019,-440.279358,-9322.436850
675.911400,-1071.984525,1703.689691,-7867.600709
675.913825,95.712904,937.986459,-11274.980091
675.916250,267.996131,-2737.389054,-10987.841379
675.918675,-593.420005,-3617.947771,-5570.491013
675.921101,535.992262,-1895.115499,-12787.243974
675.923526,-229.710970,-650.847747,-11983.255581
675.925951,-421.136778,-1914.258080,-3158.525832
675.928376,708.275490,-229.710970,-13648.660110
675.930801,-1071.984525,2105.683888,-12614.960747
675.933226,57.427742,-1435.693560,-3828.516160
675.935651,574.277424,-612.562586,-11466.405899
675.938077,-880.558717,1397.408398,-13208.380752
675.940502,-38.285162,-1818.545176,-8116.454259
675.942927,-287.138712,-4402.793584,-10585.847182
675.945352,325.423874,-2411.965181,-9284.151688
675.947777,-401.994197,918.843878,-9743.573627
675.950202,-267.996131,-19.142581,-11447.263318
675.952627,459.421939,-497.707101,-6508.477472
675.955052,-191.425808,1646.261949,-10432.706536
675.957478,95.712904,-1033.699363,-12327.822035
675.959903,76.570323,-3943.371645,-5072.783912
675.962328,1186.840010,-2316.252277,-10585.847182
675.964753,-1282.552914,842.273555,-14356.935600
675.967178,-1588.834206,-459.421939,-4785.645200
675.969603,1895.115499,-612.562586,-9571.290400
675.972028,-784.845813,1684.547110,-13591.232368
675.974319,-1512.263883,-1110.269686,-7963.313613
675.976622,1454.836141,-4211.367776,-8116.454259
675.978926,-995.414202,-861.416136,-11581.261384
675.981229,-306.281293,-669.990328,-9724.431046
675.983533,803.988394,-2928.814862,-8614.161360
675.985837,-708.275490,-401.994197,-9265.009107
675.988140,57.427742,1703.689691,-11389.835576
675.990444,114.855485,459.421939,-9647.860723
675.992747,-248.853550,-1416.550979,-6585.047795
675.995051,-95.712904,-689.132909,-12691.531070
675.997354,-325.423874,-1378.265818,-10700.702667
675.999658,-76.570323,-3943.371645,-5015.356170
676.001962,-38.285162,-727.418070,-12748.958813
676.004265,-306.281293,1550.549045,-11676.974288
676.006569,-267.996131,-1531.406464,-4785.645200
676.008872,497.707101,-1263.410333,-11906.685258
676.011176,-210.568389,229.710970,-10394.421374
676.013480,-0.000000,-880.558717,-8748.159426
676.015783,-153.140646,-2794.816797,-9934.999435
676.018087,19.142581,-918.843878,-9494.720077
676.020390,497.707101,114.855485,-9954.142016
676.022694,-631.705166,-1244.267752,-10241.280728
676.024997,-76.570323,-1722.832272,-7484.749093
676.027301,727.418070,172.283227,-11504.691061
676.029605,-1167.697429,497.707101,-10738.987829
676.031908,38.285162,-2967.100024,-6068.198114
676.034212,555.134843,-823.130974,-11523.833642
676.036515,-497.707101,593.420005,-11715.259450
676.038819,-459.421939,-2660.818731,-6068.198114
676.041122,535.992262,-1301.695494,-10451.849117
676.043426,-306.281293,1646.261949,-11753.544611
676.045730,-459.421939,-153.140646,-9054.440718
676.048033,-133.998066,-2775.674216,-8805.587168
676.050337,-19.142581,-421.136778,-10375.278794
676.052640,-1244.267752,1646.261949,-11810.972354
676.054944,1014.556782,-1837.687757,-7465.606512
676.057247,803.988394,-2239.681954,-7771.887805
676.059551,-1091.127106,-38.285162,-13514.662045
676.061855,172.283227,-2833.101958,-9456.434915
676.064158,555.134843,-3732.803256,-5570.491013
676.066418,-555.134843,937.986459,-13878.371080
676.068679,-172.283227,1416.550979,-10700.702667
676.070939,38.285162,-1033.699363,-3541.377448
676.073199,248.853550,440.279358,-13342.378818
676.075459,-727.418070,1244.267752,-12653.245909
676.077719,-133.998066,-4096.512291,-6412.764568
676.079979,-0.000000,-4555.934230,-10853.843314
676.082240,-133.998066,-574.277424,-10892.128475
676.084500,-248.853550,-459.421939,-8097.311678
676.086760,-287.138712,-2124.826469,-11121.839445
676.089020,191.425808,650.847747,-8384.450390
676.091280,650.847747,2335.394858,-9839.286531
676.093540,-1205.982590,-210.568389,-11466.405899
676.095800,401.994197,-3024.527766,-6259.623922
676.098061,401.994197,-861.416136,-11408.978157
676.100321,-1282.552914,-1607.976787,-12251.251712
676.102581,325.423874,-4575.076811,-5034.498750
676.104841,689.132909,-344.566454,-11657.831707
676.107101,-497.707101,1818.545176,-13572.089787
676.109361,-899.701298,-1665.404530,-3196.810994
676.111622,1110.269686,-2794.816797,-9628.718142
676.113882,-689.132909,2124.826469,-13093.525267
676.116142,-267.996131,-306.281293,-7006.184573
676.118402,153.140646,-3905.086483,-9073.583299
676.120662,-38.285162,-1320.838075,-11179.267187
676.122922,153.140646,-823.130974,-9456.434915
676.125183,-57.427742,-3598.805190,-9111.868461
676.127443,-1225.125171,-210.568389,-8767.302006
676.129703,-459.421939,3445.664544,-12710.673651
676.131963,1282.552914,-76.570323,-8365.307810
676.134223,-995.414202,-2067.398726,-7465.606512
676.136483,478.564520,-210.568389,-12480.962682
676.138744,803.988394,-1282.552914,-9360.722011
676.141004,-1397.408398,-3637.090352,-6508.477472
676.143264,669.990328,-1875.972918,-12500.105262
676.145524,-95.712904,1359.123237,-11485.548480
676.147784,-746.560651,267.996131,-8824.729749
676.150044,325.423874,-1646.261949,-9877.571693
676.152305,325.423874,784.845813,-8690.731683
676.154565,-574.277424,535.992262,-10547.562021
676.156950,19.142581,-3445.664544,-10911.271056
676.159336,344.566454,-2163.111630,-6221.338760
676.161721,-306.281293,-95.712904,-12461.820101
676.164107,2335.394858,-2928.814862,-12863.814298
676.166492,-1684.547110,631.705166,-3426.521963
676.168878,-421.136778,3024.527766,-11638.689126
676.171263,-38.285162,-1052.841944,-13954.941403
676.173648,-133.998066,-4058.227130,-19.142581
676.176034,-38.285162,-1933.400661,-13495.519464
676.178419,-1071.984525,-976.271621,-14586.646570
676.180805,-248.853550,-2469.392923,-1818.545176
676.183190,555.134843,-2507.678085,-14242.080115
676.185576,-650.847747,3885.943902,-10892.128475
676.187961,267.996131,1225.125171,-5417.350366
676.190347,-344.566454,-2297.109696,-13457.234302
676.192732,440.279358,-191.425808,-7408.178770
676.195118,-19.142581,-287.138712,-10317.851051
676.197503,-918.843878,-3426.521963,-11676.974288
676.199889,803.988394,-3445.664544,-5206.781978
676.202274,133.998066,-382.851616,-12997.812363
676.204659,-1205.982590,-344.566454,-12576.675586
676.207045,478.564520,-957.129040,-1512.263883
676.209430,-287.138712,3062.812928,-15199.209155
676.211816,-880.558717,1856.830338,-11887.542677
676.214201,153.140646,-4709.074877,-2928.814862
676.216587,-746.560651,-4460.221326,-13514.662045
676.218972,574.277424,-267.996131,-10853.843314
676.221358,-478.564520,-2029.113565,-6431.907149
676.223743,-344.566454,-3254.238736,-12232.109131
676.226129,421.136778,1244.267752,-8671.589102
676.228514,-95.712904,2354.537438,-8824.729749
676.230900,-593.420005,-784.845813,-12959.527202
676.233285,382.851616,-210.568389,-5704.489078
676.235671,248.853550,1091.127106,-11676.974288
676.238056,-574.277424,-2392.822600,-12576.675586
676.240441,-95.712904,-3962.514226,-2756.531635
676.242827,612.562586,-1359.123237,-14299.507858
676.245212,-497.707101,-1167.697429,-12940.384621
676.247598,382.851616,-2526.820666,-1397.408398
676.249983,-363.709035,2143.969050,-13648.660110
676.252453,229.710970,2699.103893,-12423.534939
676.254922,57.427742,-899.701298,-2909.672282
676.257391,-478.564520,-3483.949706,-13878.371080
676.259860,57.427742,287.138712,-10624.132344
676.262330,57.427742,-1741.974853,-6527.620053
676.264799,-976.271621,-4479.363907,-12787.243974
676.267268,727.418070,76.570323,-7446.463931
676.269738,-440.279358,1799.402595,-10375.278794
676.272207,-191.425808,-2411.965181,-12538.390424
676.274676,325.423874,-650.847747,-3158.525832
676.277145,-95.712904,1607.976787,-14778.072378
676.279615,-937.986459,-995.414202,-11274.980091
676.282084,746.560651,-4019.941968,-823.130974
676.284553,-57.427742,-57.427742,-17266.607882
676.287022,191.425808,1301.695494,-10528.419440
676.289492,-995.414202,-2258.824534,-3656.232933
676.291961,-880.558717,-248.853550,-15084.353670
676.294430,689.132909,4249.652938,-8499.305875
676.296900,38.285162,-631.705166,-7178.467800
676.299369,-497.707101,-5130.211654,-12672.388490
676.301838,535.992262,-842.273555,-6948.756830
676.304307,-229.710970,-1933.400661,-11638.689126
676.306777,-861.416136,-4479.363907,-10949.556218
676.309246,1148.554848,210.568389,-4230.510357
676.311715,-631.705166,3656.232933,-15716.058837
676.314184,-746.560651,-650.847747,-9992.427178
676.316654,1033.699363,-1971.685822,-1588.834206
676.319123,-114.855485,1569.691626,-17879.170467
676.321592,-727.418070,-650.847747,-10260.423309
676.324062,76.570323,-5283.352301,-1052.841944
676.326531,-248.853550,-4019.941968,-16922.041427
676.329000,-57.427742,2584.248408,-9207.581365
676.331469,-631.705166,-2373.680019,-3656.232933
676.333939,114.855485,-3426.521963,-17113.467235
676.336408,727.418070,2871.387120,-6623.332957
676.338877,-995.414202,1895.115499,-8499.305875
676.341347,133.998066,-3809.373579,-13993.226565
676.343816,382.851616,574.277424,-2679.961312
676.346285,19.142581,306.281293,-15428.920125
676.348754,-937.986459,-3560.520029,-10968.698798
676.351276,1014.556782,-3043.670347,-1091.127106
676.353798,-421.136778,1205.982590,-18912.869830
676.356319,-842.273555,-976.271621,-9360.722011
676.358841,1014.556782,-2967.100024,133.998066
676.361362,-325.423874,-650.847747,-17821.742725
676.363884,248.853550,3273.381317,-8480.163294
676.366406,-459.421939,-2794.816797,-4268.795518
676.368927,440.279358,-5704.489078,-15467.205286
676.371449,440.279358,1225.125171,-6929.614250
676.373970,-746.560651,133.998066,-10298.708470
676.376492,-1473.978722,-1186.840010,-12212.966550
676.379014,1339.980656,1646.261949,-4364.508422
676.381535,-114.855485,937.986459,-13725.230434
676.384057,-689.132909,-3943.371645,-11255.837510
676.386579,1071.984525,-2756.531635,-1186.840010
676.389100,-689.132909,-76.570323,-18147.166598
676.391622,-631.705166,-3235.096155,-9341.579430
676.394143,957.129040,-3101.098090,-382.851616
676.396665,-497.707101,2833.101958,-2565.105827
676.399187,-210.568389,4555.934230,-8078.169098
676.401708,-57.427742,-1952.543242,-2947.957443
676.404230,-325.423874,-2986.242605,-16290.336261
676.406751,248.853550,1378.265818,-7408.178770
676.409273,248.853550,-3407.379382,-7446.463931
676.411795,-459.421939,-4996.213589,-14758.929797
676.414316,-363.709035,2067.398726,-4670.789715
676.416838,976.271621,133.998066,-11198.409768
676.419359,-1473.978722,-1301.695494,-12882.956878
676.421881,1244.267752,248.853550,-2813.959378
676.424403,-612.562586,1301.695494,-15773.486579
676.426924,-803.988394,-3407.379382,-11274.980091
676.429446,1186.840010,-3924.229064,191.425808
676.431968,-669.990328,593.420005,-18932.012411
676.434489,-95.712904,-650.847747,-9475.577496
676.437011,-229.710970,-2354.537438,-918.843878
676.439532,57.427742,-1569.691626,-18664.016280
676.442054,-229.710970,3388.236802,-7599.604578
676.444576,-19.142581,-1512.263883,-4804.787781
676.447097,-555.134843,-3790.230998,-16290.336261
676.449619,650.847747,727.418070,-5742.774240
676.452176,-191.425808,-2182.254211,-9073.583299
676.454733,57.427742,-6163.911018,-13667.802691
676.457290,-210.568389,1301.695494,-4134.797453
676.459847,-746.560651,4364.508422,-14529.218827
676.462404,-669.990328,114.855485,-10892.128475
676.464961,1378.265818,-1588.834206,-1761.117434
676.467517,-650.847747,459.421939,-17017.754331
676.470074,-689.132909,-3866.801322,-11121.839445
676.472631,612.562586,-6317.051664,-306.281293
676.475188,-574.277424,-1952.543242,-17324.035624
676.477745,38.285162,3177.668413,-10260.423309
676.480302,-133.998066,-1033.699363,-2679.961312
676.482859,-229.710970,-1397.408398,-16060.625291
676.485416,401.994197,3235.096155,-9226.723946
676.487973,-535.992262,-95.712904,-6221.338760
676.490530,114.855485,-4307.080680,-13418.949141
676.493087,287.138712,-842.273555,-6546.762634
676.495644,-57.427742,-937.986459,-9915.856854
676.498201,-918.843878,-3905.086483,-13629.517530
676.500758,363.709035,-995.414202,-3713.660675
676.503315,708.275490,1493.121302,-12729.816232
676.505872,-1665.404530,76.570323,-14088.939469
676.508429,1091.127106,-1990.828403,-918.843878
676.510986,-248.853550,-803.988394,-14682.359474
676.513543,76.570323,1703.689691,-14835.500120
676.516100,-306.281293,-2584.248408,-133.998066
676.518657,172.283227,-3598.805190,-13150.953010
676.521213,-306.281293,631.705166,-14146.367211
676.523770,267.996131,-2431.107762,-2086.541307
676.526327,-535.992262,-3637.090352,-12940.384621
676.528884,57.427742,1550.549045,-11868.400096
676.531441,114.855485,1129.412267,-5532.205851
676.533998,-421.136778,-1971.685822,-12729.816232
676.536555,612.562586,-478.564520,-7503.891674
676.539112,76.570323,153.140646,-9341.579430
676.541669,-95.712904,-3847.658741,-13533.804626
676.544226,-516.849682,-1588.834206,-4728.217458
676.546783,38.285162,2450.250342,-12059.825904
676.549340,-535.992262,3005.385186,-15218.351736
676.551897,-57.427742,-3101.098090,-1512.263883
676.554474,-19.142581,-2431.107762,-12232.109131
676.557052,-689.132909,1627.119368,-13648.660110
676.559629,76.570323,-3483.949706,-2909.672282
676.562206,306.281293,-4555.934230,-12768.101394
676.564784,-669.990328,1110.269686,-12136.396227
676.567361,421.136778,-57.427742,-5838.487144
676.569938,95.712904,-2335.394858,-11294.122672
676.572516,-382.851616,2469.392923,-9724.431046
676.575093,631.705166,2009.970984,-8920.442653
676.577670,-593.420005,-2277.967115,-11447.263318
676.580248,57.427742,-3005.385186,-6585.047795
676.582825,459.421939,-669.990328,-11772.687192
676.585402,-1225.125171,-2756.531635,-11964.113000
676.587980,1110.269686,-4957.928427,-1952.543242
676.590557,-555.134843,133.998066,-12500.105262
676.593134,-229.710970,3483.949706,-14433.505923
676.595712,153.140646,-1799.402595,-2986.242605
676.598289,-0.000000,-2105.683888,-10624.132344
676.600866,-95.712904,1761.117434,-13782.658176
676.603444,-382.851616,-1512.263883,-5130.211654
676.606021,248.853550,-4823.930362,-10030.712339
676.608598,-344.566454,229.710970,-11791.829773
676.611176,76.570323,-727.418070,-7637.889739
676.613753,-210.568389,-4058.227130,-10643.274925
676.616330,191.425808,19.142581,-9303.294269
676.618908,-114.855485,2928.814862,-10662.417506
676.621485,-363.709035,-650.847747,-10624.132344
676.624062,382.851616,-1703.689691,-2431.107762
676.626640,133.998066,-1071.984525,-12902.099459
676.629217,-823.130974,574.277424,-14146.367211
676.631794,229.710970,-5493.920690,-2545.963246
676.634371,-133.998066,-3005.385186,-11676.974288
676.636949,-1129.412267,2431.107762,-13284.951075
676.639526,172.283227,-1416.550979,-6221.338760
676.642103,-0.000000,-1761.117434,-9188.438784
676.644681,-267.996131,3062.812928,-12385.249778
676.647258,1225.125171,-210.568389,-7733.602643
676.649835,-880.558717,-3062.812928,-8997.012976
676.652413,440.279358,-842.273555,-9954.142016
676.654990,-19.142581,-535.992262,-10815.558152
676.657579,-689.132909,-3656.232933,-9954.142016
676.660168,555.134843,-2507.678085,-6642.475538
676.662758,-57.427742,631.705166,-13170.095590
676.665347,-574.277424,2890.529701,-13189.238171
676.667936,133.998066,-2469.392923,-2833.101958
676.670525,-57.427742,-1129.412267,-11944.970419
676.673114,-248.853550,1780.260014,-13304.093656
676.675704,-172.283227,-2603.390989,-4728.217458
676.678293,153.140646,-3943.371645,-10604.989763
676.680882,-95.712904,267.996131,-12270.394293
676.683471,229.710970,-2009.970984,-6604.190376
676.686060,-95.712904,-3369.094221,-10624.132344
676.688650,-1339.980656,3158.525832,-10375.278794
676.691239,1378.265818,1875.972918,-8824.729749
676.693828,-880.558717,-727.418070,-10509.276859
676.696417,-191.425808,-976.271621,-7925.028451
676.699006,995.414202,-861.416136,-11313.265253
676.701595,-1856.830338,229.710970,-14337.793019
676.704185,784.845813,-5781.059402,-3369.094221
676.706774,191.425808,-1703.689691,-10758.130410
676.709363,-1378.265818,2890.529701,-14644.074312
676.711952,76.570323,-2029.113565,-3751.945837
676.714541,-153.140646,-1186.840010,-8786.444587
676.717131,-210.568389,2833.101958,-14624.931731
676.719720,76.570323,-708.275490,-8250.452325
676.722309,-727.418070,-2469.392923,-7599.604578
676.724898,363.709035,210.568389,-12882.956878
676.727487,612.562586,-248.853550,-7733.602643
676.730076,-746.560651,-3043.670347,-8269.594906
676.732666,516.849682,-2450.250342,-11332.407834
676.735255,-76.570323,440.279358,-9111.868461
676.737844,-440.279358,-1531.406464,-10336.993632
676.740433,497.707101,-2986.242605,-4785.645200
676.743022,-153.140646,114.855485,-9992.427178
676.745612,-497.707101,1856.830338,-14433.505923
676.748201,19.142581,-2852.244539,-4843.072942
676.750790,-0.000000,-2373.680019,-9533.005238
676.753379,-306.281293,1110.269686,-13782.658176
676.755968,-114.855485,-2297.109696,-6738.188442
676.758557,-19.142581,-3541.377448,-7925.028451
676.761152,-133.998066,1091.127106,-13246.665914
676.763746,-153.140646,612.562586,-8422.735552
676.766341,248.853550,-2488.535504,-7542.176835
676.768936,-267.996131,-267.996131,-10758.130410
676.771530,172.283227,708.275490,-11045.269122
676.774125,-363.709035,-1799.402595,-9092.725880
676.776719,-325.423874,-1531.406464,-6833.901346
676.779314,363.709035,-918.843878,-11925.827838
676.781908,-899.701298,1033.699363,-12595.818166
676.784503,325.423874,-4096.512291,-4441.078746
676.787097,-153.140646,-1914.258080,-11447.263318
676.789692,-516.849682,1971.685822,-12787.243974
676.792286,306.281293,-1607.976787,-5532.205851
676.794881,-306.281293,-1129.412267,-9743.573627
676.797475,-95.712904,2182.254211,-12308.679454
676.800070,-0.000000,-880.558717,-7503.891674
676.802664,-574.277424,-3828.516160,-9245.866526
676.805259,382.851616,-937.986459,-11179.267187
676.807854,-172.283227,-344.566454,-9035.298138
676.810448,-344.566454,-2928.814862,-10164.710405
676.813043,-248.853550,191.425808,-9111.868461
676.815637,-76.570323,3464.807125,-10758.130410
676.818232,38.285162,4326.223261,-12595.818166
676.820826,-574.277424,4249.652938,-5742.774240
676.823421,669.990328,3311.666478,-9245.866526
676.826015,-535.992262,3388.236802,-12844.671717
676.828610,-76.570323,535.992262,-8556.733618
676.831204,-38.285162,-1263.410333,-8116.454259
676.833799,267.996131,-1588.834206,-12385.249778
676.836393,-727.418070,114.855485,-8786.444587
676.838988,-287.138712,401.994197,-9379.864592
676.841582,287.138712,325.423874,-10796.415571
676.844177,57.427742,3981.656806,-9647.860723
676.846772,-133.998066,6929.614250,-7886.743290
676.849366,153.140646,9073.583299,-12366.107197
676.851961,1052.841944,5340.780043,-6719.045861
676.854555,-478.564520,1052.841944,-7771.887805
676.857150,-38.285162,-4977.071008,-18644.873699
676.859744,-210.568389,-9054.440718,-3732.803256
676.862339,-1014.556782,-8269.594906,-7235.895542
676.864937,669.990328,-3024.527766,-16826.328523
676.867534,-880.558717,3905.086483,-5436.492947
676.870132,669.990328,2737.389054,-7944.171032
676.872730,-57.427742,5053.641331,-13227.523333
676.875328,-229.710970,5283.352301,-8212.167163
676.877926,440.279358,-2354.537438,-8020.741355
676.880524,-689.132909,-5493.920690,-11868.400096
676.883122,-19.142581,-4153.940034,-6738.188442
676.885719,-325.423874,-5111.069074,-12787.243974
676.888317,-765.703232,-5340.780043,-9475.577496
676.890915,784.845813,-803.988394,-5953.342629
676.893513,-1320.838075,4843.072942,-17036.896912
676.896111,918.843878,3981.656806,-8020.741355
676.898709,440.279358,-248.853550,-3330.809059
676.901306,-1205.982590,3043.670347,-15888.342064
676.903904,708.275490,-1971.685822,-9341.579430
676.906502,-765.703232,-7082.754896,-5034.498750
676.909100,248.853550,-5302.494882,-13495.519464
676.911698,-478.564520,-1091.127106,-10088.140082
676.914296,-95.712904,-2143.969050,-7963.313613
676.916894,76.570323,-459.421939,-10202.995566
676.919491,-478.564520,5130.211654,-9533.005238
676.922089,133.998066,2852.244539,-10528.419440
676.924687,-344.566454,-421.136778,-7408.178770
676.927285,287.138712,-401.994197,-9035.298138
676.929883,-612.562586,-2163.111630,-13361.521398
676.932481,-57.427742,-4823.930362,-7886.743290
676.935079,153.140646,-6144.768437,-6699.903280
676.937676,-248.853550,880.558717,-14165.509792
676.940274,-248.853550,2641.676150,-8920.442653
676.942872,19.142581,-535.992262,-6355.336826
676.945470,114.855485,1933.400661,-13284.951075
676.948068,-478.564520,3177.668413,-8767.302006
676.950666,440.279358,-3369.094221,-8327.022648
676.953263,-440.279358,-3273.381317,-10892.128475
676.955861,-153.140646,-1282.552914,-9092.725880
676.958459,57.427742,-3656.232933,-11332.407834
676.961057,-650.847747,-3617.947771,-8422.735552
676.963655,440.279358,210.568389,-8480.163294
676.966253,-555.134843,2794.816797,-13246.665914
676.968852,-38.285162,-248.853550,-6948.756830
676.971450,248.853550,-1684.547110,-5627.918755
676.974048,-172.283227,880.558717,-15505.490448
676.976646,-191.425808,-1646.261949,-8154.739421
676.979243,114.855485,-5666.203917,-5895.914886
676.981841,-267.996131,-1837.687757,-14414.363342
676.984439,-114.855485,727.418070,-9341.579430
676.987037,-57.427742,-1971.685822,-6891.329088
676.989635,-19.142581,-306.281293,-11849.257515
676.992233,-172.283227,3101.098090,-9858.429112
676.994830,-19.142581,-727.418070,-8231.309744
676.997428,-210.568389,-1990.828403,-9839.286531
677.000026,-76.570323,287.138712,-9418.149754
677.002624,-191.425808,-1722.832272,-11389.835576
677.005222,-191.425808,-4957.928427,-8346.165229
677.007820,172.283227,-1818.545176,-8020.741355
677.010417,-325.423874,2354.537438,-15409.777544
677.013015,-153.140646,1263.410333,-8231.309744
677.015613,497.707101,-2373.680019,-5015.356170
677.018211,-172.283227,1244.267752,-14778.072378
677.020809,38.285162,1052.841944,-9303.294269
677.023407,114.855485,-3809.373579,-5953.342629
677.026004,191.425808,-1741.974853,-12614.960747
677.028602,-574.277424,631.705166,-9590.432981
677.031200,-325.423874,-3522.234867,-8939.585234
677.033798,76.570323,-3445.664544,-10604.989763
677.036396,-191.425808,1359.123237,-8461.020714
677.038994,-593.420005,1014.556782,-11083.554283
677.041591,-153.140646,-1359.123237,-8403.592971
677.044189,191.425808,516.849682,-8977.870395
677.046787,421.136778,114.855485,-12595.818166
677.049385,-574.277424,-937.986459,-7982.456194
677.051983,267.996131,-4039.084549,-6240.481341
677.054581,-76.570323,459.421939,-14663.216893
677.057179,-363.709035,114.855485,-7963.313613
677.059776,-95.712904,-3215.953574,-7178.467800
677.062374,191.425808,-516.849682,-12863.814298
677.064972,-287.138712,1646.261949,-8690.731683
677.067570,-95.712904,-2124.826469,-8671.589102
677.070168,-38.285162,-1148.554848,-10662.417506
677.072763,133.998066,957.129040,-8901.300072
677.075358,-516.849682,-1512.263883,-10643.274925
677.077954,76.570323,-3464.807125,-9092.725880
677.080549,-287.138712,-153.140646,-8250.452325
677.083144,248.853550,-19.142581,-13112.667848
677.085740,-689.132909,-2297.109696,-7178.467800
677.088335,823.130974,-3158.525832,-5283.352301
677.090930,-363.709035,1531.406464,-15888.342064
677.093525,-287.138712,172.283227,-7848.458128
677.096121,248.853550,-3751.945837,-5704.489078
677.098716,-306.281293,689.132909,-14778.072378
677.101311,-153.140646,899.701298,-9188.438784
677.103907,267.996131,-3330.809059,-6508.477472
677.106502,-153.140646,-1473.978722,-12500.105262
677.109097,287.138712,1052.841944,-9513.862658
677.111693,-229.710970,-1339.980656,-8365.307810
677.114288,95.712904,-2009.970984,-9877.571693
677.116883,267.996131,-918.843878,-7312.465866
677.119478,-1339.980656,-803.988394,-14433.505923
677.122074,401.994197,-3139.383251,-7178.467800
677.124669,-957.129040,-229.710970,-6259.623922
677.127264,-421.136778,1933.400661,-17170.894978
677.129860,114.855485,880.558717,-5359.922624
677.132455,401.994197,-1703.689691,-5264.209720
677.135050,-172.283227,1952.543242,-17381.463366
677.137646,-325.423874,229.710970,-6221.338760
677.140241,880.558717,-5455.635528,-6738.188442
677.142836,-765.703232,-1186.840010,-14605.789150
677.145431,-267.996131,574.277424,-8078.169098
677.148027,191.425808,-3962.514226,-8307.880067
677.150622,-478.564520,-1378.265818,-10738.987829
677.153217,516.849682,2143.969050,-8556.733618
677.155813,-1014.556782,555.134843,-11428.120738
677.158408,478.564520,-2565.105827,-7350.751027
677.161003,306.281293,516.849682,-9111.868461
677.163599,-478.564520,133.998066,-17170.894978
677.166194,133.998066,-2699.103893,-5761.916821
677.168789,-19.142581,-4134.797453,-6297.909083
677.171384,114.855485,1282.552914,-16577.474973
677.173980,-363.709035,727.418070,-6374.479406
677.176572,344.566454,-3139.383251,-6699.903280
677.179164,-153.140646,1110.269686,-14720.644635
677.181756,-76.570323,1837.687757,-7925.028451
677.184348,19.142581,-3732.803256,-7427.321350
677.186940,-478.564520,-1282.552914,-12404.392358
677.189532,287.138712,784.845813,-8614.161360
677.192124,-708.275490,-2603.390989,-10298.708470
677.194716,306.281293,-3560.520029,-8748.159426
677.197309,593.420005,-440.279358,-7771.887805
677.199901,-1493.121302,765.703232,-14586.646570
677.202493,880.558717,-899.701298,-3924.229064
677.205085,-248.853550,-861.416136,-6929.614250
677.207677,-172.283227,2890.529701,-17285.750462
677.210269,-861.416136,-1359.123237,-3790.230998
677.212861,669.990328,-6699.903280,-9743.573627
677.215453,-95.712904,-918.843878,-15180.066574
677.218045,-57.427742,918.843878,-4709.074877
677.220637,57.427742,-2297.109696,-9992.427178
677.223229,-669.990328,1493.121302,-12174.681389
677.225822,957.129040,1933.400661,-7025.327154
677.228414,-727.418070,-2565.105827,-11830.114934
677.231006,-248.853550,-2316.252277,-8346.165229
677.233598,957.129040,-363.709035,-7963.313613
677.236190,-1378.265818,-1818.545176,-14222.937534
677.238782,-19.142581,-3790.230998,-5934.200048
677.241374,612.562586,-2679.961312,-7733.602643
677.243966,-574.277424,2967.100024,-18549.160795
677.246558,-76.570323,478.564520,-3426.521963
677.249150,267.996131,-2679.961312,-6623.332957
677.251742,-574.277424,1416.550979,-18357.734987
677.254335,210.568389,-459.421939,-4249.652938
677.256927,267.996131,-5187.639397,-6987.041992
677.259519,-957.129040,-669.990328,-15850.056902
677.262111,727.418070,248.853550,-5742.774240
677.264703,-248.853550,-3330.809059,-9973.284597
677.267295,-401.994197,-1320.838075,-12174.681389
677.269887,765.703232,1741.974853,-6355.336826
677.272479,-861.416136,114.855485,-12480.962682
677.275071,-133.998066,-1435.693560,-8786.444587
677.277663,574.277424,784.845813,-5915.057467
677.280252,-612.562586,746.560651,-19008.582734
677.282840,-19.142581,-3120.240670,-4843.072942
677.285429,-0.000000,-4230.510357,-5225.924558
677.288017,57.427742,459.421939,-18932.012411
677.290605,-325.423874,1129.412267,-4804.787781
677.293194,38.285162,-1646.261949,-5991.627790
677.295782,-114.855485,172.283227,-16347.764003
677.298371,95.712904,-287.138712,-7006.184573
677.300959,-191.425808,-4096.512291,-7369.893608
677.303548,-38.285162,-746.560651,-13284.951075
677.306136,-95.712904,2297.109696,-7714.460062
677.308724,-229.710970,-1416.550979,-10107.282662
677.311313,-344.566454,-1493.121302,-10088.140082
677.313901,555.134843,516.849682,-7599.604578
677.316490,-899.701298,-937.986459,-13150.953010
677.319078,248.853550,-2871.387120,-4594.219392
677.321666,325.423874,-3177.668413,-6106.483275
677.324255,-650.847747,1531.406464,-18204.594341
677.326843,153.140646,-650.847747,-5111.069074
677.329432,-191.425808,-2488.535504,-6451.049730
677.332020,57.427742,1493.121302,-16673.187877
677.334608,-382.851616,1014.556782,-6278.766502
677.337197,-0.000000,-3790.230998,-7982.456194
677.339785,-248.853550,-1531.406464,-13610.374949
677.342374,306.281293,880.558717,-7140.182638
677.344962,-574.277424,-1818.545176,-9456.434915
677.347550,-153.140646,-2220.539373,-9992.427178
677.350139,1014.556782,-114.855485,-9131.011042
677.352727,-1071.984525,-593.420005,-12098.111066
677.355316,-19.142581,-2411.965181,-7178.467800
677.357904,267.996131,-1837.687757,-6719.045861
677.360493,-363.709035,2029.113565,-16826.328523
677.363081,172.283227,-957.129040,-5723.631659
677.365669,-325.423874,-3081.955509,-6470.192310
677.368258,76.570323,-210.568389,-16156.338195
677.370846,-95.712904,-708.275490,-6336.194245
677.373435,-191.425808,-3464.807125,-7542.176835
677.376023,133.998066,-344.566454,-14108.082050
677.378611,-669.990328,2009.970984,-7484.749093
677.381200,38.285162,-2335.394858,-8709.874264
677.383721,76.570323,-1703.689691,-12442.677520
677.386241,-172.283227,784.845813,-6738.188442
677.388762,-38.285162,-1914.258080,-12136.396227
677.391283,-401.994197,-1722.832272,-8403.592971
677.393804,363.709035,918.843878,-7791.030386
677.396324,-516.849682,1588.834206,-18032.311114
677.398845,-306.281293,-1454.836141,-4000.799387
677.401366,574.277424,-3598.805190,-6929.614250
677.403887,-1588.834206,2890.529701,-17783.457563
677.406407,1378.265818,-1397.408398,-4938.785846
677.408928,-574.277424,-3637.090352,-5991.627790
677.411449,57.427742,-133.998066,-17209.180139
677.413970,-95.712904,593.420005,-5991.627790
677.416490,-306.281293,-3081.955509,-7369.893608
677.419011,114.855485,-363.709035,-14490.933666
677.421532,1225.125171,784.845813,-5206.781978
677.424053,-1818.545176,-2220.539373,-12059.825904
677.426573,421.136778,-2565.105827,-11160.124606
677.429094,459.421939,1244.267752,-6757.331022
677.431615,-1071.984525,-57.427742,-18836.299507
677.434136,-382.851616,-880.558717,-2813.959378
677.436656,267.996131,-2450.250342,-5666.203917
677.439177,689.132909,-669.990328,-20195.422744
677.441698,-1225.125171,-1607.976787,-3790.230998
677.444219,842.273555,-4823.930362,-5915.057467
677.446739,-229.710970,995.414202,-18549.160795
677.449260,-574.277424,1875.972918,-4211.367776
677.451781,823.130974,-3483.949706,-7771.887805
677.454302,-727.418070,803.988394,-15448.062706
677.456822,459.421939,1875.972918,-5627.918755
677.459343,-401.994197,-3062.812928,-9877.571693
677.461864,-191.425808,-1895.115499,-11408.978157
677.464385,421.136778,363.709035,-6546.762634
677.466905,-535.992262,-2029.113565,-12806.386555
677.469426,-57.427742,-2469.392923,-4249.652938
677.471947,363.709035,-1244.267752,-6010.770371
677.474468,-1167.697429,2143.969050,-18702.301442
677.476988,421.136778,-2833.101958,-5876.772306
677.479509,497.707101,-3483.949706,-4211.367776
677.482030,-401.994197,1473.978722,-18281.164664
677.484564,287.138712,-306.281293,-5647.061336
677.487099,-574.277424,-3158.525832,-6068.198114
677.489633,57.427742,1493.121302,-16347.764003
677.492167,-114.855485,1244.267752,-6833.901346
677.494701,-57.427742,-3579.662610,-7044.469734
677.497236,-19.142581,-1569.691626,-13744.373014
677.499770,-248.853550,1263.410333,-7446.463931
677.502304,-76.570323,-3215.953574,-9571.290400
677.504838,-325.423874,-1722.832272,-10336.993632
677.507373,803.988394,-784.845813,-6948.756830
677.509907,-669.990328,2029.113565,-17955.740790
677.512441,-842.273555,-1186.840010,-4881.358104
677.514975,746.560651,-2947.957443,-6451.049730
677.517510,-1014.556782,2469.392923,-18300.307245
677.520044,-306.281293,-842.273555,-5206.781978
677.522578,899.701298,-4153.940034,-2392.822600
677.525112,-1225.125171,-114.855485,-16462.619488
677.527647,1301.695494,-3196.810994,-10738.987829
677.530181,995.414202,-4747.360038,-6508.477472
677.532715,-2450.250342,2067.398726,-10547.562021
677.535250,2201.396792,1569.691626,-12078.968485
677.537784,-1129.412267,650.847747,-7197.610381
677.540318,-708.275490,95.712904,-9169.296203
677.542852,1473.978722,-650.847747,-12366.107197
677.545387,-1320.838075,440.279358,-12634.103328
677.547921,210.568389,-4460.221326,-7771.887805
677.550455,325.423874,-3445.664544,-7982.456194
677.552989,-287.138712,1454.836141,-13572.089787
677.555524,76.570323,-344.566454,-8288.737486
677.558058,-669.990328,-2067.398726,-5704.489078
677.560592,267.996131,1110.269686,-15869.199483
677.563126,-57.427742,497.707101,-9092.725880
677.565661,-76.570323,-2182.254211,-3732.803256
677.568195,344.566454,-440.279358,-14395.220762
677.570729,-76.570323,-76.570323,-10662.417506
677.573264,-516.849682,-3254.238736,-4996.213589
677.575798,-248.853550,-1914.258080,-12787.243974
677.578332,669.990328,421.136778,-10604.989763
677.580866,-1014.556782,-191.425808,-7733.602643
677.583401,-210.568389,-1990.828403,-8901.300072
677.585944,95.712904,-1512.263883,-6910.471669
677.588488,210.568389,1607.976787,-13591.232368
677.591032,-38.285162,-2009.970984,-8173.882002
677.593576,-421.136778,-3177.668413,-6451.049730
677.596120,650.847747,-478.564520,-14069.796888
677.598663,-631.705166,-555.134843,-9418.149754
677.601207,-287.138712,-2813.959378,-6451.049730
677.603751,765.703232,631.705166,-12729.816232
677.606295,-669.990328,2009.970984,-9686.145885
677.608838,-95.712904,-2182.254211,-7197.610381
677.611382,172.283227,-1129.412267,-11294.122672
677.613926,-76.570323,267.996131,-10049.854920
677.616470,-248.853550,-2411.965181,-8652.446522
677.619014,-172.283227,-2450.250342,-9533.005238
677.621557,669.990328,-2124.826469,-8001.598774
677.624101,-153.140646,1129.412267,-14108.082050
677.626645,-823.130974,-1033.699363,-7484.749093
677.629189,937.986459,-2565.105827,-6853.043926
677.631733,-421.136778,2354.537438,-14548.361408
677.634276,-229.710970,-267.996131,-8039.883936
677.636820,937.986459,-3081.955509,-5953.342629
677.639364,229.710970,133.998066,-13878.371080
677.641908,-861.416136,-19.142581,-8977.870395
677.644451,-1110.269686,-4039.084549,-6853.043926
677.646995,631.705166,-2316.252277,-14529.218827
677.649539,-0.000000,880.558717,-8001.598774
677.652083,-727.418070,-746.560651,-7369.893608
677.654627,669.990328,-1091.127106,-12308.679454
677.657170,248.853550,1205.982590,-9092.725880
677.659714,-1148.554848,2067.398726,-13610.374949
677.662258,823.130974,-2928.814862,-9513.862658
677.664802,-344.566454,-2009.970984,-5302.494882
677.667346,-210.568389,421.136778,-13552.947206
677.669889,-631.705166,-2143.969050,-10662.417506
677.672433,172.283227,-3694.518094,-5321.637462
677.674977,440.279358,976.271621,-12232.109131
677.677521,-861.416136,957.129040,-11466.405899
677.680065,114.855485,-2086.541307,-5570.491013
677.682608,459.421939,19.142581,-11179.267187
677.685152,-650.847747,957.129040,-11600.403965
677.687702,-248.853550,-2660.818731,-7140.182638
677.690253,650.847747,-2182.254211,-9839.286531
677.692803,-421.136778,133.998066,-10968.698798
677.695353,-689.132909,-1895.115499,-12902.099459
677.697904,95.712904,-2679.961312,-6431.907149
677.700454,-0.000000,-1205.982590,-8441.878133
677.703004,-516.849682,2641.676150,-14376.078181
677.705555,459.421939,-746.560651,-6642.475538
677.708105,38.285162,-2163.111630,-6489.334891
677.710655,-478.564520,248.853550,-15658.631094
677.713206,-38.285162,-2048.256146,-7618.747158
677.715756,-38.285162,-3943.371645,-6508.477472
677.718306,153.140646,325.423874,-14356.935600
677.720857,1761.117434,-1301.695494,-6431.907149
677.723407,-1493.121302,-1933.400661,-7369.893608
677.725957,-363.709035,344.566454,-15275.779478
677.728508,612.562586,1990.828403,-7752.745224
677.731058,-593.420005,-1588.834206,-8250.452325
677.733608,-191.425808,-2584.248408,-8403.592971
677.736159,535.992262,-803.988394,-4996.213589
677.738709,-1205.982590,-172.283227,-15830.914322
677.741259,-172.283227,-4957.928427,-9092.725880
677.743810,1684.547110,-3503.092286,-3617.947771
677.746360,-899.701298,3464.807125,-16768.900781
677.748910,-0.000000,459.421939,-8059.026517
677.751461,401.994197,-995.414202,-3426.521963
677.754011,57.427742,1971.685822,-16902.898846
677.756561,-842.273555,-535.992262,-9131.011042
677.759112,478.564520,-5876.772306,-3215.953574
677.761662,287.138712,-2201.396792,-15926.627226
677.764212,-842.273555,363.709035,-9360.722011
677.766763,-0.000000,-2794.816797,-5359.922624
677.769313,-19.142581,-593.420005,-12710.673651
677.771863,555.134843,880.558717,-7523.034254
677.774414,-306.281293,2622.533570,-13189.238171
677.776964,-516.849682,-2048.256146,-7733.602643
677.779514,669.990328,-2718.246474,-6776.473603
677.782065,-593.420005,-172.283227,-14873.785282
677.784615,-516.849682,-3330.809059,-7197.610381
677.787165,555.134843,-4211.367776,-6757.331022
677.789720,-325.423874,2009.970984,-14950.355605
677.792274,-267.996131,957.129040,-8193.024582
677.794829,114.855485,-1703.689691,-5991.627790
677.797384,229.710970,1301.695494,-14184.652373
677.799938,650.847747,-172.283227,-7810.172966
677.802493,-842.273555,-4479.363907,-6738.188442
677.805047,76.570323,-2335.394858,-13706.087853
677.807602,535.992262,95.712904,-8997.012976
677.810157,-1167.697429,957.129040,-13131.810429
677.812711,-153.140646,-1646.261949,-6948.756830
677.815266,363.709035,306.281293,-7446.463931
677.817820,-612.562586,2852.244539,-15524.633029
677.820375,-765.703232,-2163.111630,-5627.918755
677.822930,76.570323,-3560.520029,-6795.616184
677.825484,861.416136,-1301.695494,-17898.313048
677.828039,-1205.982590,-1493.121302,-3522.234867
677.830593,784.845813,-3560.520029,-8078.169098
677.833148,-57.427742,2890.529701,-16366.906584
677.835702,-746.560651,2565.105827,-5340.780043
677.838257,823.130974,-3598.805190,-8499.305875
677.840812,-861.416136,-306.281293,-13629.517530
677.843366,650.847747,-516.849682,-7274.180704
677.845921,-995.414202,-3656.232933,-9188.438784
677.848475,172.283227,-3483.949706,-5723.631659
677.851030,497.707101,-803.988394,-8250.452325
677.853585,-727.418070,1895.115499,-16232.908518
677.856139,-191.425808,-1569.691626,-4326.223261
677.858694,382.851616,-1703.689691,-7714.460062
677.861248,-95.712904,1646.261949,-17745.172402
677.863803,-612.562586,-1014.556782,-2871.387120
677.866358,669.990328,-3809.373579,-8135.596840
677.868912,-153.140646,267.996131,-16845.471104
677.871467,-133.998066,-535.992262,-3885.943902
677.874021,-306.281293,-3579.662610,-9322.436850
677.876576,-76.570323,-574.277424,-14452.648504
677.879130,191.425808,535.992262,-6814.758765
677.881685,-535.992262,-2124.826469,-8499.305875
677.884240,287.138712,-689.132909,-7542.176835
677.886794,325.423874,267.996131,-7255.038123
677.889349,-612.562586,708.275490,-15428.920125
677.891906,-229.710970,-2699.103893,-5455.635528
677.894463,497.707101,-1761.117434,-6910.471669
677.897020,-440.279358,306.281293,-17611.174336
677.899577,-574.277424,-1895.115499,-4479.363907
677.902134,669.990328,-3062.812928,-6795.616184
677.904691,-1033.699363,1952.543242,-17381.463366
677.907248,-172.283227,-803.988394,-4785.645200
677.909805,784.845813,-3828.516160,-7389.036189
677.912362,-76.570323,1148.554848,-15409.777544
677.914919,-382.851616,1990.828403,-6278.766502
677.917476,-287.138712,-2545.963246,-7925.028451
677.920033,363.709035,-363.709035,-13706.087853
677.922590,172.283227,-191.425808,-7676.174901
677.925146,-1033.699363,-995.414202,-14299.507858
677.927703,267.996131,-4402.793584,-6087.340694
677.930260,-38.285162,-1818.545176,-7733.602643
677.932817,-95.712904,1473.978722,-15850.056902
677.935374,-574.277424,-210.568389,-5206.781978
677.937931,593.420005,-727.418070,-6738.188442
677.940488,-344.566454,1588.834206,-17381.463366
677.943045,-478.564520,-1416.550979,-4460.221326
677.945602,401.994197,-4479.363907,-7810.172966
677.948159,19.142581,-267.996131,-16309.478842
677.950716,-478.564520,-191.425808,-4996.213589
677.953273,191.425808,-3081.955509,-8690.731683
677.955830,248.853550,459.421939,-13954.941403
677.958387,57.427742,2220.539373,-6144.768437
677.960944,-1531.406464,382.851616,-13763.515595
677.963501,784.845813,-4115.654872,-8001.598774
677.966058,210.568389,-2526.820666,-5225.924558
677.968615,-1607.976787,267.996131,-16864.613685
677.971172,765.703232,-2392.822600,-6738.188442
677.973729,-172.283227,-1167.697429,-5685.346498
677.976286,-95.712904,1761.117434,-18166.309179
677.978843,-631.705166,306.281293,-4230.510357
677.981400,689.132909,-2067.398726,-6240.481341
677.983957,-287.138712,995.414202,-18491.733053
677.986514,-995.414202,-727.418070,-3656.232933
677.989071,880.558717,-5379.065205,-7810.172966
677.991628,-459.421939,-1282.552914,-17113.467235
677.994187,535.992262,57.427742,-4134.797453
677.996746,-535.992262,-1454.836141,-8997.012976
677.999305,133.998066,-401.994197,-8135.596840
678.001864,248.853550,1148.554848,-6029.912952
678.004423,-440.279358,-1837.687757,-15716.058837
678.006981,-133.998066,-5991.627790,-6125.625856
