#time,accel_x,accel_y,accel_z
307.497800,536.266849,-0.000000,9474.636058
307.498108,459.657299,148.041188,9696.697840
307.498417,153.219100,-0.000000,9548.656652
307.498725,306.438199,-0.000000,9474.636058
307.499033,689.485948,-0.000000,9474.636058
307.499341,995.924147,222.061783,9400.615463
307.499649,459.657299,-0.000000,9548.656652
307.499957,459.657299,222.061783,9474.636058
307.500265,536.266849,296.082377,9548.656652
307.500573,689.485948,296.082377,9474.636058
307.500881,689.485948,-0.000000,9474.636058
307.501189,306.438199,-0.000000,9770.718434
307.501497,459.657299,-296.082377,9622.677246
307.501805,306.438199,-0.000000,9992.780217
307.502113,689.485948,-222.061783,9474.636058
307.502421,689.485948,296.082377,9474.636058
307.502729,612.876398,-0.000000,9474.636058
307.503037,612.876398,-0.000000,9474.636058
307.503345,536.266849,296.082377,9548.656652
307.503653,536.266849,444.123565,9770.718434
307.503961,383.047749,-148.041188,9400.615463
307.504269,842.705048,-148.041188,9474.636058
307.504577,612.876398,370.102971,9696.697840
307.504885,459.657299,148.041188,9548.656652
307.505193,383.047749,-0.000000,9622.677246
307.505501,689.485948,148.041188,9474.636058
307.505809,459.657299,296.082377,9548.656652
307.506117,919.314598,296.082377,9548.656652
307.506425,766.095498,-0.000000,9178.553681
307.506733,689.485948,222.061783,9770.718434
307.507041,766.095498,-0.000000,9474.636058
307.507349,536.266849,148.041188,9474.636058
307.507657,612.876398,148.041188,9474.636058
307.507965,612.876398,222.061783,9696.697840
307.508273,919.314598,444.123565,9326.594869
307.508581,842.705048,-0.000000,9696.697840
307.508889,1149.143247,-296.082377,9992.780217
307.509197,919.314598,-148.041188,10288.862594
307.509505,689.485948,-666.185348,9992.780217
307.509813,919.314598,-370.102971,9770.718434
307.510121,995.924147,-444.123565,9992.780217
307.510429,919.314598,-148.041188,9992.780217
307.510737,1838.629195,-0.000000,10066.800811
307.511045,2068.457845,444.123565,9326.594869
307.511353,1838.629195,148.041188,8512.368333
307.511661,2451.505594,740.205942,9104.533087
307.511969,2374.896044,888.247130,9400.615463
307.512277,2068.457845,592.164754,9400.615463
307.512585,1532.190996,222.061783,9400.615463
307.512893,1532.190996,222.061783,9696.697840
307.513201,1685.410096,370.102971,9770.718434
307.513509,1915.238745,-0.000000,10066.800811
307.513817,1838.629195,-296.082377,9844.739029
307.514125,1838.629195,-0.000000,9844.739029
307.514433,1838.629195,-0.000000,10214.842000
307.514742,2068.457845,-74.020594,9918.759623
307.515050,2068.457845,-0.000000,9548.656652
307.515358,2604.724693,370.102971,9400.615463
307.515666,2911.162892,444.123565,9622.677246
307.515974,2451.505594,370.102971,9474.636058
307.516282,3217.601092,-0.000000,9474.636058
307.516590,2834.553343,-0.000000,9918.759623
307.516898,2374.896044,222.061783,9770.718434
307.517206,2451.505594,-0.000000,9844.739029
307.517514,2451.505594,-0.000000,9770.718434
307.517822,2528.115143,-0.000000,9770.718434
307.518130,2604.724693,-74.020594,9696.697840
307.518438,2681.334243,-74.020594,9992.780217
307.518746,3064.381992,-0.000000,10288.862594
307.519054,3064.381992,-74.020594,10140.821405
307.519362,3064.381992,-148.041188,9770.718434
307.519670,3294.210641,-0.000000,9622.677246
307.519978,3524.039291,148.041188,9474.636058
307.520286,3677.258390,222.061783,9400.615463
307.520594,4290.134789,444.123565,9104.533087
307.520902,4136.915689,444.123565,8882.471304
307.521210,4290.134789,518.144159,9474.636058
307.521518,4749.792088,-0.000000,9178.553681
307.521826,4290.134789,296.082377,9104.533087
307.522134,4213.525239,-0.000000,9252.574275
307.522442,4060.306139,-0.000000,9474.636058
307.522750,4060.306139,-0.000000,9622.677246
307.523058,4136.915689,-74.020594,9474.636058
307.523366,4290.134789,148.041188,9696.697840
307.523674,4749.792088,444.123565,9474.636058
307.523982,4366.744339,962.267725,9326.594869
307.524290,4519.963438,1184.329507,8586.388927
307.524598,4903.011187,1110.308913,9178.553681
307.524906,4903.011187,1554.432478,8512.368333
307.525214,4136.915689,1258.350101,8216.285956
307.525522,4290.134789,1406.391290,9474.636058
307.525830,3600.648841,1036.288319,10214.842000
307.526138,2911.162892,-0.000000,10436.903782
307.526446,3677.258390,666.185348,9770.718434
307.526754,2604.724693,296.082377,10140.821405
307.527062,2451.505594,296.082377,10436.903782
307.527370,2757.943793,592.164754,10362.883188
307.527678,2451.505594,814.226536,9770.718434
307.527986,2604.724693,148.041188,9696.697840
307.528294,2451.505594,592.164754,9992.780217
307.528602,2528.115143,666.185348,9770.718434
307.528910,1685.410096,-0.000000,9548.656652
307.529218,1608.800546,-74.020594,10066.800811
307.529526,1532.190996,-222.061783,10584.944971
307.529834,1149.143247,-1110.308913,10510.924376
307.530142,1378.971896,-1406.391290,10732.986159
307.530450,1838.629195,-1850.514855,10510.924376
307.530758,2145.067394,-2072.576638,10732.986159
307.531067,2834.553343,-2294.638420,10288.862594
307.531375,2374.896044,-1850.514855,10288.862594
307.531683,3217.601092,-1406.391290,9696.697840
307.531991,3907.087040,-814.226536,9178.553681
307.532299,4826.401637,-74.020594,9548.656652
307.532607,4903.011187,370.102971,8290.306550
307.532915,5056.230287,888.247130,8512.368333
307.533223,4979.620737,888.247130,7994.224174
307.533531,5056.230287,444.123565,8290.306550
307.533839,4826.401637,518.144159,8586.388927
307.534147,4443.353888,666.185348,8290.306550
307.534455,3983.696590,-0.000000,9030.512492
307.534763,3370.820191,-74.020594,9474.636058
307.535071,2987.772442,-0.000000,9918.759623
307.535379,2911.162892,-74.020594,9770.718434
307.535687,3370.820191,296.082377,9770.718434
307.535995,3830.477490,1332.370696,9474.636058
307.536303,4290.134789,1998.556043,8586.388927
307.536611,4519.963438,2738.761985,8364.327145
307.536919,4596.572988,2960.823768,8290.306550
307.537227,4519.963438,2664.741391,8882.471304
307.537535,3830.477490,1554.432478,9474.636058
307.537843,2451.505594,148.041188,10955.047942
307.538151,1378.971896,-1850.514855,11843.295072
307.538459,1149.143247,-2886.803174,12953.603985
307.538767,306.438199,-3627.009116,13249.686362
307.539075,842.705048,-3627.009116,13323.706956
307.539383,2145.067394,-3108.864956,12805.562797
307.539691,3370.820191,-1776.494261,10955.047942
307.539999,4979.620737,-296.082377,9326.594869
307.540307,7048.078582,444.123565,8660.409521
307.540615,6971.469032,2442.679609,5921.647536
307.540923,8044.002729,3627.009116,6143.709319
307.541231,7890.783629,4441.235652,5181.441594
307.541539,7124.688131,5329.482782,4885.359217
307.541847,6128.763984,4811.338623,5699.585753
307.542155,5056.230287,3923.091493,6439.791695
307.542463,3600.648841,2368.659014,7994.224174
307.542771,1838.629195,370.102971,9474.636058
307.543079,459.657299,-1036.288319,11399.171507
307.543387,-842.705048,-2812.782580,12879.583391
307.543695,-842.705048,-4071.132681,13767.830521
307.544003,-459.657299,-4663.297435,14285.974681
307.544311,0.000000,-4441.235652,13841.851115
307.544619,1455.581446,-3849.070898,13323.706956
307.544927,3370.820191,-2442.679609,11843.295072
307.545235,4673.182538,-1628.453072,10214.842000
307.545543,5898.935335,666.185348,8882.471304
307.545851,6665.030833,1258.350101,6735.874072
307.546159,6511.811733,3256.906145,6439.791695
307.546467,6665.030833,2960.823768,6439.791695
307.546775,6205.373534,4293.194464,5477.523971
307.547083,5439.278036,3108.864956,6365.771101
307.547392,4519.963438,2146.597232,6883.915261
307.547700,3447.429741,592.164754,8882.471304
307.548008,2221.676944,-2072.576638,10658.965565
307.548316,689.485948,-3775.050304,12361.439231
307.548624,0.000000,-4663.297435,14211.954086
307.548932,76.609550,-4589.276840,13545.768739
307.549240,1378.971896,-3034.844362,12731.542202
307.549548,3677.258390,-740.205942,10955.047942
307.549856,5975.544884,1702.473667,7772.162391
307.550164,7124.688131,4441.235652,5699.585753
307.550472,9422.974625,5181.441594,4885.359217
307.550780,8273.831378,7105.977043,2960.823768
307.551088,7507.735880,6143.709319,5181.441594
307.551396,6665.030833,4293.194464,7328.038826
307.551704,2145.067394,1036.288319,9400.615463
307.552012,-383.047749,-2368.659014,12213.398043
307.552320,-3294.210641,-2960.823768,14137.933492
307.552628,-4290.134789,-5107.421000,16432.571912
307.552936,-4060.306139,-6735.874072,17616.901420
307.553244,-2374.896044,-5255.462188,17542.880825
307.553552,0.000000,-3330.926739,13397.727550
307.553860,2757.943793,-518.144159,9474.636058
307.554168,5822.325785,1998.556043,7994.224174
307.554476,7048.078582,4663.297435,5033.400406
307.554784,9193.145976,5699.585753,4367.215058
307.555092,8656.879127,7031.956449,2738.761985
307.555400,8427.050478,5773.606348,3330.926739
307.555708,5362.668486,2516.700203,6069.688724
307.556016,2298.286494,-148.041188,9104.533087
307.556324,-689.485948,-3108.864956,12361.439231
307.556632,-2911.162892,-5107.421000,13915.871710
307.556940,-3140.991542,-5329.482782,14359.995275
307.557248,-1685.410096,-3849.070898,13471.748144
307.557556,1149.143247,-1554.432478,12065.356855
307.557864,4060.306139,1184.329507,9400.615463
307.558172,5056.230287,2294.638420,7476.080014
307.558480,6818.249932,4145.153275,6513.812290
307.558788,6281.983084,5033.400406,6365.771101
307.559096,5132.839837,3997.112087,7031.956449
307.559404,2987.772442,2960.823768,8068.244768
307.559712,1302.362347,-0.000000,10732.986159
307.560020,-1225.752797,-2368.659014,13027.624579
307.560328,-3524.039291,-4293.194464,14285.974681
307.560636,-4596.572988,-5181.441594,14508.036463
307.560944,-3753.867940,-4885.359217,13767.830521
307.561252,-1302.362347,-3404.947333,12509.480420
307.561560,2145.067394,-1258.350101,10140.821405
307.561868,4290.134789,-0.000000,7994.224174
307.562176,5209.449386,888.247130,6217.729913
307.562484,6818.249932,2146.597232,5773.606348
307.562792,6205.373534,2442.679609,6069.688724
307.563100,5209.449386,2960.823768,7105.977043
307.563408,3983.696590,3108.864956,7476.080014
307.563716,3140.991542,3849.070898,7254.018232
307.564024,2221.676944,3627.009116,7105.977043
307.564332,2451.505594,3404.947333,7698.141797
307.564640,2681.334243,1998.556043,8512.368333
307.564948,2145.067394,814.226536,9474.636058
307.565256,1149.143247,-1184.329507,10510.924376
307.565564,76.609550,-3330.926739,12657.521608
307.565872,-2374.896044,-4811.338623,13249.686362
307.566180,-2451.505594,-5477.523971,14211.954086
307.566487,-3294.210641,-4145.153275,13249.686362
307.566795,-2834.553343,-1998.556043,12065.356855
307.567103,-1072.533697,148.041188,10658.965565
307.567411,0.000000,2516.700203,8808.450710
307.567719,1991.848295,3627.009116,7105.977043
307.568027,3294.210641,4145.153275,6365.771101
307.568335,3600.648841,3034.844362,6439.791695
307.568643,2834.553343,1702.473667,7550.100608
307.568951,1302.362347,-444.123565,9844.739029
307.569259,-459.657299,-2590.720797,11325.150913
307.569567,-1608.800546,-2886.803174,11621.233289
307.569875,-1532.190996,-2516.700203,11251.130318
307.570183,0.000000,-666.185348,10214.842000
307.570491,1225.752797,592.164754,9178.553681
307.570799,2757.943793,1406.391290,7550.100608
307.571107,3907.087040,1702.473667,6587.832884
307.571414,3600.648841,1702.473667,6809.894666
307.571722,3064.381992,666.185348,8068.244768
307.572030,2451.505594,-0.000000,9844.739029
307.572338,-306.438199,-1480.411884,11251.130318
307.572646,-2374.896044,-1850.514855,11843.295072
307.572954,-2987.772442,-2146.597232,11843.295072
307.573262,-2911.162892,-1036.288319,12139.377449
307.573570,-1378.971896,-444.123565,11769.274478
307.573878,0.000000,814.226536,9992.780217
307.574186,612.876398,-0.000000,9400.615463
307.574494,1532.190996,-370.102971,9178.553681
307.574802,1991.848295,-0.000000,9178.553681
307.575110,2221.676944,444.123565,9548.656652
307.575418,2374.896044,814.226536,8956.491898
307.575726,2374.896044,2738.761985,8364.327145
307.576033,2528.115143,3552.988522,7920.203579
307.576341,3140.991542,3849.070898,7328.038826
307.576649,3370.820191,3849.070898,7254.018232
307.576957,3294.210641,2516.700203,7624.121203
307.577265,766.095498,370.102971,9918.759623
307.577573,76.609550,-2590.720797,12065.356855
307.577881,-1838.629195,-4145.153275,13471.748144
307.578189,-3370.820191,-4367.215058,13397.727550
307.578497,-3677.258390,-3775.050304,12361.439231
307.578805,-2911.162892,-2146.597232,12065.356855
307.579113,-1915.238745,-0.000000,10140.821405
307.579421,919.314598,2294.638420,8956.491898
307.579729,2681.334243,2738.761985,7476.080014
307.580037,2911.162892,3552.988522,5847.626942
307.580345,2911.162892,2738.761985,6513.812290
307.580653,2451.505594,1258.350101,7920.203579
307.580960,1455.581446,-74.020594,9918.759623
307.581268,383.047749,-666.185348,10214.842000
307.581576,-689.485948,-1110.308913,10140.821405
307.581884,-689.485948,-1406.391290,10288.862594
307.582192,0.000000,-370.102971,9992.780217
307.582500,2145.067394,296.082377,9474.636058
307.582808,2145.067394,-222.061783,8660.409521
307.583116,2145.067394,-666.185348,8882.471304
307.583424,1685.410096,-1406.391290,9474.636058
307.583732,919.314598,-1258.350101,10362.883188
307.584040,0.000000,-1184.329507,10510.924376
307.584348,0.000000,-444.123565,10140.821405
307.584656,-612.876398,592.164754,9622.677246
307.584964,-612.876398,1184.329507,9770.718434
307.585272,76.609550,1924.535449,9252.574275
307.585579,229.828649,2590.720797,8734.430116
307.585887,229.828649,962.267725,8586.388927
307.586195,306.438199,666.185348,9548.656652
307.586503,-306.438199,-1036.288319,11399.171507
307.586811,-459.657299,-1332.370696,11103.089130
307.587119,0.000000,-1184.329507,11991.336260
307.587427,-842.705048,-592.164754,10066.800811
307.587735,306.438199,814.226536,9770.718434
307.588043,1915.238745,2146.597232,9474.636058
307.588351,2911.162892,2960.823768,7772.162391
307.588659,3677.258390,1998.556043,7402.059420
307.588967,2987.772442,2516.700203,6735.874072
307.589275,3217.601092,-1110.308913,9622.677246
307.589583,-536.266849,-518.144159,9622.677246
307.589891,-306.438199,-1702.473667,11917.315666
307.590198,-995.924147,-1702.473667,11621.233289
307.590506,-2757.943793,-888.247130,10362.883188
307.590814,-1838.629195,-0.000000,10510.924376
307.591122,-306.438199,1332.370696,9770.718434
307.591430,459.657299,1776.494261,9030.512492
307.591738,1532.190996,1924.535449,7105.977043
307.592046,1762.019645,962.267725,8142.265362
307.592354,536.266849,-0.000000,10214.842000
307.592662,0.000000,-962.267725,11103.089130
307.592970,-383.047749,-222.061783,11251.130318
307.593278,-919.314598,-592.164754,10362.883188
307.593586,-153.219100,-296.082377,9918.759623
307.593894,766.095498,740.205942,9844.739029
307.594202,2145.067394,666.185348,9548.656652
307.594510,2221.676944,296.082377,8512.368333
307.594818,2451.505594,-0.000000,9326.594869
307.595125,1915.238745,-1258.350101,9548.656652
307.595433,229.828649,-2072.576638,10584.944971
307.595741,0.000000,-2368.659014,11769.274478
307.596049,-306.438199,-1036.288319,10214.842000
307.596357,-995.924147,666.185348,9474.636058
307.596665,0.000000,1406.391290,9400.615463
307.596973,2068.457845,3256.906145,8512.368333
307.597281,1915.238745,3849.070898,7402.059420
307.597589,2681.334243,3256.906145,7624.121203
307.597897,1762.019645,1776.494261,7846.182985
307.598205,842.705048,-0.000000,9918.759623
307.598513,76.609550,-1258.350101,11029.068536
307.598821,-306.438199,-1332.370696,10881.027347
307.599129,-766.095498,-1554.432478,11103.089130
307.599437,-689.485948,-740.205942,10288.862594
307.599744,536.266849,-0.000000,10584.944971
307.600052,1608.800546,222.061783,9548.656652
307.600360,2451.505594,444.123565,8734.430116
307.600668,2757.943793,-0.000000,8364.327145
307.600976,2145.067394,-518.144159,9474.636058
307.601284,1838.629195,-962.267725,10214.842000
307.601592,612.876398,-1184.329507,10732.986159
307.601900,153.219100,-1184.329507,11103.089130
307.602208,-536.266849,296.082377,9696.697840
307.602516,-306.438199,1554.432478,9400.615463
307.602824,153.219100,2220.617826,9326.594869
307.603132,1225.752797,2738.761985,7624.121203
307.603440,2374.896044,2516.700203,7328.038826
307.603748,1685.410096,1036.288319,7402.059420
307.604056,1378.971896,-222.061783,9104.533087
307.604364,383.047749,-1406.391290,10732.986159
307.604671,0.000000,-1628.453072,11473.192101
307.604979,-536.266849,-1184.329507,11029.068536
307.605287,-383.047749,-518.144159,9918.759623
307.605595,153.219100,444.123565,9992.780217
307.605903,1762.019645,814.226536,9622.677246
307.606211,2451.505594,1628.453072,9104.533087
307.606519,2451.505594,222.061783,9178.553681
307.606827,2221.676944,-148.041188,9400.615463
307.607135,306.438199,-1406.391290,10658.965565
307.607443,0.000000,-1924.535449,12065.356855
307.607751,-1762.019645,-1332.370696,10584.944971
307.608059,-2068.457845,-1258.350101,11177.109724
307.608367,-1225.752797,444.123565,9844.739029
307.608675,-383.047749,2072.576638,8438.347739
307.608983,689.485948,2442.679609,8956.491898
307.609290,2068.457845,2442.679609,7031.956449
307.609598,2451.505594,1998.556043,7328.038826
307.609906,1072.533697,740.205942,8586.388927
307.610214,842.705048,-296.082377,10140.821405
307.610522,459.657299,-148.041188,10658.965565
307.610830,306.438199,-222.061783,10436.903782
307.611138,-229.828649,444.123565,9622.677246
307.611446,1149.143247,370.102971,9400.615463
307.611754,1685.410096,666.185348,9770.718434
307.612062,2068.457845,740.205942,9252.574275
307.612370,2834.553343,-0.000000,8882.471304
307.612678,1302.362347,-1110.308913,9104.533087
307.612986,612.876398,-2072.576638,10658.965565
307.613294,-306.438199,-2738.761985,11843.295072
307.613602,-1685.410096,-1702.473667,11991.336260
307.613909,-1532.190996,-888.247130,11177.109724
307.614217,-689.485948,518.144159,9770.718434
307.614525,-766.095498,1480.411884,9400.615463
307.614833,766.095498,2294.638420,8586.388927
307.615141,2221.676944,2516.700203,7772.162391
307.615449,2068.457845,2294.638420,7328.038826
307.615757,1838.629195,222.061783,8142.265362
307.616065,1149.143247,-148.041188,9696.697840
307.616373,306.438199,-1036.288319,11325.150913
307.616681,76.609550,-962.267725,10288.862594
307.616989,153.219100,296.082377,9178.553681
307.617297,612.876398,888.247130,9474.636058
307.617605,1455.581446,1258.350101,9252.574275
307.617913,2681.334243,1554.432478,9178.553681
307.618221,2528.115143,1184.329507,7994.224174
307.618529,2298.286494,-740.205942,8882.471304
307.618836,383.047749,-1480.411884,10584.944971
307.619144,-229.828649,-2442.679609,12435.459826
307.619452,-1378.971896,-2368.659014,12139.377449
307.619760,-1762.019645,-666.185348,10288.862594
307.620068,-1838.629195,-74.020594,10066.800811
307.620376,-689.485948,1110.308913,9474.636058
307.620684,919.314598,2294.638420,9030.512492
307.620992,1149.143247,2368.659014,7550.100608
307.621300,1378.971896,2072.576638,7698.141797
307.621608,919.314598,592.164754,9030.512492
307.621916,229.828649,-148.041188,9992.780217
307.622224,229.828649,-0.000000,10658.965565
307.622532,153.219100,-0.000000,9918.759623
307.622840,76.609550,814.226536,9326.594869
307.623148,842.705048,1110.308913,9474.636058
307.623455,1455.581446,1480.411884,9548.656652
307.623763,1991.848295,962.267725,9622.677246
307.624071,2221.676944,-0.000000,9030.512492
307.624379,2145.067394,-1110.308913,9474.636058
307.624687,76.609550,-2146.597232,10584.944971
307.624995,-153.219100,-2812.782580,12065.356855
307.625303,-1685.410096,-1998.556043,11325.150913
307.625611,-1302.362347,-962.267725,10955.047942
307.625919,-383.047749,-222.061783,9992.780217
307.626227,0.000000,1850.514855,8660.409521
307.626535,1378.971896,2368.659014,8808.450710
307.626843,1532.190996,3034.844362,7105.977043
307.627151,2298.286494,2590.720797,7105.977043
307.627459,2068.457845,1258.350101,7772.162391
307.627767,1378.971896,296.082377,9474.636058
307.628074,612.876398,-666.185348,10732.986159
307.628382,-306.438199,-962.267725,11029.068536
307.628690,0.000000,-370.102971,10066.800811
307.628998,-689.485948,-296.082377,10436.903782
307.629306,766.095498,222.061783,10807.006753
307.629614,1378.971896,740.205942,9770.718434
307.629922,1991.848295,222.061783,9030.512492
307.630230,1685.410096,-1036.288319,8882.471304
307.630538,1455.581446,-1406.391290,10066.800811
307.630846,0.000000,-1998.556043,11399.171507
307.631154,-153.219100,-1702.473667,11695.253884
307.631462,-229.828649,-296.082377,10510.924376
307.631770,-1225.752797,148.041188,8660.409521
307.632078,-306.438199,1776.494261,9030.512492
307.632386,1685.410096,2590.720797,8216.285956
307.632694,2145.067394,2960.823768,7328.038826
307.633001,2298.286494,2294.638420,6809.894666
307.633309,2221.676944,1036.288319,7698.141797
307.633617,1455.581446,-0.000000,9918.759623
307.633925,383.047749,-1110.308913,11103.089130
307.634233,-153.219100,-1480.411884,11325.150913
307.634541,-536.266849,-296.082377,10140.821405
307.634849,76.609550,148.041188,9992.780217
307.635157,1149.143247,888.247130,9844.739029
307.635465,1685.410096,1480.411884,9474.636058
307.635773,1762.019645,444.123565,8882.471304
307.636081,1915.238745,-0.000000,9326.594869
307.636389,383.047749,-1406.391290,11325.150913
307.636697,0.000000,-2146.597232,11621.233289
307.637005,-1072.533697,-2294.638420,11621.233289
307.637313,-1532.190996,-1332.370696,11177.109724
307.637620,-1532.190996,-222.061783,10214.842000
307.637928,-459.657299,1406.391290,9326.594869
307.638236,766.095498,2516.700203,8956.491898
307.638544,1991.848295,2886.803174,7772.162391
307.638852,2221.676944,2146.597232,6661.853478
307.639160,1991.848295,1332.370696,7772.162391
307.639468,1532.190996,444.123565,9252.574275
307.639776,1072.533697,-0.000000,9918.759623
307.640084,459.657299,-0.000000,10066.800811
307.640392,0.000000,-0.000000,10066.800811
307.640700,0.000000,592.164754,10288.862594
307.641008,842.705048,1036.288319,9622.677246
307.641316,1762.019645,1184.329507,9548.656652
307.641624,1838.629195,296.082377,9104.533087
307.641932,1149.143247,-592.164754,9178.553681
307.642240,153.219100,-2294.638420,11177.109724
307.642547,-995.924147,-2812.782580,12065.356855
307.642855,-2145.067394,-2590.720797,13101.645173
307.643163,-1762.019645,-1998.556043,12139.377449
307.643471,-1838.629195,-0.000000,10214.842000
307.643779,-842.705048,1036.288319,9622.677246
307.644087,1455.581446,2812.782580,8512.368333
307.644395,1838.629195,3627.009116,6809.894666
307.644703,2757.943793,2886.803174,6661.853478
307.645011,2757.943793,2072.576638,7031.956449
307.645319,2145.067394,740.205942,8512.368333
307.645627,1225.752797,-444.123565,9918.759623
307.645935,689.485948,-592.164754,10584.944971
307.646243,-536.266849,-444.123565,10214.842000
307.646551,-536.266849,-0.000000,10288.862594
307.646859,229.828649,814.226536,10140.821405
307.647166,1225.752797,1036.288319,9844.739029
307.647474,1991.848295,370.102971,9104.533087
307.647782,1608.800546,-444.123565,8956.491898
307.648090,1149.143247,-1554.432478,10732.986159
307.648398,0.000000,-2738.761985,11991.336260
307.648706,-536.266849,-2442.679609,12287.418637
307.649014,-1072.533697,-2072.576638,10732.986159
307.649322,-1455.581446,-222.061783,9844.739029
307.649630,-842.705048,962.267725,9326.594869
307.649938,536.266849,2220.617826,9400.615463
307.650246,1685.410096,2590.720797,8290.306550
307.650554,2298.286494,2738.761985,7550.100608
307.650862,2068.457845,1332.370696,7920.203579
307.651170,1685.410096,-0.000000,8882.471304
307.651478,1378.971896,-370.102971,10214.842000
307.651785,842.705048,-444.123565,9770.718434
307.652093,306.438199,222.061783,9474.636058
307.652401,612.876398,740.205942,9326.594869
307.652709,1455.581446,1480.411884,9030.512492
307.653017,1915.238745,1332.370696,9474.636058
307.653325,2681.334243,666.185348,8290.306550
307.653633,1915.238745,-296.082377,8290.306550
307.653941,459.657299,-1184.329507,10214.842000
307.654249,-306.438199,-2812.782580,11917.315666
307.654557,-1608.800546,-2368.659014,12361.439231
307.654865,-1762.019645,-2368.659014,12657.521608
307.655173,-1608.800546,-1184.329507,10732.986159
307.655481,-1532.190996,592.164754,9622.677246
307.655789,76.609550,1850.514855,10510.924376
307.656097,2145.067394,2886.803174,7698.141797
307.656405,2987.772442,3330.926739,7105.977043
307.656712,2757.943793,1702.473667,7105.977043
307.657020,2451.505594,1332.370696,7105.977043
307.657328,1685.410096,444.123565,8808.450710
307.657636,536.266849,-148.041188,9844.739029
307.657944,229.828649,-0.000000,9178.553681
307.658252,1072.533697,222.061783,8882.471304
307.658560,383.047749,666.185348,9770.718434
307.658868,1302.362347,444.123565,9548.656652
307.659176,1991.848295,518.144159,9770.718434
307.659484,1225.752797,-518.144159,9326.594869
307.659792,689.485948,-2146.597232,10362.883188
307.660100,-612.876398,-3108.864956,12361.439231
307.660408,-995.924147,-2812.782580,12879.583391
307.660716,-1302.362347,-2590.720797,11695.253884
307.661024,-1838.629195,-740.205942,10362.883188
307.661331,-1225.752797,444.123565,9844.739029
307.661639,306.438199,2368.659014,8586.388927
307.661947,1455.581446,2886.803174,8290.306550
307.662255,2145.067394,2664.741391,7179.997637
307.662563,2145.067394,2146.597232,7105.977043
307.662871,2221.676944,1184.329507,8660.409521
307.663179,1072.533697,-0.000000,9548.656652
307.663487,536.266849,-592.164754,10510.924376
307.663795,0.000000,518.144159,9918.759623
307.664103,153.219100,888.247130,9622.677246
307.664411,306.438199,1628.453072,9548.656652
307.664719,995.924147,1554.432478,10066.800811
307.665027,2298.286494,1110.308913,9548.656652
307.665335,1838.629195,518.144159,8364.327145
307.665643,995.924147,-814.226536,10066.800811
307.665951,-612.876398,-2812.782580,11843.295072
307.666259,-919.314598,-2368.659014,12879.583391
307.666567,-1915.238745,-2368.659014,12065.356855
307.666875,-2374.896044,-814.226536,10658.965565
307.667183,-1455.581446,444.123565,9770.718434
307.667492,-153.219100,1258.350101,9992.780217
307.667800,919.314598,2738.761985,8734.430116
307.668108,2374.896044,2368.659014,7328.038826
307.668416,2298.286494,2220.617826,7402.059420
307.668724,1915.238745,666.185348,8290.306550
307.669032,1378.971896,148.041188,9252.574275
307.669340,1225.752797,-0.000000,9474.636058
307.669648,1072.533697,740.205942,9030.512492
307.669956,689.485948,1036.288319,8808.450710
307.670264,1915.238745,1110.308913,9474.636058
307.670572,1991.848295,1850.514855,8882.471304
307.670880,2757.943793,1332.370696,8660.409521
307.671188,1608.800546,-444.123565,8438.347739
307.671496,919.314598,-1776.494261,9918.759623
307.671804,-842.705048,-3182.885551,11843.295072
307.672112,-1838.629195,-4293.194464,13323.706956
307.672420,-2221.676944,-3034.844362,12435.459826
307.672728,-2604.724693,-1628.453072,11029.068536
307.673036,-689.485948,-592.164754,10510.924376
307.673344,229.828649,1036.288319,9104.533087
307.673652,995.924147,2812.782580,8068.244768
307.673960,2145.067394,1998.556043,7846.182985
307.674269,2911.162892,2072.576638,7328.038826
307.674577,1762.019645,1184.329507,8216.285956
307.674885,1838.629195,-222.061783,8956.491898
307.675193,1455.581446,-0.000000,9030.512492
307.675501,536.266849,370.102971,9622.677246
307.675809,919.314598,370.102971,9104.533087
307.676117,689.485948,1480.411884,8512.368333
307.676425,1378.971896,1258.350101,9104.533087
307.676733,2068.457845,1480.411884,8438.347739
307.677041,2451.505594,222.061783,8438.347739
307.677349,1072.533697,-1110.308913,9992.780217
307.677657,383.047749,-2664.741391,11695.253884
307.677965,-689.485948,-2664.741391,12139.377449
307.678273,-2145.067394,-2590.720797,12509.480420
307.678581,-2145.067394,-1406.391290,11103.089130
307.678889,-1378.971896,518.144159,10362.883188
307.679197,-689.485948,1628.453072,10066.800811
307.679505,766.095498,2368.659014,8512.368333
307.679813,2374.896044,2442.679609,7920.203579
307.680121,2681.334243,2220.617826,8068.244768
307.680429,2298.286494,888.247130,8068.244768
307.680737,1608.800546,-0.000000,9326.594869
307.681046,842.705048,-518.144159,10510.924376
307.681354,306.438199,296.082377,9548.656652
307.681662,-383.047749,814.226536,9770.718434
307.681970,689.485948,1554.432478,9548.656652
307.682278,1838.629195,1554.432478,8956.491898
307.682586,2681.334243,1628.453072,8438.347739
307.682894,2987.772442,296.082377,8290.306550
307.683202,1838.629195,-296.082377,8882.471304
307.683510,306.438199,-2072.576638,11029.068536
307.683818,-689.485948,-2590.720797,12435.459826
307.684126,-1991.848295,-2368.659014,12065.356855
307.684434,-2451.505594,-1184.329507,11769.274478
307.684742,-1991.848295,-148.041188,10436.903782
307.685050,-383.047749,666.185348,9992.780217
307.685358,229.828649,1702.473667,9400.615463
307.685666,1072.533697,1776.494261,7994.224174
307.685974,2451.505594,1850.514855,7105.977043
307.686282,1915.238745,444.123565,8216.285956
307.686590,1608.800546,148.041188,9252.574275
307.686898,1149.143247,-148.041188,9696.697840
307.687206,536.266849,296.082377,9696.697840
307.687514,76.609550,370.102971,9326.594869
307.687823,1685.410096,1184.329507,9178.553681
307.688131,766.095498,1184.329507,9252.574275
307.688439,2068.457845,1110.308913,8882.471304
307.688747,2604.724693,-0.000000,8142.265362
307.689055,1225.752797,-592.164754,9104.533087
307.689363,0.000000,-2368.659014,10732.986159
307.689671,-536.266849,-2886.803174,11917.315666
307.689979,-2298.286494,-2516.700203,12657.521608
307.690287,-2221.676944,-2294.638420,11769.274478
307.690595,-1608.800546,-518.144159,10807.006753
307.690903,-1302.362347,1184.329507,10436.903782
307.691211,612.876398,1332.370696,9326.594869
307.691519,1532.190996,2590.720797,7254.018232
307.691827,3064.381992,1924.535449,8142.265362
307.692135,2298.286494,592.164754,7698.141797
307.692443,2298.286494,518.144159,8512.368333
307.692751,1072.533697,-74.020594,9992.780217
307.693059,1225.752797,222.061783,9252.574275
307.693367,995.924147,962.267725,9474.636058
307.693675,536.266849,1480.411884,9104.533087
307.693983,1685.410096,1258.350101,8956.491898
307.694291,2451.505594,1702.473667,8142.265362
307.694600,2911.162892,888.247130,8660.409521
307.694908,1991.848295,-148.041188,8808.450710
307.695216,842.705048,-2072.576638,11325.150913
307.695524,-995.924147,-2516.700203,13323.706956
307.695832,-1762.019645,-2442.679609,12509.480420
307.696140,-2145.067394,-1406.391290,12139.377449
307.696448,-2221.676944,-740.205942,10955.047942
307.696756,-1225.752797,962.267725,9918.759623
307.697064,612.876398,1998.556043,9548.656652
307.697372,2298.286494,2294.638420,7920.203579
307.697680,1915.238745,1998.556043,7624.121203
307.697988,2374.896044,888.247130,7846.182985
307.698296,2145.067394,296.082377,9252.574275
307.698604,612.876398,148.041188,9474.636058
307.698912,612.876398,-0.000000,9918.759623
307.699220,383.047749,1258.350101,9326.594869
307.699528,383.047749,1332.370696,9252.574275
307.699836,1608.800546,2368.659014,8660.409521
307.700144,2911.162892,1702.473667,9104.533087
307.700452,2374.896044,1036.288319,8290.306550
307.700760,2145.067394,222.061783,8438.347739
307.701069,995.924147,-1258.350101,10584.944971
307.701377,-766.095498,-2368.659014,11843.295072
307.701685,-1532.190996,-2590.720797,12435.459826
307.701993,-1915.238745,-2294.638420,11473.192101
307.702301,-2911.162892,-962.267725,10436.903782
307.702609,-1608.800546,-222.061783,11103.089130
307.702917,0.000000,666.185348,10214.842000
307.703225,153.219100,1554.432478,8882.471304
307.703533,1302.362347,962.267725,8142.265362
307.703841,1378.971896,444.123565,7920.203579
307.704149,919.314598,-0.000000,8808.450710
307.704457,1225.752797,-518.144159,9992.780217
307.704765,76.609550,222.061783,9474.636058
307.705073,229.828649,592.164754,9992.780217
307.705381,1378.971896,1332.370696,8660.409521
307.705689,1608.800546,2072.576638,8142.265362
307.705997,1915.238745,1628.453072,8290.306550
307.706305,2757.943793,1258.350101,7772.162391
307.706613,2298.286494,370.102971,7772.162391
307.706921,689.485948,-1332.370696,9400.615463
307.707229,0.000000,-2516.700203,12213.398043
307.707537,-995.924147,-2886.803174,11695.253884
307.707846,-2451.505594,-1850.514855,11843.295072
307.708154,-1915.238745,-1110.308913,10732.986159
307.708462,-1532.190996,666.185348,10066.800811
307.708770,-306.438199,1480.411884,10140.821405
307.709078,1225.752797,1850.514855,8586.388927
307.709386,2145.067394,1702.473667,8068.244768
307.709694,1838.629195,888.247130,7994.224174
307.710002,1685.410096,-0.000000,9030.512492
307.710310,766.095498,-370.102971,10658.965565
307.710618,0.000000,-666.185348,10807.006753
307.710926,-306.438199,-0.000000,10140.821405
307.711234,536.266849,814.226536,8956.491898
307.711542,1072.533697,2072.576638,8586.388927
307.711850,2911.162892,1184.329507,9178.553681
307.712158,3064.381992,1406.391290,7550.100608
307.712466,3294.210641,666.185348,8216.285956
307.712774,1991.848295,-666.185348,8734.430116
307.713082,306.438199,-1480.411884,10807.006753
307.713390,0.000000,-2072.576638,12583.501014
307.713698,-1762.019645,-888.247130,10436.903782
307.714006,-1072.533697,-74.020594,10510.924376
307.714314,-842.705048,370.102971,10066.800811
307.714623,0.000000,1998.556043,9770.718434
307.714931,1532.190996,1554.432478,8808.450710
307.715239,1991.848295,1480.411884,8586.388927
307.715547,1838.629195,740.205942,8438.347739
307.715855,1838.629195,-444.123565,9104.533087
307.716163,1225.752797,-296.082377,10288.862594
307.716471,1072.533697,-814.226536,11103.089130
307.716779,919.314598,370.102971,9326.594869
307.717087,919.314598,1480.411884,9104.533087
307.717395,1378.971896,1776.494261,8734.430116
307.717703,2145.067394,1628.453072,8808.450710
307.718011,2987.772442,1554.432478,8438.347739
307.718319,2528.115143,-0.000000,8364.327145
307.718627,1072.533697,-740.205942,9400.615463
307.718935,-459.657299,-2146.597232,11473.192101
307.719243,-995.924147,-2664.741391,12139.377449
307.719551,-2451.505594,-2220.617826,11547.212695
307.719859,-2221.676944,-1036.288319,11473.192101
307.720167,-1991.848295,-0.000000,10584.944971
307.720475,-689.485948,1184.329507,9622.677246
307.720783,1149.143247,1850.514855,8882.471304
307.721091,2451.505594,2368.659014,7254.018232
307.721400,2911.162892,1554.432478,7105.977043
307.721708,1762.019645,148.041188,8808.450710
307.722016,1838.629195,-74.020594,9622.677246
307.722324,1685.410096,-518.144159,9992.780217
307.722632,536.266849,444.123565,9622.677246
307.722940,383.047749,1110.308913,8438.347739
307.723248,919.314598,740.205942,9474.636058
307.723556,1378.971896,1332.370696,9400.615463
307.723864,2145.067394,296.082377,8660.409521
307.724172,2451.505594,-0.000000,8438.347739
307.724480,689.485948,-1628.453072,9918.759623
307.724788,-306.438199,-2516.700203,11177.109724
307.725096,-1532.190996,-2516.700203,12583.501014
307.725404,-2374.896044,-1702.473667,11399.171507
307.725712,-1991.848295,-222.061783,10214.842000
307.726020,-2068.457845,666.185348,9696.697840
307.726328,-383.047749,1850.514855,10214.842000
307.726636,919.314598,2294.638420,8882.471304
307.726944,2374.896044,1628.453072,7254.018232
307.727252,2145.067394,1184.329507,8290.306550
307.727560,1225.752797,-0.000000,8808.450710
307.727869,612.876398,-962.267725,10140.821405
307.728177,459.657299,-962.267725,10732.986159
307.728485,76.609550,-0.000000,9696.697840
307.728793,766.095498,370.102971,9326.594869
307.729101,1302.362347,1110.308913,8882.471304
307.729409,2681.334243,1924.535449,8438.347739
307.729717,3217.601092,1628.453072,7920.203579
307.730025,3677.258390,1110.308913,7994.224174
307.730333,1685.410096,-296.082377,8808.450710
307.730641,383.047749,-1554.432478,10658.965565
307.730949,-1302.362347,-2146.597232,11843.295072
307.731257,-2451.505594,-2072.576638,11769.274478
307.731565,-2757.943793,-1184.329507,11843.295072
307.731873,-2987.772442,222.061783,10881.027347
307.732181,-1608.800546,296.082377,11695.253884
307.732489,0.000000,1258.350101,10066.800811
307.732797,919.314598,1776.494261,8512.368333
307.733105,1378.971896,1258.350101,8142.265362
307.733413,1455.581446,222.061783,9178.553681
307.733721,1225.752797,-444.123565,9918.759623
307.734029,76.609550,148.041188,9770.718434
307.734337,1149.143247,518.144159,9844.739029
307.734646,1532.190996,1036.288319,8808.450710
307.734954,1608.800546,1850.514855,8734.430116
307.735262,2528.115143,1702.473667,8956.491898
307.735570,2987.772442,1332.370696,8142.265362
307.735878,3217.601092,592.164754,8216.285956
307.736186,1608.800546,-888.247130,8660.409521
307.736494,1149.143247,-2072.576638,10510.924376
307.736802,-1149.143247,-2294.638420,11917.315666
307.737110,-842.705048,-2072.576638,12361.439231
307.737418,-1838.629195,-592.164754,10140.821405
307.737726,-1762.019645,888.247130,10214.842000
307.738034,-459.657299,1480.411884,10510.924376
307.738342,536.266849,2442.679609,8882.471304
307.738650,1608.800546,2220.617826,8660.409521
307.738958,2145.067394,814.226536,8142.265362
307.739266,995.924147,370.102971,8808.450710
307.739574,459.657299,-1258.350101,10584.944971
307.739882,306.438199,-962.267725,10881.027347
307.740190,76.609550,-222.061783,10140.821405
307.740498,76.609550,-222.061783,9918.759623
307.740806,766.095498,814.226536,9252.574275
307.741114,2145.067394,962.267725,9252.574275
307.741423,3217.601092,1184.329507,8438.347739
307.741731,2604.724693,1110.308913,7328.038826
307.742039,1838.629195,-296.082377,8512.368333
307.742347,1072.533697,-1480.411884,10436.903782
307.742655,0.000000,-1184.329507,11177.109724
307.742963,-1149.143247,-814.226536,10955.047942
307.743271,-1455.581446,-0.000000,10214.842000
307.743579,-1685.410096,740.205942,10436.903782
307.743887,-1225.752797,1036.288319,10436.903782
307.744195,-153.219100,1998.556043,9696.697840
307.744503,1915.238745,1702.473667,8068.244768
307.744811,1915.238745,1258.350101,7920.203579
307.745119,1225.752797,-0.000000,8882.471304
307.745427,1149.143247,-814.226536,9844.739029
307.745735,0.000000,-1184.329507,10732.986159
307.746043,306.438199,-518.144159,10288.862594
307.746351,153.219100,-0.000000,9918.759623
307.746659,536.266849,592.164754,10066.800811
307.746967,1532.190996,962.267725,9400.615463
307.747275,2451.505594,1036.288319,8438.347739
307.747583,2757.943793,814.226536,8290.306550
307.747891,1991.848295,-888.247130,8734.430116
307.748200,536.266849,-1702.473667,10288.862594
307.748508,-306.438199,-2442.679609,11843.295072
307.748816,-919.314598,-1924.535449,11251.130318
307.749124,-2068.457845,-1110.308913,9548.656652
307.749432,-1762.019645,-0.000000,9844.739029
307.749740,-306.438199,814.226536,9474.636058
307.750048,383.047749,2146.597232,8290.306550
307.750356,1991.848295,2294.638420,7550.100608
307.750664,2374.896044,1554.432478,7254.018232
307.750972,1838.629195,888.247130,7772.162391
307.751280,1762.019645,222.061783,9622.677246
307.751588,919.314598,-0.000000,10510.924376
307.751896,0.000000,-518.144159,10807.006753
307.752204,-383.047749,-222.061783,10140.821405
307.752512,76.609550,370.102971,10510.924376
307.752820,842.705048,740.205942,10362.883188
307.753128,1608.800546,1036.288319,9474.636058
307.753436,2221.676944,518.144159,8142.265362
307.753744,1915.238745,-74.020594,9770.718434
307.754052,612.876398,-1258.350101,10658.965565
307.754360,-536.266849,-1554.432478,11103.089130
307.754668,-919.314598,-1628.453072,12065.356855
307.754977,-1149.143247,-666.185348,10732.986159
307.755285,-1838.629195,962.267725,10140.821405
307.755593,-306.438199,1480.411884,10140.821405
307.755901,766.095498,2294.638420,9030.512492
307.756209,1608.800546,2516.700203,7994.224174
307.756517,2528.115143,1776.494261,7328.038826
307.756825,2221.676944,1258.350101,8142.265362
307.757133,1608.800546,222.061783,9622.677246
307.757441,842.705048,-370.102971,9622.677246
307.757749,612.876398,370.102971,10066.800811
307.758057,689.485948,370.102971,9918.759623
307.758365,919.314598,1332.370696,9326.594869
307.758673,1838.629195,1554.432478,9326.594869
307.758981,2911.162892,1332.370696,9178.553681
307.759289,2221.676944,1406.391290,8956.491898
307.759597,2145.067394,-518.144159,10066.800811
307.759905,383.047749,-1628.453072,10066.800811
307.760213,-842.705048,-2146.597232,11695.253884
307.760521,-1149.143247,-2738.761985,12361.439231
307.760829,-2528.115143,-1924.535449,11103.089130
307.761137,-2604.724693,-296.082377,10807.006753
307.761446,-1532.190996,-0.000000,10658.965565
307.761754,-76.609550,1258.350101,9622.677246
307.762062,842.705048,1776.494261,7994.224174
307.762370,2068.457845,1776.494261,7624.121203
307.762678,2221.676944,962.267725,7402.059420
307.762986,1685.410096,-222.061783,8438.347739
307.763294,1149.143247,-518.144159,9474.636058
307.763602,383.047749,-148.041188,9178.553681
307.763910,689.485948,-0.000000,9104.533087
307.764218,306.438199,888.247130,9400.615463
307.764526,1608.800546,1184.329507,8956.491898
307.764834,1762.019645,1258.350101,9030.512492
307.765142,1915.238745,296.082377,8660.409521
307.765450,2374.896044,-888.247130,9030.512492
307.765758,766.095498,-1628.453072,10584.944971
307.766066,-612.876398,-2812.782580,11473.192101
307.766375,-1608.800546,-2590.720797,11473.192101
307.766683,-2604.724693,-1702.473667,11547.212695
307.766991,-2221.676944,-370.102971,10584.944971
307.767299,-766.095498,1702.473667,9104.533087
307.767607,383.047749,2146.597232,8660.409521
307.767915,1608.800546,2812.782580,7550.100608
307.768223,2528.115143,2738.761985,7846.182985
307.768531,2221.676944,1702.473667,7624.121203
307.768839,1762.019645,222.061783,9326.594869
307.769147,1225.752797,-444.123565,10140.821405
307.769455,383.047749,-444.123565,10288.862594
307.769763,0.000000,-296.082377,10214.842000
307.770071,153.219100,370.102971,9474.636058
307.770379,919.314598,888.247130,10214.842000
307.770687,1762.019645,888.247130,9548.656652
307.770996,1762.019645,740.205942,9178.553681
307.771304,2068.457845,-0.000000,9326.594869
307.771612,1532.190996,-1480.411884,10140.821405
307.771920,612.876398,-1850.514855,10881.027347
307.772228,-1225.752797,-1850.514855,11547.212695
307.772536,-995.924147,-1628.453072,11843.295072
307.772844,-1225.752797,-0.000000,9696.697840
307.773152,-1378.971896,1406.391290,9474.636058
307.773460,689.485948,1628.453072,9918.759623
307.773768,1302.362347,3182.885551,7772.162391
307.774076,3140.991542,2590.720797,7402.059420
307.774384,2604.724693,1998.556043,7402.059420
307.774692,2068.457845,370.102971,8956.491898
307.775000,995.924147,-296.082377,10140.821405
307.775309,1225.752797,-74.020594,10288.862594
307.775617,536.266849,-148.041188,10436.903782
307.775925,-153.219100,592.164754,9474.636058
307.776233,919.314598,888.247130,10436.903782
307.776541,1762.019645,1258.350101,10140.821405
307.776849,2528.115143,740.205942,9252.574275
307.777157,2221.676944,-0.000000,8586.388927
307.777465,1149.143247,-1184.329507,9770.718434
307.777773,-766.095498,-2442.679609,11695.253884
307.778081,-1149.143247,-2664.741391,11917.315666
307.778389,-1991.848295,-1924.535449,11251.130318
307.778697,-2374.896044,-1036.288319,10510.924376
307.779005,-1685.410096,-0.000000,9992.780217
307.779313,-229.828649,2146.597232,9548.656652
307.779621,1225.752797,2368.659014,7994.224174
307.779930,2451.505594,2664.741391,7105.977043
307.780238,2757.943793,1998.556043,7105.977043
307.780546,2911.162892,1184.329507,7698.141797
307.780854,1762.019645,-0.000000,9474.636058
307.781162,1149.143247,-740.205942,9918.759623
307.781470,0.000000,-74.020594,10066.800811
307.781778,-229.828649,-0.000000,9770.718434
307.782086,0.000000,296.082377,9918.759623
307.782394,1302.362347,888.247130,9474.636058
307.782702,2451.505594,888.247130,9104.533087
307.783010,1762.019645,-444.123565,9252.574275
307.783318,842.705048,-1702.473667,9918.759623
307.783626,-459.657299,-3256.906145,11399.171507
307.783934,-2068.457845,-2664.741391,12731.542202
307.784243,-2298.286494,-2072.576638,11399.171507
307.784551,-1991.848295,-370.102971,10510.924376
307.784859,-1455.581446,592.164754,9992.780217
307.785167,-306.438199,1998.556043,9326.594869
307.785475,1838.629195,2368.659014,8216.285956
307.785783,2757.943793,2738.761985,7179.997637
307.786091,2834.553343,1924.535449,6439.791695
307.786399,2451.505594,592.164754,8142.265362
307.786707,1762.019645,-0.000000,9474.636058
307.787015,995.924147,-222.061783,9400.615463
307.787323,689.485948,222.061783,8956.491898
307.787631,229.828649,444.123565,9252.574275
307.787939,1302.362347,1036.288319,9548.656652
307.788247,1532.190996,1184.329507,9696.697840
307.788555,2451.505594,1110.308913,9474.636058
307.788864,1838.629195,-0.000000,8882.471304
307.789172,1225.752797,-666.185348,10584.944971
307.789480,0.000000,-1998.556043,11843.295072
307.789788,-1149.143247,-2220.617826,12435.459826
307.790096,-1762.019645,-1924.535449,11769.274478
307.790404,-2451.505594,-1110.308913,11103.089130
307.790712,-1608.800546,222.061783,10807.006753
307.791020,-536.266849,1258.350101,9326.594869
307.791328,1225.752797,1850.514855,9252.574275
307.791636,2068.457845,2590.720797,7550.100608
307.791944,1915.238745,2146.597232,7550.100608
307.792252,3064.381992,-148.041188,9548.656652
307.792560,995.924147,-0.000000,8068.244768
307.792868,1302.362347,-592.164754,10510.924376
307.793177,459.657299,-740.205942,9696.697840
307.793485,153.219100,666.185348,9400.615463
307.793793,459.657299,1036.288319,9474.636058
307.794101,2298.286494,1924.535449,9474.636058
307.794409,2451.505594,1406.391290,8808.450710
307.794717,2221.676944,1110.308913,8142.265362
307.795025,2374.896044,-666.185348,10140.821405
307.795333,0.000000,-1406.391290,10214.842000
307.795641,-842.705048,-2590.720797,12065.356855
307.795949,-2528.115143,-1480.411884,11843.295072
307.796257,-2221.676944,-1184.329507,10584.944971
307.796565,-2221.676944,370.102971,9770.718434
307.796873,-536.266849,1554.432478,9548.656652
307.797181,1302.362347,2072.576638,8882.471304
307.797489,1149.143247,1406.391290,7328.038826
307.797798,1455.581446,1554.432478,8068.244768
307.798106,1838.629195,-0.000000,8808.450710
307.798414,459.657299,-962.267725,10214.842000
307.798722,459.657299,-1036.288319,10881.027347
307.799030,0.000000,-370.102971,10214.842000
307.799338,-306.438199,-0.000000,9770.718434
307.799646,689.485948,888.247130,9104.533087
307.799954,2068.457845,1628.453072,9696.697840
307.800262,2298.286494,962.267725,8512.368333
307.800570,2757.943793,592.164754,8142.265362
307.800878,2298.286494,-888.247130,8882.471304
307.801186,536.266849,-1924.535449,10881.027347
307.801494,-1532.190996,-2072.576638,10510.924376
307.801802,-842.705048,-2368.659014,12509.480420
307.802111,-2145.067394,-888.247130,9622.677246
307.802419,-1685.410096,222.061783,8956.491898
307.802727,-306.438199,740.205942,9992.780217
307.803035,612.876398,2590.720797,7402.059420
307.803343,2451.505594,2220.617826,8290.306550
307.803651,2911.162892,2664.741391,6661.853478
307.803959,2145.067394,740.205942,8290.306550
307.804267,1762.019645,-296.082377,9326.594869
307.804575,1302.362347,-0.000000,9992.780217
307.804883,766.095498,-592.164754,10658.965565
307.805191,-153.219100,-0.000000,9474.636058
307.805499,1072.533697,666.185348,10362.883188
307.805807,766.095498,518.144159,9696.697840
307.806115,1762.019645,1110.308913,9030.512492
307.806423,2528.115143,592.164754,9030.512492
307.806732,1455.581446,-296.082377,8734.430116
307.807040,536.266849,-2220.617826,11399.171507
307.807348,-1302.362347,-2368.659014,12065.356855
307.807656,-1838.629195,-2590.720797,12879.583391
307.807964,-2757.943793,-1776.494261,11103.089130
307.808272,-1378.971896,-0.000000,10362.883188
307.808580,-306.438199,1258.350101,9548.656652
307.808888,766.095498,2516.700203,8364.327145
307.809196,2681.334243,2960.823768,7624.121203
307.809504,3064.381992,2738.761985,7031.956449
307.809812,2681.334243,1184.329507,7624.121203
307.810120,2298.286494,888.247130,8586.388927
307.810428,1762.019645,74.020594,9770.718434
307.810736,919.314598,-148.041188,9696.697840
307.811044,153.219100,592.164754,9474.636058
307.811353,459.657299,740.205942,10066.800811
307.811661,536.266849,740.205942,10140.821405
307.811969,1455.581446,740.205942,10288.862594
307.812277,2068.457845,222.061783,9474.636058
307.812585,766.095498,-1036.288319,9918.759623
307.812893,-229.828649,-1850.514855,11399.171507
307.813201,-1072.533697,-2664.741391,12879.583391
307.813509,-2451.505594,-2368.659014,12435.459826
307.813817,-2604.724693,-1406.391290,11103.089130
307.814125,-1838.629195,-74.020594,11177.109724
307.814433,-1838.629195,888.247130,10140.821405
307.814741,919.314598,1776.494261,9844.739029
307.815049,1302.362347,2738.761985,7550.100608
307.815357,2221.676944,2072.576638,7254.018232
307.815666,2528.115143,1184.329507,7550.100608
307.815974,2298.286494,814.226536,8512.368333
307.816282,1838.629195,-0.000000,9474.636058
307.816590,1532.190996,370.102971,8290.306550
307.816898,2145.067394,1406.391290,8882.471304
307.817206,2068.457845,1110.308913,8808.450710
307.817514,1685.410096,1554.432478,8586.388927
307.817822,2834.553343,1776.494261,8956.491898
307.818130,2681.334243,814.226536,8364.327145
307.818438,1762.019645,-222.061783,9104.533087
307.818746,306.438199,-1702.473667,10584.944971
307.819054,-1149.143247,-2960.823768,12805.562797
307.819362,-2604.724693,-3478.967927,12361.439231
307.819670,-2834.553343,-2294.638420,11843.295072
307.819978,-2068.457845,-1332.370696,12139.377449
307.820287,-2451.505594,-222.061783,10658.965565
307.820595,-306.438199,1554.432478,9918.759623
307.820903,1302.362347,2146.597232,8882.471304
307.821211,1991.848295,2072.576638,7031.956449
307.821519,2298.286494,1628.453072,7476.080014
307.821827,2834.553343,-0.000000,9030.512492
307.822135,1915.238745,-0.000000,9104.533087
307.822443,1149.143247,-0.000000,8882.471304
307.822751,919.314598,518.144159,9326.594869
307.823059,766.095498,740.205942,9104.533087
307.823367,1762.019645,1332.370696,8586.388927
307.823675,2757.943793,1036.288319,8660.409521
307.823983,2987.772442,666.185348,8068.244768
307.824291,1762.019645,-740.205942,8808.450710
307.824600,1225.752797,-1332.370696,11103.089130
307.824908,0.000000,-2368.659014,10955.047942
307.825216,-1532.190996,-2368.659014,11621.233289
307.825524,-2451.505594,-1406.391290,11843.295072
307.825832,-1991.848295,-296.082377,10955.047942
307.826140,-1225.752797,1258.350101,9474.636058
307.826448,-459.657299,2072.576638,9400.615463
307.826756,995.924147,2220.617826,9252.574275
307.827064,1302.362347,2368.659014,7772.162391
307.827372,1608.800546,1406.391290,8660.409521
307.827680,1378.971896,-0.000000,9474.636058
307.827988,536.266849,-370.102971,9622.677246
307.828296,76.609550,-0.000000,10658.965565
307.828604,459.657299,-74.020594,10066.800811
307.828912,383.047749,518.144159,9770.718434
307.829221,766.095498,1036.288319,9474.636058
307.829529,2298.286494,888.247130,9326.594869
307.829837,2757.943793,1406.391290,8808.450710
307.830145,2911.162892,-0.000000,8808.450710
307.830453,1685.410096,-666.185348,9622.677246
307.830761,459.657299,-1924.535449,11103.089130
307.831069,-1149.143247,-2442.679609,12065.356855
307.831377,-2221.676944,-1850.514855,11473.192101
307.831685,-1455.581446,-1110.308913,10658.965565
307.831993,-1991.848295,962.267725,10288.862594
307.832301,0.000000,1480.411884,9474.636058
307.832609,1455.581446,2146.597232,8808.450710
307.832917,1762.019645,2590.720797,7105.977043
307.833225,2451.505594,1628.453072,7698.141797
307.833534,2145.067394,666.185348,8808.450710
307.833842,1608.800546,-0.000000,9474.636058
307.834150,1225.752797,-296.082377,9992.780217
307.834458,536.266849,370.102971,9474.636058
307.834766,536.266849,518.144159,9474.636058
307.835074,1072.533697,1184.329507,9992.780217
307.835382,2298.286494,1554.432478,9474.636058
307.835690,2681.334243,592.164754,8734.430116
307.835998,1762.019645,-222.061783,8882.471304
307.836306,1302.362347,-1332.370696,10288.862594
307.836614,229.828649,-2368.659014,11177.109724
307.836922,-1838.629195,-2072.576638,12213.398043
307.837230,-1838.629195,-2072.576638,11547.212695
307.837538,-2145.067394,-814.226536,10955.047942
307.837846,-1991.848295,444.123565,9622.677246
307.838155,459.657299,1702.473667,10436.903782
307.838463,1302.362347,2738.761985,7476.080014
307.838771,2681.334243,2294.638420,6957.935855
307.839079,2681.334243,1554.432478,7698.141797
307.839387,1915.238745,814.226536,7920.203579
307.839695,1685.410096,-222.061783,10140.821405
307.840003,995.924147,148.041188,9326.594869
307.840311,689.485948,-518.144159,9696.697840
307.840619,0.000000,148.041188,8808.450710
307.840927,842.705048,1110.308913,9104.533087
307.841235,1378.971896,888.247130,9400.615463
307.841543,2145.067394,888.247130,8364.327145
307.841851,2145.067394,-0.000000,8512.368333
307.842159,1302.362347,-1554.432478,9696.697840
307.842468,-689.485948,-2294.638420,11621.233289
307.842776,-1608.800546,-2516.700203,11547.212695
307.843084,-2451.505594,-1776.494261,11769.274478
307.843392,-2451.505594,-1184.329507,11547.212695
307.843700,-2757.943793,222.061783,9770.718434
307.844008,-1225.752797,1480.411884,10732.986159
307.844316,536.266849,1776.494261,9400.615463
307.844624,1685.410096,2220.617826,7402.059420
307.844932,2298.286494,1628.453072,8808.450710
307.845240,1608.800546,-0.000000,7920.203579
307.845548,689.485948,296.082377,9030.512492
307.845856,1072.533697,-666.185348,10807.006753
307.846164,919.314598,370.102971,9178.553681
307.846472,919.314598,740.205942,8660.409521
307.846780,1838.629195,888.247130,8956.491898
307.847089,2528.115143,1776.494261,8512.368333
307.847397,3064.381992,2072.576638,7550.100608
307.847705,3370.820191,666.185348,8068.244768
307.848013,1838.629195,148.041188,9030.512492
307.848321,306.438199,-814.226536,10288.862594
307.848629,-612.876398,-2368.659014,12731.542202
307.848937,-2528.115143,-1776.494261,11843.295072
307.849245,-2987.772442,-1258.350101,11917.315666
307.849553,-2298.286494,-0.000000,12139.377449
307.849861,-1608.800546,1036.288319,10881.027347
307.850169,-153.219100,1332.370696,10584.944971
307.850477,1685.410096,1628.453072,9030.512492
307.850785,1762.019645,1480.411884,7846.182985
307.851093,1838.629195,-296.082377,8882.471304
307.851402,1302.362347,-888.247130,10510.924376
307.851710,689.485948,-888.247130,10288.862594
307.852018,766.095498,-444.123565,9104.533087
307.852326,1072.533697,888.247130,8882.471304
307.852634,2068.457845,1184.329507,8586.388927
307.852942,2681.334243,2220.617826,7920.203579
307.853250,3677.258390,2368.659014,7402.059420
307.853558,3524.039291,1480.411884,7476.080014
307.853866,2221.676944,222.061783,8364.327145
307.854174,1378.971896,-592.164754,10214.842000
307.854482,0.000000,-2146.597232,11769.274478
307.854790,-1991.848295,-1702.473667,11399.171507
307.855098,-2298.286494,-518.144159,10584.944971
307.855406,-2145.067394,-0.000000,10807.006753
307.855714,-1532.190996,592.164754,10288.862594
307.856023,153.219100,740.205942,9844.739029
307.856331,995.924147,1110.308913,8586.388927
307.856639,1149.143247,296.082377,7624.121203
307.856947,919.314598,-814.226536,9400.615463
307.857255,842.705048,-1110.308913,10658.965565
307.857563,229.828649,-1110.308913,10140.821405
307.857871,0.000000,-814.226536,9844.739029
307.858179,536.266849,-74.020594,9844.739029
307.858487,766.095498,444.123565,9252.574275
307.858795,1762.019645,814.226536,9178.553681
307.859103,3294.210641,1184.329507,7994.224174
307.859411,3064.381992,740.205942,7698.141797
307.859719,2145.067394,-0.000000,8068.244768
307.860027,995.924147,-1332.370696,9918.759623
307.860335,0.000000,-1776.494261,11103.089130
307.860644,-1608.800546,-1776.494261,10955.047942
307.860952,-1915.238745,-1258.350101,10584.944971
307.861260,-1302.362347,-296.082377,9622.677246
307.861568,-995.924147,1110.308913,10214.842000
307.861876,76.609550,1702.473667,8808.450710
307.862184,1991.848295,1998.556043,7994.224174
307.862492,1915.238745,1406.391290,7920.203579
307.862800,1302.362347,444.123565,8956.491898
307.863108,1608.800546,-296.082377,10066.800811
307.863416,306.438199,-814.226536,10510.924376
307.863724,1072.533697,-222.061783,10658.965565
307.864032,536.266849,-0.000000,9696.697840
307.864340,383.047749,666.185348,10066.800811
307.864648,1685.410096,1258.350101,9474.636058
307.864956,2528.115143,1776.494261,8142.265362
307.865264,2757.943793,1184.329507,8734.430116
307.865572,2221.676944,-0.000000,9252.574275
307.865880,536.266849,-814.226536,10732.986159
307.866188,-612.876398,-1332.370696,11473.192101
307.866496,-1455.581446,-1776.494261,12065.356855
307.866804,-2145.067394,-1110.308913,11103.089130
307.867113,-1608.800546,222.061783,10732.986159
307.867421,-689.485948,1924.535449,9844.739029
307.867729,0.000000,2220.617826,9252.574275
307.868037,1915.238745,2294.638420,9178.553681
307.868345,2298.286494,1850.514855,8364.327145
307.868653,1838.629195,888.247130,8068.244768
307.868961,1378.971896,-0.000000,9548.656652
307.869269,919.314598,-222.061783,9992.780217
307.869577,153.219100,-296.082377,10510.924376
307.869885,612.876398,592.164754,9622.677246
307.870193,842.705048,962.267725,9104.533087
307.870501,1838.629195,1480.411884,8216.285956
307.870809,2757.943793,1628.453072,8364.327145
307.871117,2451.505594,1184.329507,9030.512492
307.871425,1532.190996,-1110.308913,9770.718434
307.871733,0.000000,-1554.432478,10807.006753
307.872041,-1838.629195,-2738.761985,12065.356855
307.872349,-2681.334243,-2368.659014,12213.398043
307.872657,-2757.943793,-1702.473667,11621.233289
307.872965,-2374.896044,-296.082377,10807.006753
307.873273,-995.924147,1258.350101,9622.677246
307.873581,536.266849,1628.453072,8734.430116
307.873889,1532.190996,2368.659014,7476.080014
307.874197,2604.724693,1776.494261,7476.080014
307.874505,2528.115143,1110.308913,7179.997637
307.874813,1302.362347,-0.000000,8586.388927
307.875121,1532.190996,-592.164754,9992.780217
307.875429,842.705048,-222.061783,9252.574275
307.875737,153.219100,-222.061783,9696.697840
307.876045,919.314598,-74.020594,9252.574275
307.876353,1455.581446,518.144159,8956.491898
307.876661,1915.238745,814.226536,9474.636058
307.876969,2911.162892,370.102971,8438.347739
307.877277,1838.629195,-0.000000,8512.368333
307.877585,612.876398,-1776.494261,10436.903782
307.877893,0.000000,-2368.659014,10881.027347
307.878201,-995.924147,-1702.473667,11695.253884
307.878509,-1532.190996,-1184.329507,11399.171507
307.878817,-995.924147,-0.000000,9252.574275
307.879125,-995.924147,1776.494261,9548.656652
307.879433,612.876398,1702.473667,10066.800811
307.879741,1225.752797,2368.659014,7772.162391
307.880049,1838.629195,1924.535449,7846.182985
307.880357,1915.238745,370.102971,9104.533087
307.880665,1225.752797,-370.102971,9178.553681
307.880973,229.828649,-444.123565,11473.192101
307.881281,995.924147,-814.226536,10658.965565
307.881589,306.438199,666.185348,9178.553681
307.881897,995.924147,1110.308913,9474.636058
307.882205,1991.848295,1406.391290,9104.533087
307.882513,2681.334243,2220.617826,8808.450710
307.882821,3830.477490,1480.411884,8364.327145
307.883129,2451.505594,592.164754,7920.203579
307.883437,995.924147,-1110.308913,9992.780217
307.883746,-536.266849,-1332.370696,11621.233289
307.884054,-1685.410096,-1628.453072,12065.356855
307.884362,-2451.505594,-888.247130,11251.130318
307.884670,-1915.238745,-74.020594,10584.944971
307.884978,-1378.971896,1110.308913,10288.862594
307.885286,0.000000,1480.411884,9622.677246
307.885594,1378.971896,1628.453072,9326.594869
307.885902,1455.581446,1406.391290,7994.224174
307.886210,1072.533697,592.164754,8660.409521
307.886518,766.095498,-222.061783,9918.759623
307.886826,306.438199,-962.267725,11103.089130
307.887134,-383.047749,-666.185348,11251.130318
307.887442,0.000000,-592.164754,9992.780217
307.887750,766.095498,-0.000000,9992.780217
307.888058,1378.971896,962.267725,9326.594869
307.888366,2757.943793,1554.432478,8882.471304
307.888674,3294.210641,1628.453072,8142.265362
307.888982,2451.505594,370.102971,8068.244768
307.889290,1149.143247,-1110.308913,9400.615463
307.889598,459.657299,-1776.494261,10807.006753
307.889906,-919.314598,-1776.494261,11473.192101
307.890214,-842.705048,-1332.370696,10955.047942
307.890522,-1378.971896,-370.102971,10066.800811
307.890830,0.000000,222.061783,9696.697840
307.891138,-306.438199,1998.556043,9474.636058
307.891446,1685.410096,2072.576638,8290.306550
307.891754,2221.676944,2220.617826,7105.977043
307.892062,2145.067394,1036.288319,7550.100608
307.892370,1149.143247,-148.041188,9548.656652
307.892678,842.705048,-1332.370696,10955.047942
307.892986,229.828649,-1332.370696,10955.047942
307.893294,-459.657299,-740.205942,10140.821405
307.893602,306.438199,-666.185348,10658.965565
307.893910,919.314598,148.041188,9548.656652
307.894218,1532.190996,740.205942,9178.553681
307.894526,3294.210641,296.082377,8808.450710
307.894834,2528.115143,518.144159,7698.141797
307.895142,1762.019645,-666.185348,9696.697840
307.895450,1608.800546,-1628.453072,10288.862594
307.895758,-383.047749,-1184.329507,10807.006753
307.896066,-1532.190996,-1406.391290,10881.027347
307.896374,-1455.581446,-148.041188,9918.759623
307.896682,-842.705048,888.247130,10066.800811
307.896990,-153.219100,2220.617826,9178.553681
307.897298,1838.629195,2368.659014,8216.285956
307.897606,2221.676944,2590.720797,7105.977043
307.897914,2298.286494,1332.370696,7994.224174
307.898222,1455.581446,222.061783,8734.430116
307.898530,1225.752797,-444.123565,10658.965565
307.898838,383.047749,-592.164754,10732.986159
307.899146,-306.438199,-370.102971,9844.739029
307.899454,0.000000,296.082377,10066.800811
307.899762,842.705048,740.205942,10066.800811
307.900070,1991.848295,1702.473667,9104.533087
307.900379,2451.505594,1036.288319,9178.553681
307.900687,1762.019645,-222.061783,9474.636058
307.900995,1149.143247,-1258.350101,9992.780217
307.901303,0.000000,-1480.411884,11177.109724
307.901611,-1685.410096,-1776.494261,12361.439231
307.901919,-2451.505594,-1554.432478,12139.377449
307.902227,-2068.457845,-296.082377,11029.068536
307.902535,-1838.629195,888.247130,10214.842000
307.902843,-383.047749,1406.391290,8956.491898
307.903151,1762.019645,1924.535449,7772.162391
307.903459,1838.629195,3330.926739,7328.038826
307.903767,2068.457845,1406.391290,7476.080014
307.904075,1455.581446,888.247130,8290.306550
307.904383,1302.362347,296.082377,9918.759623
307.904691,689.485948,-666.185348,10140.821405
307.904999,-306.438199,-0.000000,9548.656652
307.905307,306.438199,-666.185348,10510.924376
307.905615,536.266849,-148.041188,9770.718434
307.905923,1685.410096,962.267725,9474.636058
307.906231,2681.334243,1036.288319,9030.512492
307.906539,2374.896044,444.123565,8438.347739
307.906847,1762.019645,-592.164754,9178.553681
307.907155,689.485948,-1628.453072,10584.944971
307.907463,-229.828649,-2294.638420,11473.192101
307.907771,-2374.896044,-1924.535449,10436.903782
307.908079,-459.657299,-1036.288319,12213.398043
307.908387,-1991.848295,-518.144159,9252.574275
307.908695,-1915.238745,1480.411884,9178.553681
307.909003,1225.752797,1036.288319,10214.842000
307.909311,459.657299,2220.617826,6809.894666
307.909619,1608.800546,962.267725,7920.203579
307.909927,2451.505594,814.226536,7550.100608
307.910235,1608.800546,-444.123565,9622.677246
307.910543,766.095498,-518.144159,9918.759623
307.910851,842.705048,-0.000000,9548.656652
307.911159,306.438199,370.102971,10140.821405
307.911467,459.657299,592.164754,8512.368333
307.911775,2145.067394,1258.350101,9770.718434
307.912083,2374.896044,1406.391290,8808.450710
307.912391,2681.334243,-148.041188,8290.306550
307.912699,1455.581446,-444.123565,9548.656652
307.913007,842.705048,-1924.535449,10881.027347
307.913315,-76.609550,-3478.967927,11843.295072
307.913623,-1991.848295,-1998.556043,11621.233289
307.913931,-1838.629195,-1702.473667,12065.356855
307.914239,-1685.410096,-444.123565,9918.759623
307.914547,-919.314598,1554.432478,9696.697840
307.914855,1302.362347,1628.453072,10214.842000
307.915163,2145.067394,2590.720797,7179.997637
307.915471,2145.067394,2294.638420,7031.956449
307.915779,1915.238745,814.226536,8290.306550
307.916087,1072.533697,1036.288319,8882.471304
307.916395,995.924147,148.041188,10658.965565
307.916704,766.095498,444.123565,9474.636058
307.917012,0.000000,1036.288319,9400.615463
307.917320,995.924147,518.144159,10362.883188
307.917628,1302.362347,1554.432478,9770.718434
307.917936,2374.896044,888.247130,9918.759623
307.918244,1915.238745,-74.020594,9474.636058
307.918552,1378.971896,-1036.288319,9548.656652
307.918860,383.047749,-2368.659014,11103.089130
307.919168,-919.314598,-2368.659014,11473.192101
307.919476,-1532.190996,-2294.638420,11917.315666
307.919784,-1762.019645,-1036.288319,11251.130318
307.920092,-1838.629195,444.123565,10214.842000
307.920400,-766.095498,1702.473667,9696.697840
307.920708,1991.848295,3182.885551,8808.450710
307.921016,2145.067394,2960.823768,6957.935855
307.921324,2298.286494,3034.844362,6587.832884
307.921632,2068.457845,1406.391290,8438.347739
307.921940,1149.143247,222.061783,9844.739029
307.922248,536.266849,-370.102971,10658.965565
307.922556,0.000000,-518.144159,10658.965565
307.922864,0.000000,-148.041188,10140.821405
307.923172,689.485948,518.144159,10658.965565
307.923480,1149.143247,518.144159,9844.739029
307.923788,2298.286494,592.164754,9326.594869
307.924096,2451.505594,296.082377,8808.450710
307.924404,2298.286494,-666.185348,8956.491898
307.924712,842.705048,-2294.638420,10510.924376
307.925020,76.609550,-2368.659014,11473.192101
307.925328,-919.314598,-1924.535449,11325.150913
307.925636,-2221.676944,-1184.329507,10881.027347
307.925944,-1149.143247,444.123565,10140.821405
307.926252,-383.047749,1332.370696,9548.656652
307.926560,766.095498,2220.617826,8512.368333
307.926868,1838.629195,2368.659014,7328.038826
307.927176,2221.676944,2368.659014,7476.080014
307.927484,1608.800546,888.247130,8142.265362
307.927792,1302.362347,-222.061783,8956.491898
307.928100,459.657299,-1036.288319,10362.883188
307.928408,153.219100,-148.041188,9844.739029
307.928716,76.609550,370.102971,9326.594869
307.929024,229.828649,444.123565,10066.800811
307.929332,1608.800546,740.205942,9696.697840
307.929640,1762.019645,1036.288319,9030.512492
307.929948,2374.896044,-0.000000,8956.491898
307.930256,1225.752797,-888.247130,9622.677246
307.930564,459.657299,-2590.720797,10881.027347
307.930872,-1225.752797,-2738.761985,12139.377449
307.931180,-2221.676944,-2442.679609,11917.315666
307.931488,-2911.162892,-1850.514855,11621.233289
307.931796,-1915.238745,-74.020594,11325.150913
307.932104,-689.485948,1480.411884,9178.553681
307.932412,842.705048,2220.617826,8216.285956
307.932720,2528.115143,2442.679609,7402.059420
307.933028,2451.505594,2812.782580,6513.812290
307.933337,2451.505594,2146.597232,7179.997637
307.933645,1991.848295,740.205942,8438.347739
307.933953,1072.533697,296.082377,9548.656652
307.934261,612.876398,148.041188,9622.677246
307.934569,459.657299,-0.000000,9844.739029
307.934877,766.095498,296.082377,9326.594869
307.935185,995.924147,1110.308913,9178.553681
307.935493,2374.896044,444.123565,9992.780217
307.935801,2451.505594,222.061783,8364.327145
307.936109,1991.848295,-814.226536,9400.615463
307.936417,842.705048,-1998.556043,10881.027347
307.936725,-459.657299,-2738.761985,12065.356855
307.937033,-1532.190996,-2812.782580,12731.542202
307.937341,-1915.238745,-1702.473667,11843.295072
307.937649,-2374.896044,-0.000000,10584.944971
307.937957,-612.876398,962.267725,10288.862594
307.938265,689.485948,2294.638420,8882.471304
307.938573,1991.848295,3330.926739,6957.935855
307.938881,2374.896044,2812.782580,6587.832884
307.939189,2221.676944,1924.535449,7772.162391
307.939497,1915.238745,1110.308913,9178.553681
307.939805,995.924147,-74.020594,10066.800811
307.940113,229.828649,-518.144159,10140.821405
307.940421,-76.609550,222.061783,9770.718434
307.940729,153.219100,-0.000000,9918.759623
307.941037,919.314598,814.226536,10140.821405
307.941345,1762.019645,1110.308913,9548.656652
307.941653,2757.943793,-0.000000,9474.636058
307.941961,2298.286494,-296.082377,8956.491898
307.942269,1608.800546,-1776.494261,10288.862594
307.942577,-306.438199,-2368.659014,12065.356855
307.942885,-1378.971896,-2516.700203,11917.315666
307.943193,-1455.581446,-2368.659014,11399.171507
307.943501,-1608.800546,-296.082377,10214.842000
307.943809,-995.924147,666.185348,10066.800811
307.944117,-153.219100,1332.370696,9104.533087
307.944425,1685.410096,2590.720797,7994.224174
307.944733,1915.238745,1850.514855,7402.059420
307.945041,1072.533697,1480.411884,7550.100608
307.945349,766.095498,222.061783,9252.574275
307.945657,459.657299,-0.000000,10066.800811
307.945965,229.828649,-0.000000,9918.759623
307.946273,306.438199,888.247130,9326.594869
307.946581,0.000000,1110.308913,9030.512492
307.946889,1225.752797,1110.308913,9252.574275
307.947197,2451.505594,1776.494261,9696.697840
307.947505,2757.943793,518.144159,8660.409521
307.947813,2068.457845,-296.082377,8216.285956
307.948121,536.266849,-2072.576638,10584.944971
307.948429,-612.876398,-2812.782580,12213.398043
307.948737,-2145.067394,-3108.864956,12287.418637
307.949045,-2068.457845,-2146.597232,12361.439231
307.949353,-1608.800546,-1110.308913,10436.903782
307.949661,-766.095498,962.267725,9326.594869
307.949970,689.485948,1924.535449,8882.471304
307.950278,1991.848295,2590.720797,8290.306550
307.950586,2757.943793,3404.947333,6291.750507
307.950894,2681.334243,2368.659014,6957.935855
307.951202,2221.676944,740.205942,8586.388927
307.951510,1455.581446,222.061783,9400.615463
307.951818,612.876398,-0.000000,10362.883188
307.952126,-459.657299,-0.000000,9622.677246
307.952434,0.000000,370.102971,9770.718434
307.952742,153.219100,814.226536,9918.759623
307.953050,1991.848295,518.144159,10140.821405
307.953358,2145.067394,444.123565,9104.533087
307.953666,1685.410096,-444.123565,9178.553681
307.953974,689.485948,-2368.659014,10658.965565
307.954282,-612.876398,-2886.803174,11917.315666
307.954590,-612.876398,-3034.844362,12953.603985
307.954898,-1838.629195,-2516.700203,12139.377449
307.955206,-1762.019645,-888.247130,11029.068536
307.955514,-1149.143247,444.123565,10362.883188
307.955822,612.876398,1924.535449,9326.594869
307.956130,1685.410096,2812.782580,7698.141797
307.956438,2681.334243,3034.844362,7476.080014
307.956746,2451.505594,1998.556043,7254.018232
307.957054,1302.362347,1332.370696,8438.347739
307.957362,1302.362347,296.082377,9770.718434
307.957670,612.876398,370.102971,9696.697840
307.957978,459.657299,962.267725,9548.656652
307.958286,536.266849,1480.411884,9474.636058
307.958594,1532.190996,2294.638420,8586.388927
307.958902,1685.410096,2146.597232,9252.574275
307.959210,2987.772442,1184.329507,9252.574275
307.959518,1915.238745,222.061783,8142.265362
307.959826,766.095498,-1110.308913,10510.924376
307.960134,-383.047749,-3182.885551,11843.295072
307.960442,-2374.896044,-2886.803174,12731.542202
307.960750,-2911.162892,-3108.864956,13619.789333
307.961058,-2987.772442,-1702.473667,11547.212695
307.961366,-1838.629195,-0.000000,10584.944971
307.961674,383.047749,1480.411884,10140.821405
307.961982,1455.581446,2368.659014,8290.306550
307.962290,2221.676944,2220.617826,6957.935855
307.962598,2451.505594,2072.576638,7105.977043
307.962906,2451.505594,1110.308913,8216.285956
307.963214,1378.971896,444.123565,8882.471304
307.963522,919.314598,148.041188,10066.800811
307.963830,1378.971896,962.267725,8882.471304
307.964138,1455.581446,962.267725,8512.368333
307.964446,1608.800546,1184.329507,9252.574275
307.964754,2068.457845,962.267725,8882.471304
307.965062,3217.601092,1036.288319,9252.574275
307.965370,2068.457845,-0.000000,8068.244768
307.965678,1225.752797,-1628.453072,9548.656652
307.965987,0.000000,-2738.761985,11473.192101
307.966295,-1149.143247,-3701.029710,12361.439231
307.966603,-3447.429741,-3182.885551,11325.150913
307.966911,-2528.115143,-2220.617826,11325.150913
307.967219,-919.314598,-518.144159,10881.027347
307.967527,-1225.752797,1480.411884,9178.553681
307.967835,76.609550,1702.473667,8734.430116
307.968143,1838.629195,1776.494261,8290.306550
307.968451,1532.190996,2368.659014,7031.956449
307.968759,1685.410096,1110.308913,8216.285956
307.969067,1302.362347,-0.000000,9104.533087
307.969375,995.924147,-0.000000,9770.718434
307.969683,76.609550,814.226536,9770.718434
307.969991,842.705048,1332.370696,9104.533087
307.970299,1378.971896,1480.411884,8882.471304
307.970607,2145.067394,1628.453072,8808.450710
307.970915,2911.162892,1554.432478,8660.409521
307.971223,3447.429741,-0.000000,8142.265362
307.971531,1532.190996,-666.185348,9326.594869
307.971839,383.047749,-2072.576638,11177.109724
307.972147,-1532.190996,-2812.782580,12065.356855
307.972455,-2145.067394,-2442.679609,11769.274478
307.972763,-2145.067394,-1628.453072,11399.171507
307.973071,-1532.190996,-296.082377,10362.883188
307.973379,-153.219100,1332.370696,9622.677246
307.973687,766.095498,2294.638420,9178.553681
307.973995,1225.752797,2146.597232,8586.388927
307.974304,1455.581446,1332.370696,8438.347739
307.974612,842.705048,296.082377,9400.615463
307.974920,842.705048,-222.061783,9992.780217
307.975228,536.266849,-74.020594,10436.903782
307.975536,-229.828649,814.226536,9844.739029
307.975844,383.047749,1258.350101,10140.821405
307.976152,1532.190996,1406.391290,9474.636058
307.976460,842.705048,2590.720797,8290.306550
307.976768,3600.648841,592.164754,9696.697840
307.977076,2604.724693,666.185348,7772.162391
307.977384,1378.971896,-1184.329507,9474.636058
307.977692,0.000000,-2294.638420,10955.047942
307.978000,-1072.533697,-3108.864956,12213.398043
307.978308,-2374.896044,-2738.761985,12731.542202
307.978616,-2298.286494,-1628.453072,11325.150913
307.978924,-842.705048,-0.000000,10510.924376
307.979232,-1608.800546,1480.411884,9918.759623
307.979540,1378.971896,1924.535449,9326.594869
307.979848,2145.067394,2960.823768,7254.018232
307.980156,2681.334243,2220.617826,7550.100608
307.980464,1915.238745,1628.453072,7328.038826
307.980772,1455.581446,370.102971,9400.615463
307.981080,1532.190996,-148.041188,10658.965565
307.981388,0.000000,-0.000000,9400.615463
307.981696,536.266849,592.164754,9696.697840
307.982004,229.828649,1036.288319,9474.636058
307.982313,1915.238745,962.267725,9918.759623
307.982621,2374.896044,888.247130,8882.471304
307.982929,2451.505594,444.123565,8586.388927
307.983237,1915.238745,-740.205942,9178.553681
307.983545,766.095498,-2146.597232,10362.883188
307.983853,-383.047749,-2590.720797,12287.418637
307.984161,-1838.629195,-2442.679609,11695.253884
307.984469,-1838.629195,-1924.535449,11103.089130
307.984777,-1838.629195,-148.041188,10584.944971
307.985085,-766.095498,1036.288319,10436.903782
307.985393,1072.533697,1628.453072,9178.553681
307.985701,1991.848295,2664.741391,6883.915261
307.986009,2145.067394,1628.453072,8216.285956
307.986317,2298.286494,814.226536,7994.224174
307.986625,1915.238745,592.164754,8882.471304
307.986933,1072.533697,-0.000000,9992.780217
307.987241,1378.971896,-0.000000,9474.636058
307.987549,995.924147,814.226536,8808.450710
307.987857,919.314598,1036.288319,9474.636058
307.988165,2298.286494,1480.411884,8882.471304
307.988473,2604.724693,1554.432478,8364.327145
307.988781,2221.676944,962.267725,8660.409521
307.989089,1991.848295,-296.082377,9030.512492
307.989397,842.705048,-1554.432478,10658.965565
307.989705,-1225.752797,-1924.535449,11917.315666
307.990013,-1685.410096,-2294.638420,12287.418637
307.990321,-2298.286494,-1628.453072,11695.253884
307.990630,-2221.676944,-518.144159,11103.089130
307.990938,-919.314598,814.226536,10288.862594
307.991246,306.438199,1776.494261,9770.718434
307.991554,1915.238745,1776.494261,9178.553681
307.991862,1838.629195,1924.535449,7846.182985
307.992170,1838.629195,1036.288319,8364.327145
307.992478,1762.019645,-222.061783,9474.636058
307.992786,842.705048,-296.082377,9844.739029
307.993094,536.266849,-296.082377,10510.924376
307.993402,229.828649,296.082377,9548.656652
307.993710,1302.362347,1554.432478,8808.450710
307.994018,1991.848295,1332.370696,9178.553681
307.994326,2987.772442,1406.391290,8290.306550
307.994634,2911.162892,1406.391290,7476.080014
307.994942,2681.334243,296.082377,8216.285956
307.995250,1149.143247,-1110.308913,9918.759623
307.995558,-383.047749,-2220.617826,11547.212695
307.995866,-1991.848295,-2886.803174,12657.521608
307.996174,-2451.505594,-2368.659014,11843.295072
307.996482,-2757.943793,-814.226536,10510.924376
307.996790,-1685.410096,518.144159,10732.986159
307.997098,306.438199,1480.411884,9696.697840
307.997406,612.876398,2146.597232,7846.182985
307.997714,1915.238745,1924.535449,8364.327145
307.998022,2145.067394,962.267725,8142.265362
307.998330,1838.629195,370.102971,9622.677246
307.998639,842.705048,-740.205942,10362.883188
307.998947,536.266849,-74.020594,9992.780217
307.999255,766.095498,296.082377,9844.739029
307.999563,689.485948,1110.308913,8882.471304
307.999871,1991.848295,1776.494261,8882.471304
308.000179,3064.381992,1776.494261,8512.368333
308.000487,3217.601092,1480.411884,7179.997637
308.000795,2374.896044,-148.041188,7846.182985
308.001103,1455.581446,-1554.432478,9918.759623
308.001411,0.000000,-2590.720797,11473.192101
308.001719,-1991.848295,-2516.700203,12139.377449
308.002027,-2298.286494,-2220.617826,11991.336260
308.002335,-2451.505594,-888.247130,10807.006753
308.002643,-1532.190996,-0.000000,10288.862594
308.002951,153.219100,1184.329507,10214.842000
308.003259,1378.971896,1480.411884,8734.430116
308.003567,1762.019645,2072.576638,8290.306550
308.003875,1455.581446,962.267725,8364.327145
308.004183,1302.362347,-148.041188,9548.656652
308.004491,-459.657299,-444.123565,10584.944971
308.004799,306.438199,-0.000000,10436.903782
308.005107,229.828649,740.205942,9252.574275
308.005415,689.485948,1406.391290,9178.553681
308.005723,1762.019645,1702.473667,8660.409521
308.006031,3370.820191,2516.700203,8216.285956
308.006339,2911.162892,1258.350101,8660.409521
308.006647,2298.286494,888.247130,7994.224174
308.006956,1532.190996,-444.123565,9474.636058
308.007264,0.000000,-2368.659014,11103.089130
308.007572,-2298.286494,-2664.741391,11991.336260
308.007880,-2451.505594,-2368.659014,12065.356855
308.008188,-1608.800546,-1184.329507,11769.274478
308.008496,-1378.971896,-74.020594,9622.677246
308.008804,-383.047749,1258.350101,9474.636058
308.009112,1762.019645,2368.659014,8660.409521
308.009420,2221.676944,2516.700203,7550.100608
308.009728,1685.410096,1776.494261,8364.327145
308.010036,1991.848295,666.185348,9326.594869
308.010344,383.047749,-222.061783,10140.821405
308.010652,459.657299,-814.226536,10362.883188
308.010960,766.095498,148.041188,10214.842000
308.011268,919.314598,1036.288319,9326.594869
308.011576,1149.143247,1258.350101,8882.471304
308.011884,2451.505594,888.247130,8956.491898
308.012192,3064.381992,1702.473667,7698.141797
308.012500,2145.067394,-148.041188,8586.388927
308.012808,1378.971896,-1480.411884,9474.636058
308.013116,-459.657299,-2146.597232,11843.295072
308.013424,-1685.410096,-3404.947333,12805.562797
308.013732,-2528.115143,-2886.803174,11843.295072
308.014040,-2298.286494,-888.247130,11103.089130
308.014348,-1455.581446,296.082377,10584.944971
308.014656,76.609550,1628.453072,9770.718434
308.014965,1149.143247,2368.659014,8734.430116
308.015273,1838.629195,2220.617826,7920.203579
308.015581,1378.971896,1258.350101,7179.997637
308.015889,1149.143247,1184.329507,8956.491898
308.016197,1149.143247,-148.041188,10436.903782
308.016505,306.438199,-0.000000,9474.636058
308.016813,459.657299,-222.061783,9918.759623
308.017121,536.266849,814.226536,9326.594869
308.017429,1455.581446,1776.494261,9030.512492
308.017737,2374.896044,1036.288319,9400.615463
308.018045,2528.115143,1258.350101,8808.450710
308.018353,2451.505594,370.102971,8068.244768
308.018661,1762.019645,-740.205942,9548.656652
308.018969,-153.219100,-2294.638420,11473.192101
308.019277,-1532.190996,-2738.761985,12213.398043
308.019585,-1915.238745,-1628.453072,11769.274478
308.019893,-1991.848295,-888.247130,11399.171507
308.020201,-1378.971896,814.226536,10510.924376
308.020509,536.266849,2294.638420,9992.780217
308.020817,919.314598,2590.720797,8808.450710
308.021125,1915.238745,2738.761985,7920.203579
308.021433,1991.848295,1850.514855,8216.285956
308.021741,842.705048,814.226536,9548.656652
308.022049,536.266849,-666.185348,10732.986159
308.022357,536.266849,-518.144159,10362.883188
308.022665,536.266849,-0.000000,11029.068536
308.022974,1532.190996,592.164754,9770.718434
308.023282,2068.457845,1554.432478,9178.553681
308.023590,2987.772442,2146.597232,9030.512492
308.023898,4060.306139,1332.370696,7920.203579
308.024206,3907.087040,1332.370696,7476.080014
308.024514,2374.896044,-148.041188,8660.409521
308.024822,766.095498,-1998.556043,10584.944971
308.025130,-229.828649,-2738.761985,11769.274478
308.025438,-1991.848295,-2294.638420,11695.253884
308.025746,-2145.067394,-1702.473667,10510.924376
308.026054,-1378.971896,-222.061783,10584.944971
308.026362,-459.657299,1628.453072,9474.636058
308.026670,306.438199,1776.494261,9030.512492
308.026978,2068.457845,2220.617826,8142.265362
308.027286,1991.848295,1258.350101,7624.121203
308.027594,1838.629195,222.061783,8882.471304
308.027902,612.876398,-1332.370696,9474.636058
308.028210,536.266849,-1406.391290,10288.862594
308.028518,153.219100,-1036.288319,9696.697840
308.028826,536.266849,-370.102971,9252.574275
308.029134,766.095498,518.144159,8586.388927
308.029442,2528.115143,1184.329507,8734.430116
308.029750,2911.162892,888.247130,7476.080014
308.030058,1991.848295,-0.000000,7254.018232
308.030366,1685.410096,-1628.453072,9252.574275
308.030674,153.219100,-2664.741391,10807.006753
308.030982,-1455.581446,-2664.741391,11473.192101
308.031291,-2145.067394,-2294.638420,11177.109724
308.031599,-2145.067394,-1332.370696,10510.924376
308.031907,-1838.629195,592.164754,9548.656652
308.032215,-153.219100,1406.391290,9474.636058
308.032523,689.485948,2146.597232,8882.471304
308.032831,766.095498,2368.659014,7031.956449
308.033139,2298.286494,1406.391290,7254.018232
308.033447,1378.971896,1184.329507,8734.430116
308.033755,612.876398,-592.164754,10584.944971
308.034063,-229.828649,-888.247130,10881.027347
308.034371,0.000000,-740.205942,10955.047942
308.034679,-612.876398,-148.041188,9770.718434
308.034987,842.705048,592.164754,10066.800811
308.035295,1685.410096,1258.350101,9770.718434
308.035603,2221.676944,1110.308913,9104.533087
308.035911,2451.505594,1258.350101,8438.347739
308.036219,2221.676944,-0.000000,8956.491898
308.036527,306.438199,-666.185348,10510.924376
308.036835,-612.876398,-1258.350101,11325.150913
308.037143,-689.485948,-1110.308913,11547.212695
308.037451,-1302.362347,-666.185348,10732.986159
308.037759,-1455.581446,148.041188,10658.965565
308.038067,-536.266849,1702.473667,9474.636058
308.038375,1072.533697,2146.597232,9474.636058
308.038683,1838.629195,2590.720797,8512.368333
308.038991,2374.896044,1480.411884,8068.244768
308.039300,1455.581446,888.247130,8882.471304
308.039608,995.924147,-962.267725,10288.862594
308.039916,1072.533697,-666.185348,10584.944971
308.040224,306.438199,-0.000000,10658.965565
308.040532,1072.533697,592.164754,9622.677246
308.040840,1302.362347,1258.350101,9474.636058
308.041148,2068.457845,1776.494261,9104.533087
308.041456,2451.505594,1332.370696,8734.430116
308.041764,2145.067394,740.205942,8734.430116
308.042072,1915.238745,-296.082377,9474.636058
308.042380,76.609550,-2220.617826,10732.986159
308.042688,-842.705048,-2590.720797,12435.459826
308.042996,-2374.896044,-2146.597232,11991.336260
308.043304,-1915.238745,-1258.350101,10955.047942
308.043612,-1685.410096,-0.000000,9992.780217
308.043920,-459.657299,1110.308913,9844.739029
308.044228,995.924147,2072.576638,8734.430116
308.044536,2374.896044,2812.782580,7624.121203
308.044844,2298.286494,1924.535449,7031.956449
308.045152,2145.067394,962.267725,7772.162391
308.045460,1915.238745,-370.102971,9770.718434
308.045768,0.000000,-518.144159,9326.594869
308.046076,229.828649,-962.267725,10362.883188
308.046384,76.609550,-148.041188,9622.677246
308.046692,536.266849,370.102971,9474.636058
308.047000,1149.143247,370.102971,9770.718434
308.047308,2145.067394,814.226536,9104.533087
308.047617,2987.772442,666.185348,8438.347739
308.047925,1991.848295,-0.000000,7920.203579
308.048233,919.314598,-1776.494261,10288.862594
308.048541,-229.828649,-2072.576638,11695.253884
308.048849,-1608.800546,-1776.494261,11399.171507
308.049157,-2221.676944,-1406.391290,10881.027347
308.049465,-1532.190996,-444.123565,10288.862594
308.049773,-1991.848295,814.226536,9474.636058
308.050081,0.000000,1332.370696,10066.800811
308.050389,612.876398,1924.535449,8142.265362
308.050697,1762.019645,1110.308913,8142.265362
308.051005,1302.362347,666.185348,8808.450710
308.051313,689.485948,-222.061783,9252.574275
308.051621,229.828649,-740.205942,10807.006753
308.051929,536.266849,-0.000000,10362.883188
308.052237,1378.971896,-0.000000,9548.656652
308.052545,612.876398,1184.329507,7846.182985
308.052853,2834.553343,1776.494261,9474.636058
308.053161,2834.553343,2294.638420,8438.347739
308.053469,2681.334243,1184.329507,8216.285956
308.053777,2604.724693,-0.000000,8882.471304
308.054085,1149.143247,-814.226536,9548.656652
308.054393,-306.438199,-2220.617826,12731.542202
308.054701,-1838.629195,-2442.679609,12065.356855
308.055009,-1455.581446,-1850.514855,12065.356855
308.055317,-2221.676944,-666.185348,10955.047942
308.055626,-919.314598,518.144159,9770.718434
308.055934,459.657299,1702.473667,9400.615463
308.056242,1225.752797,2072.576638,8660.409521
308.056550,2834.553343,2294.638420,7846.182985
308.056858,2374.896044,1776.494261,7698.141797
308.057166,1225.752797,740.205942,9326.594869
308.057474,383.047749,-518.144159,10732.986159
308.057782,0.000000,592.164754,10807.006753
308.058090,0.000000,296.082377,10140.821405
308.058398,536.266849,666.185348,9622.677246
308.058706,1225.752797,1480.411884,9474.636058
308.059014,2145.067394,1406.391290,10214.842000
308.059322,2911.162892,1554.432478,8512.368333
308.059630,2528.115143,296.082377,9400.615463
308.059938,995.924147,-1258.350101,10066.800811
308.060246,689.485948,-2590.720797,11843.295072
308.060554,-1455.581446,-2072.576638,10658.965565
308.060862,-1991.848295,-1702.473667,11473.192101
308.061170,-1532.190996,-592.164754,11103.089130
308.061478,-1608.800546,962.267725,9770.718434
308.061786,383.047749,1332.370696,10658.965565
308.062094,1455.581446,1850.514855,8142.265362
308.062402,1838.629195,1924.535449,7328.038826
308.062710,1532.190996,1554.432478,7624.121203
308.063018,1608.800546,370.102971,8734.430116
308.063326,0.000000,-148.041188,9770.718434
308.063634,76.609550,-1036.288319,10955.047942
308.063943,0.000000,296.082377,9622.677246
308.064251,306.438199,148.041188,9400.615463
308.064557,1378.971896,1036.288319,9400.615463
308.064865,2528.115143,1258.350101,8512.368333
308.065173,2145.067394,962.267725,8734.430116
308.065481,2068.457845,-74.020594,8512.368333
308.065789,1455.581446,-1036.288319,9030.512492
308.066097,-459.657299,-2294.638420,11251.130318
308.066405,-1149.143247,-3108.864956,11621.233289
308.066713,-1685.410096,-2220.617826,10584.944971
308.067021,-1991.848295,-740.205942,10584.944971
308.067329,-612.876398,-0.000000,9992.780217
308.067637,306.438199,1776.494261,8512.368333
308.067945,842.705048,2442.679609,7846.182985
308.068253,2068.457845,2368.659014,6883.915261
308.068561,2451.505594,1850.514855,7994.224174
308.068869,2451.505594,444.123565,9474.636058
308.069177,536.266849,-148.041188,9474.636058
308.069485,76.609550,-1406.391290,10881.027347
308.069793,0.000000,-518.144159,9992.780217
308.070101,76.609550,740.205942,10066.800811
308.070409,612.876398,740.205942,9992.780217
308.070717,1302.362347,1184.329507,9104.533087
308.071025,2145.067394,740.205942,9030.512492
308.071333,1608.800546,-0.000000,8512.368333
308.071641,766.095498,-1258.350101,10362.883188
308.071949,-536.266849,-2516.700203,11547.212695
308.072257,-1608.800546,-2442.679609,11917.315666
308.072565,-2068.457845,-2072.576638,11843.295072
308.072873,-1915.238745,-1184.329507,10807.006753
308.073181,-1149.143247,962.267725,10066.800811
308.073489,383.047749,1776.494261,9178.553681
308.073797,1915.238745,2442.679609,8586.388927
308.074105,1762.019645,2442.679609,7476.080014
308.074413,2451.505594,1924.535449,7402.059420
308.074721,2068.457845,962.267725,8956.491898
308.075029,1072.533697,518.144159,9474.636058
308.075337,842.705048,-148.041188,10436.903782
308.075645,229.828649,444.123565,9918.759623
308.075953,383.047749,1036.288319,9400.615463
308.076261,229.828649,1332.370696,10288.862594
308.076569,1455.581446,1036.288319,10584.944971
308.076877,1762.019645,1406.391290,9030.512492
308.077185,1532.190996,814.226536,9474.636058
308.077493,842.705048,-1184.329507,9696.697840
308.077801,-459.657299,-2072.576638,11769.274478
308.078109,-2145.067394,-3108.864956,13027.624579
308.078417,-2681.334243,-2442.679609,12213.398043
308.078725,-2604.724693,-2072.576638,11843.295072
308.079033,-1838.629195,-0.000000,10881.027347
308.079341,-459.657299,1258.350101,9918.759623
308.079649,995.924147,2516.700203,8438.347739
308.079957,2451.505594,3034.844362,6661.853478
308.080265,3064.381992,2442.679609,7105.977043
308.080573,2374.896044,1554.432478,7550.100608
308.080881,1991.848295,518.144159,9770.718434
308.081189,1608.800546,-0.000000,9696.697840
308.081497,536.266849,592.164754,8882.471304
308.081805,1072.533697,296.082377,9696.697840
308.082113,1225.752797,1036.288319,8586.388927
308.082421,2298.286494,1554.432478,9252.574275
308.082729,2681.334243,1332.370696,8142.265362
308.083037,2757.943793,-0.000000,8438.347739
308.083345,1608.800546,-1406.391290,9104.533087
308.083653,-153.219100,-3256.906145,11325.150913
308.083961,-995.924147,-3701.029710,13027.624579
308.084269,-2068.457845,-3108.864956,12509.480420
308.084577,-1762.019645,-2146.597232,11177.109724
308.084885,-1225.752797,-370.102971,9770.718434
308.085193,0.000000,740.205942,9548.656652
308.085501,1378.971896,2072.576638,7846.182985
308.085809,1991.848295,2368.659014,7105.977043
308.086117,3217.601092,1036.288319,8068.244768
308.086425,1838.629195,370.102971,7550.100608
308.086733,536.266849,-0.000000,9918.759623
308.087041,153.219100,-666.185348,10510.924376
308.087349,76.609550,-74.020594,9918.759623
308.087657,306.438199,814.226536,9696.697840
308.087965,1378.971896,1036.288319,9104.533087
308.088273,2145.067394,1850.514855,8512.368333
308.088581,2528.115143,1850.514855,8438.347739
308.088889,3294.210641,1184.329507,8438.347739
308.089197,2374.896044,-0.000000,9030.512492
308.089505,842.705048,-1776.494261,10955.047942
308.089813,-842.705048,-2664.741391,12361.439231
308.090121,-2145.067394,-1776.494261,11547.212695
308.090429,-1838.629195,-1110.308913,11547.212695
308.090737,-1838.629195,-0.000000,10807.006753
308.091045,-766.095498,1036.288319,9918.759623
308.091353,995.924147,1776.494261,9030.512492
308.091661,1225.752797,2294.638420,7624.121203
308.091969,2068.457845,2146.597232,7698.141797
308.092277,1685.410096,1258.350101,8882.471304
308.092585,459.657299,-0.000000,10510.924376
308.092893,0.000000,-518.144159,10881.027347
308.093201,-306.438199,-222.061783,10584.944971
308.093509,76.609550,962.267725,9400.615463
308.093817,1072.533697,592.164754,10214.842000
308.094125,2068.457845,1406.391290,8882.471304
308.094433,2374.896044,1554.432478,8808.450710
308.094741,2757.943793,518.144159,8808.450710
308.095049,1608.800546,-0.000000,8808.450710
308.095357,383.047749,-1406.391290,11251.130318
308.095665,-612.876398,-2812.782580,12065.356855
308.095973,-1532.190996,-2220.617826,11695.253884
308.096281,-2221.676944,-1332.370696,11547.212695
308.096589,-1378.971896,-222.061783,9992.780217
308.096897,0.000000,740.205942,9474.636058
308.097205,842.705048,2738.761985,8586.388927
308.097513,2528.115143,2516.700203,7772.162391
308.097821,2911.162892,2368.659014,6809.894666
308.098129,1991.848295,1628.453072,8438.347739
308.098437,1915.238745,-222.061783,9474.636058
308.098745,612.876398,-148.041188,9770.718434
308.099053,76.609550,-222.061783,10807.006753
308.099361,536.266849,296.082377,9770.718434
308.099669,612.876398,1110.308913,8882.471304
308.099977,1762.019645,1480.411884,10140.821405
308.100285,2221.676944,1184.329507,8882.471304
308.100593,2068.457845,222.061783,8586.388927
308.100901,1302.362347,-962.267725,9844.739029
308.101209,-153.219100,-1998.556043,10584.944971
308.101517,-1608.800546,-3478.967927,12509.480420
308.101825,-1915.238745,-2664.741391,12361.439231
308.102133,-2374.896044,-1850.514855,10955.047942
308.102441,-1532.190996,-518.144159,9474.636058
308.102749,153.219100,1036.288319,9474.636058
308.103057,1532.190996,2220.617826,7772.162391
308.103365,2451.505594,2442.679609,6439.791695
308.103673,2681.334243,2072.576638,7105.977043
308.103981,2374.896044,1924.535449,6735.874072
308.104289,1685.410096,518.144159,9030.512492
308.104597,995.924147,-592.164754,10510.924376
308.104905,0.000000,592.164754,9104.533087
308.105213,612.876398,444.123565,9844.739029
308.105521,1072.533697,814.226536,8290.306550
308.105829,1149.143247,962.267725,9622.677246
308.106137,2298.286494,888.247130,9622.677246
308.106446,2221.676944,666.185348,8882.471304
308.106754,919.314598,-1036.288319,9918.759623
308.107062,-919.314598,-2590.720797,11769.274478
308.107370,-1991.848295,-2960.823768,13323.706956
308.107678,-2834.553343,-3034.844362,13101.645173
308.107986,-2757.943793,-2146.597232,11917.315666
308.108294,-2757.943793,-592.164754,11029.068536
308.108602,-1225.752797,444.123565,10288.862594
308.108910,689.485948,2146.597232,8808.450710
308.109218,2298.286494,2368.659014,7846.182985
308.109526,2911.162892,2368.659014,7105.977043
308.109834,2451.505594,1776.494261,7105.977043
308.110142,2374.896044,1036.288319,8660.409521
308.110450,1455.581446,666.185348,8808.450710
308.110758,1685.410096,1036.288319,8586.388927
308.111066,1378.971896,1406.391290,9030.512492
308.111374,1762.019645,1036.288319,9400.615463
308.111682,2145.067394,2146.597232,9178.553681
308.111990,2604.724693,2442.679609,8882.471304
308.112298,2911.162892,1332.370696,8734.430116
308.112606,1685.410096,-0.000000,9178.553681
308.112914,0.000000,-1554.432478,11769.274478
308.113222,-1455.581446,-3108.864956,12583.501014
308.113530,-2681.334243,-3182.885551,13027.624579
308.113838,-2604.724693,-2886.803174,12583.501014
308.114146,-2298.286494,-1554.432478,11325.150913
308.114454,-1378.971896,-74.020594,10955.047942
308.114762,0.000000,962.267725,9770.718434
308.115070,2298.286494,2146.597232,8512.368333
308.115378,2604.724693,2072.576638,7476.080014
308.115686,2911.162892,1628.453072,7920.203579
308.115994,2374.896044,518.144159,8734.430116
308.116302,2528.115143,888.247130,9696.697840
308.116610,1149.143247,370.102971,8660.409521
308.116918,1072.533697,592.164754,8882.471304
308.117226,1072.533697,1036.288319,9474.636058
308.117534,1149.143247,1332.370696,8956.491898
308.117842,2528.115143,1554.432478,8956.491898
308.118150,2528.115143,1480.411884,8512.368333
308.118458,1532.190996,-296.082377,8290.306550
308.118766,612.876398,-1406.391290,10140.821405
308.119074,-766.095498,-2590.720797,11917.315666
308.119382,-2451.505594,-3108.864956,12361.439231
308.119690,-2681.334243,-2664.741391,11843.295072
308.119998,-2834.553343,-1406.391290,10658.965565
308.120306,-1608.800546,-222.061783,10510.924376
308.120614,-383.047749,962.267725,9918.759623
308.120922,383.047749,3034.844362,8142.265362
308.121230,2451.505594,2294.638420,7920.203579
308.121538,2068.457845,1776.494261,7328.038826
308.121846,1455.581446,1110.308913,8216.285956
308.122154,1302.362347,-0.000000,9548.656652
308.122462,536.266849,222.061783,9400.615463
308.122770,0.000000,-0.000000,9992.780217
308.123078,612.876398,814.226536,10066.800811
308.123386,1915.238745,1406.391290,9104.533087
308.123694,1762.019645,1628.453072,8808.450710
308.124002,2604.724693,1406.391290,8438.347739
308.124310,1915.238745,-296.082377,8290.306550
308.124618,0.000000,-1628.453072,9918.759623
308.124926,-153.219100,-3108.864956,11917.315666
308.125234,-1532.190996,-3330.926739,11991.336260
308.125542,-2528.115143,-3108.864956,12361.439231
308.125850,-1685.410096,-2368.659014,11177.109724
308.126158,-1302.362347,-0.000000,10510.924376
308.126466,0.000000,962.267725,9844.739029
308.126774,1608.800546,2146.597232,8142.265362
308.127082,2911.162892,2442.679609,7328.038826
308.127390,2757.943793,1924.535449,7550.100608
308.127698,2451.505594,1184.329507,8216.285956
308.128006,2068.457845,666.185348,9030.512492
308.128314,1225.752797,592.164754,10288.862594
308.128622,766.095498,444.123565,8956.491898
308.128930,919.314598,1258.350101,9178.553681
308.129238,1225.752797,1554.432478,9548.656652
308.129546,2298.286494,1702.473667,9178.553681
308.129854,2068.457845,1480.411884,9030.512492
308.130162,2374.896044,-0.000000,9178.553681
308.130470,919.314598,-962.267725,9770.718434
308.130778,-689.485948,-2072.576638,12139.377449
308.131086,-1532.190996,-3330.926739,12805.562797
308.131394,-2145.067394,-1998.556043,11473.192101
308.131702,-1762.019645,-1184.329507,11029.068536
308.132010,-1225.752797,-0.000000,10362.883188
308.132318,459.657299,1776.494261,9326.594869
308.132626,1915.238745,2738.761985,8808.450710
308.132934,2604.724693,2220.617826,7994.224174
308.133242,2681.334243,2590.720797,6957.935855
308.133550,2145.067394,1036.288319,8660.409521
308.133858,1532.190996,666.185348,9770.718434
308.134166,1378.971896,222.061783,9622.677246
308.134474,459.657299,740.205942,9474.636058
308.134782,459.657299,518.144159,9622.677246
308.135090,1072.533697,888.247130,9104.533087
308.135398,2298.286494,1702.473667,9548.656652
308.135706,2451.505594,1258.350101,8586.388927
308.136014,2068.457845,444.123565,8216.285956
308.136322,459.657299,-1184.329507,9918.759623
308.136630,-536.266849,-2294.638420,11843.295072
308.136938,-2145.067394,-3182.885551,12583.501014
308.137246,-3064.381992,-2590.720797,12657.521608
308.137554,-2681.334243,-1998.556043,10732.986159
308.137862,-1915.238745,-518.144159,11251.130318
308.138170,-1455.581446,222.061783,9992.780217
308.138478,536.266849,1628.453072,9104.533087
308.138786,1455.581446,2146.597232,7550.100608
308.139094,2221.676944,1554.432478,7179.997637
308.139402,2068.457845,962.267725,8438.347739
308.139710,995.924147,-222.061783,8660.409521
308.140018,1225.752797,148.041188,9918.759623
308.140326,1072.533697,148.041188,8586.388927
308.140634,1455.581446,740.205942,8660.409521
308.140942,1762.019645,1258.350101,8734.430116
308.141250,2757.943793,1776.494261,8290.306550
308.141558,3370.820191,1998.556043,7550.100608
308.141866,2681.334243,888.247130,7328.038826
308.142174,1991.848295,-888.247130,8882.471304
308.142482,153.219100,-2146.597232,11103.089130
308.142790,-919.314598,-2960.823768,12213.398043
308.143098,-2451.505594,-2886.803174,12583.501014
308.143406,-2451.505594,-2442.679609,11547.212695
308.143714,-2374.896044,-962.267725,11251.130318
308.144022,-1608.800546,296.082377,11251.130318
308.144330,306.438199,1628.453072,9474.636058
308.144638,1455.581446,2146.597232,8142.265362
308.144946,2298.286494,1702.473667,8438.347739
308.145254,1455.581446,814.226536,8882.471304
308.145562,1378.971896,296.082377,10362.883188
308.145870,842.705048,-148.041188,10140.821405
308.146178,536.266849,296.082377,9770.718434
308.146486,536.266849,518.144159,9770.718434
308.146794,1532.190996,1184.329507,9400.615463
308.147102,2604.724693,2072.576638,8660.409521
308.147410,3677.258390,1776.494261,8586.388927
308.147718,3983.696590,1184.329507,7254.018232
308.148026,1915.238745,222.061783,8808.450710
308.148334,766.095498,-1406.391290,10955.047942
308.148642,0.000000,-2146.597232,11843.295072
308.148950,-1915.238745,-1776.494261,11399.171507
308.149258,-1915.238745,-1406.391290,11991.336260
308.149566,-1532.190996,-444.123565,10807.006753
308.149874,-995.924147,1332.370696,10066.800811
308.150182,76.609550,1480.411884,10214.842000
308.150490,1838.629195,2294.638420,7994.224174
308.150798,1608.800546,2664.741391,7328.038826
308.151106,1378.971896,962.267725,8882.471304
308.151414,1072.533697,-148.041188,9992.780217
308.151722,-383.047749,-222.061783,10510.924376
308.152030,-383.047749,-962.267725,11251.130318
308.152338,0.000000,-370.102971,10214.842000
308.152646,153.219100,-0.000000,9622.677246
308.152954,1685.410096,1110.308913,9178.553681
308.153262,3140.991542,1480.411884,7994.224174
308.153570,2681.334243,962.267725,7624.121203
308.153878,2145.067394,-222.061783,8512.368333
308.154186,1762.019645,-962.267725,9696.697840
308.154494,-842.705048,-2664.741391,11695.253884
308.154802,-1225.752797,-2812.782580,12065.356855
308.155110,-1838.629195,-1628.453072,10807.006753
308.155418,-1608.800546,-740.205942,11325.150913
308.155726,-1225.752797,666.185348,9548.656652
308.156034,383.047749,2220.617826,8882.471304
308.156342,1072.533697,2368.659014,8512.368333
308.156650,1838.629195,1850.514855,7105.977043
308.156958,2451.505594,962.267725,7254.018232
308.157266,1378.971896,-222.061783,9548.656652
308.157574,1149.143247,-888.247130,9918.759623
308.157882,306.438199,-74.020594,9844.739029
308.158190,76.609550,-148.041188,10362.883188
308.158498,766.095498,370.102971,9178.553681
308.158806,1532.190996,1332.370696,9030.512492
308.159114,2681.334243,1332.370696,9252.574275
308.159422,2834.553343,1036.288319,7698.141797
308.159730,1915.238745,-222.061783,8882.471304
308.160038,1225.752797,-1998.556043,10214.842000
308.160346,-536.266849,-2294.638420,11547.212695
308.160654,-1685.410096,-2442.679609,12065.356855
308.160962,-1991.848295,-1850.514855,11695.253884
308.161270,-1532.190996,-370.102971,10510.924376
308.161578,-383.047749,1332.370696,9770.718434
308.161886,229.828649,2664.741391,9178.553681
308.162194,2451.505594,2516.700203,7105.977043
308.162502,2757.943793,2738.761985,7254.018232
308.162810,1838.629195,1776.494261,7550.100608
308.163118,1302.362347,-0.000000,8808.450710
308.163426,689.485948,-518.144159,10510.924376
308.163734,459.657299,-666.185348,10807.006753
308.164042,-383.047749,518.144159,9326.594869
308.164350,536.266849,-74.020594,10955.047942
308.164658,919.314598,1554.432478,9252.574275
308.164966,2987.772442,962.267725,8882.471304
308.165274,2681.334243,1036.288319,8734.430116
308.165582,1838.629195,-0.000000,8882.471304
308.165890,536.266849,-1628.453072,10584.944971
308.166198,-995.924147,-2368.659014,11769.274478
308.166506,-1838.629195,-2960.823768,12879.583391
308.166814,-2298.286494,-1850.514855,10881.027347
308.167122,-2681.334243,-888.247130,11103.089130
308.167430,-1838.629195,962.267725,10362.883188
308.167738,229.828649,1924.535449,8882.471304
308.168046,1532.190996,3034.844362,8290.306550
308.168354,2374.896044,2442.679609,6735.874072
308.168662,2604.724693,1776.494261,7105.977043
308.168971,2068.457845,962.267725,8512.368333
308.169279,1685.410096,-444.123565,10140.821405
308.169587,229.828649,-666.185348,10214.842000
308.169895,536.266849,-148.041188,9548.656652
308.170203,1302.362347,148.041188,9770.718434
308.170511,1991.848295,1480.411884,8586.388927
308.170819,3064.381992,1628.453072,8586.388927
308.171127,3217.601092,1184.329507,8216.285956
308.171435,2374.896044,-222.061783,8660.409521
308.171743,766.095498,-1776.494261,9992.780217
308.172051,0.000000,-2886.803174,12805.562797
308.172359,-1302.362347,-3108.864956,12509.480420
308.172667,-2374.896044,-1998.556043,11547.212695
308.172975,-1762.019645,-518.144159,11325.150913
308.173283,-1225.752797,888.247130,9844.739029
308.173591,229.828649,1850.514855,9548.656652
308.173899,1838.629195,2886.803174,7772.162391
308.174207,2911.162892,2146.597232,7179.997637
308.174515,2451.505594,1332.370696,7550.100608
308.174823,2068.457845,-74.020594,9252.574275
308.175131,919.314598,-592.164754,10584.944971
308.175439,0.000000,-1258.350101,10510.924376
308.175747,306.438199,-296.082377,9696.697840
308.176055,1225.752797,518.144159,9326.594869
308.176363,1762.019645,740.205942,8808.450710
308.176671,3064.381992,1776.494261,7550.100608
308.176979,3983.696590,1776.494261,7698.141797
308.177287,2757.943793,370.102971,7698.141797
308.177595,1455.581446,-1036.288319,9622.677246
308.177903,229.828649,-1258.350101,11103.089130
308.178211,-1378.971896,-1998.556043,11843.295072
308.178519,-2145.067394,-1628.453072,11695.253884
308.178827,-2604.724693,-0.000000,11473.192101
308.179135,-2374.896044,666.185348,10881.027347
308.179443,-1378.971896,1480.411884,9844.739029
308.179751,383.047749,2146.597232,8882.471304
308.180059,1072.533697,1702.473667,8734.430116
308.180367,612.876398,444.123565,8290.306550
308.180675,76.609550,-370.102971,9918.759623
308.180983,-229.828649,-1258.350101,11177.109724
308.181291,-612.876398,-740.205942,11177.109724
308.181599,-536.266849,-666.185348,9992.780217
308.181907,76.609550,296.082377,9622.677246
308.182215,1532.190996,1702.473667,9104.533087
308.182523,2834.553343,2442.679609,7624.121203
308.182831,3294.210641,2220.617826,7550.100608
308.183139,3370.820191,1036.288319,7698.141797
308.183447,1685.410096,-444.123565,8882.471304
308.183755,306.438199,-1702.473667,11103.089130
308.184063,-612.876398,-2220.617826,11695.253884
308.184371,-2145.067394,-1628.453072,11251.130318
308.184679,-1991.848295,-1628.453072,11325.150913
308.184987,-1762.019645,148.041188,10436.903782
308.185295,-306.438199,1850.514855,9696.697840
308.185603,919.314598,2072.576638,8438.347739
308.185912,2068.457845,2442.679609,7179.997637
308.186220,1838.629195,1776.494261,7328.038826
308.186528,1378.971896,-0.000000,9326.594869
308.186836,1302.362347,-592.164754,11103.089130
308.187144,459.657299,-740.205942,10732.986159
308.187452,229.828649,-888.247130,10214.842000
308.187760,229.828649,-0.000000,10140.821405
308.188068,1225.752797,814.226536,9696.697840
308.188376,2834.553343,1258.350101,9400.615463
308.188684,3140.991542,1184.329507,7846.182985
308.188992,2987.772442,-0.000000,8438.347739
308.189300,2068.457845,-1628.453072,9474.636058
308.189608,689.485948,-1850.514855,11029.068536
308.189916,0.000000,-2442.679609,11843.295072
308.190224,-1225.752797,-1258.350101,10584.944971
308.190532,-919.314598,-888.247130,10881.027347
308.190840,-1225.752797,148.041188,9474.636058
308.191148,153.219100,1850.514855,8882.471304
308.191456,612.876398,2516.700203,9252.574275
308.191764,2221.676944,2812.782580,7328.038826
308.192072,1915.238745,1776.494261,7550.100608
308.192380,1072.533697,666.185348,8956.491898
308.192688,536.266849,-444.123565,10584.944971
308.192996,-689.485948,-592.164754,10732.986159
308.193304,-383.047749,-518.144159,10881.027347
308.193612,0.000000,-74.020594,9992.780217
308.193920,76.609550,1036.288319,10140.821405
308.194228,1685.410096,1258.350101,8956.491898
308.194536,2221.676944,1406.391290,8290.306550
308.194844,2528.115143,1036.288319,9104.533087
308.195152,1532.190996,-296.082377,8956.491898
308.195460,76.609550,-1258.350101,10362.883188
308.195768,-612.876398,-1998.556043,12065.356855
308.196076,-1608.800546,-1628.453072,11103.089130
308.196384,-1762.019645,-592.164754,10510.924376
308.196692,-1225.752797,-148.041188,10436.903782
308.197000,-1072.533697,1110.308913,9104.533087
308.197308,0.000000,2220.617826,9178.553681
308.197616,1455.581446,1998.556043,8364.327145
308.197924,1072.533697,2072.576638,7179.997637
308.198232,689.485948,370.102971,9178.553681
308.198540,383.047749,-518.144159,9844.739029
308.198848,0.000000,-740.205942,11103.089130
308.199156,-306.438199,-296.082377,10510.924376
308.199464,536.266849,-0.000000,9474.636058
308.199772,1225.752797,1110.308913,8956.491898
308.200080,1685.410096,1628.453072,8660.409521
308.200388,3677.258390,1184.329507,9770.718434
308.200696,2911.162892,666.185348,8364.327145
308.201004,1072.533697,-444.123565,8660.409521
308.201312,1455.581446,-3034.844362,11991.336260
308.201620,-995.924147,-2664.741391,10881.027347
308.201928,-1991.848295,-3182.885551,13249.686362
308.202236,-1302.362347,-1776.494261,11103.089130
308.202544,-1072.533697,370.102971,9992.780217
308.202852,0.000000,814.226536,10362.883188
308.203161,1149.143247,2886.803174,7772.162391
308.203469,2298.286494,2960.823768,8216.285956
308.203777,1838.629195,1554.432478,6809.894666
308.204085,2145.067394,1332.370696,7624.121203
308.204393,995.924147,-370.102971,9844.739029
308.204701,383.047749,-888.247130,10658.965565
308.205009,0.000000,370.102971,9918.759623
308.205317,229.828649,-0.000000,9770.718434
308.205625,689.485948,-0.000000,10214.842000
308.205933,1532.190996,1110.308913,9326.594869
308.206241,3447.429741,1406.391290,9326.594869
308.206549,3370.820191,370.102971,8142.265362
308.206857,2528.115143,-148.041188,7772.162391
308.207165,1915.238745,-1776.494261,10658.965565
308.207473,76.609550,-2368.659014,11547.212695
308.207781,-995.924147,-2146.597232,11769.274478
308.208089,-1685.410096,-1184.329507,11103.089130
308.208397,-1072.533697,-0.000000,10214.842000
308.208705,-229.828649,1110.308913,9696.697840
308.209013,842.705048,2516.700203,8956.491898
308.209321,1762.019645,2886.803174,8142.265362
308.209629,2298.286494,2368.659014,6735.874072
308.209937,1685.410096,1406.391290,7550.100608
308.210245,1072.533697,222.061783,9918.759623
308.210553,1455.581446,-740.205942,11103.089130
308.210861,153.219100,-296.082377,9770.718434
308.211169,-536.266849,-0.000000,10140.821405
308.211477,689.485948,-0.000000,9696.697840
308.211785,1608.800546,1332.370696,9326.594869
308.212093,2374.896044,1110.308913,9548.656652
308.212401,2451.505594,592.164754,8216.285956
308.212709,1532.190996,-888.247130,9548.656652
308.213017,0.000000,-2146.597232,10807.006753
308.213325,-1225.752797,-2442.679609,11991.336260
308.213633,-1455.581446,-2590.720797,12583.501014
308.213941,-1685.410096,-1110.308913,11547.212695
308.214249,-1762.019645,-0.000000,9696.697840
308.214557,0.000000,1776.494261,9104.533087
308.214865,1072.533697,2960.823768,8364.327145
308.215173,1838.629195,3256.906145,7105.977043
308.215481,2987.772442,2738.761985,6957.935855
308.215789,2145.067394,1702.473667,7772.162391
308.216097,1225.752797,-0.000000,9548.656652
308.216405,612.876398,-0.000000,9918.759623
308.216713,-383.047749,-740.205942,10658.965565
308.217021,-306.438199,-592.164754,10436.903782
308.217329,383.047749,-222.061783,9918.759623
308.217637,919.314598,962.267725,9918.759623
308.217945,2451.505594,666.185348,10214.842000
308.218253,1762.019645,962.267725,9030.512492
308.218561,1532.190996,-888.247130,9400.615463
308.218869,1149.143247,-1924.535449,10881.027347
308.219177,-766.095498,-2368.659014,11621.233289
308.219485,-1455.581446,-2220.617826,12435.459826
308.219793,-2374.896044,-1924.535449,10732.986159
308.220101,-1608.800546,-222.061783,10807.006753
308.220410,-383.047749,740.205942,10214.842000
308.220718,383.047749,2294.638420,8068.244768
308.221026,1455.581446,2516.700203,8216.285956
308.221334,2145.067394,1924.535449,6587.832884
308.221642,2221.676944,1480.411884,7698.141797
308.221950,1455.581446,592.164754,8216.285956
308.222258,842.705048,-592.164754,9770.718434
308.222566,306.438199,-518.144159,10955.047942
308.222874,536.266849,-518.144159,9622.677246
308.223182,536.266849,518.144159,9918.759623
308.223490,1225.752797,444.123565,9770.718434
308.223798,2068.457845,1184.329507,8882.471304
308.224106,2451.505594,1258.350101,8438.347739
308.224414,2221.676944,-222.061783,8956.491898
308.224722,842.705048,-1332.370696,9770.718434
308.225030,-612.876398,-2738.761985,12139.377449
308.225338,-1685.410096,-2664.741391,12287.418637
308.225646,-2604.724693,-1776.494261,11621.233289
308.225954,-1378.971896,-1110.308913,11769.274478
308.226262,-1838.629195,592.164754,9770.718434
308.226570,536.266849,2294.638420,8956.491898
308.226878,2145.067394,2664.741391,7402.059420
308.227186,2451.505594,2960.823768,6513.812290
308.227494,2604.724693,2146.597232,7179.997637
308.227802,2221.676944,1110.308913,8808.450710
308.228110,1455.581446,-222.061783,9844.739029
308.228418,995.924147,-0.000000,9400.615463
308.228726,153.219100,-0.000000,9844.739029
308.229034,229.828649,740.205942,9474.636058
308.229342,1225.752797,1332.370696,9622.677246
308.229650,2451.505594,1332.370696,9252.574275
308.229958,2451.505594,1184.329507,8290.306550
308.230266,2681.334243,-296.082377,9178.553681
308.230574,919.314598,-1554.432478,10288.862594
308.230882,-612.876398,-2664.741391,12139.377449
308.231190,-1149.143247,-3108.864956,12657.521608
308.231498,-2451.505594,-2072.576638,11843.295072
308.231806,-2068.457845,-814.226536,11325.150913
308.232114,-766.095498,740.205942,9696.697840
308.232422,612.876398,1850.514855,9252.574275
308.232730,1685.410096,2886.803174,7772.162391
308.233038,2374.896044,3256.906145,7179.997637
308.233346,2221.676944,2368.659014,7624.121203
308.233654,1762.019645,666.185348,9178.553681
308.233962,689.485948,-0.000000,9696.697840
308.234270,0.000000,-296.082377,10510.924376
308.234578,-153.219100,-518.144159,9770.718434
308.234886,0.000000,740.205942,9474.636058
308.235194,766.095498,1036.288319,9770.718434
308.235502,2221.676944,888.247130,8734.430116
308.235810,2451.505594,1554.432478,8512.368333
308.236118,2451.505594,-0.000000,8882.471304
308.236426,1072.533697,-1406.391290,9622.677246
308.236734,0.000000,-2220.617826,11843.295072
308.237042,-1455.581446,-2664.741391,12065.356855
308.237350,-2221.676944,-2294.638420,11917.315666
308.237659,-1915.238745,-740.205942,10807.006753
308.237967,-1685.410096,148.041188,10066.800811
308.238275,0.000000,1258.350101,9178.553681
308.238583,1072.533697,2146.597232,8290.306550
308.238891,1991.848295,1924.535449,7624.121203
308.239199,1149.143247,1258.350101,7328.038826
308.239507,1302.362347,-74.020594,9104.533087
308.239815,0.000000,-666.185348,9918.759623
308.240123,0.000000,-888.247130,10584.944971
308.240431,76.609550,-666.185348,10140.821405
308.240739,229.828649,-0.000000,9030.512492
308.241047,842.705048,1258.350101,8734.430116
308.241355,2374.896044,1480.411884,8808.450710
308.241663,3064.381992,1924.535449,7994.224174
308.241971,2298.286494,814.226536,7772.162391
308.242279,766.095498,-814.226536,9474.636058
308.242587,-153.219100,-1776.494261,11251.130318
308.242895,-1225.752797,-2368.659014,12065.356855
308.243203,-1838.629195,-1702.473667,11473.192101
308.243511,-1991.848295,-148.041188,10732.986159
308.243819,-1838.629195,814.226536,9844.739029
308.244127,-536.266849,2146.597232,9178.553681
308.244435,842.705048,3034.844362,7920.203579
308.244743,1532.190996,3182.885551,7179.997637
308.245051,1072.533697,2146.597232,7254.018232
308.245359,0.000000,666.185348,9400.615463
308.245667,-766.095498,-74.020594,11029.068536
308.245975,-2145.067394,-1110.308913,11917.315666
308.246283,-2681.334243,-962.267725,10732.986159
308.246591,-2451.505594,-592.164754,10807.006753
308.246899,-1915.238745,-0.000000,10881.027347
308.247207,-995.924147,1184.329507,9770.718434
308.247515,1072.533697,1036.288319,8956.491898
308.247823,1149.143247,666.185348,8364.327145
308.248131,0.000000,-518.144159,8808.450710
308.248439,-995.924147,-1332.370696,10362.883188
308.248747,-1685.410096,-2220.617826,11843.295072
308.249055,-3064.381992,-2590.720797,11843.295072
308.249363,-3753.867940,-1850.514855,10881.027347
308.249671,-3753.867940,-962.267725,10436.903782
308.249979,-2681.334243,296.082377,9918.759623
308.250287,-1302.362347,1554.432478,8660.409521
308.250595,229.828649,2812.782580,7624.121203
308.250903,1762.019645,2516.700203,6143.709319
308.251211,1302.362347,2368.659014,6513.812290
308.251519,1225.752797,962.267725,8586.388927
308.251827,0.000000,-0.000000,9178.553681
308.252135,-1302.362347,-1110.308913,10288.862594
308.252443,-2145.067394,-2072.576638,11029.068536
308.252751,-2528.115143,-592.164754,10288.862594
308.253059,-2145.067394,-222.061783,10881.027347
308.253367,-383.047749,1406.391290,9770.718434
308.253675,842.705048,2516.700203,8142.265362
308.253983,1532.190996,2516.700203,7105.977043
308.254291,1532.190996,2220.617826,7920.203579
308.254599,536.266849,962.267725,9178.553681
308.254908,-1532.190996,-370.102971,10436.903782
308.255216,-3983.696590,-2294.638420,11991.336260
308.255524,-5362.668486,-3182.885551,12731.542202
308.255832,-6511.811733,-3330.926739,13693.809927
308.256140,-6052.154434,-1480.411884,12509.480420
308.256448,-4290.134789,-222.061783,10881.027347
308.256756,-1991.848295,1554.432478,8882.471304
308.257064,0.000000,2664.741391,7031.956449
308.257372,2145.067394,3182.885551,5995.668130
308.257680,1915.238745,2960.823768,5699.585753
308.257988,1532.190996,2368.659014,6069.688724
308.258296,76.609550,222.061783,8068.244768
308.258604,-1991.848295,-1554.432478,9770.718434
308.258912,-3524.039291,-2738.761985,11103.089130
308.259220,-4290.134789,-2664.741391,11843.295072
308.259528,-3983.696590,-2368.659014,11843.295072
308.259836,-3370.820191,-888.247130,11473.192101
308.260144,-1685.410096,888.247130,10140.821405
308.260452,766.095498,2516.700203,7624.121203
308.260760,1915.238745,3923.091493,6217.729913
308.261068,1762.019645,3552.988522,6291.750507
308.261376,383.047749,2072.576638,7698.141797
308.261684,-2068.457845,148.041188,9326.594869
308.261992,-4213.525239,-1258.350101,11103.089130
308.262300,-5822.325785,-2960.823768,13175.665768
308.262608,-6741.640382,-3552.988522,14063.912898
308.262916,-7660.954980,-3923.091493,14804.118840
308.263224,-6052.154434,-3330.926739,13915.871710
308.263532,-4213.525239,-1776.494261,11843.295072
308.263840,-2068.457845,888.247130,8956.491898
308.264148,459.657299,2738.761985,6735.874072
308.264456,2298.286494,4145.153275,5773.606348
308.264764,2911.162892,5033.400406,4737.318029
308.265072,1991.848295,4737.318029,4663.297435
308.265380,995.924147,2960.823768,6069.688724
308.265688,-766.095498,1776.494261,8660.409521
308.265996,-3140.991542,-222.061783,10807.006753
308.266304,-4903.011187,-2220.617826,12657.521608
308.266612,-6511.811733,-3182.885551,13397.727550
308.266920,-5515.887586,-3849.070898,14211.954086
308.267228,-4060.306139,-3256.906145,13323.706956
308.267536,-3217.601092,-1332.370696,9622.677246
308.267844,0.000000,592.164754,8882.471304
308.268152,766.095498,2738.761985,6069.688724
308.268460,1608.800546,4885.359217,5921.647536
308.268768,1685.410096,5551.544565,5847.626942
308.269076,766.095498,5921.647536,5699.585753
308.269384,76.609550,2812.782580,8882.471304
308.269692,-3217.601092,1554.432478,8660.409521
308.270000,-5592.497135,-1998.556043,12657.521608
308.270308,-7967.393179,-4589.276840,14582.057057
308.270616,-10725.336972,-6291.750507,16062.468941
308.270924,-9959.241474,-7254.018232,17468.860231
308.271232,-8273.831378,-6883.915261,15766.386565
308.271539,-5515.887586,-4959.379811,13619.789333
308.271847,-2298.286494,-2368.659014,9400.615463
308.272155,919.314598,222.061783,7254.018232
308.272463,1991.848295,2812.782580,5107.421000
308.272771,4596.572988,5773.606348,4589.276840
308.273079,4979.620737,7624.121203,3256.906145
308.273387,4443.353888,8290.306550,1776.494261
308.273695,3830.477490,6809.894666,4219.173869
308.274003,1455.581446,5255.462188,5847.626942
308.274311,-1608.800546,2368.659014,9030.512492
308.274619,-4903.011187,-1406.391290,12065.356855
308.274927,-6511.811733,-2960.823768,14211.954086
308.275235,-8580.269578,-4293.194464,14063.912898
308.275543,-8810.098227,-4219.173869,14434.015869
308.275851,-6665.030833,-4515.256246,14359.995275
308.276159,-5745.716235,-3256.906145,11399.171507
308.276467,-4366.744339,-1998.556043,9844.739029
308.276775,-1915.238745,-592.164754,8808.450710
308.277082,-612.876398,1110.308913,7920.203579
308.277390,459.657299,2368.659014,7476.080014
308.277698,1455.581446,3330.926739,6809.894666
308.278006,1378.971896,2442.679609,7476.080014
308.278314,153.219100,2220.617826,7772.162391
308.278622,0.000000,1850.514855,8956.491898
308.278930,-995.924147,-0.000000,10288.862594
308.279238,-2221.676944,-888.247130,10140.821405
308.279546,-2145.067394,-518.144159,10066.800811
308.279854,-2757.943793,-1332.370696,9844.739029
308.280162,-1838.629195,-222.061783,9400.615463
308.280470,-1762.019645,1036.288319,8438.347739
308.280778,-1225.752797,666.185348,8808.450710
308.281086,-1608.800546,888.247130,8586.388927
308.281394,-2451.505594,1628.453072,9030.512492
308.281702,-3447.429741,888.247130,10510.924376
308.282010,-4443.353888,518.144159,11399.171507
308.282317,-5209.449386,-296.082377,11695.253884
308.282625,-6435.202183,-1406.391290,13027.624579
