#time,accel_x,accel_y,accel_z
269.870283,689.485948,296.082377,9474.636058
269.870591,766.095498,-0.000000,9474.636058
269.870899,459.657299,148.041188,9474.636058
269.871207,1149.143247,-0.000000,9622.677246
269.871515,612.876398,296.082377,9474.636058
269.871823,842.705048,296.082377,9474.636058
269.872131,383.047749,-0.000000,9548.656652
269.872439,383.047749,222.061783,9548.656652
269.872747,612.876398,-0.000000,9474.636058
269.873054,689.485948,-0.000000,9844.739029
269.873362,919.314598,-148.041188,9548.656652
269.873670,536.266849,-0.000000,9474.636058
269.873978,383.047749,-0.000000,9548.656652
269.874286,766.095498,-0.000000,9622.677246
269.874594,536.266849,148.041188,9474.636058
269.874902,842.705048,148.041188,9474.636058
269.875210,459.657299,-0.000000,9400.615463
269.875518,919.314598,-0.000000,9696.697840
269.875826,459.657299,-0.000000,9622.677246
269.876134,459.657299,222.061783,9474.636058
269.876442,612.876398,-0.000000,9548.656652
269.876750,689.485948,148.041188,9474.636058
269.877058,689.485948,-0.000000,9622.677246
269.877366,536.266849,222.061783,9696.697840
269.877673,306.438199,-0.000000,9548.656652
269.877981,995.924147,222.061783,9622.677246
269.878289,1149.143247,370.102971,9474.636058
269.878597,689.485948,-0.000000,9474.636058
269.878905,383.047749,148.041188,9548.656652
269.879213,766.095498,-0.000000,9474.636058
269.879521,536.266849,-0.000000,9622.677246
269.879829,536.266849,222.061783,9548.656652
269.880137,536.266849,-74.020594,10066.800811
269.880445,612.876398,-0.000000,9918.759623
269.880753,919.314598,-74.020594,10214.842000
269.881061,842.705048,-518.144159,9918.759623
269.881369,995.924147,-888.247130,9918.759623
269.881677,919.314598,-518.144159,9992.780217
269.881984,536.266849,-444.123565,10140.821405
269.882292,1149.143247,-74.020594,10066.800811
269.882600,1532.190996,-222.061783,9696.697840
269.882908,1455.581446,370.102971,9104.533087
269.883216,2298.286494,592.164754,9178.553681
269.883524,2528.115143,592.164754,8882.471304
269.883832,2451.505594,740.205942,9030.512492
269.884140,1915.238745,592.164754,8956.491898
269.884448,1378.971896,444.123565,9400.615463
269.884756,1532.190996,148.041188,9474.636058
269.885064,1608.800546,-0.000000,10214.842000
269.885372,1608.800546,-222.061783,10066.800811
269.885680,2068.457845,-370.102971,9844.739029
269.885988,1149.143247,-296.082377,10436.903782
269.886296,1762.019645,-222.061783,10288.862594
269.886603,1915.238745,-0.000000,9918.759623
269.886911,2374.896044,296.082377,9548.656652
269.887219,2681.334243,592.164754,9474.636058
269.887527,2757.943793,296.082377,9474.636058
269.887835,2604.724693,-0.000000,9326.594869
269.888143,3064.381992,592.164754,9474.636058
269.888451,2681.334243,592.164754,9548.656652
269.888759,2681.334243,518.144159,9622.677246
269.889067,2681.334243,370.102971,9770.718434
269.889375,2757.943793,-0.000000,9622.677246
269.889683,2451.505594,-0.000000,9770.718434
269.889991,2681.334243,-0.000000,9992.780217
269.890299,2987.772442,-148.041188,10214.842000
269.890607,2757.943793,-296.082377,10362.883188
269.890915,3140.991542,-222.061783,9622.677246
269.891222,3294.210641,-0.000000,9770.718434
269.891530,3140.991542,-0.000000,9770.718434
269.891838,3600.648841,222.061783,9696.697840
269.892146,4060.306139,370.102971,9178.553681
269.892454,4519.963438,518.144159,9252.574275
269.892762,4366.744339,444.123565,9252.574275
269.893070,4596.572988,222.061783,8882.471304
269.893378,4136.915689,222.061783,9252.574275
269.893686,4136.915689,148.041188,9474.636058
269.893994,4213.525239,148.041188,9474.636058
269.894302,3907.087040,-74.020594,9696.697840
269.894610,4136.915689,-0.000000,9548.656652
269.894918,4443.353888,-0.000000,9548.656652
269.895226,4366.744339,296.082377,9474.636058
269.895534,4673.182538,962.267725,9326.594869
269.895841,4366.744339,1036.288319,8734.430116
269.896149,4826.401637,1406.391290,8956.491898
269.896457,4673.182538,1258.350101,8808.450710
269.896765,4673.182538,1184.329507,8660.409521
269.897073,4290.134789,1184.329507,9400.615463
269.897381,3524.039291,962.267725,9622.677246
269.897689,4136.915689,518.144159,9992.780217
269.897997,3830.477490,888.247130,10362.883188
269.898305,2987.772442,-0.000000,9770.718434
269.898613,3217.601092,666.185348,9770.718434
269.898921,2604.724693,518.144159,9474.636058
269.899229,2987.772442,592.164754,9918.759623
269.899537,2145.067394,444.123565,9770.718434
269.899845,2681.334243,740.205942,9770.718434
269.900153,2451.505594,370.102971,9844.739029
269.900460,2528.115143,-0.000000,9622.677246
269.900768,1915.238745,-222.061783,9622.677246
269.901076,1455.581446,-296.082377,10140.821405
269.901384,1072.533697,-814.226536,10807.006753
269.901692,995.924147,-1184.329507,10807.006753
269.902000,1532.190996,-1258.350101,11177.109724
269.902308,2298.286494,-1776.494261,10955.047942
269.902616,1991.848295,-2368.659014,10510.924376
269.902924,2834.553343,-1554.432478,10362.883188
269.903232,3524.039291,-1406.391290,10066.800811
269.903540,3677.258390,-1258.350101,9548.656652
269.903848,3753.867940,-962.267725,9400.615463
269.904156,4673.182538,-222.061783,9178.553681
269.904464,4673.182538,592.164754,8512.368333
269.904772,5132.839837,1110.308913,8142.265362
269.905079,5362.668486,1184.329507,8586.388927
269.905387,4826.401637,666.185348,8290.306550
269.905695,4136.915689,444.123565,8512.368333
269.906003,4136.915689,296.082377,9030.512492
269.906311,3524.039291,-148.041188,9622.677246
269.906619,3217.601092,-370.102971,9548.656652
269.906927,3447.429741,148.041188,10362.883188
269.907235,2987.772442,-0.000000,9918.759623
269.907543,3294.210641,1036.288319,9178.553681
269.907851,3907.087040,2146.597232,8734.430116
269.908159,4519.963438,2664.741391,7846.182985
269.908467,4596.572988,3108.864956,7994.224174
269.908775,4596.572988,3404.947333,8290.306550
269.909083,4290.134789,2516.700203,9030.512492
269.909391,4213.525239,1332.370696,9548.656652
269.909698,2374.896044,-0.000000,11325.150913
269.910006,919.314598,-1924.535449,12361.439231
269.910314,0.000000,-3256.906145,13323.706956
269.910622,229.828649,-3701.029710,14063.912898
269.910930,1149.143247,-4071.132681,13841.851115
269.911238,1532.190996,-2664.741391,11843.295072
269.911546,3677.258390,-1998.556043,10881.027347
269.911854,5515.887586,-296.082377,9400.615463
269.912162,7354.516781,814.226536,8364.327145
269.912470,7201.297681,2442.679609,6513.812290
269.912778,7814.174080,4145.153275,5403.503377
269.913086,7967.393179,4145.153275,6439.791695
269.913394,6435.202183,4959.379811,4885.359217
269.913702,5975.544884,4737.318029,6217.729913
269.914010,4903.011187,3478.967927,6809.894666
269.914317,3140.991542,2368.659014,7772.162391
269.914625,2221.676944,740.205942,9474.636058
269.914933,1838.629195,-518.144159,10658.965565
269.915241,766.095498,-2220.617826,11843.295072
269.915549,-383.047749,-2664.741391,12731.542202
269.915857,-153.219100,-3552.988522,13841.851115
269.916165,0.000000,-4145.153275,13619.789333
269.916473,536.266849,-3256.906145,12879.583391
269.916781,1532.190996,-2368.659014,12213.398043
269.917089,3140.991542,-1702.473667,10955.047942
269.917397,4366.744339,-888.247130,9178.553681
269.917705,4673.182538,888.247130,7476.080014
269.918013,4903.011187,1702.473667,7031.956449
269.918321,4826.401637,2738.761985,6439.791695
269.918628,4749.792088,3627.009116,6587.832884
269.918936,4136.915689,3108.864956,6291.750507
269.919244,3140.991542,2368.659014,6809.894666
269.919552,2451.505594,1258.350101,7920.203579
269.919860,1072.533697,-74.020594,9252.574275
269.920168,76.609550,-2442.679609,11621.233289
269.920476,-1225.752797,-3701.029710,12657.521608
269.920784,-1302.362347,-4219.173869,13397.727550
269.921092,-689.485948,-3775.050304,13175.665768
269.921400,842.705048,-2442.679609,12139.377449
269.921708,2451.505594,-962.267725,10510.924376
269.922016,4290.134789,962.267725,7846.182985
269.922324,5362.668486,2664.741391,6291.750507
269.922632,5515.887586,4367.215058,4885.359217
269.922940,5898.935335,5107.421000,5255.462188
269.923247,5592.497135,5107.421000,5329.482782
269.923555,3830.477490,4219.173869,6143.709319
269.923863,2681.334243,1258.350101,9252.574275
269.924171,-689.485948,-444.123565,10362.883188
269.924479,-2298.286494,-2294.638420,12953.603985
269.924787,-3677.258390,-4737.318029,15396.283594
269.925095,-4213.525239,-4885.359217,15544.324782
269.925403,-3217.601092,-5107.421000,15914.427753
269.925711,-1302.362347,-4367.215058,14359.995275
269.926019,689.485948,-1628.453072,11621.233289
269.926327,2911.162892,1036.288319,8068.244768
269.926635,4903.011187,3108.864956,6587.832884
269.926943,6128.763984,4959.379811,5847.626942
269.927251,6971.469032,6513.812290,3849.070898
269.927559,6128.763984,5995.668130,3775.050304
269.927866,4749.792088,4515.256246,5403.503377
269.928174,2374.896044,1332.370696,8142.265362
269.928482,-1072.533697,-2368.659014,11473.192101
269.928790,-3524.039291,-4811.338623,14508.036463
269.929098,-5132.839837,-7105.977043,15988.448347
269.929406,-4596.572988,-6809.894666,15692.365970
269.929714,-2221.676944,-4811.338623,14434.015869
269.930022,153.219100,-1628.453072,11251.130318
269.930330,3677.258390,1554.432478,8364.327145
269.930638,5669.106685,4737.318029,5181.441594
269.930946,7354.516781,7772.162391,3182.885551
269.931254,7584.345430,8882.471304,2516.700203
269.931562,7354.516781,8364.327145,3849.070898
269.931870,5132.839837,6513.812290,4737.318029
269.932178,2451.505594,2738.761985,8364.327145
269.932485,-2068.457845,-1628.453072,12213.398043
269.932793,-5669.106685,-5773.606348,15766.386565
269.933101,-7660.954980,-8364.327145,18209.066173
269.933409,-8044.002729,-9400.615463,18801.230927
269.933717,-5975.544884,-8290.306550,17542.880825
269.934025,-2681.334243,-4811.338623,13841.851115
269.934333,306.438199,-1628.453072,10288.862594
269.934642,2987.772442,2072.576638,6291.750507
269.934950,6281.983084,5699.585753,3775.050304
269.935258,8656.879127,7328.038826,3997.112087
269.935566,7507.735880,8142.265362,1924.535449
269.935874,6894.859482,7476.080014,2516.700203
269.936183,4749.792088,4367.215058,5699.585753
269.936491,1838.629195,-444.123565,9696.697840
269.936799,-2145.067394,-4219.173869,12731.542202
269.937107,-4366.744339,-5847.626942,14878.139434
269.937416,-5592.497135,-7105.977043,14656.077652
269.937724,-4290.134789,-5847.626942,14137.933492
269.938032,-306.438199,-2220.617826,12435.459826
269.938340,2451.505594,666.185348,8290.306550
269.938648,4366.744339,2220.617826,5033.400406
269.938957,6588.421283,5255.462188,4811.338623
269.939265,6205.373534,6439.791695,4515.256246
269.939573,4443.353888,6217.729913,5625.565159
269.939881,2681.334243,4441.235652,7179.997637
269.940190,536.266849,1406.391290,9548.656652
269.940498,-3064.381992,-1998.556043,12139.377449
269.940806,-4826.401637,-4145.153275,14730.098246
269.941114,-6281.983084,-5995.668130,16950.716072
269.941422,-7507.735880,-7846.182985,16580.613101
269.941731,-5975.544884,-6069.688724,15470.304188
269.942039,-2374.896044,-2220.617826,12435.459826
269.942347,842.705048,296.082377,8216.285956
269.942655,3600.648841,2294.638420,5995.668130
269.942964,5439.278036,4737.318029,3849.070898
269.943272,6281.983084,5329.482782,3478.967927
269.943580,5898.935335,4737.318029,4441.235652
269.943888,3907.087040,3997.112087,6217.729913
269.944196,1991.848295,962.267725,8734.430116
269.944505,0.000000,-518.144159,9548.656652
269.944813,-1838.629195,-1628.453072,10510.924376
269.945121,-2911.162892,-2516.700203,12435.459826
269.945429,-2604.724693,-2886.803174,13471.748144
269.945738,-1302.362347,-1332.370696,12213.398043
269.946046,459.657299,-740.205942,10362.883188
269.946354,1302.362347,-148.041188,8290.306550
269.946662,2145.067394,370.102971,7476.080014
269.946970,1378.971896,1406.391290,8512.368333
269.947279,536.266849,1258.350101,9400.615463
269.947587,0.000000,444.123565,10732.986159
269.947895,-1302.362347,-814.226536,11695.253884
269.948203,-2528.115143,-1924.535449,12287.418637
269.948512,-2145.067394,-2146.597232,12583.501014
269.948820,-2145.067394,-1554.432478,12139.377449
269.949128,-1608.800546,-592.164754,11917.315666
269.949436,0.000000,-74.020594,10066.800811
269.949744,1991.848295,1554.432478,8438.347739
269.950053,3753.867940,2812.782580,6513.812290
269.950361,4903.011187,3108.864956,5625.565159
269.950669,4673.182538,2590.720797,6143.709319
269.950977,3370.820191,1628.453072,7402.059420
269.951286,2145.067394,-0.000000,9178.553681
269.951594,842.705048,-444.123565,10658.965565
269.951902,0.000000,-1258.350101,10881.027347
269.952210,0.000000,-518.144159,10881.027347
269.952518,229.828649,370.102971,9918.759623
269.952827,1762.019645,1480.411884,9548.656652
269.953135,2298.286494,2368.659014,8956.491898
269.953443,2528.115143,2960.823768,9104.533087
269.953751,2068.457845,1702.473667,8660.409521
269.954060,1608.800546,814.226536,9104.533087
269.954368,0.000000,-296.082377,11103.089130
269.954676,-842.705048,-1850.514855,12065.356855
269.954984,-2757.943793,-3182.885551,13249.686362
269.955292,-3524.039291,-4219.173869,13471.748144
269.955601,-3907.087040,-4145.153275,13767.830521
269.955909,-2528.115143,-2886.803174,13249.686362
269.956217,-919.314598,-1998.556043,10436.903782
269.956525,1149.143247,888.247130,8142.265362
269.956834,3600.648841,3627.009116,6661.853478
269.957142,5745.716235,4737.318029,4959.379811
269.957450,6281.983084,5995.668130,3330.926739
269.957758,6358.592633,4959.379811,4071.132681
269.958066,5209.449386,2960.823768,5403.503377
269.958375,3370.820191,1110.308913,8216.285956
269.958683,536.266849,-1776.494261,10732.986159
269.958991,-1302.362347,-3997.112087,11843.295072
269.959299,-2681.334243,-3775.050304,12065.356855
269.959608,-2604.724693,-3330.926739,12879.583391
269.959916,-842.705048,-2590.720797,12139.377449
269.960224,-919.314598,592.164754,9474.636058
269.960532,2604.724693,1924.535449,9030.512492
269.960840,2451.505594,3478.967927,7179.997637
269.961149,3370.820191,3849.070898,6661.853478
269.961457,3907.087040,2960.823768,7328.038826
269.961765,1915.238745,2664.741391,8216.285956
269.962073,0.000000,-444.123565,11473.192101
269.962382,-2757.943793,-2368.659014,12509.480420
269.962690,-3983.696590,-4219.173869,15174.221811
269.962998,-5056.230287,-5329.482782,14878.139434
269.963306,-4749.792088,-4885.359217,13841.851115
269.963614,-2757.943793,-2664.741391,12879.583391
269.963923,0.000000,-518.144159,9622.677246
269.964231,2145.067394,2886.803174,7105.977043
269.964539,4903.011187,4515.256246,5107.421000
269.964847,6818.249932,5625.565159,3404.947333
269.965156,5592.497135,5921.647536,2886.803174
269.965464,5209.449386,5477.523971,4663.297435
269.965772,3677.258390,2664.741391,7179.997637
269.966080,612.876398,370.102971,9622.677246
269.966388,-1685.410096,-2294.638420,12657.521608
269.966697,-2911.162892,-3701.029710,13027.624579
269.967005,-4136.915689,-4663.297435,13767.830521
269.967313,-3447.429741,-3849.070898,13323.706956
269.967621,-1455.581446,-1776.494261,12435.459826
269.967930,306.438199,-0.000000,10288.862594
269.968238,2374.896044,2220.617826,7772.162391
269.968546,2987.772442,3404.947333,6291.750507
269.968854,3753.867940,3034.844362,6957.935855
269.969162,2834.553343,2590.720797,7550.100608
269.969471,1608.800546,1554.432478,9030.512492
269.969779,-1225.752797,-740.205942,10955.047942
269.970087,-1915.238745,-3108.864956,14063.912898
269.970395,-3830.477490,-3552.988522,13397.727550
269.970704,-4443.353888,-4367.215058,13989.892304
269.971012,-3064.381992,-3701.029710,12879.583391
269.971320,-1378.971896,-296.082377,9474.636058
269.971628,689.485948,1406.391290,9474.636058
269.971936,3830.477490,3182.885551,5995.668130
269.972245,5362.668486,4737.318029,4515.256246
269.972553,5209.449386,4811.338623,4219.173869
269.972861,5209.449386,4367.215058,5477.523971
269.973169,3830.477490,2738.761985,7105.977043
269.973478,1302.362347,370.102971,9474.636058
269.973786,-612.876398,-1406.391290,11621.233289
269.974094,-2221.676944,-2590.720797,12361.439231
269.974402,-2757.943793,-3404.947333,13693.809927
269.974710,-2834.553343,-2886.803174,12879.583391
269.975019,-1455.581446,-1628.453072,12509.480420
269.975327,689.485948,-444.123565,11029.068536
269.975635,1532.190996,1554.432478,8586.388927
269.975943,3524.039291,2664.741391,7846.182985
269.976252,3064.381992,2368.659014,6069.688724
269.976560,2911.162892,1924.535449,7402.059420
269.976868,2221.676944,1110.308913,8956.491898
269.977176,459.657299,-74.020594,10436.903782
269.977484,-995.924147,-1628.453072,12361.439231
269.977793,-2298.286494,-3182.885551,12287.418637
269.978101,-2604.724693,-2664.741391,12731.542202
269.978409,-2374.896044,-2368.659014,11621.233289
269.978717,-612.876398,-74.020594,10732.986159
269.979026,1378.971896,1554.432478,8808.450710
269.979334,3447.429741,2960.823768,6513.812290
269.979642,4826.401637,4293.194464,4737.318029
269.979950,5362.668486,3775.050304,4737.318029
269.980258,4749.792088,2442.679609,5551.544565
269.980567,3370.820191,1554.432478,7179.997637
269.980875,1455.581446,-518.144159,9696.697840
269.981183,-229.828649,-1850.514855,11769.274478
269.981491,-1915.238745,-2812.782580,12213.398043
269.981800,-2528.115143,-3108.864956,12953.603985
269.982108,-2221.676944,-2072.576638,12657.521608
269.982416,-1149.143247,-666.185348,11547.212695
269.982724,306.438199,370.102971,10732.986159
269.983032,1838.629195,1776.494261,8216.285956
269.983341,3217.601092,2960.823768,6883.915261
269.983649,3294.210641,2664.741391,7254.018232
269.983957,2757.943793,1776.494261,7698.141797
269.984265,1532.190996,888.247130,9474.636058
269.984574,229.828649,-666.185348,10658.965565
269.984882,-1608.800546,-2072.576638,11917.315666
269.985190,-2987.772442,-3330.926739,13619.789333
269.985498,-4060.306139,-3552.988522,12879.583391
269.985806,-2681.334243,-2442.679609,11547.212695
269.986115,-1608.800546,-148.041188,10881.027347
269.986423,995.924147,1258.350101,9104.533087
269.986731,2451.505594,3182.885551,6587.832884
269.987039,4060.306139,4441.235652,5107.421000
269.987348,4443.353888,3849.070898,5255.462188
269.987656,3830.477490,2960.823768,6365.771101
269.987964,2221.676944,1850.514855,7624.121203
269.988272,153.219100,-0.000000,9474.636058
269.988580,-689.485948,-1924.535449,11769.274478
269.988889,-2451.505594,-2368.659014,11991.336260
269.989197,-2681.334243,-2664.741391,12583.501014
269.989505,-2221.676944,-2368.659014,12583.501014
269.989813,-1302.362347,-1110.308913,11695.253884
269.990122,306.438199,-0.000000,10288.862594
269.990430,1608.800546,1702.473667,8364.327145
269.990738,2757.943793,2516.700203,7031.956449
269.991046,3140.991542,2368.659014,6735.874072
269.991354,2834.553343,2220.617826,7846.182985
269.991663,2068.457845,962.267725,9178.553681
269.991971,153.219100,-1184.329507,10881.027347
269.992279,-2068.457845,-2590.720797,12287.418637
269.992587,-3447.429741,-3849.070898,13841.851115
269.992896,-3907.087040,-4071.132681,13841.851115
269.993204,-2911.162892,-2294.638420,12361.439231
269.993512,-995.924147,-296.082377,10732.986159
269.993820,1532.190996,1258.350101,8660.409521
269.994128,3447.429741,3330.926739,5995.668130
269.994437,4673.182538,4293.194464,5255.462188
269.994745,4903.011187,3923.091493,4959.379811
269.995053,4443.353888,3256.906145,5625.565159
269.995361,3600.648841,2886.803174,6735.874072
269.995670,2298.286494,592.164754,8660.409521
269.995978,383.047749,-1406.391290,10584.944971
269.996286,-1455.581446,-2368.659014,11843.295072
269.996594,-1838.629195,-3182.885551,12731.542202
269.996902,-1991.848295,-2442.679609,12583.501014
269.997211,-612.876398,-1480.411884,12435.459826
269.997519,459.657299,-0.000000,10362.883188
269.997827,2987.772442,1702.473667,8364.327145
269.998135,2757.943793,2738.761985,7031.956449
269.998444,3830.477490,2516.700203,7105.977043
269.998752,3370.820191,2664.741391,7698.141797
269.999060,2451.505594,1628.453072,8956.491898
269.999368,766.095498,-0.000000,10214.842000
269.999676,-1225.752797,-1998.556043,12287.418637
269.999985,-2374.896044,-3404.947333,13915.871710
270.000293,-3370.820191,-3627.009116,13693.809927
270.000601,-3677.258390,-2590.720797,13175.665768
270.000909,-1302.362347,-1110.308913,10881.027347
270.001218,612.876398,592.164754,9400.615463
270.001526,2911.162892,2442.679609,7254.018232
270.001834,4366.744339,3701.029710,5181.441594
270.002142,4290.134789,4145.153275,4367.215058
270.002450,4290.134789,3108.864956,6069.688724
270.002759,3524.039291,2812.782580,6809.894666
270.003067,1838.629195,1628.453072,8290.306550
270.003375,229.828649,-740.205942,10732.986159
270.003683,-1378.971896,-2072.576638,12213.398043
270.003992,-2451.505594,-2738.761985,12287.418637
270.004300,-2681.334243,-1998.556043,12361.439231
270.004608,-1991.848295,-1628.453072,12287.418637
270.004916,-153.219100,-370.102971,11103.089130
270.005224,1378.971896,1554.432478,9326.594869
270.005533,2528.115143,2664.741391,7698.141797
270.005841,2987.772442,2220.617826,7328.038826
270.006149,2528.115143,2146.597232,8142.265362
270.006457,1455.581446,1036.288319,9178.553681
270.006766,536.266849,-370.102971,10362.883188
270.007074,-1532.190996,-2072.576638,11991.336260
270.007382,-2757.943793,-3404.947333,13693.809927
270.007690,-3753.867940,-3923.091493,13693.809927
270.007998,-3294.210641,-2146.597232,13323.706956
270.008307,-1685.410096,-1332.370696,11325.150913
270.008615,0.000000,814.226536,9030.512492
270.008923,2221.676944,2812.782580,6809.894666
270.009231,3907.087040,3849.070898,5107.421000
270.009540,4519.963438,3997.112087,5329.482782
270.009848,3830.477490,3552.988522,5773.606348
270.010156,3524.039291,2368.659014,6809.894666
270.010464,1915.238745,962.267725,8660.409521
270.010772,-536.266849,-962.267725,10362.883188
270.011081,-1838.629195,-1998.556043,11991.336260
270.011389,-2604.724693,-3034.844362,12879.583391
270.011697,-2757.943793,-2590.720797,12879.583391
270.012005,-1915.238745,-1702.473667,12361.439231
270.012314,153.219100,-444.123565,10955.047942
270.012622,1302.362347,1110.308913,9178.553681
270.012930,3370.820191,2368.659014,7328.038826
270.013238,3524.039291,2664.741391,6661.853478
270.013546,3140.991542,2368.659014,7550.100608
270.013855,2374.896044,1184.329507,8216.285956
270.014163,919.314598,-296.082377,10066.800811
270.014471,-1149.143247,-2220.617826,12213.398043
270.014779,-2911.162892,-3923.091493,13619.789333
270.015088,-3524.039291,-3849.070898,13545.768739
270.015396,-2911.162892,-2960.823768,13323.706956
270.015704,-1378.971896,-1110.308913,11029.068536
270.016012,612.876398,888.247130,9178.553681
270.016320,3524.039291,2294.638420,6661.853478
270.016629,4519.963438,4441.235652,4293.194464
270.016937,5439.278036,4515.256246,4959.379811
270.017245,4596.572988,3404.947333,4885.359217
270.017553,4596.572988,3478.967927,6291.750507
270.017862,3140.991542,1776.494261,8216.285956
270.018170,766.095498,-740.205942,10362.883188
270.018478,-1302.362347,-2220.617826,12065.356855
270.018786,-2757.943793,-3627.009116,13249.686362
270.019094,-3140.991542,-3330.926739,13693.809927
270.019403,-2451.505594,-2590.720797,12509.480420
270.019711,-842.705048,-740.205942,11399.171507
270.020019,1149.143247,666.185348,9992.780217
270.020327,2374.896044,2516.700203,7476.080014
270.020636,3677.258390,3404.947333,6957.935855
270.020944,3447.429741,2812.782580,6883.915261
270.021252,2987.772442,2146.597232,8364.327145
270.021560,1302.362347,666.185348,9844.739029
270.021868,-995.924147,-1110.308913,11473.192101
270.022177,-2221.676944,-3404.947333,13471.748144
270.022485,-3753.867940,-3775.050304,13249.686362
270.022793,-3064.381992,-3478.967927,13323.706956
270.023101,-1838.629195,-2072.576638,11769.274478
270.023410,0.000000,148.041188,9252.574275
270.023718,2374.896044,2072.576638,7698.141797
270.024026,4213.525239,3997.112087,5403.503377
270.024334,5439.278036,4367.215058,4441.235652
270.024642,5056.230287,4737.318029,4811.338623
270.024951,4673.182538,3849.070898,6143.709319
270.025259,3447.429741,1998.556043,8068.244768
270.025567,689.485948,-0.000000,9844.739029
270.025875,-1685.410096,-1998.556043,12139.377449
270.026184,-3217.601092,-4071.132681,13545.768739
270.026492,-4060.306139,-3923.091493,14211.954086
270.026800,-3677.258390,-2812.782580,13619.789333
270.027108,-1991.848295,-1850.514855,12213.398043
270.027416,153.219100,666.185348,10955.047942
270.027725,2374.896044,1924.535449,8142.265362
270.028033,3140.991542,3034.844362,6587.832884
270.028341,3294.210641,2886.803174,6661.853478
270.028649,2681.334243,2146.597232,7698.141797
270.028958,1532.190996,888.247130,9030.512492
270.029266,-229.828649,-1110.308913,11399.171507
270.029574,-2298.286494,-3108.864956,12583.501014
270.029882,-3524.039291,-3404.947333,13471.748144
270.030190,-3294.210641,-3108.864956,12657.521608
270.030499,-2451.505594,-1406.391290,11695.253884
270.030807,0.000000,222.061783,9992.780217
270.031115,2451.505594,2368.659014,7550.100608
270.031423,3983.696590,3552.988522,5255.462188
270.031732,4826.401637,4293.194464,4589.276840
270.032040,5209.449386,3404.947333,4441.235652
270.032348,4443.353888,3330.926739,5403.503377
270.032656,2604.724693,2146.597232,8068.244768
270.032970,689.485948,-518.144159,10288.862594
270.033279,-1915.238745,-2368.659014,11991.336260
270.033587,-3140.991542,-3552.988522,13249.686362
270.033895,-3524.039291,-3552.988522,13249.686362
270.034203,-2757.943793,-2368.659014,12953.603985
270.034511,-1378.971896,-1184.329507,11769.274478
270.034820,919.314598,444.123565,9770.718434
270.035128,2757.943793,2368.659014,7624.121203
270.035436,3600.648841,2590.720797,6513.812290
270.035744,3907.087040,2368.659014,6883.915261
270.036053,3064.381992,1480.411884,8216.285956
270.036361,1149.143247,-148.041188,9918.759623
270.036669,-842.705048,-2294.638420,11695.253884
270.036977,-1991.848295,-3478.967927,13175.665768
270.037285,-2681.334243,-3997.112087,13027.624579
270.037594,-3140.991542,-3034.844362,12139.377449
270.037902,-1532.190996,-1480.411884,11473.192101
270.038210,383.047749,444.123565,9326.594869
270.038518,2911.162892,2812.782580,6587.832884
270.038827,4826.401637,4293.194464,4589.276840
270.039135,5592.497135,4589.276840,4737.318029
270.039443,5515.887586,4145.153275,5107.421000
270.039751,4443.353888,2960.823768,6143.709319
270.040059,2374.896044,1480.411884,8142.265362
270.040368,0.000000,-592.164754,10436.903782
270.040676,-2374.896044,-2442.679609,12583.501014
270.040984,-3524.039291,-3552.988522,13619.789333
270.041292,-3830.477490,-3404.947333,13767.830521
270.041601,-2757.943793,-2442.679609,12953.603985
270.041909,-612.876398,-1036.288319,11399.171507
270.042217,995.924147,1258.350101,9770.718434
270.042525,3140.991542,2886.803174,7402.059420
270.042833,4060.306139,3108.864956,6809.894666
270.043142,4136.915689,2960.823768,6957.935855
270.043450,3064.381992,2368.659014,7772.162391
270.043758,1532.190996,370.102971,9844.739029
270.044066,-766.095498,-1480.411884,11695.253884
270.044375,-2374.896044,-3256.906145,13027.624579
270.044683,-3753.867940,-4071.132681,13619.789333
270.044991,-4366.744339,-3701.029710,13249.686362
270.045299,-2451.505594,-1776.494261,12065.356855
270.045608,306.438199,444.123565,9992.780217
270.045916,2757.943793,2368.659014,7328.038826
270.046224,4749.792088,3923.091493,5033.400406
270.046532,4903.011187,4663.297435,4737.318029
270.046840,6128.763984,4293.194464,5181.441594
270.047149,4519.963438,3849.070898,5699.585753
270.047457,2757.943793,1998.556043,8290.306550
270.047765,153.219100,-666.185348,10436.903782
270.048073,-2298.286494,-2516.700203,12361.439231
270.048382,-3753.867940,-3849.070898,13545.768739
270.048690,-4136.915689,-3849.070898,13989.892304
270.048998,-2604.724693,-2960.823768,13397.727550
270.049306,-1072.533697,-1628.453072,12065.356855
270.049614,919.314598,814.226536,9622.677246
270.049923,2757.943793,2294.638420,7698.141797
270.050231,4060.306139,3108.864956,6513.812290
270.050539,4060.306139,3330.926739,6143.709319
270.050847,3064.381992,2442.679609,7402.059420
270.051156,1225.752797,444.123565,9326.594869
270.051464,-919.314598,-1776.494261,11547.212695
270.051772,-3064.381992,-2886.803174,13027.624579
270.052080,-3524.039291,-3923.091493,13545.768739
270.052388,-4443.353888,-3552.988522,13323.706956
270.052697,-2528.115143,-2146.597232,11917.315666
270.053005,383.047749,148.041188,9696.697840
270.053313,2987.772442,2368.659014,6661.853478
270.053621,4596.572988,4145.153275,4811.338623
270.053930,5669.106685,4515.256246,4885.359217
270.054238,5822.325785,4219.173869,4663.297435
270.054546,4366.744339,3627.009116,5625.565159
270.054854,2451.505594,1850.514855,7179.997637
270.055162,459.657299,-222.061783,9622.677246
270.055471,-1915.238745,-2368.659014,11843.295072
270.055779,-3524.039291,-3404.947333,13101.645173
270.056087,-3753.867940,-4737.318029,13989.892304
270.056395,-3064.381992,-2516.700203,13471.748144
270.056704,-1072.533697,-1332.370696,12065.356855
270.057012,689.485948,814.226536,9474.636058
270.057320,1991.848295,2072.576638,7698.141797
270.057628,3677.258390,2886.803174,6957.935855
270.057937,3600.648841,2738.761985,7031.956449
270.058245,2451.505594,1924.535449,8290.306550
270.058553,536.266849,-0.000000,9622.677246
270.058861,-919.314598,-1850.514855,11991.336260
270.059169,-2528.115143,-3849.070898,13397.727550
270.059478,-3753.867940,-3997.112087,13323.706956
270.059786,-2834.553343,-3256.906145,13249.686362
270.060094,-1608.800546,-1702.473667,11251.130318
270.060402,766.095498,666.185348,9326.594869
270.060711,2757.943793,2590.720797,7402.059420
270.061019,4596.572988,3849.070898,5847.626942
270.061327,5056.230287,4441.235652,5033.400406
270.061635,5056.230287,4441.235652,4515.256246
270.061943,4443.353888,4219.173869,5773.606348
270.062252,3064.381992,2220.617826,7846.182985
270.062560,919.314598,370.102971,10584.944971
270.062868,-1302.362347,-1628.453072,12213.398043
270.063176,-2757.943793,-3034.844362,12879.583391
270.063485,-3524.039291,-2886.803174,13471.748144
270.063793,-2987.772442,-1998.556043,12287.418637
270.064101,-1685.410096,-740.205942,12065.356855
270.064409,536.266849,962.267725,10510.924376
270.064717,2451.505594,1924.535449,8068.244768
270.065026,2911.162892,2442.679609,7105.977043
270.065334,2834.553343,2072.576638,7254.018232
270.065642,2221.676944,1480.411884,8216.285956
270.065950,1838.629195,222.061783,10066.800811
270.066259,-842.705048,-1628.453072,11547.212695
270.066567,-2911.162892,-3182.885551,13175.665768
270.066875,-3294.210641,-4367.215058,13693.809927
270.067183,-3600.648841,-2960.823768,12435.459826
270.067491,-1915.238745,-1480.411884,11621.233289
270.067800,229.828649,-0.000000,9992.780217
270.068108,3064.381992,2516.700203,7105.977043
270.068416,4213.525239,3775.050304,4663.297435
270.068724,5898.935335,4219.173869,4663.297435
270.069033,5592.497135,3552.988522,4145.153275
270.069341,4903.011187,3404.947333,5329.482782
270.069649,3294.210641,1776.494261,7179.997637
270.069957,689.485948,-296.082377,9548.656652
270.070266,-1302.362347,-2294.638420,11843.295072
270.070574,-2987.772442,-3034.844362,12139.377449
270.070882,-3447.429741,-3330.926739,12435.459826
270.071190,-2451.505594,-2516.700203,12657.521608
270.071498,-612.876398,-1184.329507,11399.171507
270.071807,1072.533697,1258.350101,9400.615463
270.072115,2374.896044,1850.514855,7772.162391
270.072423,3370.820191,2664.741391,6957.935855
270.072731,2834.553343,2368.659014,7105.977043
270.073040,2145.067394,1554.432478,8364.327145
270.073348,536.266849,-370.102971,9696.697840
270.073656,-1455.581446,-1332.370696,12139.377449
270.073964,-3370.820191,-3478.967927,13767.830521
270.074272,-4826.401637,-3997.112087,13471.748144
270.074581,-2834.553343,-4071.132681,14730.098246
270.074889,-2451.505594,-1702.473667,11029.068536
270.075197,153.219100,-0.000000,9400.615463
270.075505,3600.648841,1554.432478,7550.100608
270.075814,4596.572988,3775.050304,4071.132681
270.076122,5592.497135,3404.947333,5329.482782
270.076430,5286.058936,3997.112087,4367.215058
270.076738,4443.353888,3701.029710,5403.503377
270.077046,2834.553343,2146.597232,7254.018232
270.077355,689.485948,-0.000000,9696.697840
270.077663,-1608.800546,-1702.473667,12065.356855
270.077971,-3217.601092,-3256.906145,12879.583391
270.078279,-3753.867940,-3108.864956,13915.871710
270.078588,-2834.553343,-2590.720797,12509.480420
270.078896,-919.314598,-888.247130,11843.295072
270.079204,612.876398,740.205942,10362.883188
270.079512,3064.381992,2146.597232,8364.327145
270.079820,3370.820191,2516.700203,7698.141797
270.080129,3140.991542,2812.782580,7402.059420
270.080437,2834.553343,1554.432478,8216.285956
270.080745,76.609550,666.185348,9548.656652
270.081053,-689.485948,-1258.350101,11769.274478
270.081362,-2451.505594,-2886.803174,13545.768739
270.081670,-3524.039291,-3404.947333,13693.809927
270.081978,-3294.210641,-3034.844362,13693.809927
270.082286,-1762.019645,-2294.638420,12213.398043
270.082595,0.000000,-0.000000,9844.739029
270.082903,2221.676944,1776.494261,7846.182985
270.083211,4826.401637,2960.823768,6439.791695
270.083519,4979.620737,4071.132681,4589.276840
270.083827,5286.058936,3775.050304,5107.421000
270.084136,5439.278036,4071.132681,5033.400406
270.084444,3370.820191,2960.823768,6735.874072
270.084752,1072.533697,592.164754,9326.594869
270.085060,-536.266849,-1184.329507,11251.130318
270.085369,-2451.505594,-2664.741391,12805.562797
270.085677,-3370.820191,-3256.906145,13101.645173
270.085985,-1991.848295,-2220.617826,12435.459826
270.086293,-459.657299,-888.247130,11695.253884
270.086601,919.314598,222.061783,9844.739029
270.086910,2221.676944,1554.432478,8290.306550
270.087218,2911.162892,2072.576638,7550.100608
270.087526,2604.724693,1850.514855,7698.141797
270.087834,1685.410096,1480.411884,8068.244768
270.088143,612.876398,444.123565,9992.780217
270.088451,-766.095498,-1480.411884,11399.171507
270.088759,-2681.334243,-2516.700203,12287.418637
270.089067,-3447.429741,-3478.967927,13545.768739
270.089375,-3370.820191,-3256.906145,13323.706956
270.089684,-2145.067394,-1998.556043,11843.295072
270.089992,0.000000,-296.082377,10140.821405
270.090300,2298.286494,2146.597232,7105.977043
270.090608,4596.572988,3330.926739,5477.523971
270.090917,5898.935335,4145.153275,4367.215058
270.091225,5669.106685,4293.194464,4589.276840
270.091533,4979.620737,3552.988522,4737.318029
270.091841,3370.820191,2368.659014,6587.832884
270.092150,995.924147,-0.000000,9252.574275
270.092458,-1225.752797,-2146.597232,11695.253884
270.092766,-3447.429741,-3034.844362,13027.624579
270.093074,-3830.477490,-3701.029710,13323.706956
270.093382,-3140.991542,-2368.659014,12583.501014
270.093691,-1838.629195,-1184.329507,11251.130318
270.093999,689.485948,962.267725,10288.862594
270.094307,2374.896044,1924.535449,8512.368333
270.094615,2834.553343,2368.659014,7328.038826
270.094924,2757.943793,2146.597232,7846.182985
270.095232,2451.505594,1184.329507,8216.285956
270.095540,459.657299,296.082377,9474.636058
270.095848,-766.095498,-1110.308913,11547.212695
270.096156,-2451.505594,-2590.720797,13249.686362
270.096465,-3294.210641,-3404.947333,13767.830521
270.096773,-3600.648841,-3404.947333,13323.706956
270.097081,-2298.286494,-2516.700203,12435.459826
270.097389,-229.828649,-296.082377,10140.821405
270.097698,2221.676944,1924.535449,7994.224174
270.098006,4596.572988,3552.988522,5995.668130
270.098314,5592.497135,4441.235652,4293.194464
270.098622,6358.592633,4515.256246,4441.235652
270.098930,5745.716235,4367.215058,4515.256246
270.099239,4213.525239,2960.823768,6513.812290
270.099547,1915.238745,592.164754,8882.471304
270.099855,-1225.752797,-1258.350101,11251.130318
270.100163,-2681.334243,-2590.720797,13249.686362
270.100472,-3294.210641,-3330.926739,13249.686362
270.100780,-2451.505594,-2368.659014,13175.665768
270.101088,-1072.533697,-1258.350101,11769.274478
270.101396,919.314598,666.185348,9844.739029
270.101704,2987.772442,2146.597232,8586.388927
270.102013,2987.772442,2738.761985,7031.956449
270.102321,2911.162892,2220.617826,7254.018232
270.102629,2757.943793,1850.514855,8882.471304
270.102937,919.314598,1036.288319,9400.615463
270.103246,-306.438199,-962.267725,12435.459826
270.103554,-1991.848295,-2960.823768,13841.851115
270.103862,-4136.915689,-3034.844362,13249.686362
270.104170,-3217.601092,-4293.194464,14804.118840
270.104479,-2757.943793,-2590.720797,11991.336260
270.104787,-1225.752797,-888.247130,11621.233289
270.105095,2221.676944,740.205942,8364.327145
270.105403,4596.572988,3849.070898,5181.441594
270.105711,5975.544884,4145.153275,4737.318029
270.106020,6128.763984,4885.359217,4071.132681
270.106328,5745.716235,4441.235652,5033.400406
270.106636,4060.306139,3330.926739,5995.668130
270.106944,2145.067394,888.247130,8660.409521
270.107253,0.000000,-740.205942,10584.944971
270.107561,-2145.067394,-2442.679609,12139.377449
270.107869,-2681.334243,-3256.906145,12657.521608
270.108177,-2604.724693,-2146.597232,12139.377449
270.108485,-919.314598,-1332.370696,11991.336260
270.108794,689.485948,296.082377,9622.677246
270.109102,2451.505594,1924.535449,7920.203579
270.109410,2834.553343,1998.556043,7698.141797
270.109718,2681.334243,1998.556043,7254.018232
270.110027,2374.896044,1406.391290,7994.224174
270.110335,153.219100,222.061783,9770.718434
270.110643,-766.095498,-1184.329507,11029.068536
270.110951,-2911.162892,-2738.761985,13397.727550
270.111259,-4290.134789,-4293.194464,14804.118840
270.111568,-4673.182538,-4071.132681,13841.851115
270.111876,-3064.381992,-2664.741391,12731.542202
270.112184,-842.705048,-666.185348,10955.047942
270.112492,1225.752797,814.226536,7476.080014
270.112801,3983.696590,3256.906145,6143.709319
270.113109,5669.106685,4441.235652,5033.400406
270.113417,5822.325785,3923.091493,3701.029710
270.113725,5209.449386,4145.153275,4589.276840
270.114033,3907.087040,3330.926739,6217.729913
270.114342,1532.190996,1184.329507,8734.430116
270.114650,-229.828649,-1110.308913,10807.006753
270.114958,-2298.286494,-2368.659014,12509.480420
270.115266,-3140.991542,-3849.070898,12805.562797
270.115575,-2528.115143,-2664.741391,12361.439231
270.115883,-1455.581446,-1480.411884,11917.315666
270.116191,76.609550,-0.000000,10732.986159
270.116499,1762.019645,1628.453072,8808.450710
270.116808,2528.115143,2516.700203,7698.141797
270.117116,2451.505594,1924.535449,7920.203579
270.117424,1838.629195,2072.576638,8512.368333
270.117732,612.876398,740.205942,9696.697840
270.118040,-1838.629195,-888.247130,11695.253884
270.118349,-2834.553343,-2886.803174,13397.727550
270.118657,-4213.525239,-3108.864956,13915.871710
270.118965,-4136.915689,-3552.988522,14211.954086
270.119273,-2757.943793,-2812.782580,12731.542202
270.119582,-766.095498,-518.144159,10584.944971
270.119890,1608.800546,1184.329507,8586.388927
270.120198,4519.963438,2664.741391,6217.729913
270.120506,5822.325785,4145.153275,5181.441594
270.120814,6435.202183,4737.318029,4589.276840
270.121123,5439.278036,4367.215058,4589.276840
270.121431,4519.963438,3849.070898,6143.709319
270.121739,1991.848295,1258.350101,8364.327145
270.122047,0.000000,-740.205942,11177.109724
270.122356,-2145.067394,-2368.659014,12879.583391
270.122664,-2834.553343,-3108.864956,12879.583391
270.122972,-2834.553343,-2368.659014,13027.624579
270.123280,-1225.752797,-1406.391290,12139.377449
270.123588,1072.533697,296.082377,10658.965565
270.123897,2221.676944,1776.494261,8734.430116
270.124205,3370.820191,2294.638420,7328.038826
270.124513,2911.162892,2590.720797,7402.059420
270.124821,2298.286494,1924.535449,7772.162391
270.125130,1915.238745,888.247130,9474.636058
270.125438,-459.657299,-740.205942,11029.068536
270.125746,-2145.067394,-2516.700203,13323.706956
270.126054,-3447.429741,-3552.988522,13619.789333
270.126362,-3830.477490,-3701.029710,13841.851115
270.126671,-2451.505594,-3256.906145,13249.686362
270.126979,-766.095498,-1110.308913,9696.697840
270.127287,1838.629195,962.267725,8216.285956
270.127595,3830.477490,2664.741391,6809.894666
270.127904,4903.011187,4145.153275,4737.318029
270.128212,6052.154434,4589.276840,4145.153275
270.128520,5822.325785,4663.297435,3997.112087
270.128828,4673.182538,3256.906145,5773.606348
270.129137,2451.505594,1036.288319,8290.306550
270.129445,76.609550,-962.267725,10955.047942
270.129753,-2298.286494,-2812.782580,12361.439231
270.130061,-2987.772442,-3701.029710,13249.686362
270.130369,-3064.381992,-3034.844362,12879.583391
270.130678,-1302.362347,-1776.494261,11769.274478
270.130986,0.000000,-0.000000,10658.965565
270.131294,2068.457845,1332.370696,9178.553681
270.131602,2911.162892,2146.597232,7550.100608
270.131911,2528.115143,2368.659014,7179.997637
270.132219,2298.286494,1776.494261,7772.162391
270.132527,1302.362347,1110.308913,9326.594869
270.132835,-1838.629195,-444.123565,11325.150913
270.133143,-2604.724693,-2664.741391,13249.686362
270.133452,-4443.353888,-3330.926739,13545.768739
270.133760,-4826.401637,-3923.091493,14211.954086
270.134068,-3753.867940,-3034.844362,13323.706956
270.134376,-1532.190996,-1554.432478,11473.192101
270.134684,459.657299,740.205942,8660.409521
270.134992,3447.429741,2812.782580,6439.791695
270.135300,5592.497135,4737.318029,5033.400406
270.135608,6358.592633,4367.215058,4293.194464
270.135916,5439.278036,4737.318029,3775.050304
270.136224,4749.792088,3552.988522,5477.523971
270.136532,2681.334243,1554.432478,8142.265362
270.136840,153.219100,-148.041188,10362.883188
270.137148,-1225.752797,-2220.617826,12805.562797
270.137456,-2528.115143,-3627.009116,13027.624579
270.137764,-2604.724693,-2442.679609,12879.583391
270.138072,-1685.410096,-1702.473667,12805.562797
270.138380,536.266849,-0.000000,10362.883188
270.138688,1685.410096,1628.453072,9178.553681
270.138996,2221.676944,1776.494261,8290.306550
270.139304,2451.505594,1924.535449,7846.182985
270.139612,1532.190996,1702.473667,8364.327145
270.139920,306.438199,592.164754,9770.718434
270.140228,0.000000,-814.226536,10955.047942
270.140536,-2221.676944,-2738.761985,12657.521608
270.140844,-3600.648841,-3256.906145,14211.954086
270.141152,-3907.087040,-4219.173869,14063.912898
270.141460,-3064.381992,-2516.700203,12435.459826
270.141768,-995.924147,-1036.288319,10732.986159
270.142076,1915.238745,1406.391290,8290.306550
270.142384,4290.134789,2960.823768,6365.771101
270.142692,5898.935335,4293.194464,4663.297435
270.143000,5822.325785,4737.318029,3775.050304
270.143308,5745.716235,4219.173869,4663.297435
270.143616,4213.525239,3330.926739,5699.585753
270.143924,2145.067394,1406.391290,8660.409521
270.144232,0.000000,-1110.308913,10955.047942
270.144540,-1838.629195,-2516.700203,12287.418637
270.144848,-3140.991542,-3108.864956,13027.624579
270.145156,-2451.505594,-3404.947333,12805.562797
270.145464,-459.657299,-1184.329507,11473.192101
270.145772,536.266849,-74.020594,10288.862594
270.146080,2528.115143,1258.350101,9104.533087
270.146388,3217.601092,2590.720797,7105.977043
270.146696,3370.820191,2368.659014,7179.997637
270.147004,2145.067394,1628.453072,7772.162391
270.147312,1225.752797,1110.308913,9178.553681
270.147620,-306.438199,-1110.308913,11103.089130
270.147928,-2757.943793,-2368.659014,12509.480420
270.148236,-3983.696590,-4219.173869,14211.954086
270.148544,-4596.572988,-3849.070898,14137.933492
270.148852,-3830.477490,-3478.967927,12731.542202
270.149160,-1455.581446,-1184.329507,10881.027347
270.149468,1685.410096,1258.350101,8290.306550
270.149776,4213.525239,2960.823768,6217.729913
270.150084,5056.230287,3552.988522,4293.194464
270.150392,6205.373534,4071.132681,4145.153275
270.150700,5286.058936,3923.091493,3849.070898
270.151008,3830.477490,2886.803174,5773.606348
270.151316,2145.067394,888.247130,8142.265362
270.151624,-689.485948,-1184.329507,10584.944971
270.151932,-3064.381992,-2960.823768,12509.480420
270.152240,-3294.210641,-4071.132681,13249.686362
270.152548,-3600.648841,-3256.906145,13027.624579
270.152856,-1991.848295,-1702.473667,11991.336260
270.153164,0.000000,-74.020594,10881.027347
270.153472,1838.629195,1850.514855,9326.594869
270.153780,2528.115143,2368.659014,7772.162391
270.154088,3370.820191,2368.659014,7550.100608
270.154396,2221.676944,2146.597232,7550.100608
270.154704,1072.533697,1036.288319,9030.512492
270.155012,-383.047749,-0.000000,10881.027347
270.155320,-2834.553343,-1850.514855,12731.542202
270.155628,-3677.258390,-2960.823768,14434.015869
270.155936,-4136.915689,-3478.967927,14137.933492
270.156244,-3294.210641,-2368.659014,13101.645173
270.156552,-1072.533697,-962.267725,10955.047942
270.156860,1149.143247,1480.411884,8660.409521
270.157168,3677.258390,3182.885551,7179.997637
270.157476,5669.106685,4071.132681,5255.462188
270.157784,6435.202183,4589.276840,4663.297435
270.158092,5209.449386,4219.173869,4885.359217
270.158400,3983.696590,3478.967927,6143.709319
270.158708,2298.286494,1480.411884,8586.388927
270.159016,0.000000,-518.144159,11547.212695
270.159324,-2834.553343,-2442.679609,13027.624579
270.159632,-3370.820191,-3182.885551,13397.727550
270.159940,-2757.943793,-2960.823768,13915.871710
270.160248,-1455.581446,-1924.535449,12879.583391
270.160556,383.047749,-0.000000,10362.883188
270.160864,2298.286494,1628.453072,9474.636058
270.161172,3447.429741,2146.597232,7772.162391
270.161480,3294.210641,2590.720797,6735.874072
270.161788,2911.162892,1924.535449,7328.038826
270.162096,2451.505594,1258.350101,8290.306550
270.162404,229.828649,-0.000000,10288.862594
270.162712,-1762.019645,-2368.659014,12139.377449
270.163020,-3217.601092,-2960.823768,13249.686362
270.163328,-3753.867940,-4145.153275,13693.809927
270.163636,-3524.039291,-2960.823768,12583.501014
270.163944,-995.924147,-1702.473667,11103.089130
270.164252,1378.971896,444.123565,8216.285956
270.164560,4596.572988,2442.679609,6365.771101
270.164868,5439.278036,3182.885551,4441.235652
270.165176,5975.544884,3552.988522,4071.132681
270.165484,5515.887586,3775.050304,4663.297435
270.165792,4060.306139,3775.050304,5477.523971
270.166100,2681.334243,1480.411884,8068.244768
270.166408,-229.828649,-444.123565,10066.800811
270.166716,-2374.896044,-2960.823768,12953.603985
270.167024,-3524.039291,-3182.885551,13175.665768
270.167332,-3907.087040,-3849.070898,12953.603985
270.167640,-2221.676944,-2368.659014,13175.665768
270.167948,-536.266849,-1036.288319,11547.212695
270.168256,1455.581446,592.164754,9400.615463
270.168564,2528.115143,1628.453072,7994.224174
270.168872,2757.943793,2294.638420,7105.977043
270.169180,2528.115143,2368.659014,7328.038826
270.169488,1991.848295,1332.370696,8216.285956
270.169796,1072.533697,518.144159,9918.759623
270.170104,-919.314598,-1480.411884,11621.233289
270.170412,-2987.772442,-2442.679609,13545.768739
270.170720,-4136.915689,-3552.988522,13397.727550
270.171028,-3447.429741,-2886.803174,12509.480420
270.171336,-1455.581446,-888.247130,11177.109724
270.171644,689.485948,518.144159,9030.512492
270.171952,3217.601092,2368.659014,7105.977043
270.172260,5056.230287,3330.926739,4959.379811
270.172568,4979.620737,3552.988522,4811.338623
270.172876,4903.011187,3404.947333,5033.400406
270.173184,3447.429741,3182.885551,6513.812290
270.173492,1838.629195,1628.453072,8808.450710
270.173800,-153.219100,-148.041188,10732.986159
270.174108,-2911.162892,-1776.494261,13027.624579
270.174416,-3447.429741,-2960.823768,13915.871710
270.174724,-3064.381992,-3034.844362,13545.768739
270.175032,-2451.505594,-1998.556043,12509.480420
270.175340,0.000000,-518.144159,11621.233289
270.175648,1532.190996,814.226536,9770.718434
270.175956,2528.115143,1850.514855,8364.327145
270.176264,3677.258390,2368.659014,7402.059420
270.176572,3294.210641,2664.741391,7328.038826
270.176880,2681.334243,2516.700203,8512.368333
270.177188,1378.971896,962.267725,9548.656652
270.177496,-1149.143247,-518.144159,11325.150913
270.177804,-2451.505594,-2664.741391,13693.809927
270.178112,-3983.696590,-3256.906145,13693.809927
270.178420,-3217.601092,-2738.761985,13545.768739
270.178728,-2145.067394,-1702.473667,11769.274478
270.179037,383.047749,222.061783,9326.594869
270.179345,3294.210641,2368.659014,7772.162391
270.179653,5056.230287,2590.720797,5477.523971
270.179961,5362.668486,3997.112087,4737.318029
270.180269,4979.620737,3256.906145,5181.441594
270.180577,4213.525239,2886.803174,6143.709319
270.180885,2451.505594,1776.494261,7550.100608
270.181193,612.876398,-74.020594,10140.821405
270.181501,-919.314598,-1554.432478,11769.274478
270.181809,-2374.896044,-2738.761985,12583.501014
270.182117,-2834.553343,-2960.823768,12509.480420
270.182425,-1532.190996,-2368.659014,12435.459826
270.182733,0.000000,-740.205942,10584.944971
270.183041,1762.019645,962.267725,9400.615463
270.183349,3064.381992,1924.535449,7476.080014
270.183657,3677.258390,2220.617826,7105.977043
270.183965,3064.381992,1628.453072,7105.977043
270.184273,2298.286494,1406.391290,8068.244768
270.184581,612.876398,-0.000000,9548.656652
270.184889,-1762.019645,-1554.432478,11917.315666
270.185197,-3217.601092,-3108.864956,12953.603985
270.185505,-3677.258390,-3627.009116,13619.789333
270.185813,-3907.087040,-3182.885551,12953.603985
270.186121,-2145.067394,-1776.494261,11843.295072
270.186429,383.047749,-0.000000,9474.636058
270.186737,2757.943793,2516.700203,6957.935855
270.187045,4519.963438,3701.029710,5699.585753
270.187353,5515.887586,3775.050304,4737.318029
270.187661,4596.572988,3849.070898,4885.359217
270.187969,3524.039291,2960.823768,6439.791695
270.188277,2068.457845,1702.473667,7994.224174
270.188585,-76.609550,-888.247130,10584.944971
270.188893,-2374.896044,-2072.576638,11695.253884
270.189201,-3217.601092,-2886.803174,12435.459826
270.189509,-3447.429741,-3034.844362,13175.665768
270.189817,-2528.115143,-2220.617826,12287.418637
270.190125,-459.657299,-296.082377,11251.130318
270.190433,1149.143247,1406.391290,9104.533087
270.190741,3064.381992,2220.617826,7994.224174
270.191049,3294.210641,2442.679609,7179.997637
270.191357,2757.943793,2294.638420,7994.224174
270.191665,2145.067394,1406.391290,8512.368333
270.191973,229.828649,74.020594,10436.903782
270.192281,-1762.019645,-1850.514855,12361.439231
270.192589,-3447.429741,-3034.844362,13397.727550
270.192897,-4136.915689,-3256.906145,13915.871710
270.193205,-3447.429741,-2886.803174,13027.624579
270.193513,-1608.800546,-1554.432478,11547.212695
270.193821,842.705048,592.164754,9474.636058
270.194129,2681.334243,2220.617826,7179.997637
270.194437,4826.401637,3404.947333,5477.523971
270.194745,4979.620737,4219.173869,5181.441594
270.195053,4826.401637,4071.132681,4959.379811
270.195361,3983.696590,3775.050304,5847.626942
270.195669,2757.943793,1998.556043,7994.224174
270.195977,1149.143247,444.123565,10214.842000
270.196285,-919.314598,-1628.453072,11621.233289
270.196593,-2911.162892,-2590.720797,13323.706956
270.196901,-2604.724693,-2960.823768,13545.768739
270.197209,-1762.019645,-2368.659014,12435.459826
270.197517,-153.219100,-518.144159,11325.150913
270.197825,1762.019645,888.247130,9474.636058
270.198133,2834.553343,2146.597232,7550.100608
270.198441,3677.258390,2590.720797,7402.059420
270.198749,3524.039291,2072.576638,7550.100608
270.199057,2528.115143,1480.411884,8512.368333
270.199365,383.047749,370.102971,10140.821405
270.199673,-995.924147,-1850.514855,12065.356855
270.199981,-2374.896044,-3034.844362,12879.583391
270.200289,-3983.696590,-3330.926739,13693.809927
270.200597,-3294.210641,-3256.906145,13175.665768
270.200905,-1532.190996,-1924.535449,11103.089130
270.201213,1302.362347,370.102971,9474.636058
270.201521,3294.210641,2294.638420,6809.894666
270.201829,5592.497135,3404.947333,4515.256246
270.202137,6128.763984,4145.153275,4441.235652
270.202445,5515.887586,4145.153275,4293.194464
270.202753,4749.792088,3552.988522,4811.338623
270.203061,3217.601092,2146.597232,6957.935855
270.203369,612.876398,-296.082377,9178.553681
270.203677,-1608.800546,-2220.617826,11399.171507
270.203985,-3140.991542,-3849.070898,13471.748144
270.204293,-3907.087040,-3775.050304,13397.727550
270.204601,-2757.943793,-3034.844362,12805.562797
270.204909,-1072.533697,-1184.329507,11769.274478
270.205217,1149.143247,666.185348,9844.739029
270.205525,2528.115143,1850.514855,7920.203579
270.205833,2604.724693,2294.638420,7031.956449
270.206141,3064.381992,1924.535449,7772.162391
270.206449,2298.286494,1628.453072,7402.059420
270.206757,536.266849,-74.020594,9844.739029
270.207065,-1455.581446,-1850.514855,11695.253884
270.207373,-3217.601092,-3108.864956,13397.727550
270.207681,-4366.744339,-3849.070898,14359.995275
270.207989,-4366.744339,-3478.967927,13175.665768
270.208297,-2451.505594,-2368.659014,12361.439231
270.208605,0.000000,-444.123565,9474.636058
270.208913,2911.162892,2146.597232,7328.038826
270.209221,4749.792088,3256.906145,6069.688724
270.209529,5515.887586,4441.235652,4515.256246
270.209837,5286.058936,4589.276840,4441.235652
270.210145,4366.744339,4293.194464,5107.421000
270.210453,3370.820191,2886.803174,6735.874072
270.210761,1072.533697,888.247130,9400.615463
270.211069,-1915.238745,-1110.308913,11843.295072
270.211377,-3140.991542,-2738.761985,13249.686362
270.211685,-3983.696590,-3552.988522,13767.830521
270.211993,-3370.820191,-2886.803174,13989.892304
270.212301,-1838.629195,-1184.329507,12213.398043
270.212609,383.047749,148.041188,10436.903782
270.212917,1838.629195,1776.494261,8882.471304
270.213225,3140.991542,1776.494261,7179.997637
270.213533,3140.991542,2146.597232,7550.100608
270.213841,1991.848295,1332.370696,8512.368333
270.214149,1149.143247,888.247130,9326.594869
270.214457,-612.876398,-740.205942,10881.027347
270.214765,-2374.896044,-2368.659014,13027.624579
270.215073,-3447.429741,-3552.988522,13693.809927
270.215381,-3140.991542,-3034.844362,13101.645173
270.215689,-1991.848295,-2220.617826,11991.336260
270.215997,306.438199,222.061783,9622.677246
270.216305,3907.087040,2220.617826,7772.162391
270.216613,5592.497135,3182.885551,5181.441594
270.216921,5745.716235,4367.215058,4367.215058
270.217229,5822.325785,4071.132681,4589.276840
270.217537,4903.011187,3552.988522,5033.400406
270.217845,3600.648841,2442.679609,6143.709319
270.218153,1608.800546,592.164754,9030.512492
270.218461,-1225.752797,-1480.411884,11325.150913
270.218769,-2757.943793,-2664.741391,12805.562797
270.219077,-3064.381992,-3478.967927,14137.933492
270.219385,-3064.381992,-2960.823768,13175.665768
270.219693,-1685.410096,-1406.391290,11473.192101
270.220001,842.705048,-0.000000,10955.047942
270.220309,3294.210641,1332.370696,8808.450710
270.220617,3447.429741,2368.659014,6661.853478
270.220925,3447.429741,2368.659014,7328.038826
270.221233,3294.210641,1554.432478,7476.080014
270.221541,1378.971896,592.164754,9252.574275
270.221849,-612.876398,-1110.308913,11325.150913
270.222157,-1915.238745,-2738.761985,12509.480420
270.222465,-3447.429741,-3552.988522,12879.583391
270.222773,-3600.648841,-3256.906145,13101.645173
270.223081,-2068.457845,-2294.638420,11621.233289
270.223389,383.047749,-0.000000,9326.594869
270.223697,3370.820191,2220.617826,7328.038826
270.224005,4519.963438,3775.050304,5551.544565
270.224313,5745.716235,4219.173869,4441.235652
270.224621,4903.011187,4441.235652,4441.235652
270.224929,4443.353888,3775.050304,5255.462188
270.225237,3370.820191,2368.659014,7698.141797
270.225545,919.314598,-0.000000,9844.739029
270.225853,-1838.629195,-1924.535449,12065.356855
270.226161,-3294.210641,-3701.029710,13323.706956
270.226469,-4366.744339,-4071.132681,13619.789333
270.226777,-3524.039291,-2886.803174,13619.789333
270.227085,-1608.800546,-1554.432478,11843.295072
270.227393,689.485948,740.205942,10436.903782
270.227701,2528.115143,2146.597232,7698.141797
270.228009,3600.648841,2368.659014,7031.956449
270.228317,2757.943793,2442.679609,7105.977043
270.228625,2757.943793,1924.535449,7772.162391
270.228933,766.095498,814.226536,9030.512492
270.229241,-842.705048,-814.226536,11473.192101
270.229549,-2451.505594,-2368.659014,12879.583391
270.229857,-3753.867940,-3478.967927,13693.809927
270.230165,-3677.258390,-3701.029710,13989.892304
270.230473,-1762.019645,-2516.700203,11843.295072
270.230781,0.000000,-592.164754,10066.800811
270.231089,2451.505594,1406.391290,8142.265362
270.231397,4519.963438,3775.050304,6365.771101
270.231705,5132.839837,4663.297435,4589.276840
270.232013,5132.839837,4663.297435,4737.318029
270.232321,4443.353888,4071.132681,5403.503377
270.232629,2834.553343,2738.761985,7031.956449
270.232937,612.876398,148.041188,9622.677246
270.233245,-1455.581446,-1702.473667,11695.253884
270.233553,-2757.943793,-3552.988522,13545.768739
270.233861,-3907.087040,-3627.009116,13693.809927
270.234169,-3217.601092,-3478.967927,13841.851115
270.234477,-1302.362347,-1258.350101,12287.418637
270.234785,1149.143247,592.164754,9474.636058
270.235093,3907.087040,2220.617826,7698.141797
270.235401,4366.744339,2442.679609,6957.935855
270.235709,4290.134789,2368.659014,7105.977043
270.236017,2834.553343,1628.453072,7550.100608
270.236325,1991.848295,888.247130,9178.553681
270.236633,-229.828649,-740.205942,10955.047942
270.236941,-2068.457845,-2368.659014,12805.562797
270.237249,-2987.772442,-3330.926739,13619.789333
270.237557,-3064.381992,-3627.009116,13471.748144
270.237865,-1532.190996,-2368.659014,11843.295072
270.238173,0.000000,-444.123565,9770.718434
270.238482,2911.162892,1554.432478,8290.306550
270.238790,4903.011187,2960.823768,5625.565159
270.239098,5362.668486,4441.235652,4145.153275
270.239406,5669.106685,4145.153275,4589.276840
270.239714,4979.620737,4145.153275,5033.400406
270.240022,3524.039291,3034.844362,6143.709319
270.240330,1532.190996,370.102971,9104.533087
270.240638,0.000000,-962.267725,11621.233289
270.240946,-2604.724693,-3034.844362,12731.542202
270.241254,-3447.429741,-3627.009116,13471.748144
270.241563,-3217.601092,-2960.823768,13323.706956
270.241871,-1149.143247,-1184.329507,11769.274478
270.242179,1225.752797,1184.329507,9770.718434
270.242487,2834.553343,2664.741391,8216.285956
270.242795,2834.553343,2442.679609,7624.121203
270.243103,2834.553343,1850.514855,7698.141797
270.243411,1225.752797,1850.514855,8142.265362
270.243719,153.219100,-0.000000,9696.697840
270.244027,-1149.143247,-1036.288319,11621.233289
270.244335,-3217.601092,-2442.679609,13027.624579
270.244644,-4213.525239,-3552.988522,14285.974681
270.244952,-3677.258390,-3478.967927,13397.727550
270.245260,-3677.258390,-2220.617826,11695.253884
270.245568,459.657299,-1332.370696,11843.295072
270.245876,1915.238745,1924.535449,7328.038826
270.246184,3524.039291,3478.967927,5551.544565
270.246492,5439.278036,3552.988522,5551.544565
270.246800,4826.401637,4589.276840,3108.864956
270.247108,4290.134789,3701.029710,5403.503377
270.247416,3600.648841,3034.844362,6439.791695
270.247725,689.485948,814.226536,9030.512492
270.248033,-1991.848295,-1036.288319,10881.027347
270.248341,-1532.190996,-2146.597232,13841.851115
270.248649,-4136.915689,-2960.823768,12213.398043
270.248957,-3830.477490,-2368.659014,13027.624579
270.249265,-919.314598,-2072.576638,13471.748144
270.249573,0.000000,1480.411884,8882.471304
270.249881,1838.629195,962.267725,10140.821405
270.250189,2374.896044,2442.679609,7105.977043
270.250497,2604.724693,1480.411884,7846.182985
270.250806,1455.581446,962.267725,9474.636058
270.251114,76.609550,74.020594,9770.718434
270.251422,-842.705048,-1258.350101,12139.377449
270.251730,-2987.772442,-2812.782580,12657.521608
270.252038,-3600.648841,-3330.926739,13915.871710
270.252346,-3830.477490,-3997.112087,13175.665768
270.252654,-2145.067394,-2664.741391,12065.356855
270.252962,459.657299,-592.164754,9474.636058
270.253270,3217.601092,1998.556043,7994.224174
270.253578,4749.792088,3034.844362,6365.771101
270.253887,5362.668486,4293.194464,4293.194464
270.254195,6281.983084,4441.235652,4589.276840
270.254503,5209.449386,3775.050304,4367.215058
270.254811,4290.134789,2590.720797,6143.709319
270.255119,2681.334243,740.205942,8734.430116
270.255427,153.219100,-1258.350101,10881.027347
270.255735,-1302.362347,-2738.761985,12139.377449
270.256043,-2528.115143,-2812.782580,12953.603985
270.256351,-1991.848295,-2516.700203,12805.562797
270.256659,-766.095498,-814.226536,10955.047942
270.256968,1532.190996,962.267725,9622.677246
270.257276,3370.820191,2442.679609,8364.327145
270.257584,3600.648841,2368.659014,7624.121203
270.257892,3294.210641,1998.556043,7254.018232
270.258200,2221.676944,1554.432478,8068.244768
270.258508,919.314598,296.082377,10436.903782
270.258816,-1225.752797,-1332.370696,11843.295072
270.259124,-2451.505594,-2812.782580,13767.830521
270.259432,-3064.381992,-3256.906145,13619.789333
270.259740,-3370.820191,-3849.070898,13619.789333
270.260049,-2451.505594,-2590.720797,12953.603985
270.260357,0.000000,-666.185348,10362.883188
270.260665,2451.505594,1184.329507,8290.306550
270.260973,4903.011187,3108.864956,5995.668130
270.261281,5822.325785,4441.235652,4293.194464
270.261589,5975.544884,4589.276840,4219.173869
270.261897,5592.497135,4589.276840,4737.318029
270.262205,3524.039291,3478.967927,5477.523971
270.262513,2221.676944,1554.432478,8956.491898
270.262821,-153.219100,-444.123565,11399.171507
270.263130,-2604.724693,-1628.453072,12287.418637
270.263438,-3217.601092,-2738.761985,12879.583391
270.263746,-2911.162892,-2590.720797,13471.748144
270.264054,-1685.410096,-1406.391290,12287.418637
270.264362,153.219100,444.123565,10288.862594
270.264670,2068.457845,1850.514855,8734.430116
270.264978,2987.772442,2368.659014,8216.285956
270.265286,2298.286494,2146.597232,7994.224174
270.265594,1685.410096,1406.391290,8734.430116
270.265903,153.219100,370.102971,9548.656652
270.266211,-1762.019645,-888.247130,11399.171507
270.266519,-2681.334243,-2442.679609,13471.748144
270.266827,-3830.477490,-3256.906145,13989.892304
270.267135,-4060.306139,-3775.050304,13397.727550
270.267443,-3447.429741,-2516.700203,12361.439231
270.267751,-1608.800546,-1036.288319,11029.068536
270.268059,1685.410096,962.267725,8512.368333
270.268367,3907.087040,2516.700203,6069.688724
270.268675,5132.839837,4293.194464,4737.318029
270.268984,5362.668486,4293.194464,4367.215058
270.269292,5439.278036,4441.235652,4663.297435
270.269600,3600.648841,3330.926739,6069.688724
270.269908,1455.581446,1480.411884,8438.347739
270.270216,-612.876398,-370.102971,10955.047942
270.270524,-2604.724693,-2146.597232,12287.418637
270.270832,-3677.258390,-3108.864956,13471.748144
270.271140,-3677.258390,-2886.803174,13323.706956
270.271448,-2221.676944,-1702.473667,12583.501014
270.271756,0.000000,-222.061783,10881.027347
270.272065,1762.019645,1184.329507,9030.512492
270.272373,1532.190996,962.267725,8734.430116
270.272681,1991.848295,814.226536,8142.265362
270.272989,1149.143247,814.226536,8808.450710
270.273297,306.438199,-0.000000,9844.739029
270.273605,-842.705048,-1036.288319,10955.047942
270.273913,-1532.190996,-2146.597232,12139.377449
270.274221,-1608.800546,-2738.761985,12509.480420
270.274529,-2451.505594,-2590.720797,12213.398043
270.274837,-1225.752797,-1924.535449,11547.212695
270.275146,0.000000,-444.123565,9326.594869
270.275454,2757.943793,1628.453072,7402.059420
270.275762,4673.182538,3182.885551,6069.688724
270.276070,5898.935335,4219.173869,4737.318029
270.276378,6052.154434,4367.215058,4219.173869
270.276686,5439.278036,3849.070898,4737.318029
270.276994,4290.134789,2516.700203,5551.544565
270.277302,2068.457845,962.267725,8364.327145
270.277610,76.609550,-1480.411884,11325.150913
270.277918,-1915.238745,-2812.782580,12583.501014
270.278227,-3064.381992,-3552.988522,13249.686362
270.278535,-2604.724693,-3404.947333,13027.624579
270.278843,-1532.190996,-1480.411884,11917.315666
270.279151,689.485948,-0.000000,10584.944971
270.279459,3064.381992,1628.453072,8882.471304
270.279767,3294.210641,2146.597232,7698.141797
270.280075,3370.820191,2220.617826,7624.121203
270.280383,1915.238745,1850.514855,7994.224174
270.280691,995.924147,1036.288319,9326.594869
270.280999,-306.438199,-222.061783,10658.965565
270.281308,-1685.410096,-1110.308913,12213.398043
270.281616,-2834.553343,-2664.741391,13249.686362
270.281924,-2987.772442,-3182.885551,13767.830521
270.282232,-2451.505594,-2294.638420,12139.377449
270.282540,-306.438199,-1332.370696,10658.965565
270.282848,2068.457845,1332.370696,8290.306550
270.283156,4596.572988,3404.947333,6587.832884
270.283464,5592.497135,4441.235652,5625.565159
270.283772,5515.887586,4589.276840,4441.235652
270.284080,5209.449386,4515.256246,5477.523971
270.284389,3677.258390,2664.741391,6883.915261
270.284697,1685.410096,1036.288319,8290.306550
270.285005,-612.876398,-1036.288319,11843.295072
270.285313,-3140.991542,-2368.659014,13175.665768
270.285621,-3830.477490,-3330.926739,13693.809927
270.285929,-3830.477490,-2886.803174,13471.748144
270.286237,-2451.505594,-1406.391290,13027.624579
270.286545,153.219100,222.061783,11325.150913
270.286853,1608.800546,1850.514855,9104.533087
270.287161,2451.505594,2368.659014,8364.327145
270.287470,2298.286494,2146.597232,7328.038826
270.287778,1762.019645,1924.535449,7254.018232
270.288086,766.095498,1554.432478,8734.430116
270.288394,306.438199,-0.000000,10288.862594
270.288702,-1608.800546,-1184.329507,11695.253884
270.289010,-3064.381992,-2960.823768,12805.562797
270.289318,-2987.772442,-3997.112087,13323.706956
270.289626,-3447.429741,-3404.947333,12657.521608
270.289934,-1838.629195,-2368.659014,10955.047942
270.290242,995.924147,-0.000000,8734.430116
270.290551,3370.820191,2220.617826,6735.874072
270.290859,4903.011187,3108.864956,5107.421000
270.291167,5362.668486,3849.070898,4663.297435
270.291475,4903.011187,3404.947333,5107.421000
270.291783,3907.087040,2664.741391,5995.668130
270.292091,1991.848295,1332.370696,7772.162391
270.292399,0.000000,-592.164754,10732.986159
270.292707,-2298.286494,-2442.679609,12583.501014
270.293015,-3447.429741,-3330.926739,12805.562797
270.293323,-3447.429741,-3330.926739,12657.521608
270.293632,-1991.848295,-2220.617826,12287.418637
270.293940,612.876398,-0.000000,10214.842000
270.294248,3294.210641,1184.329507,8734.430116
270.294556,3677.258390,2220.617826,7328.038826
270.294864,3677.258390,2368.659014,6809.894666
270.295172,2528.115143,2072.576638,7550.100608
270.295480,1991.848295,1554.432478,8660.409521
270.295788,459.657299,-0.000000,9918.759623
270.296096,-1225.752797,-1332.370696,11917.315666
270.296405,-2451.505594,-2590.720797,13175.665768
270.296713,-3600.648841,-3404.947333,13545.768739
270.297021,-3370.820191,-3478.967927,13101.645173
270.297329,-1532.190996,-1924.535449,11695.253884
270.297637,842.705048,1036.288319,9548.656652
270.297945,3830.477490,2664.741391,7476.080014
270.298253,4903.011187,3849.070898,5477.523971
270.298561,5745.716235,4145.153275,4737.318029
270.298869,5132.839837,3701.029710,4663.297435
270.299177,3677.258390,3182.885551,6365.771101
270.299486,2604.724693,1850.514855,7994.224174
270.299794,229.828649,-444.123565,10436.903782
270.300102,-1532.190996,-1554.432478,11843.295072
270.300410,-2757.943793,-3108.864956,13175.665768
270.300718,-2987.772442,-2368.659014,12805.562797
270.301026,-1378.971896,-1628.453072,12583.501014
270.301334,766.095498,518.144159,10732.986159
270.301642,2757.943793,2146.597232,8586.388927
270.301950,3294.210641,2368.659014,8438.347739
270.302258,2834.553343,2294.638420,7254.018232
270.302567,1991.848295,2220.617826,7920.203579
270.302875,842.705048,1332.370696,9178.553681
270.303183,-459.657299,-74.020594,10658.965565
270.303491,-2221.676944,-1480.411884,12509.480420
270.303799,-3370.820191,-2812.782580,13693.809927
270.304107,-4060.306139,-3330.926739,13841.851115
270.304415,-4060.306139,-3108.864956,13471.748144
270.304723,-2068.457845,-1924.535449,11917.315666
270.305031,229.828649,296.082377,9252.574275
270.305339,3294.210641,2368.659014,7179.997637
270.305648,4826.401637,3849.070898,5551.544565
270.305956,5209.449386,4145.153275,4071.132681
270.306264,4903.011187,3478.967927,4811.338623
270.306572,3140.991542,2960.823768,5477.523971
270.306880,2068.457845,1258.350101,8438.347739
270.307188,0.000000,-74.020594,10214.842000
270.307496,-1685.410096,-2368.659014,11991.336260
270.307804,-3677.258390,-3256.906145,12805.562797
270.308112,-3447.429741,-3256.906145,13027.624579
270.308420,-1991.848295,-1924.535449,12879.583391
270.308729,766.095498,-74.020594,10436.903782
270.309037,2145.067394,1924.535449,8512.368333
270.309345,3600.648841,2368.659014,6661.853478
270.309653,2834.553343,1998.556043,7105.977043
270.309961,1991.848295,1628.453072,7328.038826
270.310269,1378.971896,1184.329507,8956.491898
270.310577,0.000000,-444.123565,9992.780217
270.310885,-1685.410096,-2072.576638,11843.295072
270.311193,-3447.429741,-3404.947333,14063.912898
270.311501,-3370.820191,-4441.235652,13989.892304
270.311810,-3600.648841,-3627.009116,13471.748144
270.312118,-2145.067394,-2294.638420,11843.295072
270.312426,306.438199,296.082377,9104.533087
270.312734,3677.258390,2368.659014,7550.100608
270.313042,5745.716235,3997.112087,5329.482782
270.313350,6205.373534,4737.318029,3775.050304
270.313658,5975.544884,4071.132681,4145.153275
270.313966,4749.792088,3256.906145,5477.523971
270.314274,3140.991542,1776.494261,7772.162391
270.314582,766.095498,-0.000000,10140.821405
270.314891,-1378.971896,-1850.514855,11843.295072
270.315199,-2374.896044,-2960.823768,12879.583391
270.315507,-2374.896044,-2886.803174,13027.624579
270.315815,-536.266849,-1702.473667,12287.418637
270.316123,995.924147,-0.000000,10658.965565
270.316431,2911.162892,1628.453072,9326.594869
270.316739,3447.429741,2368.659014,7846.182985
270.317047,3064.381992,2664.741391,7476.080014
270.317355,2604.724693,1998.556043,8068.244768
270.317663,1608.800546,1628.453072,8586.388927
270.317972,0.000000,370.102971,10807.006753
270.318280,-766.095498,-1480.411884,12287.418637
270.318588,-2451.505594,-2738.761985,13323.706956
270.318896,-4136.915689,-3775.050304,14211.954086
270.319204,-3370.820191,-3330.926739,13693.809927
270.319512,-2221.676944,-1776.494261,12065.356855
270.319820,383.047749,740.205942,9474.636058
270.320128,3753.867940,2664.741391,7031.956449
270.320436,5439.278036,4441.235652,5033.400406
270.320744,5975.544884,4737.318029,4959.379811
270.321053,5592.497135,4219.173869,4737.318029
270.321361,4060.306139,3404.947333,5847.626942
270.321669,2604.724693,1776.494261,7920.203579
270.321977,536.266849,-0.000000,9992.780217
270.322285,-1532.190996,-1480.411884,11843.295072
270.322593,-2604.724693,-2664.741391,12805.562797
270.322901,-2834.553343,-2590.720797,13101.645173
270.323209,-1838.629195,-1850.514855,12065.356855
270.323517,76.609550,-222.061783,11029.068536
270.323826,2451.505594,1110.308913,9326.594869
270.324134,2911.162892,1702.473667,7920.203579
270.324442,2451.505594,2072.576638,7772.162391
270.324750,1608.800546,1480.411884,8068.244768
270.325058,536.266849,444.123565,9178.553681
270.325366,-1149.143247,-666.185348,10955.047942
270.325674,-2528.115143,-2072.576638,12731.542202
270.325982,-4136.915689,-3552.988522,13841.851115
270.326290,-4443.353888,-4219.173869,14063.912898
270.326598,-4136.915689,-3478.967927,13027.624579
270.326907,-1838.629195,-1850.514855,11251.130318
270.327215,689.485948,814.226536,8512.368333
270.327523,3294.210641,3108.864956,6217.729913
270.327831,5286.058936,4071.132681,4959.379811
270.328139,6205.373534,4367.215058,4219.173869
270.328447,6052.154434,3849.070898,4293.194464
270.328755,3907.087040,3108.864956,5995.668130
270.329063,1915.238745,1110.308913,7698.141797
270.329371,0.000000,-888.247130,10288.862594
270.329679,-1915.238745,-2442.679609,12139.377449
270.329988,-3370.820191,-3330.926739,12879.583391
270.330296,-3217.601092,-3775.050304,12953.603985
270.330604,-1685.410096,-2442.679609,12287.418637
270.330912,229.828649,-0.000000,10510.924376
270.331220,2145.067394,1110.308913,8882.471304
270.331528,3064.381992,2146.597232,7328.038826
270.331836,3294.210641,2590.720797,6809.894666
270.332144,2681.334243,2442.679609,7254.018232
270.332452,1838.629195,1554.432478,8290.306550
270.332760,0.000000,222.061783,9992.780217
270.333069,-1838.629195,-1924.535449,12213.398043
270.333377,-3600.648841,-3627.009116,13767.830521
270.333685,-4366.744339,-4071.132681,14359.995275
270.333993,-3983.696590,-4367.215058,13989.892304
270.334301,-2451.505594,-1850.514855,11621.233289
270.334609,612.876398,444.123565,9548.656652
270.334917,3753.867940,2960.823768,7105.977043
270.335225,5669.106685,4663.297435,5033.400406
270.335533,6052.154434,4589.276840,4441.235652
270.335841,5745.716235,3775.050304,4367.215058
270.336150,4903.011187,3552.988522,5921.647536
270.336458,2528.115143,1850.514855,7624.121203
270.336766,689.485948,-0.000000,10214.842000
270.337074,-1302.362347,-1554.432478,11917.315666
270.337382,-2681.334243,-2516.700203,12805.562797
270.337690,-2451.505594,-2664.741391,12879.583391
270.337998,-1378.971896,-1850.514855,12361.439231
270.338306,995.924147,444.123565,10732.986159
270.338614,2451.505594,1924.535449,9104.533087
270.338922,3753.867940,2590.720797,8142.265362
270.339230,2987.772442,2368.659014,7920.203579
270.339538,2604.724693,2146.597232,8068.244768
270.339846,1225.752797,1332.370696,8882.471304
270.340154,0.000000,-148.041188,10510.924376
270.340462,-1532.190996,-1776.494261,12583.501014
270.340770,-4060.306139,-3330.926739,14211.954086
270.341078,-4443.353888,-4219.173869,14508.036463
270.341386,-3524.039291,-3404.947333,13767.830521
270.341694,-1991.848295,-1850.514855,11251.130318
270.342002,842.705048,740.205942,9252.574275
270.342310,3524.039291,2960.823768,6957.935855
270.342618,4903.011187,4515.256246,4737.318029
270.342926,5592.497135,3997.112087,4367.215058
270.343234,5132.839837,3923.091493,4515.256246
270.343542,3830.477490,2960.823768,5995.668130
270.343850,2298.286494,1110.308913,7920.203579
270.344158,-536.266849,-518.144159,9770.718434
270.344466,-2451.505594,-2294.638420,12879.583391
270.344774,-3370.820191,-3256.906145,13323.706956
270.345082,-3600.648841,-3404.947333,13767.830521
270.345390,-2451.505594,-2368.659014,12583.501014
270.345698,459.657299,-296.082377,10658.965565
270.346006,2451.505594,1184.329507,9770.718434
270.346314,3140.991542,1924.535449,7328.038826
270.346621,3294.210641,2368.659014,6957.935855
270.346929,2987.772442,1702.473667,7254.018232
270.347237,1915.238745,1184.329507,8142.265362
270.347545,459.657299,222.061783,9400.615463
270.347853,-1532.190996,-2072.576638,11473.192101
270.348161,-2298.286494,-3552.988522,13693.809927
270.348469,-4060.306139,-3849.070898,13767.830521
270.348777,-3447.429741,-3775.050304,13619.789333
270.349085,-2068.457845,-1924.535449,11103.089130
270.349393,689.485948,814.226536,8956.491898
270.349701,3753.867940,3108.864956,7179.997637
270.350009,5439.278036,4737.318029,4959.379811
270.350317,5745.716235,4737.318029,4145.153275
270.350625,5669.106685,3923.091493,4071.132681
270.350933,4443.353888,2812.782580,6365.771101
270.351241,2068.457845,1258.350101,7698.141797
270.351549,76.609550,-592.164754,10584.944971
270.351857,-1838.629195,-2368.659014,12509.480420
270.352165,-3370.820191,-4219.173869,12953.603985
270.352473,-3677.258390,-3997.112087,13989.892304
270.352781,-2068.457845,-3108.864956,13249.686362
270.353089,-383.047749,-888.247130,11399.171507
270.353397,1608.800546,1036.288319,9622.677246
270.353705,3217.601092,1850.514855,8290.306550
270.354013,3524.039291,2590.720797,6735.874072
270.354321,3140.991542,2442.679609,7105.977043
270.354629,2604.724693,2146.597232,7772.162391
270.354937,1302.362347,1110.308913,8882.471304
270.355245,-306.438199,-666.185348,11251.130318
270.355553,-1302.362347,-1998.556043,12435.459826
270.355861,-2681.334243,-3330.926739,13175.665768
270.356169,-3677.258390,-2960.823768,13471.748144
270.356477,-1685.410096,-1776.494261,11843.295072
270.356785,459.657299,518.144159,9252.574275
270.357093,2834.553343,2368.659014,7550.100608
270.357401,4749.792088,3701.029710,5921.647536
270.357709,5362.668486,3478.967927,4959.379811
270.358017,4290.134789,3701.029710,5625.565159
270.358325,3907.087040,2886.803174,5921.647536
270.358633,2298.286494,1924.535449,8290.306550
270.358941,76.609550,-0.000000,10436.903782
270.359249,-1455.581446,-1258.350101,11769.274478
270.359557,-2451.505594,-2442.679609,13693.809927
270.359865,-3217.601092,-3404.947333,13545.768739
270.360173,-2834.553343,-2368.659014,13397.727550
270.360481,-1532.190996,-1406.391290,11621.233289
270.360789,1072.533697,592.164754,10140.821405
270.361097,2451.505594,2146.597232,8512.368333
270.361405,2987.772442,2664.741391,7179.997637
270.361713,2604.724693,2368.659014,7698.141797
270.362021,1915.238745,1850.514855,7994.224174
270.362328,1225.752797,888.247130,9326.594869
270.362636,-612.876398,-740.205942,11103.089130
270.362944,-2298.286494,-2664.741391,12731.542202
270.363252,-3370.820191,-3552.988522,14285.974681
270.363560,-4443.353888,-3849.070898,13323.706956
270.363868,-2757.943793,-2220.617826,11843.295072
270.364176,-383.047749,-0.000000,9474.636058
270.364484,1991.848295,2220.617826,7402.059420
270.364792,3907.087040,3108.864956,5995.668130
270.365100,5056.230287,3627.009116,4811.338623
270.365408,3830.477490,3552.988522,5329.482782
270.365716,3753.867940,2738.761985,6217.729913
270.366024,2604.724693,1850.514855,7179.997637
270.366332,153.219100,-0.000000,9474.636058
270.366640,-1378.971896,-1628.453072,11547.212695
270.366948,-2221.676944,-2738.761985,12657.521608
270.367256,-2987.772442,-3034.844362,12731.542202
270.367564,-2145.067394,-2146.597232,12287.418637
270.367872,-689.485948,-962.267725,10881.027347
270.368180,1532.190996,1110.308913,9548.656652
270.368488,2911.162892,1702.473667,7698.141797
270.368796,3677.258390,2294.638420,7179.997637
270.369104,3370.820191,1924.535449,7031.956449
270.369412,2298.286494,1184.329507,8068.244768
270.369720,1378.971896,296.082377,9696.697840
270.370028,-1149.143247,-1110.308913,11843.295072
270.370336,-2451.505594,-2664.741391,13175.665768
270.370644,-3447.429741,-3552.988522,13989.892304
270.370952,-3140.991542,-2664.741391,13915.871710
270.371260,-2221.676944,-1628.453072,11843.295072
270.371568,383.047749,444.123565,9696.697840
270.371876,3064.381992,2516.700203,7476.080014
270.372184,4673.182538,3997.112087,5181.441594
270.372492,5362.668486,3849.070898,4589.276840
270.372800,4903.011187,3997.112087,5921.647536
270.373108,3600.648841,2368.659014,6069.688724
270.373416,1838.629195,2294.638420,7402.059420
270.373724,306.438199,-74.020594,10140.821405
270.374032,-1072.533697,-1776.494261,11695.253884
270.374340,-2987.772442,-2368.659014,12583.501014
270.374648,-2528.115143,-2960.823768,13619.789333
270.374956,-1378.971896,-2220.617826,12879.583391
270.375264,0.000000,-1110.308913,10807.006753
270.375572,2374.896044,888.247130,9548.656652
270.375880,3677.258390,2072.576638,7994.224174
270.376188,4213.525239,2368.659014,7624.121203
270.376496,3447.429741,2368.659014,7105.977043
270.376804,2451.505594,1480.411884,7994.224174
270.377112,689.485948,-74.020594,9622.677246
270.377420,-689.485948,-1258.350101,11473.192101
270.377728,-2681.334243,-2442.679609,13027.624579
270.378036,-3524.039291,-3478.967927,14063.912898
270.378343,-3447.429741,-2886.803174,13249.686362
270.378651,-2681.334243,-1258.350101,11251.130318
270.378959,229.828649,444.123565,10732.986159
270.379267,2987.772442,2590.720797,7179.997637
270.379575,3600.648841,4515.256246,5033.400406
270.379883,4903.011187,3108.864956,6365.771101
270.380191,4366.744339,3701.029710,4293.194464
270.380499,2987.772442,3108.864956,6883.915261
270.380807,1685.410096,1924.535449,8586.388927
270.381115,-766.095498,-0.000000,9918.759623
270.381423,-2451.505594,-2220.617826,12583.501014
270.381731,-3600.648841,-2886.803174,13249.686362
270.382039,-3677.258390,-2738.761985,13767.830521
270.382347,-3064.381992,-2368.659014,12139.377449
270.382655,-153.219100,-1184.329507,11473.192101
270.382963,766.095498,1480.411884,7920.203579
270.383271,3217.601092,1998.556043,7846.182985
270.383579,4519.963438,2590.720797,6883.915261
270.383887,2451.505594,3034.844362,5995.668130
270.384195,2757.943793,962.267725,8586.388927
270.384503,689.485948,444.123565,9474.636058
270.384811,-1302.362347,-1480.411884,11917.315666
270.385119,-2834.553343,-3256.906145,12657.521608
270.385427,-3447.429741,-3775.050304,14211.954086
270.385735,-4136.915689,-3701.029710,13545.768739
270.386043,-2834.553343,-2146.597232,11843.295072
270.386351,229.828649,-74.020594,10288.862594
270.386659,2757.943793,2368.659014,6957.935855
270.386967,4826.401637,4293.194464,5551.544565
270.387275,5132.839837,4589.276840,4811.338623
270.387583,5669.106685,3997.112087,4515.256246
270.387891,4290.134789,3997.112087,5699.585753
270.388199,2911.162892,2220.617826,7105.977043
270.388507,612.876398,444.123565,9622.677246
270.388815,-1838.629195,-1850.514855,11991.336260
270.389123,-3217.601092,-3627.009116,13841.851115
270.389431,-3983.696590,-4145.153275,13619.789333
270.389739,-3140.991542,-3182.885551,13027.624579
270.390047,-995.924147,-1776.494261,11473.192101
270.390355,2068.457845,444.123565,9622.677246
270.390663,3140.991542,1998.556043,7994.224174
270.390971,3753.867940,2516.700203,7031.956449
270.391279,4060.306139,2664.741391,6957.935855
270.391587,3217.601092,1998.556043,7476.080014
270.391895,1378.971896,1628.453072,9030.512492
270.392203,-689.485948,-814.226536,11621.233289
270.392511,-1838.629195,-2442.679609,13101.645173
270.392819,-3447.429741,-3034.844362,14063.912898
270.393127,-3830.477490,-3478.967927,12953.603985
270.393435,-2681.334243,-2294.638420,11843.295072
270.393743,0.000000,-148.041188,10362.883188
270.394050,2757.943793,2072.576638,7846.182985
270.394358,4826.401637,3627.009116,5477.523971
270.394666,5515.887586,3923.091493,4589.276840
270.394974,5745.716235,3775.050304,4885.359217
270.395282,5056.230287,3330.926739,5107.421000
270.395590,3064.381992,3182.885551,6809.894666
270.395898,1225.752797,1110.308913,9474.636058
270.396206,-536.266849,-1332.370696,11325.150913
270.396514,-2451.505594,-2442.679609,12657.521608
270.396822,-3677.258390,-3627.009116,13767.830521
270.397130,-3064.381992,-3775.050304,13323.706956
270.397438,-1608.800546,-1924.535449,12213.398043
270.397746,536.266849,148.041188,10362.883188
270.398054,2451.505594,1850.514855,9178.553681
270.398362,2911.162892,2368.659014,7846.182985
270.398670,3064.381992,2368.659014,7476.080014
270.398978,2298.286494,1924.535449,7624.121203
270.399286,1149.143247,222.061783,9104.533087
270.399594,-306.438199,-888.247130,10807.006753
270.399902,-2221.676944,-2294.638420,13249.686362
270.400210,-3524.039291,-3552.988522,13619.789333
270.400518,-3524.039291,-3182.885551,13249.686362
270.400826,-2528.115143,-2368.659014,12509.480420
270.401134,-229.828649,-74.020594,9696.697840
270.401442,2374.896044,2220.617826,7105.977043
270.401750,4673.182538,3256.906145,5847.626942
270.402058,4903.011187,3997.112087,4515.256246
270.402366,5592.497135,4367.215058,4885.359217
270.402674,4213.525239,3330.926739,4959.379811
270.402982,2911.162892,2368.659014,6365.771101
270.403290,1072.533697,740.205942,8734.430116
270.403598,-842.705048,-1184.329507,11547.212695
270.403906,-2757.943793,-2886.803174,12583.501014
270.404214,-3753.867940,-3256.906145,12879.583391
270.404522,-2681.334243,-3627.009116,13397.727550
270.404830,-1685.410096,-1924.535449,12213.398043
270.405138,919.314598,-0.000000,10214.842000
270.405446,2451.505594,2220.617826,7920.203579
270.405754,3677.258390,2442.679609,7328.038826
270.406062,3677.258390,2146.597232,7179.997637
270.406370,2451.505594,1480.411884,7550.100608
270.406678,689.485948,-518.144159,9622.677246
270.406986,-842.705048,-1776.494261,11251.130318
270.407294,-2374.896044,-2812.782580,12879.583391
270.407602,-3830.477490,-3256.906145,14211.954086
270.407910,-3753.867940,-3404.947333,13619.789333
270.408218,-2451.505594,-2146.597232,11991.336260
270.408526,-383.047749,296.082377,9770.718434
270.408834,2451.505594,2220.617826,7105.977043
270.409142,4596.572988,4293.194464,5403.503377
270.409450,5439.278036,4959.379811,4663.297435
270.409758,5669.106685,3627.009116,4441.235652
270.410065,4443.353888,3256.906145,5107.421000
270.410373,2451.505594,2368.659014,7031.956449
270.410681,689.485948,148.041188,9474.636058
270.410989,-1378.971896,-1702.473667,12065.356855
270.411297,-2834.553343,-3034.844362,13249.686362
270.411605,-2987.772442,-3404.947333,13619.789333
270.411913,-3064.381992,-3182.885551,12657.521608
270.412221,-1532.190996,-1554.432478,11843.295072
270.412529,1149.143247,1332.370696,9770.718434
270.412837,3064.381992,2516.700203,7920.203579
270.413145,4060.306139,3108.864956,7105.977043
270.413453,4136.915689,3182.885551,6735.874072
270.413761,2451.505594,1702.473667,7772.162391
270.414069,1225.752797,148.041188,9400.615463
270.414377,-689.485948,-1406.391290,10436.903782
270.414685,-2528.115143,-2516.700203,13027.624579
270.414993,-3753.867940,-4071.132681,13693.809927
270.415301,-3600.648841,-3849.070898,13471.748144
270.415609,-2681.334243,-2590.720797,11991.336260
270.415917,-229.828649,-444.123565,9992.780217
270.416225,3294.210641,1850.514855,7550.100608
270.416533,4903.011187,3182.885551,5403.503377
270.416841,5132.839837,4515.256246,5329.482782
270.417149,5745.716235,4071.132681,4589.276840
270.417457,4673.182538,3849.070898,5551.544565
270.417765,2681.334243,2294.638420,6883.915261
270.418073,459.657299,296.082377,9326.594869
270.418381,-1378.971896,-1850.514855,12213.398043
270.418689,-3370.820191,-2960.823768,13397.727550
270.418997,-3907.087040,-3997.112087,13989.892304
270.419305,-3600.648841,-3330.926739,14063.912898
270.419613,-1532.190996,-1628.453072,12139.377449
270.419921,1072.533697,592.164754,9474.636058
270.420229,3524.039291,2664.741391,7476.080014
270.420537,4519.963438,2960.823768,6735.874072
270.420845,3907.087040,3256.906145,6439.791695
270.421153,3753.867940,2072.576638,7772.162391
270.421461,1072.533697,814.226536,8882.471304
270.421769,-612.876398,-740.205942,11843.295072
270.422077,-2221.676944,-2368.659014,12583.501014
270.422385,-3983.696590,-3404.947333,14063.912898
270.422693,-4060.306139,-3478.967927,13989.892304
270.423001,-3064.381992,-2738.761985,12509.480420
270.423309,-306.438199,-518.144159,10955.047942
270.423617,2298.286494,1850.514855,7624.121203
270.423925,3983.696590,3849.070898,5403.503377
270.424233,6052.154434,4071.132681,5921.647536
270.424541,5515.887586,4441.235652,4293.194464
270.424849,4290.134789,3478.967927,5699.585753
270.425157,2911.162892,2442.679609,7254.018232
270.425465,919.314598,222.061783,9474.636058
270.425772,-1455.581446,-1406.391290,11621.233289
270.426080,-2757.943793,-2886.803174,13249.686362
270.426388,-3370.820191,-3701.029710,13323.706956
270.426696,-3140.991542,-3478.967927,12805.562797
270.427004,-1149.143247,-1850.514855,11769.274478
270.427312,1532.190996,592.164754,9252.574275
270.427620,3370.820191,2294.638420,8068.244768
270.427928,3907.087040,2368.659014,6883.915261
270.428236,3830.477490,2146.597232,7402.059420
270.428544,2298.286494,1184.329507,7772.162391
270.428852,0.000000,-518.144159,9474.636058
270.429160,-1225.752797,-2072.576638,11843.295072
270.429468,-2987.772442,-2960.823768,13545.768739
270.429776,-4290.134789,-3478.967927,13915.871710
270.430084,-3983.696590,-3701.029710,13841.851115
270.430392,-2604.724693,-2738.761985,12657.521608
270.430700,-689.485948,-370.102971,10436.903782
270.431008,2451.505594,2146.597232,7846.182985
270.431316,4596.572988,4071.132681,5847.626942
270.431624,5745.716235,4811.338623,4885.359217
270.431932,5515.887586,5033.400406,4589.276840
270.432240,5056.230287,4441.235652,4959.379811
270.432548,3447.429741,3034.844362,5995.668130
270.432856,1608.800546,1110.308913,8290.306550
270.433164,-306.438199,-814.226536,10955.047942
270.433472,-2298.286494,-1998.556043,12879.583391
270.433780,-3600.648841,-3256.906145,13471.748144
270.434088,-3064.381992,-3034.844362,13027.624579
270.434396,-766.095498,-1110.308913,12213.398043
270.434704,689.485948,1110.308913,10436.903782
270.435012,2987.772442,2368.659014,8956.491898
270.435320,3753.867940,2886.803174,7624.121203
270.435628,3677.258390,2368.659014,7624.121203
270.435936,2374.896044,1258.350101,8956.491898
270.436244,0.000000,-222.061783,11029.068536
270.436552,-1915.238745,-962.267725,12509.480420
270.436860,-3140.991542,-2368.659014,13397.727550
270.437168,-4366.744339,-3775.050304,14434.015869
270.437475,-4366.744339,-3997.112087,14582.057057
270.437783,-3140.991542,-2960.823768,12953.603985
270.438091,-842.705048,-296.082377,10362.883188
270.438399,1991.848295,1554.432478,7920.203579
270.438707,3983.696590,3923.091493,6069.688724
270.439015,5515.887586,4885.359217,4737.318029
270.439323,6665.030833,4737.318029,3627.009116
270.439631,5745.716235,4367.215058,3997.112087
270.439939,4596.572988,3256.906145,5329.482782
270.440247,2374.896044,1184.329507,7624.121203
270.440555,153.219100,-222.061783,10288.862594
270.440863,-2145.067394,-2368.659014,12287.418637
270.441170,-2604.724693,-3404.947333,13027.624579
270.441478,-3370.820191,-3478.967927,13175.665768
270.441786,-1991.848295,-2294.638420,12065.356855
270.442094,76.609550,-0.000000,10288.862594
270.442402,2528.115143,1702.473667,8290.306550
270.442710,3370.820191,2146.597232,7698.141797
270.443018,2987.772442,1554.432478,7328.038826
270.443326,2451.505594,444.123565,8586.388927
270.443634,766.095498,-814.226536,9918.759623
270.443942,-1685.410096,-1998.556043,11177.109724
270.444250,-3064.381992,-3256.906145,13249.686362
270.444558,-4060.306139,-3775.050304,14211.954086
270.444865,-4519.963438,-4293.194464,14137.933492
270.445173,-3677.258390,-3256.906145,12657.521608
270.445481,-1149.143247,-1258.350101,10436.903782
270.445789,1838.629195,1036.288319,7772.162391
270.446097,4443.353888,3627.009116,5995.668130
270.446405,5669.106685,4737.318029,4589.276840
270.446713,6128.763984,5107.421000,4293.194464
270.447021,5669.106685,4589.276840,3552.988522
270.447329,3983.696590,3478.967927,5255.462188
270.447637,1991.848295,1776.494261,7698.141797
270.447945,0.000000,-296.082377,9992.780217
270.448253,-1225.752797,-1924.535449,11769.274478
270.448560,-2757.943793,-2960.823768,12287.418637
270.448868,-2987.772442,-3034.844362,12509.480420
270.449176,-2145.067394,-1702.473667,11917.315666
270.449484,383.047749,444.123565,10584.944971
270.449792,2221.676944,2072.576638,8956.491898
270.450100,3140.991542,2220.617826,8142.265362
270.450408,2987.772442,1332.370696,8290.306550
270.450716,1991.848295,444.123565,9030.512492
270.451024,76.609550,-296.082377,10510.924376
270.451332,-1532.190996,-1406.391290,12213.398043
270.451640,-2681.334243,-2146.597232,13767.830521
270.451947,-3600.648841,-3330.926739,14137.933492
270.452255,-3983.696590,-3330.926739,13841.851115
270.452563,-2604.724693,-2664.741391,12657.521608
270.452871,-459.657299,-962.267725,10732.986159
270.453179,1149.143247,1702.473667,8364.327145
270.453487,4749.792088,3330.926739,6291.750507
270.453795,5515.887586,4589.276840,5255.462188
270.454103,5822.325785,4885.359217,4145.153275
270.454411,5515.887586,4589.276840,4515.256246
270.454719,4290.134789,3701.029710,5847.626942
270.455027,2374.896044,1702.473667,7550.100608
270.455335,459.657299,-0.000000,10140.821405
270.455642,-1378.971896,-1628.453072,12139.377449
270.455950,-2757.943793,-2886.803174,12583.501014
270.456258,-2834.553343,-2368.659014,13027.624579
270.456566,-1455.581446,-1850.514855,12361.439231
270.456874,536.266849,740.205942,10214.842000
270.457182,2068.457845,1924.535449,9178.553681
270.457490,3140.991542,1850.514855,8068.244768
270.457798,2911.162892,1702.473667,7846.182985
270.458106,1302.362347,740.205942,9326.594869
270.458414,0.000000,-444.123565,10584.944971
270.458722,-1072.533697,-1776.494261,11843.295072
270.459030,-2757.943793,-2442.679609,12879.583391
270.459337,-3677.258390,-3256.906145,13767.830521
270.459645,-3447.429741,-3627.009116,13989.892304
270.459953,-2834.553343,-2738.761985,12879.583391
270.460261,-1149.143247,-1258.350101,10362.883188
270.460569,1838.629195,740.205942,8438.347739
270.460877,4596.572988,3404.947333,6365.771101
270.461185,5669.106685,4663.297435,4663.297435
270.461493,6358.592633,4811.338623,3775.050304
270.461801,5822.325785,4589.276840,3701.029710
270.462109,4903.011187,3552.988522,5107.421000
270.462417,2528.115143,1628.453072,7105.977043
270.462725,-153.219100,-444.123565,10140.821405
270.463032,-1302.362347,-1776.494261,12065.356855
270.463340,-3677.258390,-2960.823768,12805.562797
270.463648,-3217.601092,-2738.761985,12731.542202
270.463956,-2068.457845,-1776.494261,12509.480420
270.464264,0.000000,-0.000000,11029.068536
270.464572,1762.019645,1332.370696,9178.553681
270.464880,3217.601092,1850.514855,7772.162391
270.465188,3064.381992,1480.411884,7846.182985
270.465496,1225.752797,444.123565,8142.265362
270.465804,459.657299,-148.041188,10066.800811
270.466112,-1149.143247,-1702.473667,11473.192101
270.466419,-3064.381992,-2442.679609,12435.459826
270.466727,-4060.306139,-3330.926739,13471.748144
270.467035,-3983.696590,-3627.009116,14211.954086
270.467343,-2987.772442,-3478.967927,13027.624579
270.467651,-2145.067394,-1332.370696,11103.089130
270.467959,1149.143247,592.164754,9474.636058
270.468267,3524.039291,2516.700203,6883.915261
270.468575,4979.620737,5181.441594,5107.421000
270.468883,5975.544884,5107.421000,4145.153275
270.469191,5592.497135,5329.482782,3923.091493
270.469499,4826.401637,4145.153275,5255.462188
270.469807,2987.772442,2368.659014,7105.977043
270.470114,919.314598,444.123565,9548.656652
270.470422,-919.314598,-1406.391290,11399.171507
270.470730,-2451.505594,-2516.700203,12731.542202
270.471038,-2451.505594,-2812.782580,13397.727550
270.471346,-1991.848295,-1850.514855,12065.356855
270.471654,76.609550,-0.000000,11177.109724
270.471962,1991.848295,1776.494261,8956.491898
270.472270,3140.991542,2368.659014,7550.100608
270.472578,2451.505594,1554.432478,8216.285956
270.472886,2298.286494,666.185348,8512.368333
270.473194,1225.752797,-370.102971,9992.780217
270.473502,-1149.143247,-1480.411884,12065.356855
270.473809,-2987.772442,-2812.782580,13027.624579
270.474117,-4290.134789,-3701.029710,14211.954086
270.474425,-4290.134789,-4145.153275,15248.242405
270.474733,-3600.648841,-2960.823768,12953.603985
270.475041,-1072.533697,-1776.494261,11547.212695
270.475349,1455.581446,1110.308913,9178.553681
270.475657,3983.696590,3108.864956,6069.688724
270.475965,5898.935335,4515.256246,5033.400406
270.476273,6588.421283,5255.462188,3775.050304
270.476581,5975.544884,5033.400406,3404.947333
270.476889,4596.572988,3627.009116,5403.503377
270.477197,2604.724693,1776.494261,7105.977043
270.477504,842.705048,-740.205942,9252.574275
270.477812,-919.314598,-2220.617826,11473.192101
270.478120,-2068.457845,-3182.885551,11843.295072
270.478428,-2451.505594,-2664.741391,11843.295072
270.478736,-1149.143247,-1554.432478,11843.295072
270.479044,919.314598,518.144159,10140.821405
270.479352,2681.334243,2294.638420,7920.203579
270.479660,3753.867940,2516.700203,7328.038826
270.479968,3064.381992,1776.494261,7328.038826
270.480276,2221.676944,1110.308913,8882.471304
270.480584,689.485948,-74.020594,10881.027347
270.480891,-1455.581446,-1406.391290,11843.295072
270.481199,-3447.429741,-2812.782580,13323.706956
270.481507,-4673.182538,-4219.173869,14878.139434
270.481815,-4903.011187,-4663.297435,14952.160028
270.482123,-4443.353888,-3627.009116,13767.830521
270.482431,-1838.629195,-2812.782580,11769.274478
270.482739,1302.362347,-296.082377,8586.388927
270.483047,3217.601092,3034.844362,6513.812290
270.483355,5669.106685,4737.318029,5181.441594
270.483663,6818.249932,5551.544565,3182.885551
270.483971,6205.373534,5255.462188,3552.988522
270.484279,4903.011187,3923.091493,5033.400406
270.484586,2834.553343,2442.679609,6883.915261
270.484894,842.705048,-0.000000,9844.739029
270.485202,-1838.629195,-1776.494261,11843.295072
270.485510,-2528.115143,-2886.803174,12805.562797
270.485818,-2987.772442,-3330.926739,13323.706956
270.486126,-2298.286494,-2146.597232,12287.418637
270.486434,229.828649,-0.000000,10362.883188
270.486742,2374.896044,2294.638420,8808.450710
270.487050,3447.429741,2442.679609,7994.224174
270.487358,3140.991542,2516.700203,7550.100608
270.487666,1915.238745,1332.370696,7550.100608
270.487974,459.657299,666.185348,10066.800811
270.488281,-459.657299,-1258.350101,11251.130318
270.488589,-2221.676944,-2294.638420,12805.562797
270.488897,-3983.696590,-3330.926739,13915.871710
270.489205,-4060.306139,-4145.153275,14582.057057
270.489513,-3830.477490,-4219.173869,13841.851115
270.489821,-2451.505594,-2812.782580,12435.459826
270.490129,0.000000,-444.123565,9548.656652
270.490437,3524.039291,2368.659014,7179.997637
270.490745,5362.668486,4293.194464,5181.441594
270.491053,6052.154434,4885.359217,4071.132681
270.491361,6052.154434,4885.359217,4145.153275
270.491669,5056.230287,3997.112087,5033.400406
270.491976,3217.601092,2516.700203,6513.812290
270.492284,842.705048,-0.000000,9326.594869
270.492592,-766.095498,-1998.556043,11399.171507
270.492900,-2145.067394,-2590.720797,12287.418637
270.493208,-2834.553343,-2516.700203,13323.706956
270.493516,-1991.848295,-2220.617826,12435.459826
270.493824,229.828649,-148.041188,10658.965565
270.494132,1991.848295,1924.535449,8882.471304
270.494440,3294.210641,2886.803174,7476.080014
270.494748,3600.648841,2886.803174,7328.038826
270.495056,2451.505594,1332.370696,8068.244768
270.495363,1225.752797,-0.000000,9770.718434
270.495671,-919.314598,-666.185348,10807.006753
270.495979,-2298.286494,-2664.741391,12953.603985
270.496287,-3524.039291,-3478.967927,13693.809927
270.496595,-4290.134789,-4071.132681,14434.015869
270.496903,-4060.306139,-4145.153275,14211.954086
270.497211,-2681.334243,-2442.679609,11769.274478
270.497519,0.000000,-74.020594,9918.759623
270.497827,3064.381992,2664.741391,7476.080014
270.498135,5286.058936,4293.194464,5255.462188
270.498443,6511.811733,5329.482782,3997.112087
270.498751,6052.154434,5033.400406,3404.947333
270.499058,5132.839837,3997.112087,4737.318029
270.499366,3524.039291,2516.700203,6217.729913
270.499674,1225.752797,518.144159,8808.450710
270.499982,-383.047749,-1332.370696,10584.944971
270.500290,-2451.505594,-2812.782580,12139.377449
270.500598,-3217.601092,-3404.947333,12953.603985
270.500906,-2451.505594,-2516.700203,13027.624579
270.501214,-459.657299,-370.102971,11473.192101
270.501522,1685.410096,1258.350101,9474.636058
270.501830,3064.381992,2294.638420,8142.265362
270.502138,3677.258390,2220.617826,7698.141797
270.502446,1991.848295,1332.370696,8068.244768
270.502753,919.314598,592.164754,9992.780217
270.503061,-689.485948,-888.247130,10955.047942
270.503369,-2451.505594,-2294.638420,12657.521608
270.503677,-4213.525239,-3404.947333,13989.892304
270.503985,-4826.401637,-4145.153275,14434.015869
270.504293,-4519.963438,-3552.988522,13915.871710
270.504601,-3294.210641,-2590.720797,12583.501014
270.504909,0.000000,-148.041188,10066.800811
270.505217,3064.381992,2368.659014,7105.977043
270.505525,4979.620737,4737.318029,5107.421000
270.505833,6358.592633,5847.626942,3627.009116
270.506141,6435.202183,5329.482782,3997.112087
270.506448,5439.278036,4219.173869,4663.297435
270.506756,3140.991542,2368.659014,5995.668130
270.507064,1149.143247,-0.000000,9030.512492
270.507372,-612.876398,-1924.535449,11843.295072
270.507680,-2451.505594,-3182.885551,12879.583391
270.507988,-3064.381992,-3478.967927,12805.562797
270.508296,-2298.286494,-2368.659014,12213.398043
270.508604,0.000000,-518.144159,11473.192101
270.508912,1532.190996,1480.411884,9474.636058
270.509220,2451.505594,2590.720797,7698.141797
270.509528,3447.429741,2368.659014,7624.121203
270.509835,2834.553343,1998.556043,8068.244768
270.510143,1378.971896,-0.000000,8956.491898
270.510451,-842.705048,-888.247130,10881.027347
270.510759,-2221.676944,-2220.617826,12731.542202
270.511067,-3983.696590,-3701.029710,13915.871710
270.511375,-5056.230287,-4441.235652,14804.118840
270.511683,-3907.087040,-4811.338623,13915.871710
270.511991,-2451.505594,-2738.761985,12139.377449
270.512299,0.000000,-74.020594,10214.842000
270.512607,2987.772442,2294.638420,6587.832884
270.512915,6128.763984,4811.338623,5255.462188
270.513223,6511.811733,5847.626942,3256.906145
270.513530,6665.030833,4737.318029,3404.947333
270.513838,5515.887586,4071.132681,4811.338623
270.514146,3370.820191,1776.494261,6661.853478
270.514454,1532.190996,148.041188,9548.656652
270.514762,-766.095498,-1628.453072,11177.109724
270.515070,-1991.848295,-3108.864956,12361.439231
270.515378,-2451.505594,-3552.988522,12583.501014
270.515686,-1762.019645,-2146.597232,11843.295072
270.515994,76.609550,-296.082377,10881.027347
270.516302,2451.505594,1850.514855,8808.450710
270.516610,3217.601092,2960.823768,7254.018232
270.516918,4213.525239,2960.823768,7105.977043
270.517225,3294.210641,2072.576638,7846.182985
270.517533,1378.971896,666.185348,9178.553681
270.517841,-612.876398,-740.205942,11103.089130
270.518149,-2681.334243,-2442.679609,13323.706956
270.518457,-4213.525239,-3849.070898,14285.974681
270.518765,-5209.449386,-4663.297435,15322.262999
270.519073,-5209.449386,-4811.338623,14656.077652
270.519381,-3294.210641,-2886.803174,13027.624579
270.519689,-766.095498,-296.082377,10658.965565
270.519997,2298.286494,2664.741391,7402.059420
270.520305,5515.887586,4663.297435,4959.379811
270.520613,6511.811733,5699.585753,3701.029710
270.520920,6435.202183,5107.421000,3478.967927
270.521228,5286.058936,4737.318029,4663.297435
270.521536,3677.258390,2368.659014,7105.977043
270.521844,383.047749,592.164754,9252.574275
270.522152,-995.924147,-1628.453072,11695.253884
270.522460,-2681.334243,-3182.885551,12583.501014
270.522768,-3753.867940,-3182.885551,13767.830521
270.523076,-2911.162892,-3108.864956,13693.809927
270.523384,-995.924147,-518.144159,11547.212695
270.523692,995.924147,1628.453072,9104.533087
270.524000,3140.991542,3034.844362,7994.224174
270.524307,4596.572988,2442.679609,6957.935855
270.524615,2528.115143,2960.823768,6513.812290
270.524923,2451.505594,1184.329507,9252.574275
270.525231,536.266849,-370.102971,10510.924376
270.525539,-2681.334243,-1628.453072,11991.336260
270.525847,-3524.039291,-3627.009116,13767.830521
270.526155,-4366.744339,-4293.194464,14285.974681
270.526463,-4903.011187,-4737.318029,15100.201217
270.526771,-3294.210641,-3330.926739,12361.439231
270.527079,-306.438199,-1036.288319,10807.006753
270.527387,2451.505594,1702.473667,7698.141797
270.527695,4979.620737,4515.256246,4663.297435
270.528002,6588.421283,5329.482782,4293.194464
270.528310,6128.763984,4219.173869,4071.132681
270.528618,4979.620737,4441.235652,4811.338623
270.528926,3524.039291,1998.556043,6587.832884
270.529234,995.924147,444.123565,9030.512492
270.529542,-995.924147,-1184.329507,11177.109724
270.529850,-2911.162892,-2738.761985,12287.418637
270.530158,-3064.381992,-3775.050304,13693.809927
270.530466,-2681.334243,-2664.741391,12435.459826
270.530774,-689.485948,-1184.329507,11399.171507
270.531082,1608.800546,1406.391290,9326.594869
270.531390,3524.039291,2516.700203,7402.059420
270.531697,3830.477490,2960.823768,7179.997637
270.532005,2987.772442,2368.659014,7624.121203
270.532313,2374.896044,1332.370696,8364.327145
270.532621,306.438199,-74.020594,9992.780217
270.532929,-995.924147,-1480.411884,11695.253884
270.533237,-2681.334243,-2886.803174,13175.665768
270.533545,-3753.867940,-3849.070898,14285.974681
270.533853,-3907.087040,-3923.091493,13767.830521
270.534161,-2528.115143,-2664.741391,12731.542202
270.534469,-536.266849,-222.061783,10732.986159
270.534777,2528.115143,2146.597232,7550.100608
270.535085,5056.230287,4219.173869,5551.544565
270.535392,6052.154434,5033.400406,3775.050304
270.535700,6128.763984,4663.297435,4145.153275
270.536008,5132.839837,3923.091493,5181.441594
270.536316,2911.162892,2220.617826,7254.018232
270.536624,1072.533697,370.102971,9178.553681
270.536932,-612.876398,-740.205942,11325.150913
270.537240,-2145.067394,-2664.741391,12657.521608
270.537548,-3064.381992,-3108.864956,13101.645173
270.537856,-2374.896044,-2738.761985,13175.665768
270.538164,-1302.362347,-1258.350101,11769.274478
270.538472,766.095498,814.226536,9918.759623
270.538780,2604.724693,1850.514855,8438.347739
270.539087,3294.210641,2886.803174,6735.874072
270.539395,3447.429741,2220.617826,7994.224174
270.539703,1608.800546,1184.329507,8660.409521
270.540011,153.219100,-0.000000,10214.842000
270.540319,-1608.800546,-1406.391290,11843.295072
270.540627,-3140.991542,-2590.720797,12879.583391
270.540935,-3830.477490,-3627.009116,14137.933492
270.541243,-4366.744339,-4145.153275,14285.974681
270.541551,-3677.258390,-2516.700203,12361.439231
270.541859,-689.485948,-740.205942,10881.027347
270.542167,1302.362347,2516.700203,7698.141797
270.542475,4826.401637,4145.153275,5847.626942
270.542782,5439.278036,5329.482782,4367.215058
270.543090,6281.983084,4441.235652,4737.318029
270.543398,4519.963438,3849.070898,4737.318029
270.543706,2604.724693,2368.659014,7031.956449
270.544014,842.705048,-518.144159,9030.512492
270.544322,-1225.752797,-1776.494261,10584.944971
270.544630,-2757.943793,-3182.885551,12953.603985
270.544938,-3217.601092,-3108.864956,12065.356855
270.545246,-2681.334243,-3627.009116,12953.603985
270.545554,-1455.581446,-1554.432478,11695.253884
270.545862,919.314598,740.205942,10288.862594
270.546170,2528.115143,1628.453072,8142.265362
270.546477,3370.820191,2368.659014,7031.956449
270.546785,3447.429741,2368.659014,7402.059420
270.547093,1991.848295,1184.329507,8142.265362
270.547401,842.705048,296.082377,10214.842000
270.547709,-1685.410096,-1110.308913,11103.089130
270.548017,-2681.334243,-2738.761985,12509.480420
270.548325,-4443.353888,-4071.132681,13323.706956
270.548633,-3983.696590,-4071.132681,13915.871710
270.548941,-3524.039291,-3404.947333,12879.583391
270.549249,-689.485948,-962.267725,11103.089130
270.549557,2145.067394,1702.473667,7846.182985
270.549865,4749.792088,4293.194464,5699.585753
270.550172,5898.935335,5107.421000,4441.235652
270.550480,6435.202183,4811.338623,3923.091493
270.550788,5362.668486,4367.215058,4737.318029
270.551096,3983.696590,2368.659014,6957.935855
270.551404,1838.629195,222.061783,8956.491898
270.551712,153.219100,-1184.329507,10881.027347
270.552020,-2298.286494,-2442.679609,12287.418637
270.552328,-2834.553343,-3552.988522,13249.686362
270.552636,-2221.676944,-3182.885551,12879.583391
270.552944,-1149.143247,-1554.432478,11843.295072
270.553252,1762.019645,518.144159,9400.615463
270.553560,3140.991542,2516.700203,7846.182985
270.553868,4903.011187,3256.906145,7105.977043
270.554175,3907.087040,2960.823768,7105.977043
270.554483,3217.601092,2072.576638,7772.162391
270.554791,1302.362347,666.185348,9400.615463
270.555099,-536.266849,-888.247130,10807.006753
270.555407,-2604.724693,-2886.803174,12435.459826
270.555715,-3524.039291,-3849.070898,14211.954086
270.556023,-3983.696590,-4293.194464,14063.912898
270.556331,-3064.381992,-3256.906145,13397.727550
270.556639,-842.705048,-1036.288319,11695.253884
270.556947,1532.190996,1554.432478,8660.409521
270.557255,4136.915689,3627.009116,6291.750507
270.557563,5592.497135,4589.276840,4737.318029
270.557870,5439.278036,4737.318029,4441.235652
270.558178,4596.572988,3849.070898,5255.462188
270.558486,3830.477490,2664.741391,7105.977043
270.558794,1225.752797,1332.370696,8290.306550
270.559102,-383.047749,-148.041188,10510.924376
270.559410,-1608.800546,-2516.700203,12287.418637
270.559718,-2374.896044,-3256.906145,12657.521608
270.560026,-3140.991542,-2812.782580,12731.542202
270.560334,-1455.581446,-2590.720797,12805.562797
270.560642,766.095498,148.041188,10066.800811
270.560950,2451.505594,1998.556043,8734.430116
270.561258,3140.991542,2442.679609,7624.121203
270.561565,3753.867940,2664.741391,7476.080014
270.561873,1608.800546,2072.576638,8586.388927
270.562181,229.828649,962.267725,10362.883188
270.562489,-1225.752797,-814.226536,12065.356855
270.562797,-3753.867940,-1924.535449,13545.768739
270.563105,-5056.230287,-3330.926739,14804.118840
270.563413,-4903.011187,-3627.009116,14508.036463
270.563721,-4213.525239,-2516.700203,13841.851115
270.564029,-1608.800546,-1110.308913,11177.109724
270.564337,1149.143247,1554.432478,8882.471304
270.564645,4443.353888,3478.967927,6809.894666
270.564953,4826.401637,5033.400406,4441.235652
270.565260,5439.278036,4811.338623,4589.276840
270.565568,4826.401637,3849.070898,5255.462188
270.565876,2987.772442,3034.844362,6439.791695
270.566184,689.485948,1184.329507,8512.368333
270.566492,383.047749,-888.247130,10955.047942
270.566800,-1532.190996,-2220.617826,12287.418637
270.567108,-2757.943793,-3108.864956,12213.398043
270.567416,-2298.286494,-3256.906145,12953.603985
270.567724,-1302.362347,-1998.556043,11325.150913
270.568032,842.705048,296.082377,9548.656652
270.568340,2757.943793,2072.576638,8142.265362
270.568648,3677.258390,2738.761985,6735.874072
270.568956,3217.601092,2220.617826,6883.915261
270.569263,2451.505594,1184.329507,7402.059420
270.569571,1072.533697,-666.185348,9474.636058
270.569879,-995.924147,-2072.576638,10807.006753
270.570187,-2528.115143,-3849.070898,12287.418637
270.570495,-3600.648841,-4441.235652,13323.706956
270.570803,-3753.867940,-5181.441594,13323.706956
270.571111,-2145.067394,-3701.029710,11991.336260
270.571419,-995.924147,-2146.597232,9770.718434
270.571727,2221.676944,740.205942,7920.203579
270.572035,4749.792088,2738.761985,5107.421000
270.572343,6052.154434,4367.215058,3775.050304
270.572651,6128.763984,4367.215058,3330.926739
270.572958,5745.716235,3997.112087,4219.173869
270.573266,4366.744339,2886.803174,6217.729913
270.573574,1991.848295,1258.350101,8142.265362
270.573882,-306.438199,-666.185348,10288.862594
270.574190,-1915.238745,-2220.617826,11917.315666
270.574498,-3524.039291,-3330.926739,13175.665768
270.574806,-3677.258390,-3182.885551,14434.015869
270.575114,-2451.505594,-1924.535449,12731.542202
270.575422,-229.828649,592.164754,10732.986159
270.575730,2068.457845,2516.700203,9326.594869
270.576038,3677.258390,3034.844362,7772.162391
270.576346,2911.162892,2960.823768,7328.038826
270.576653,2145.067394,2146.597232,8882.471304
270.576961,766.095498,888.247130,10362.883188
270.577269,-1072.533697,-666.185348,11769.274478
270.577577,-2834.553343,-2146.597232,13027.624579
270.577885,-3524.039291,-3182.885551,13915.871710
270.578193,-3753.867940,-2960.823768,14063.912898
270.578501,-2834.553343,-2368.659014,12953.603985
270.578809,-766.095498,-296.082377,11177.109724
270.579117,2451.505594,1924.535449,8142.265362
270.579425,4749.792088,4071.132681,5847.626942
270.579733,6358.592633,5403.503377,4811.338623
270.580041,5898.935335,5181.441594,4885.359217
270.580348,5056.230287,4515.256246,4885.359217
270.580656,3830.477490,3701.029710,6587.832884
270.580964,1915.238745,1554.432478,9178.553681
270.581272,-459.657299,-518.144159,11029.068536
270.581580,-2528.115143,-1850.514855,13027.624579
270.581888,-3907.087040,-3256.906145,14211.954086
270.582196,-3830.477490,-3997.112087,14211.954086
270.582504,-2987.772442,-2738.761985,13323.706956
270.582812,0.000000,-518.144159,11251.130318
270.583120,1838.629195,1110.308913,9252.574275
270.583428,3677.258390,1998.556043,7624.121203
270.583736,3294.210641,2368.659014,7402.059420
270.584044,2451.505594,1406.391290,7772.162391
270.584351,1302.362347,296.082377,9474.636058
270.584659,-383.047749,-1406.391290,11029.068536
270.584967,-2221.676944,-2442.679609,12435.459826
270.585275,-2911.162892,-3849.070898,12879.583391
270.585583,-3217.601092,-3775.050304,12879.583391
270.585891,-2528.115143,-3108.864956,12435.459826
270.586199,-459.657299,-1184.329507,9918.759623
270.586507,2298.286494,1554.432478,6957.935855
270.586815,4826.401637,3775.050304,5181.441594
270.587123,6358.592633,4737.318029,3923.091493
270.587431,6435.202183,4737.318029,4071.132681
270.587739,5592.497135,3775.050304,4589.276840
270.588046,3907.087040,2368.659014,5699.585753
270.588354,2145.067394,666.185348,8586.388927
270.588662,-612.876398,-1184.329507,10807.006753
270.588970,-2681.334243,-2812.782580,12509.480420
270.589278,-3907.087040,-4367.215058,14063.912898
270.589586,-4060.306139,-4441.235652,13989.892304
270.589894,-2604.724693,-3330.926739,12657.521608
270.590202,-459.657299,-1036.288319,11103.089130
270.590510,2221.676944,1184.329507,8438.347739
270.590818,3677.258390,2738.761985,6809.894666
270.591126,3983.696590,2516.700203,7105.977043
270.591434,3217.601092,2294.638420,7105.977043
270.591741,1991.848295,1258.350101,8586.388927
270.592049,459.657299,-518.144159,10658.965565
270.592357,-1608.800546,-1480.411884,11473.192101
270.592665,-2834.553343,-3330.926739,13027.624579
270.592973,-3447.429741,-3404.947333,13323.706956
270.593281,-2451.505594,-2664.741391,12509.480420
270.593589,-1225.752797,-1184.329507,10807.006753
270.593897,1915.238745,1332.370696,8586.388927
270.594205,4366.744339,3478.967927,5921.647536
270.594513,5898.935335,4811.338623,4367.215058
270.594821,6741.640382,4441.235652,4441.235652
270.595129,5362.668486,4219.173869,4959.379811
270.595436,3140.991542,3034.844362,7254.018232
270.595744,1532.190996,1036.288319,9326.594869
270.596052,-842.705048,-666.185348,11399.171507
270.596360,-3064.381992,-2442.679609,13249.686362
270.596668,-4213.525239,-3330.926739,14211.954086
270.596976,-4366.744339,-3404.947333,14434.015869
270.597284,-2911.162892,-2368.659014,13397.727550
270.597592,-459.657299,-814.226536,11473.192101
270.597900,1762.019645,2146.597232,8808.450710
270.598208,3600.648841,3108.864956,7920.203579
270.598516,4060.306139,2738.761985,7402.059420
270.598824,2834.553343,2590.720797,7105.977043
270.599132,1532.190996,1332.370696,9104.533087
270.599439,306.438199,-0.000000,10214.842000
270.599747,-1762.019645,-1924.535449,11621.233289
270.600055,-2604.724693,-2664.741391,13175.665768
270.600363,-3524.039291,-3478.967927,13397.727550
270.600671,-2681.334243,-2960.823768,12583.501014
270.600979,-1302.362347,-1184.329507,11029.068536
270.601287,1302.362347,1332.370696,8660.409521
270.601595,3983.696590,3330.926739,6291.750507
270.601903,5286.058936,4515.256246,4959.379811
270.602211,5439.278036,4737.318029,4515.256246
270.602519,4979.620737,3849.070898,4959.379811
270.602827,3830.477490,2516.700203,6661.853478
270.603134,919.314598,962.267725,8290.306550
270.603442,-383.047749,-1258.350101,10881.027347
270.603750,-2757.943793,-2812.782580,12361.439231
270.604058,-3907.087040,-4219.173869,14359.995275
270.604366,-4136.915689,-4219.173869,14137.933492
270.604674,-2757.943793,-2738.761985,13397.727550
270.604982,-842.705048,-888.247130,11991.336260
270.605290,1225.752797,1184.329507,8660.409521
270.605598,3140.991542,2664.741391,7920.203579
270.605906,3907.087040,2220.617826,7031.956449
270.606214,3064.381992,2146.597232,7179.997637
270.606522,1762.019645,888.247130,8660.409521
270.606829,76.609550,-148.041188,9918.759623
270.607137,-383.047749,-2220.617826,12065.356855
270.607445,-3524.039291,-2664.741391,11843.295072
270.607753,-2451.505594,-3923.091493,13767.830521
270.608061,-2911.162892,-2812.782580,12139.377449
270.608369,-842.705048,-1480.411884,10732.986159
270.608677,1838.629195,740.205942,8290.306550
270.608985,4749.792088,3478.967927,5255.462188
270.609293,5898.935335,4367.215058,4811.338623
270.609601,5975.544884,4737.318029,3330.926739
270.609909,6052.154434,3997.112087,5107.421000
270.610217,3600.648841,2886.803174,5847.626942
270.610524,2145.067394,740.205942,8290.306550
270.610832,-383.047749,-592.164754,10881.027347
270.611140,-2757.943793,-2886.803174,12731.542202
270.611448,-3983.696590,-3552.988522,13989.892304
270.611756,-3907.087040,-3478.967927,14137.933492
270.612064,-2068.457845,-2442.679609,13249.686362
270.612372,-536.266849,-74.020594,11473.192101
270.612680,2145.067394,1924.535449,9104.533087
270.612988,3524.039291,2960.823768,7550.100608
270.613296,3524.039291,2590.720797,7105.977043
270.613604,3064.381992,1702.473667,8364.327145
270.613912,1225.752797,1036.288319,9178.553681
270.614220,-76.609550,-592.164754,10732.986159
270.614527,-2298.286494,-2072.576638,11991.336260
270.614835,-3524.039291,-3182.885551,13249.686362
270.615143,-4213.525239,-3997.112087,13767.830521
270.615451,-2911.162892,-3034.844362,12213.398043
270.615759,-1302.362347,-1258.350101,10510.924376
270.616067,1532.190996,1258.350101,8364.327145
270.616375,4443.353888,3478.967927,6513.812290
270.616683,5669.106685,5033.400406,4811.338623
270.616991,6128.763984,5181.441594,4071.132681
270.617299,6205.373534,4663.297435,4589.276840
270.617607,3907.087040,3108.864956,6069.688724
270.617915,2145.067394,1258.350101,8290.306550
270.618222,-612.876398,-296.082377,10807.006753
270.618530,-2834.553343,-2220.617826,13101.645173
270.618838,-4213.525239,-3478.967927,14063.912898
270.619146,-3830.477490,-3552.988522,13915.871710
270.619454,-2528.115143,-2368.659014,13693.809927
270.619762,-459.657299,370.102971,11473.192101
270.620070,1072.533697,2146.597232,9326.594869
270.620378,3447.429741,2664.741391,7476.080014
270.620686,3217.601092,2886.803174,7105.977043
270.620994,2528.115143,2220.617826,8438.347739
270.621302,1225.752797,1110.308913,9252.574275
270.621610,-459.657299,-518.144159,10362.883188
270.621917,-2145.067394,-2146.597232,11991.336260
270.622225,-2987.772442,-2812.782580,12953.603985
270.622533,-4060.306139,-3775.050304,13471.748144
270.622841,-2987.772442,-3478.967927,12657.521608
270.623149,-1378.971896,-1998.556043,10955.047942
270.623457,1532.190996,666.185348,8660.409521
270.623765,4290.134789,2960.823768,6291.750507
270.624073,6052.154434,4515.256246,4441.235652
270.624381,6894.859482,4515.256246,4589.276840
270.624689,5745.716235,4145.153275,3849.070898
270.624997,4366.744339,2960.823768,5625.565159
270.625305,2451.505594,1332.370696,7624.121203
270.625612,0.000000,-1036.288319,10436.903782
270.625920,-2374.896044,-2442.679609,12065.356855
270.626228,-3753.867940,-3552.988522,13471.748144
270.626536,-3830.477490,-4071.132681,14211.954086
270.626844,-2911.162892,-2886.803174,12805.562797
270.627152,0.000000,-518.144159,11917.315666
270.627460,1838.629195,1406.391290,8808.450710
270.627768,2987.772442,2368.659014,7179.997637
270.628076,3600.648841,2368.659014,7254.018232
270.628384,2681.334243,1554.432478,7920.203579
270.628692,1608.800546,962.267725,8734.430116
270.629000,153.219100,-296.082377,10288.862594
270.629308,-1455.581446,-1702.473667,11695.253884
270.629615,-2451.505594,-2442.679609,12361.439231
270.629923,-2757.943793,-3404.947333,13323.706956
270.630231,-2451.505594,-2664.741391,12065.356855
270.630539,-995.924147,-1406.391290,10362.883188
270.630847,1685.410096,814.226536,8660.409521
270.631155,3983.696590,3182.885551,6217.729913
270.631463,5439.278036,4219.173869,5477.523971
270.631771,6281.983084,4811.338623,4589.276840
270.632079,5515.887586,3849.070898,4293.194464
270.632387,4290.134789,3552.988522,5847.626942
270.632695,2451.505594,1406.391290,8586.388927
270.633003,-306.438199,-370.102971,10584.944971
270.633310,-2298.286494,-2368.659014,12879.583391
270.633618,-3677.258390,-3404.947333,13989.892304
270.633926,-4213.525239,-3701.029710,14508.036463
270.634234,-2451.505594,-3034.844362,13989.892304
270.634542,-536.266849,-444.123565,11325.150913
270.634850,1532.190996,1776.494261,9474.636058
270.635158,3294.210641,2590.720797,7994.224174
270.635466,3217.601092,3182.885551,7031.956449
270.635774,2834.553343,2072.576638,8364.327145
270.636082,1378.971896,1406.391290,8882.471304
270.636390,-536.266849,-0.000000,9770.718434
270.636698,-1762.019645,-1628.453072,11769.274478
270.637005,-2604.724693,-2294.638420,13397.727550
270.637313,-3217.601092,-3182.885551,13397.727550
270.637621,-2987.772442,-2368.659014,11843.295072
270.637929,-1762.019645,-1406.391290,11251.130318
270.638237,1072.533697,592.164754,9104.533087
270.638545,3447.429741,3108.864956,6809.894666
270.638853,5592.497135,4145.153275,5033.400406
270.639161,5898.935335,4959.379811,4219.173869
270.639469,5286.058936,4145.153275,4663.297435
270.639777,3830.477490,3256.906145,6291.750507
270.640085,2298.286494,1036.288319,8068.244768
270.640393,-612.876398,-518.144159,10732.986159
270.640701,-2451.505594,-2368.659014,12657.521608
270.641008,-4366.744339,-3923.091493,13693.809927
270.641316,-4366.744339,-3923.091493,14878.139434
270.641624,-3217.601092,-3256.906145,13989.892304
270.641932,-1608.800546,-1406.391290,11473.192101
270.642240,2068.457845,370.102971,9252.574275
270.642548,3294.210641,2368.659014,7105.977043
