#time,accel_x,accel_y,accel_z
723.292836,-114.855485,-880.558717,-9571.290400
723.295672,-172.283227,-937.986459,-9686.145885
723.298509,-76.570323,-918.843878,-9571.290400
723.301346,-114.855485,-880.558717,-9647.860723
723.304182,-267.996131,0.000000,-10241.280728
723.307019,38.285162,2143.969050,-9973.284597
723.309855,-114.855485,4670.789715,-9513.862658
723.312692,-0.000000,4881.358104,-9284.151688
723.315529,-114.855485,5264.209720,-11006.983960
723.318365,-114.855485,1339.980656,-7159.325219
723.321202,38.285162,-1110.269686,-11140.982026
723.324039,-0.000000,-6221.338760,-8441.878133
723.326875,-440.279358,-10164.710405,-9801.001370
723.329712,57.427742,-10547.562021,-10126.425243
723.332548,995.414202,-2029.113565,-9667.003304
723.335385,-1359.123237,957.129040,-8729.016845
723.338222,287.138712,-1320.838075,-10796.415571
723.341058,-95.712904,-1033.699363,-8556.733618
723.343895,267.996131,-2431.107762,-8824.729749
723.346732,-0.000000,-2947.957443,-11045.269122
723.349456,-784.845813,-4441.078746,-8154.739421
723.352180,210.568389,-8422.735552,-9513.862658
723.354904,-325.423874,-10738.987829,-9686.145885
723.357628,-76.570323,-8939.585234,-10068.997501
723.360352,-267.996131,-2909.672282,-9896.714274
723.363076,-842.273555,2316.252277,-10738.987829
723.365800,440.279358,918.843878,-7886.743290
723.368524,-823.130974,727.418070,-9667.003304
723.371248,823.130974,-1186.840010,-10911.271056
723.373973,-669.990328,-1990.828403,-7944.171032
723.376697,-708.275490,-3273.381317,-10662.417506
723.379421,-1416.550979,-1646.261949,-9628.718142
723.382145,2354.537438,-3598.805190,-7389.036189
723.384869,-2297.109696,1588.834206,-12959.527202
723.387593,133.998066,-1493.121302,-8020.741355
723.390317,995.414202,535.992262,-7771.887805
723.393041,-401.994197,746.560651,-12557.533005
723.395765,-229.710970,976.271621,-7752.745224
723.398489,421.136778,-2756.531635,-9973.284597
723.401214,-421.136778,-2182.254211,-10758.130410
723.403938,-478.564520,-1435.693560,-7982.456194
723.406662,38.285162,-2737.389054,-11083.554283
723.409386,-1703.689691,-95.712904,-8173.882002
723.412110,918.843878,-1933.400661,-11523.833642
723.414834,-899.701298,2201.396792,-9877.571693
723.417558,1722.832272,-440.279358,-6833.901346
723.420282,-1014.556782,1033.699363,-10107.282662
723.423006,267.996131,-1301.695494,-12136.396227
723.425730,191.425808,-1167.697429,-6125.625856
723.428454,-708.275490,-3330.809059,-11255.837510
723.431179,842.273555,-3924.229064,-11638.689126
723.433903,191.425808,-765.703232,-5781.059402
723.436627,-1914.258080,2239.681954,-14605.789150
723.439351,1263.410333,344.566454,-6202.196179
723.442075,-727.418070,-708.275490,-11428.120738
723.444799,-191.425808,-229.710970,-10815.558152
723.447523,555.134843,-2775.674216,-7197.610381
723.450247,-478.564520,-1378.265818,-10738.987829
723.452971,287.138712,-2201.396792,-11083.554283
723.455695,-133.998066,-210.568389,-7810.172966
723.458343,133.998066,-593.420005,-9590.432981
723.460991,-76.570323,-172.283227,-12270.394293
723.463638,-76.570323,267.996131,-6987.041992
723.466286,-19.142581,-689.132909,-11255.837510
723.468934,-918.843878,0.000000,-9954.142016
723.471581,535.992262,-2239.681954,-8365.307810
723.474229,-803.988394,-1301.695494,-10432.706536
723.476876,-306.281293,-3292.523898,-9590.432981
723.479524,-172.283227,-880.558717,-8059.026517
723.482172,-114.855485,-1148.554848,-14586.646570
723.484819,133.998066,1703.689691,-5570.491013
723.487467,1378.265818,153.140646,-7446.463931
723.490115,-823.130974,-382.851616,-14758.929797
723.492762,-689.132909,76.570323,-7810.172966
723.495410,-382.851616,-1493.121302,-6757.331022
723.498058,325.423874,-2450.250342,-12959.527202
723.500705,-1359.123237,-1684.547110,-9934.999435
723.503353,114.855485,-593.420005,-6336.194245
723.506000,612.562586,-2679.961312,-12480.962682
723.508648,-1607.976787,1359.123237,-9839.286531
723.511296,1569.691626,-1493.121302,-7523.034254
723.513943,-650.847747,555.134843,-11121.839445
723.516591,-363.709035,-937.986459,-10968.698798
723.519239,803.988394,-1378.265818,-7082.754896
723.521886,-957.129040,-689.132909,-11791.829773
723.524534,-95.712904,-2239.681954,-9858.429112
723.527181,248.853550,-803.988394,-6412.764568
723.529829,-995.414202,-1091.127106,-12806.386555
723.532477,-95.712904,133.998066,-9188.438784
723.535124,363.709035,-1703.689691,-7331.608446
723.537772,-38.285162,-593.420005,-11447.263318
723.540420,-133.998066,-1167.697429,-10930.413637
723.543067,-38.285162,-267.996131,-6221.338760
723.545715,191.425808,-1627.119368,-12500.105262
723.548363,-229.710970,-344.566454,-10011.569758
723.551010,267.996131,-765.703232,-6336.194245
723.553658,-19.142581,-1416.550979,-12270.394293
723.556305,-229.710970,95.712904,-10279.565890
723.558953,-574.277424,823.130974,-7657.032320
723.561601,-593.420005,1244.267752,-11696.116869
723.564205,2220.539373,-4575.076811,-7063.612315
723.566810,-1320.838075,-2392.822600,-10336.993632
723.569415,784.845813,-4249.652938,-12059.825904
723.572020,76.570323,-995.414202,-7178.467800
723.574624,-765.703232,497.707101,-10183.852986
723.577229,918.843878,344.566454,-12691.531070
723.579834,-574.277424,2488.535504,-6183.053598
723.582438,-172.283227,-172.283227,-9781.858789
723.585043,-459.421939,-937.986459,-12366.107197
723.587648,-325.423874,-2871.387120,-6910.471669
723.590253,1282.552914,-3981.656806,-8786.444587
723.592857,-1761.117434,-2526.820666,-13725.230434
723.595462,-497.707101,421.136778,-6336.194245
723.598067,440.279358,-1301.695494,-12289.536874
723.600671,-1837.687757,2373.680019,-9303.294269
723.603276,1397.408398,-880.558717,-8537.591037
723.605881,-669.990328,-1454.836141,-11944.970419
723.608485,-918.843878,-114.855485,-10260.423309
723.611090,2450.250342,-3637.090352,-5838.487144
723.613695,-2297.109696,-440.279358,-11696.116869
723.616300,-1339.980656,-823.130974,-13648.660110
723.618904,1914.258080,-574.277424,-1914.258080
723.621509,57.427742,-2411.965181,-12940.384621
723.624114,-1627.119368,-172.283227,-12251.251712
723.626718,1990.828403,-2086.541307,-5991.627790
723.629323,-803.988394,861.416136,-8633.303941
723.631928,-497.707101,-1148.554848,-13993.226565
723.634533,2986.242605,-803.988394,-8097.311678
723.637137,-3790.230998,2335.394858,-6987.041992
723.639742,3847.658741,-5455.635528,-12653.245909
723.642347,-3177.668413,19.142581,-7178.467800
723.644951,1014.556782,-4651.647134,-12595.818166
723.647556,440.279358,-1741.974853,-8384.450390
723.650161,-2450.250342,248.853550,-9858.429112
723.652766,248.853550,229.710970,-8403.592971
723.655370,880.558717,-325.423874,-12768.101394
723.657975,-746.560651,1684.547110,-8786.444587
723.660580,1933.400661,-1416.550979,-8518.448456
723.663184,-363.709035,-708.275490,-8939.585234
723.665789,-727.418070,-1359.123237,-12289.536874
723.668361,918.843878,-2928.814862,-8327.022648
723.670933,-918.843878,-880.558717,-7905.885870
723.673505,57.427742,-2316.252277,-14203.794954
723.676077,-95.712904,765.703232,-5513.063270
723.678649,478.564520,-918.843878,-11083.554283
723.681222,-784.845813,803.988394,-11255.837510
723.683794,765.703232,-574.277424,-7542.176835
723.686366,-459.421939,-306.281293,-9820.143950
723.688938,-440.279358,-1320.838075,-11408.978157
723.691510,555.134843,-2239.681954,-9111.868461
723.694082,-555.134843,-669.990328,-8384.450390
723.696654,-76.570323,-1799.402595,-12117.253646
723.699226,-57.427742,-535.992262,-7657.032320
723.701798,76.570323,-1684.547110,-9360.722011
723.704370,287.138712,287.138712,-10222.138147
723.706942,-574.277424,95.712904,-11274.980091
723.709514,191.425808,1550.549045,-6068.198114
723.712086,-1091.127106,-1205.982590,-10719.845248
723.714659,-535.992262,-746.560651,-10681.560086
723.717231,1148.554848,-3522.234867,-6144.768437
723.719803,-344.566454,-3866.801322,-14548.361408
723.722375,-1014.556782,-1550.549045,-6297.909083
723.724947,823.130974,-2660.818731,-10451.849117
723.727519,-1091.127106,1435.693560,-9896.714274
723.730091,57.427742,535.992262,-9801.001370
723.732663,-76.570323,2507.678085,-8078.169098
723.735235,-382.851616,-38.285162,-11083.554283
723.737807,172.283227,-937.986459,-9092.725880
723.740379,267.996131,-3005.385186,-8997.012976
723.742951,-459.421939,-1761.117434,-10930.413637
723.745524,95.712904,-3483.949706,-8729.016845
723.748096,-210.568389,-2105.683888,-10356.136213
723.750668,-440.279358,842.273555,-9265.009107
723.753240,210.568389,95.712904,-8977.870395
723.755812,-516.849682,1339.980656,-10126.425243
723.758384,803.988394,-1665.404530,-9226.723946
723.760956,-727.418070,440.279358,-8633.303941
723.763528,19.142581,-1761.117434,-13170.095590
723.766100,-344.566454,-976.271621,-6049.055533
723.768672,497.707101,-2813.959378,-10356.136213
723.771219,-497.707101,-1091.127106,-10643.274925
723.773766,-1167.697429,-57.427742,-9839.286531
723.776313,918.843878,-746.560651,-10260.423309
723.778861,-172.283227,-478.564520,-7408.178770
723.781408,-287.138712,-1588.834206,-12442.677520
723.783955,-38.285162,-325.423874,-7178.467800
723.786502,114.855485,-1071.984525,-10451.849117
723.789049,-612.562586,325.423874,-10164.710405
723.791596,612.562586,-1952.543242,-8059.026517
723.794143,-363.709035,-593.420005,-11389.835576
723.796690,95.712904,-1205.982590,-9686.145885
723.799237,-76.570323,-765.703232,-8537.591037
723.801784,-57.427742,-1282.552914,-10547.562021
723.804331,-95.712904,-765.703232,-10011.569758
723.806878,-114.855485,-57.427742,-8805.587168
723.809426,-114.855485,-803.988394,-9686.145885
723.811973,-976.271621,-401.994197,-8843.872330
723.814520,1761.117434,-4192.225195,-10068.997501
723.817067,-1799.402595,1186.840010,-9896.714274
723.819614,-95.712904,-210.568389,-9839.286531
723.822161,-76.570323,229.710970,-7025.327154
723.824708,612.562586,-1914.258080,-11370.692995
723.827255,-1397.408398,95.712904,-10011.569758
723.829802,631.705166,-2048.256146,-9150.153622
723.832349,267.996131,-2584.248408,-10317.851051
723.834896,-1091.127106,-440.279358,-9226.723946
723.837443,574.277424,-2239.681954,-10088.140082
723.839990,-440.279358,229.710970,-8327.022648
723.842538,-38.285162,-497.707101,-11868.400096
723.845085,-382.851616,1397.408398,-6891.329088
723.847632,421.136778,-1799.402595,-10394.421374
723.850179,-287.138712,-842.273555,-10624.132344
723.852726,-114.855485,-1550.549045,-8997.012976
723.855273,114.855485,-1205.982590,-9552.147819
723.857820,-210.568389,-2163.111630,-10758.130410
723.860367,-95.712904,-631.705166,-9035.298138
723.862914,-669.990328,0.000000,-9954.142016
723.865461,-555.134843,-1167.697429,-9245.866526
723.868008,1569.691626,-1780.260014,-10202.995566
723.870555,363.709035,-1818.545176,-8767.302006
723.873084,-1244.267752,1818.545176,-9934.999435
723.875612,-95.712904,-459.421939,-9628.718142
723.878141,631.705166,-746.560651,-10356.136213
723.880669,-861.416136,-1186.840010,-8690.731683
723.883198,153.140646,-1071.984525,-10930.413637
723.885726,-1033.699363,-1167.697429,-9609.575562
723.888255,1607.976787,-2986.242605,-8461.020714
723.890783,-650.847747,-1205.982590,-11428.120738
723.893312,-612.562586,-765.703232,-9571.290400
723.895840,612.562586,-114.855485,-7771.887805
723.898368,-784.845813,114.855485,-11179.267187
723.900897,133.998066,1091.127106,-8384.450390
723.903425,-133.998066,-708.275490,-9226.723946
723.905954,172.283227,-1282.552914,-11523.833642
723.908482,-516.849682,-1588.834206,-9475.577496
723.911011,823.130974,-2048.256146,-7867.600709
723.913539,-1282.552914,-1799.402595,-12136.396227
723.916068,-133.998066,-1818.545176,-7791.030386
723.918596,382.851616,-555.134843,-10987.841379
723.921124,-440.279358,1320.838075,-12308.679454
723.923653,823.130974,1512.263883,-4077.369710
723.926181,-708.275490,-267.996131,-11772.687192
723.928710,-229.710970,-459.421939,-11830.114934
723.931238,593.420005,-3598.805190,-5551.348432
723.933767,-153.140646,-2737.389054,-10968.698798
723.936295,-401.994197,-3196.810994,-12844.671717
723.938824,-76.570323,325.423874,-7121.040058
723.941352,746.560651,-57.427742,-9934.999435
723.943881,-306.281293,-95.712904,-11868.400096
723.946409,-497.707101,957.129040,-6374.479406
723.948937,765.703232,-2335.394858,-11274.980091
723.951466,-1225.125171,-689.132909,-9954.142016
723.953994,535.992262,-3139.383251,-8518.448456
723.956523,-497.707101,-823.130974,-9571.290400
723.959051,38.285162,-1971.685822,-10585.847182
723.961580,76.570323,172.283227,-8480.163294
723.964108,-76.570323,-248.853550,-9915.856854
723.966637,-76.570323,153.140646,-10758.130410
723.969165,-114.855485,-516.849682,-8671.589102
723.971694,210.568389,-1052.841944,-10049.854920
723.974212,-669.990328,-650.847747,-9820.143950
723.976730,746.560651,-2794.816797,-8231.309744
723.979249,-612.562586,-765.703232,-10470.991698
723.981767,-440.279358,-1665.404530,-10317.851051
723.984286,899.701298,-612.562586,-7618.747158
723.986804,842.273555,-2297.109696,-9973.284597
723.989323,-2048.256146,1493.121302,-12442.677520
723.991841,-210.568389,899.701298,-7618.747158
723.994359,2354.537438,-382.851616,-8729.016845
723.996878,-2029.113565,-325.423874,-10968.698798
723.999396,765.703232,-2890.529701,-10317.851051
724.001915,114.855485,-2411.965181,-7752.745224
724.004433,-842.273555,-2048.256146,-11102.696864
724.006952,95.712904,-1014.556782,-10375.278794
724.009470,76.570323,-516.849682,-7523.034254
724.011988,-1052.841944,1818.545176,-10758.130410
724.014507,344.566454,-574.277424,-10107.282662
724.017025,-440.279358,-95.712904,-7580.461997
724.019544,-459.421939,-1588.834206,-10719.845248
724.022062,899.701298,-2105.683888,-10662.417506
724.024581,-1167.697429,-842.273555,-10796.415571
724.027099,1761.117434,-1837.687757,-7446.463931
724.029617,-650.847747,133.998066,-9820.143950
724.032136,-650.847747,-937.986459,-11313.265253
724.034654,478.564520,-516.849682,-7025.327154
724.037173,-976.271621,-1148.554848,-10853.843314
724.039691,861.416136,-1435.693560,-9284.151688
724.042210,1129.412267,-3024.527766,-8824.729749
724.044728,-2277.967115,1435.693560,-11121.839445
724.047246,1091.127106,-1301.695494,-9437.292334
724.049765,-1052.841944,248.853550,-9896.714274
724.052283,-631.705166,-555.134843,-10662.417506
724.054672,1780.260014,-3254.238736,-9054.440718
724.057059,-1914.258080,325.423874,-8882.157491
724.059447,516.849682,-2526.820666,-11351.550414
724.061834,-133.998066,-95.712904,-7944.171032
724.064222,-287.138712,-535.992262,-9724.431046
724.066610,153.140646,114.855485,-10777.272990
724.068997,-229.710970,-1703.689691,-8690.731683
724.071385,287.138712,-1167.697429,-9705.288466
724.073772,-172.283227,-1627.119368,-10719.845248
724.076160,-57.427742,-555.134843,-8499.305875
724.078548,344.566454,-1339.980656,-10547.562021
724.080935,-363.709035,-153.140646,-10241.280728
724.083323,-210.568389,0.000000,-8556.733618
724.085710,191.425808,-1914.258080,-10107.282662
724.088098,-516.849682,-363.709035,-9686.145885
724.090485,-631.705166,-1799.402595,-9571.290400
724.092873,1531.406464,-1895.115499,-8307.880067
724.095261,-306.281293,-1971.685822,-11102.696864
724.097648,-2182.254211,1071.984525,-10528.419440
724.100036,555.134843,-440.279358,-8059.026517
724.102423,-401.994197,153.140646,-10356.136213
724.104811,76.570323,-1473.978722,-11026.126541
724.107199,325.423874,-1627.119368,-10834.700733
724.109586,-38.285162,-229.710970,-6202.196179
724.111974,-153.140646,-1607.976787,-12002.398162
724.114361,-248.853550,-440.279358,-10222.138147
724.116749,-95.712904,-516.849682,-6565.905214
724.119137,-76.570323,229.710970,-11619.546546
724.121524,-344.566454,-1531.406464,-9667.003304
724.123912,133.998066,-1722.832272,-8269.594906
724.126299,-38.285162,-1569.691626,-11944.970419
724.128687,-325.423874,-612.562586,-9379.864592
724.131074,-0.000000,-918.843878,-8001.598774
724.133462,401.994197,-1320.838075,-11925.827838
724.135850,-1167.697429,1225.125171,-8958.727814
724.138237,459.421939,-861.416136,-8250.452325
724.140625,-421.136778,-382.851616,-10643.274925
724.143012,-1473.978722,-1225.125171,-11332.407834
724.145400,2431.107762,-2852.244539,-5321.637462
724.147788,-861.416136,-3139.383251,-10413.563955
724.150214,-3407.379382,957.129040,-12997.812363
724.152640,6833.901346,-4326.223261,-11160.124606
724.155066,-5532.205851,4268.795518,-4326.223261
724.157492,-287.138712,612.562586,-11026.126541
724.159918,2373.680019,-4268.795518,-10604.989763
724.162345,-5053.641331,1722.832272,-9016.155557
724.164771,2411.965181,-5991.627790,-13533.804626
724.167197,-478.564520,-3120.240670,-5379.065205
724.169623,-1110.269686,-2297.109696,-10911.271056
724.172049,1320.838075,95.712904,-12634.103328
724.174475,-784.845813,2526.820666,-5436.492947
724.176902,363.709035,2526.820666,-9762.716208
724.179328,-210.568389,382.851616,-13916.656242
724.181754,-401.994197,-172.283227,-5091.926493
724.184180,421.136778,-3828.516160,-11523.833642
724.186606,-1186.840010,-3330.809059,-11676.974288
724.189033,574.277424,-3426.521963,-6068.198114
724.191459,-957.129040,-2297.109696,-13342.378818
724.193885,-95.712904,746.560651,-6967.899411
724.196311,325.423874,631.705166,-8212.167163
724.198737,976.271621,1148.554848,-13342.378818
724.201163,-440.279358,1722.832272,-10566.704602
724.203590,76.570323,937.986459,-3790.230998
724.206016,593.420005,-2622.533570,-14816.357539
724.208442,-1148.554848,-2163.111630,-9992.427178
724.210868,2622.533570,-3962.514226,-5857.629725
724.213294,-2469.392923,-1569.691626,-12768.101394
724.215720,-95.712904,-708.275490,-9686.145885
724.218147,727.418070,-1397.408398,-6374.479406
724.220573,-1722.832272,1780.260014,-14165.509792
724.222999,746.560651,-535.992262,-8327.022648
724.225425,-497.707101,1473.978722,-5436.492947
724.227851,-172.283227,-1818.545176,-14242.080115
724.230277,153.140646,-1837.687757,-6068.198114
724.232704,-95.712904,-2277.967115,-10375.278794
724.235130,-459.421939,-2105.683888,-12806.386555
724.237556,306.281293,-1244.267752,-5627.918755
724.239982,-191.425808,-478.564520,-11715.259450
724.242408,-497.707101,1569.691626,-10126.425243
724.244834,210.568389,19.142581,-7446.463931
724.247288,-114.855485,593.420005,-10413.563955
724.249742,-248.853550,-2545.963246,-10815.558152
724.252196,1301.695494,-3177.668413,-4862.215523
724.254650,-803.988394,-3177.668413,-13744.373014
724.257104,-2909.672282,1473.978722,-11791.829773
724.259558,3483.949706,-1856.830338,-3675.375514
724.262012,-1033.699363,1435.693560,-14165.509792
724.264466,133.998066,210.568389,-7618.747158
724.266920,1263.410333,-1780.260014,-5570.491013
724.269374,-2411.965181,-114.855485,-15141.781413
724.271828,880.558717,-3905.086483,-7867.600709
724.274282,-76.570323,-1818.545176,-6068.198114
724.276735,-555.134843,-2431.107762,-15467.205286
724.279189,-153.140646,267.996131,-7140.182638
724.281643,957.129040,-861.416136,-7197.610381
724.284097,-803.988394,861.416136,-13284.951075
724.286551,-210.568389,440.279358,-9628.718142
724.289005,1052.841944,-746.560651,-5857.629725
724.291459,-1091.127106,-1320.838075,-13935.798822
724.293913,-1244.267752,-1646.261949,-8518.448456
724.296367,1263.410333,-2143.969050,-7255.038123
724.298821,-421.136778,-1703.689691,-14682.359474
724.301275,-1148.554848,2297.109696,-4919.643266
724.303729,1627.119368,-1110.269686,-10796.415571
724.306183,153.140646,-153.140646,-10509.276859
724.308636,-555.134843,-1933.400661,-8882.157491
724.311090,1071.984525,-2105.683888,-9801.001370
724.313544,-784.845813,-1646.261949,-10470.991698
724.315998,1282.552914,-1416.550979,-10451.849117
724.318452,-1071.984525,210.568389,-8346.165229
724.320906,-229.710970,-459.421939,-10470.991698
724.323360,363.709035,191.425808,-9092.725880
724.325814,-1359.123237,-363.709035,-11255.837510
724.328268,1301.695494,-1339.980656,-8441.878133
724.330722,-1703.689691,-612.562586,-9150.153622
724.333176,1263.410333,-1971.685822,-10336.993632
724.335630,-1320.838075,-995.414202,-8786.444587
724.338084,842.273555,-1473.978722,-10068.997501
724.340537,-363.709035,-1301.695494,-9801.001370
724.342991,1607.976787,-2163.111630,-8575.876198
724.345445,-1129.412267,995.414202,-12040.683323
724.347899,-1225.125171,1205.982590,-7925.028451
724.350353,1780.260014,-650.847747,-9513.862658
724.352807,-1971.685822,-57.427742,-10317.851051
724.355261,-382.851616,-325.423874,-10738.987829
724.357715,1722.832272,-4173.082614,-5379.065205
724.360169,-2163.111630,-1569.691626,-12136.396227
724.362623,1339.980656,-4670.789715,-11600.403965
724.365006,-287.138712,-267.996131,-7178.467800
724.367389,440.279358,-306.281293,-9628.718142
724.369773,-325.423874,1627.119368,-11523.833642
724.372156,-76.570323,3101.098090,-7140.182638
724.374539,-0.000000,2335.394858,-11485.548480
724.376923,-478.564520,3292.523898,-10202.995566
724.379306,-172.283227,3349.951640,-8652.446522
724.381689,497.707101,823.130974,-8116.454259
724.384073,-1014.556782,2411.965181,-13706.087853
724.386456,535.992262,2392.822600,-6259.623922
724.388839,-631.705166,1837.687757,-10777.272990
724.391223,248.853550,1301.695494,-9762.716208
724.393606,-210.568389,2392.822600,-9092.725880
724.395989,-133.998066,1761.117434,-10509.276859
724.398373,-19.142581,-593.420005,-9284.151688
724.400756,-19.142581,-957.129040,-9054.440718
724.403139,-650.847747,-344.566454,-11255.837510
724.405522,76.570323,-306.281293,-9590.432981
724.407906,306.281293,1186.840010,-9915.856854
724.410289,38.285162,5130.211654,-10681.560086
724.412672,-114.855485,7944.171032,-8556.733618
724.415056,267.996131,9820.143950,-10088.140082
724.417439,-229.710970,7446.463931,-10624.132344
724.419822,-114.855485,1952.543242,-8575.876198
724.422206,325.423874,-2450.250342,-8824.729749
724.424589,-631.705166,-2545.963246,-12327.822035
724.426972,229.710970,-5895.914886,-7905.885870
724.429356,-57.427742,-4134.797453,-10049.854920
724.431739,-76.570323,-1531.406464,-9801.001370
724.434122,401.994197,1799.402595,-10202.995566
724.436506,-612.562586,1971.685822,-9437.292334
724.438889,1014.556782,1837.687757,-11179.267187
724.441311,-229.710970,2373.680019,-6527.620053
724.443733,-1244.267752,-1550.549045,-11102.696864
724.446155,421.136778,-4957.928427,-12404.392358
724.448577,-1110.269686,-5321.637462,-4555.934230
724.450998,-574.277424,-3522.234867,-13265.808494
724.453420,1684.547110,-3158.525832,-12327.822035
724.455842,-1014.556782,4287.938099,-3215.953574
724.458264,1282.552914,2852.244539,-14452.648504
724.460686,-1397.408398,5972.485210,-10336.993632
724.463108,1435.693560,-210.568389,-4192.225195
724.465530,-612.562586,-2450.250342,-14471.791085
724.467952,-746.560651,-5340.780043,-9801.001370
724.470374,976.271621,-6661.618118,-4977.071008
724.472796,-1952.543242,-2890.529701,-15314.064640
724.475218,401.994197,-1148.554848,-9092.725880
724.477640,153.140646,1971.685822,-4747.360038
724.480062,-153.140646,3043.670347,-13686.945272
724.482483,1359.123237,1895.115499,-7925.028451
724.484905,-612.562586,-440.279358,-8422.735552
724.487327,-76.570323,-2373.680019,-11676.974288
724.489749,248.853550,-4881.358104,-9513.862658
724.492171,612.562586,-3675.375514,-6853.043926
724.494593,-1646.261949,-2086.541307,-11887.542677
724.497015,-746.560651,-535.992262,-9781.858789
724.499437,823.130974,-306.281293,-8748.159426
724.501859,-421.136778,1397.408398,-9954.142016
724.504281,-746.560651,2086.541307,-10413.563955
724.506703,957.129040,-306.281293,-7580.461997
724.509125,-727.418070,-57.427742,-9475.577496
724.511547,-57.427742,-3656.232933,-12327.822035
724.513968,153.140646,-2603.390989,-6776.473603
724.516390,-191.425808,-3081.955509,-10738.987829
724.518812,-153.140646,-1416.550979,-11045.269122
724.521234,-535.992262,382.851616,-7350.751027
724.523656,937.986459,899.701298,-10566.704602
724.526078,-1205.982590,2143.969050,-9437.292334
724.528500,-172.283227,325.423874,-9609.575562
724.530922,153.140646,-631.705166,-9341.579430
724.533344,382.851616,-3081.955509,-8020.741355
724.535766,172.283227,-3426.521963,-10834.700733
724.538219,172.283227,-4823.930362,-11849.257515
724.540672,-823.130974,-267.996131,-7503.891674
724.543126,114.855485,-957.129040,-11274.980091
724.545579,-95.712904,1033.699363,-11944.970419
724.548032,1397.408398,880.558717,-6297.909083
724.550485,-784.845813,3924.229064,-11983.255581
724.552939,153.140646,-114.855485,-11772.687192
724.555392,-95.712904,-3120.240670,-5704.489078
724.557845,-153.140646,-3292.523898,-11064.411702
724.560298,267.996131,-4938.785846,-12653.245909
724.562752,-363.709035,-1225.125171,-5513.063270
724.565205,344.566454,-1110.269686,-11868.400096
724.567658,-574.277424,2526.820666,-11734.402030
724.570111,363.709035,1454.836141,-5723.631659
724.572565,210.568389,1320.838075,-10643.274925
724.575018,-1071.984525,-344.566454,-12155.538808
724.577471,248.853550,-1837.687757,-5857.629725
724.579925,-746.560651,-2545.963246,-12174.681389
724.582378,-861.416136,-3235.096155,-11217.552349
724.584831,880.558717,-2124.826469,-4287.938099
724.587284,-267.996131,-1091.127106,-13648.660110
724.589738,784.845813,-76.570323,-10202.995566
724.592191,-1493.121302,1741.974853,-6163.911018
724.594644,1761.117434,574.277424,-12595.818166
724.597097,-2660.818731,535.992262,-10164.710405
724.599551,1665.404530,-2220.539373,-7829.315547
724.602004,459.421939,-3139.383251,-10088.140082
724.604457,-2009.970984,-803.988394,-9456.434915
724.606910,1493.121302,-2852.244539,-9820.143950
724.609364,-1186.840010,-1033.699363,-9858.429112
724.611817,133.998066,19.142581,-9360.722011
724.614270,574.277424,-497.707101,-10260.423309
724.616724,-842.273555,1627.119368,-8327.022648
724.619177,593.420005,-1301.695494,-11408.978157
724.621630,-459.421939,306.281293,-8939.585234
724.624083,-57.427742,-2660.818731,-9035.298138
724.626537,421.136778,-3541.377448,-11734.402030
724.628990,-1607.976787,-957.129040,-8059.026517
724.631443,1741.974853,-1378.265818,-9418.149754
724.633896,-1167.697429,1550.549045,-10202.995566
724.636298,-1914.258080,1799.402595,-10738.987829
724.638700,19.142581,880.558717,-12136.396227
724.641101,459.421939,-746.560651,-3560.520029
724.643503,-1186.840010,-1703.689691,-6029.912952
724.645904,3522.234867,-7982.456194,-20616.559522
724.648306,-3273.381317,-880.558717,-10547.562021
724.650707,650.847747,-1799.402595,535.992262
724.653109,4192.225195,-3349.951640,-18396.020149
724.655511,-4460.221326,4651.647134,-6987.041992
724.657912,-823.130974,4919.643266,-6585.047795
724.660314,1225.125171,363.709035,-14261.222696
724.662715,-3598.805190,459.421939,-9111.868461
724.665117,2622.533570,-4345.365842,-7369.893608
724.667519,478.564520,-5666.203917,-10738.987829
724.669920,-2813.959378,-1971.685822,-11485.548480
724.672322,2679.961312,-4268.795518,-9571.290400
724.674723,-727.418070,2105.683888,-7274.180704
724.677125,-1148.554848,2431.107762,-12825.529136
724.679527,1569.691626,1301.695494,-8307.880067
724.681928,-1205.982590,1531.406464,-7350.751027
724.684330,38.285162,-459.421939,-11255.837510
724.686731,267.996131,-2947.957443,-10260.423309
724.689133,-363.709035,-4364.508422,-7312.465866
724.691534,38.285162,-3637.090352,-10604.989763
724.693936,535.992262,-3388.236802,-11772.687192
724.696338,2258.824534,-2316.252277,-957.129040
724.698739,-4307.080680,2258.824534,-16922.041427
724.701141,2067.398726,1531.406464,-12787.243974
724.703542,1110.269686,401.994197,-4689.932296
724.705944,-3560.520029,4383.651003,-8307.880067
724.708346,1952.543242,-2182.254211,-13954.941403
724.710747,-1837.687757,-267.996131,-6087.340694
724.713149,861.416136,-4039.084549,-8575.876198
724.715550,-401.994197,-5455.635528,-13935.798822
724.717952,-593.420005,-1703.689691,-6661.618118
724.720354,1627.119368,-2431.107762,-8824.729749
724.722755,-1531.406464,2220.539373,-11791.829773
724.725157,957.129040,995.414202,-9762.716208
724.727558,-153.140646,3541.377448,-6776.473603
724.729960,-95.712904,-248.853550,-12710.673651
724.732401,191.425808,-2890.529701,-7369.893608
724.734843,-1263.410333,-2775.674216,-9896.714274
724.737284,1186.840010,-5034.498750,-11428.120738
724.739726,-1339.980656,-1148.554848,-7235.895542
724.742168,765.703232,-1627.119368,-10700.702667
724.744609,-38.285162,1282.552914,-10432.706536
724.747051,765.703232,1397.408398,-8671.589102
724.749492,-306.281293,2488.535504,-8441.878133
724.751934,-1761.117434,-1071.984525,-12710.673651
724.754375,2373.680019,-3503.092286,-10451.849117
724.756817,-861.416136,-2086.541307,-5742.774240
724.759258,-746.560651,-1818.545176,-12500.105262
724.761700,1607.976787,-3388.236802,-10585.847182
724.764141,-2201.396792,1588.834206,-5953.342629
724.766583,784.845813,-478.564520,-12768.101394
724.769024,-784.845813,918.843878,-7867.600709
724.771466,803.988394,784.845813,-7503.891674
724.773907,-76.570323,-1646.261949,-13227.523333
724.776349,19.142581,-1378.265818,-7561.319416
724.778790,306.281293,-3598.805190,-10356.136213
724.781232,-1052.841944,-1167.697429,-10911.271056
724.783674,861.416136,-2679.961312,-8786.444587
724.786115,-842.273555,-57.427742,-9073.583299
724.788557,-95.712904,19.142581,-11006.983960
724.790998,306.281293,1148.554848,-8595.018779
724.793440,-784.845813,1167.697429,-8173.882002
724.795881,363.709035,-2029.113565,-11830.114934
724.798323,-76.570323,-1531.406464,-8729.016845
724.800764,669.990328,-3426.521963,-8652.446522
724.803206,-2411.965181,-1473.978722,-9762.716208
724.805647,2239.681954,-4881.358104,-12212.966550
724.808089,267.996131,-421.136778,-5245.067139
724.810530,-1091.127106,976.271621,-10585.847182
724.812972,421.136778,1933.400661,-13418.949141
724.815413,306.281293,976.271621,-6259.623922
724.817855,-1550.549045,2373.680019,-7618.747158
724.820296,1244.267752,-1703.689691,-13170.095590
724.822738,-1397.408398,-2182.254211,-7580.461997
724.825179,1493.121302,-4364.508422,-8843.872330
724.827621,-1263.410333,-3617.947771,-13189.238171
724.830092,650.847747,-1435.693560,-6183.053598
724.832562,248.853550,-1301.695494,-11657.831707
724.835033,-1205.982590,3139.383251,-10260.423309
724.837504,1148.554848,803.988394,-8193.024582
724.839975,-363.709035,344.566454,-10892.128475
724.842445,-0.000000,-1607.976787,-9858.429112
724.844916,-516.849682,-2258.824534,-7982.456194
724.847387,306.281293,-3292.523898,-10853.843314
724.849858,-133.998066,-3771.088418,-10490.134278
724.852328,153.140646,-401.994197,-8135.596840
724.854799,689.132909,-76.570323,-11198.409768
724.857270,-803.988394,2316.252277,-8288.737486
724.859740,555.134843,-1052.841944,-10528.419440
724.862211,-842.273555,1033.699363,-10892.128475
724.864682,287.138712,-1952.543242,-8977.870395
724.867153,-784.845813,-1014.556782,-7771.887805
724.869623,325.423874,-2909.672282,-12940.384621
724.872094,-803.988394,-842.273555,-7925.028451
724.874565,-0.000000,-1091.127106,-8575.876198
724.877035,287.138712,-497.707101,-11772.687192
724.879506,-612.562586,1914.258080,-6125.625856
724.881977,1339.980656,-2450.250342,-12538.390424
724.884448,-976.271621,-95.712904,-9494.720077
724.886918,344.566454,-1971.685822,-8059.026517
724.889389,-172.283227,-1091.127106,-11179.267187
724.891860,-535.992262,-1856.830338,-10164.710405
724.894330,497.707101,-1225.125171,-7637.889739
724.896801,-746.560651,-478.564520,-11370.692995
724.899272,133.998066,172.283227,-10394.421374
724.901743,-172.283227,306.281293,-6680.760699
724.904213,-38.285162,-1856.830338,-12136.396227
724.906684,401.994197,-823.130974,-8901.300072
724.909155,516.849682,-1205.982590,-7542.176835
724.911626,-1550.549045,-421.136778,-10815.558152
724.914096,1129.412267,-3924.229064,-11428.120738
724.916567,-995.414202,-535.992262,-4709.074877
724.919038,-248.853550,-1837.687757,-13859.228499
724.921508,-1531.406464,-172.283227,-9150.153622
724.923979,2469.392923,-1607.976787,-8269.594906
724.926450,-1531.406464,2986.242605,-9667.003304
724.928945,535.992262,1167.697429,-9647.860723
724.931439,-19.142581,-937.986459,-8154.739421
724.933934,306.281293,-1990.828403,-11140.982026
724.936429,516.849682,-4977.071008,-10834.700733
724.938923,-957.129040,-1990.828403,-6565.905214
724.941418,765.703232,-3081.955509,-13323.236237
724.943913,-746.560651,1263.410333,-8709.874264
724.946407,746.560651,-57.427742,-8422.735552
724.948902,-708.275490,2411.965181,-11179.267187
724.951397,19.142581,401.994197,-9284.151688
724.953891,344.566454,-1378.265818,-8671.589102
724.956386,-631.705166,-1990.828403,-10585.847182
724.958881,459.421939,-4192.225195,-10298.708470
724.961375,57.427742,-1263.410333,-8193.024582
724.963870,-133.998066,-1320.838075,-11140.982026
724.966365,-803.988394,593.420005,-9054.440718
724.968859,669.990328,-765.703232,-10719.845248
724.971354,-899.701298,2297.109696,-8518.448456
724.973849,-1129.412267,-95.712904,-10643.274925
724.976343,1588.834206,-2469.392923,-10777.272990
724.978838,-708.275490,-784.845813,-7905.885870
724.981333,-535.992262,-287.138712,-10528.419440
724.983827,191.425808,-1110.269686,-8327.022648
724.986322,-535.992262,-2565.105827,-9437.292334
724.988817,-287.138712,-1052.841944,-10490.134278
724.991311,-574.277424,-957.129040,-8480.163294
724.993806,918.843878,-535.992262,-9934.999435
724.996301,-1148.554848,287.138712,-9839.286531
724.998795,727.418070,727.418070,-9839.286531
725.001290,-727.418070,-401.994197,-8193.024582
725.003785,-95.712904,-1665.404530,-11121.839445
725.006279,-95.712904,-2507.678085,-9724.431046
725.008774,-382.851616,-2086.541307,-8384.450390
725.011269,-0.000000,-1627.119368,-10662.417506
725.013763,267.996131,-1205.982590,-9801.001370
725.016258,478.564520,842.273555,-8001.598774
725.018753,-478.564520,287.138712,-10068.997501
725.021247,-267.996131,153.140646,-10049.854920
725.023742,650.847747,-2450.250342,-8116.454259
725.026237,-440.279358,-1339.980656,-9743.573627
725.028749,-76.570323,-2143.969050,-10681.560086
725.031261,-689.132909,-1550.549045,-9073.583299
725.033773,172.283227,-1301.695494,-11255.837510
725.036286,650.847747,-95.712904,-9150.153622
725.038798,-689.132909,2373.680019,-5761.916821
725.041310,497.707101,-1359.123237,-12500.105262
725.043822,574.277424,-1320.838075,-10949.556218
725.046334,-1052.841944,-1607.976787,-5551.348432
725.048846,1186.840010,-2679.961312,-12806.386555
725.051359,-1837.687757,-1167.697429,-10509.276859
725.053871,1837.687757,-1186.840010,-6374.479406
725.056383,-1378.265818,-478.564520,-12308.679454
725.058895,-287.138712,440.279358,-9877.571693
725.061407,287.138712,-38.285162,-7369.893608
725.063919,-995.414202,-19.142581,-11504.691061
725.066432,727.418070,-631.705166,-9169.296203
725.068944,38.285162,-2277.967115,-8633.303941
725.071456,-325.423874,-1244.267752,-10949.556218
725.073968,803.988394,-2890.529701,-10279.565890
725.076480,-153.140646,-19.142581,-7216.752962
725.078992,-689.132909,-1205.982590,-11408.978157
725.081505,-555.134843,669.990328,-11160.124606
725.084017,-574.277424,-401.994197,-6853.043926
725.086529,57.427742,-1761.117434,-11121.839445
725.089041,-995.414202,-727.418070,-12174.681389
725.091553,669.990328,57.427742,-2986.242605
725.094065,-803.988394,325.423874,-11064.411702
725.096578,861.416136,-3158.525832,-14586.646570
725.099090,-1033.699363,555.134843,-3771.088418
725.101602,803.988394,-2718.246474,-12098.111066
725.104114,-574.277424,-478.564520,-13189.238171
725.106626,-861.416136,114.855485,-4211.367776
725.109138,2526.820666,-1339.980656,-10930.413637
725.111651,38.285162,-2986.242605,-7121.040058
725.114163,-4000.799387,1071.984525,-12366.107197
725.116675,4747.360038,-4058.227130,-13667.802691
725.119187,-3962.514226,2641.676150,-6144.768437
725.121699,976.271621,76.570323,-7791.030386
725.124211,363.709035,-1493.121302,-13418.949141
725.126724,-1550.549045,1091.127106,-7216.752962
725.129248,2813.959378,-3962.514226,-8843.872330
725.131772,-1646.261949,-191.425808,-12040.683323
725.134297,-746.560651,-2679.961312,-7293.323285
725.136821,-976.271621,-1990.828403,-12117.253646
725.139345,-421.136778,-1665.404530,-8977.870395
725.141869,1244.267752,-803.988394,-9877.571693
725.144394,-1627.119368,2890.529701,-9035.298138
725.146918,1627.119368,708.275490,-9552.147819
725.149442,-1741.974853,1512.263883,-8556.733618
725.151967,1741.974853,-4211.367776,-11657.831707
725.154491,-1071.984525,-1933.400661,-9016.155557
725.157015,497.707101,-3675.375514,-8461.020714
725.159540,-172.283227,-1761.117434,-11408.978157
725.162064,-210.568389,-1148.554848,-8614.161360
725.164588,-172.283227,1837.687757,-9245.866526
725.167113,-172.283227,574.277424,-10681.560086
725.169637,-459.421939,1129.412267,-8690.731683
725.172161,937.986459,-2488.535504,-8997.012976
725.174686,-918.843878,-1722.832272,-12576.675586
725.177210,650.847747,-2507.678085,-7829.315547
725.179734,-497.707101,-1493.121302,-8480.163294
725.182259,-172.283227,535.992262,-12480.962682
725.184783,746.560651,-153.140646,-8843.872330
725.187307,-191.425808,1454.836141,-7121.040058
725.189831,-3043.670347,-708.275490,-12557.533005
725.192356,1071.984525,-3464.807125,-9475.577496
725.194880,363.709035,-3062.812928,-8135.596840
725.197404,-1607.976787,516.849682,-11045.269122
725.199929,593.420005,-229.710970,-10183.852986
725.202453,-76.570323,1684.547110,-5532.205851
725.204977,-803.988394,114.855485,-12193.823970
725.207502,1110.269686,-3369.094221,-11408.978157
725.210026,-555.134843,-708.275490,-6853.043926
725.212550,344.566454,-3483.949706,-13380.663979
725.215075,-899.701298,-937.986459,-8154.739421
725.217599,555.134843,-1646.261949,-7848.458128
725.220123,-689.132909,1014.556782,-12117.253646
725.222648,-19.142581,497.707101,-8480.163294
725.225172,38.285162,-57.427742,-8518.448456
725.227696,-880.558717,-555.134843,-12327.822035
725.230231,421.136778,-2143.969050,-7542.176835
725.232765,-516.849682,-1473.978722,-9169.296203
725.235300,421.136778,-3598.805190,-12480.962682
725.237834,-95.712904,-306.281293,-6604.190376
725.240369,1301.695494,-133.998066,-10643.274925
725.242903,-880.558717,1933.400661,-10145.567824
725.245437,-880.558717,-2603.390989,-7216.752962
725.247972,765.703232,-2220.539373,-11906.685258
725.250506,-842.273555,-1225.125171,-8748.159426
725.253041,-593.420005,-95.712904,-8843.872330
725.255575,-76.570323,746.560651,-12327.822035
725.258110,478.564520,76.570323,-6029.912952
725.260644,-421.136778,344.566454,-9801.001370
725.263179,1014.556782,-3426.521963,-13323.236237
725.265713,-1282.552914,-267.996131,-7580.461997
725.268248,1052.841944,-3273.381317,-8614.161360
725.270782,-631.705166,-1167.697429,-12327.822035
725.273317,-344.566454,-555.134843,-8556.733618
725.275851,421.136778,803.988394,-7446.463931
725.278386,-689.132909,-57.427742,-12634.103328
725.280920,-19.142581,57.427742,-8575.876198
725.283454,-95.712904,-1186.840010,-9245.866526
725.285989,172.283227,-1722.832272,-11638.689126
725.288523,-1052.841944,-1282.552914,-7044.469734
725.291058,2163.111630,-4173.082614,-13820.943338
725.293592,-574.277424,1703.689691,-6144.768437
725.296127,-440.279358,880.558717,-9992.427178
725.298661,555.134843,765.703232,-11255.837510
725.301196,-1339.980656,287.138712,-8327.022648
725.303730,746.560651,-1435.693560,-8633.303941
725.306265,-861.416136,-2431.107762,-12500.105262
725.308799,-650.847747,-1914.258080,-8327.022648
725.311334,306.281293,-2354.537438,-9360.722011
725.313868,-823.130974,-535.992262,-9150.153622
725.316402,57.427742,-746.560651,-7580.461997
725.318937,1837.687757,-2775.674216,-13897.513661
725.321471,-1703.689691,1837.687757,-8384.450390
725.324006,1684.547110,-1588.834206,-8307.880067
725.326540,-1646.261949,478.564520,-12155.538808
725.329075,133.998066,-1818.545176,-8805.587168
725.331616,306.281293,-1301.695494,-7714.460062
725.334157,-957.129040,-1493.121302,-11428.120738
725.336698,57.427742,-2029.113565,-9973.284597
725.339239,-38.285162,-459.421939,-7523.034254
725.341780,-689.132909,-555.134843,-11542.976222
725.344321,-727.418070,-153.140646,-9781.858789
725.346862,1952.543242,-2048.256146,-9896.714274
725.349403,-995.414202,1933.400661,-7618.747158
725.351944,459.421939,-1761.117434,-12098.111066
725.354485,57.427742,-823.130974,-8212.167163
725.357026,-880.558717,-1818.545176,-9724.431046
725.359567,267.996131,-1378.265818,-10719.845248
725.362108,-880.558717,-363.709035,-7676.174901
725.364649,421.136778,-1550.549045,-10375.278794
725.367190,19.142581,-440.279358,-10356.136213
725.369731,-191.425808,0.000000,-8518.448456
725.372272,440.279358,-95.712904,-9705.288466
725.374813,133.998066,-2565.105827,-11160.124606
725.377354,-689.132909,-401.994197,-8212.167163
725.379895,650.847747,-2354.537438,-10413.563955
725.382436,-765.703232,-325.423874,-9743.573627
725.384977,57.427742,-1129.412267,-9188.438784
725.387517,-516.849682,1263.410333,-9590.432981
725.390058,-0.000000,-689.132909,-9781.858789
725.392599,267.996131,-727.418070,-9016.155557
725.395140,-287.138712,-669.990328,-10145.567824
725.397681,-2335.394858,-1512.263883,-7905.885870
725.400222,2411.965181,-3981.656806,-13227.523333
725.402763,-2163.111630,-76.570323,-6336.194245
725.405304,1148.554848,-861.416136,-10222.138147
725.407845,-172.283227,-2239.681954,-10949.556218
725.410386,306.281293,-4211.367776,-7867.600709
