#time,accel_x,accel_y,accel_z
350.557365,689.485948,370.102971,9548.656652
350.557673,153.219100,666.185348,9696.697840
350.557981,919.314598,222.061783,9622.677246
350.558289,766.095498,-0.000000,9326.594869
350.558598,383.047749,74.020594,9474.636058
350.558906,536.266849,-0.000000,9474.636058
350.559214,536.266849,222.061783,9696.697840
350.559522,689.485948,-0.000000,9622.677246
350.559830,919.314598,148.041188,9326.594869
350.560138,1302.362347,296.082377,9474.636058
350.560447,612.876398,222.061783,9770.718434
350.560755,689.485948,-0.000000,9770.718434
350.561063,536.266849,-0.000000,9474.636058
350.561371,459.657299,74.020594,9844.739029
350.561679,612.876398,296.082377,9548.656652
350.561987,536.266849,222.061783,9474.636058
350.562296,459.657299,222.061783,9622.677246
350.562604,383.047749,296.082377,9696.697840
350.562912,153.219100,148.041188,9548.656652
350.563220,995.924147,-0.000000,9474.636058
350.563528,689.485948,-0.000000,9474.636058
350.563836,612.876398,-0.000000,9548.656652
350.564145,766.095498,296.082377,9622.677246
350.564453,536.266849,370.102971,9548.656652
350.564761,459.657299,148.041188,9474.636058
350.565069,536.266849,-0.000000,9844.739029
350.565377,536.266849,-0.000000,9770.718434
350.565685,612.876398,-0.000000,9548.656652
350.565994,612.876398,370.102971,9844.739029
350.566302,766.095498,296.082377,9474.636058
350.566610,612.876398,222.061783,9474.636058
350.566918,689.485948,-0.000000,9548.656652
350.567226,766.095498,222.061783,9474.636058
350.567535,612.876398,-0.000000,9548.656652
350.567843,536.266849,148.041188,9696.697840
350.568151,766.095498,-148.041188,10140.821405
350.568459,995.924147,-444.123565,10362.883188
350.568767,536.266849,-666.185348,9992.780217
350.569075,459.657299,-518.144159,10066.800811
350.569384,766.095498,-518.144159,10066.800811
350.569692,919.314598,-370.102971,9918.759623
350.570000,1225.752797,-296.082377,10066.800811
350.570308,1685.410096,222.061783,9104.533087
350.570616,2068.457845,370.102971,8364.327145
350.570924,1915.238745,370.102971,8808.450710
350.571233,2221.676944,888.247130,9104.533087
350.571541,2145.067394,592.164754,9104.533087
350.571849,1608.800546,222.061783,9400.615463
350.572157,1532.190996,222.061783,9548.656652
350.572465,1685.410096,-74.020594,9918.759623
350.572773,1685.410096,-222.061783,10140.821405
350.573082,2145.067394,-74.020594,10066.800811
350.573390,1915.238745,-370.102971,9622.677246
350.573698,2145.067394,-74.020594,10288.862594
350.574006,2068.457845,-0.000000,10066.800811
350.574314,2298.286494,-0.000000,9474.636058
350.574622,2451.505594,370.102971,9326.594869
350.574931,2987.772442,370.102971,9400.615463
350.575239,3064.381992,296.082377,9474.636058
350.575547,2681.334243,148.041188,9474.636058
350.575855,2068.457845,296.082377,9548.656652
350.576163,2451.505594,222.061783,9474.636058
350.576472,2298.286494,-0.000000,9696.697840
350.576780,2757.943793,-0.000000,9770.718434
350.577088,2451.505594,-0.000000,9844.739029
350.577396,3370.820191,-0.000000,9844.739029
350.577704,2681.334243,-74.020594,9992.780217
350.578012,3064.381992,-296.082377,10288.862594
350.578321,3064.381992,-222.061783,10140.821405
350.578629,3140.991542,148.041188,9770.718434
350.578937,3447.429741,74.020594,9622.677246
350.579245,3370.820191,370.102971,9770.718434
350.579553,3983.696590,370.102971,9474.636058
350.579861,4213.525239,518.144159,9252.574275
350.580170,4979.620737,296.082377,8882.471304
350.580478,4903.011187,592.164754,9252.574275
350.580786,4366.744339,296.082377,9030.512492
350.581094,4366.744339,370.102971,9030.512492
350.581402,4213.525239,-0.000000,9326.594869
350.581710,3983.696590,-74.020594,9696.697840
350.582019,3907.087040,-0.000000,9770.718434
350.582327,4290.134789,-0.000000,9844.739029
350.582635,4596.572988,-0.000000,9400.615463
350.582943,4290.134789,296.082377,9474.636058
350.583251,4519.963438,962.267725,9104.533087
350.583560,4826.401637,1332.370696,9030.512492
350.583868,4826.401637,1406.391290,8882.471304
350.584176,4596.572988,1480.411884,8808.450710
350.584484,4519.963438,1184.329507,9030.512492
350.584792,4443.353888,1332.370696,9326.594869
350.585100,3677.258390,370.102971,8882.471304
350.585409,3753.867940,814.226536,9770.718434
350.585717,2834.553343,-518.144159,10288.862594
350.586025,3370.820191,592.164754,9770.718434
350.586333,2451.505594,370.102971,9474.636058
350.586641,2604.724693,740.205942,10066.800811
350.586949,2528.115143,1036.288319,9770.718434
350.587258,2451.505594,592.164754,9992.780217
350.587566,2451.505594,518.144159,9474.636058
350.587874,2068.457845,962.267725,9622.677246
350.588182,1991.848295,-74.020594,10066.800811
350.588490,1762.019645,-0.000000,10066.800811
350.588798,1455.581446,-74.020594,10362.883188
350.589107,919.314598,-740.205942,10214.842000
350.589415,1455.581446,-1184.329507,10658.965565
350.589723,1225.752797,-1332.370696,10584.944971
350.590031,2068.457845,-1998.556043,10732.986159
350.590339,2221.676944,-1924.535449,10881.027347
350.590647,2834.553343,-1850.514855,10510.924376
350.590956,3370.820191,-1776.494261,9770.718434
350.591264,3907.087040,-962.267725,9326.594869
350.591572,4673.182538,-444.123565,9326.594869
350.591880,5132.839837,-0.000000,9030.512492
350.592188,4979.620737,518.144159,7994.224174
350.592497,4903.011187,592.164754,7920.203579
350.592805,5132.839837,1184.329507,8216.285956
350.593113,5056.230287,666.185348,8216.285956
350.593421,4519.963438,740.205942,7994.224174
350.593729,4060.306139,370.102971,8660.409521
350.594037,3600.648841,-296.082377,9474.636058
350.594346,2757.943793,-666.185348,9770.718434
350.594654,2681.334243,-0.000000,10362.883188
350.594962,3524.039291,296.082377,9770.718434
350.595270,3600.648841,962.267725,8734.430116
350.595578,3753.867940,2368.659014,8660.409521
350.595886,4519.963438,3108.864956,8512.368333
350.596195,4749.792088,3404.947333,8290.306550
350.596503,4290.134789,2886.803174,8438.347739
350.596811,3983.696590,1924.535449,9474.636058
350.597119,3140.991542,296.082377,10510.924376
350.597427,1225.752797,-962.267725,11547.212695
350.597735,689.485948,-2442.679609,12583.501014
350.598044,153.219100,-3404.947333,13397.727550
350.598352,459.657299,-3923.091493,13545.768739
350.598660,1532.190996,-3404.947333,12953.603985
350.598968,2987.772442,-2368.659014,11547.212695
350.599276,4290.134789,-1184.329507,9474.636058
350.599584,6741.640382,296.082377,9030.512492
350.599893,7354.516781,2220.617826,6809.894666
350.600201,8580.269578,3182.885551,6143.709319
350.600509,8044.002729,4219.173869,5773.606348
350.600817,7201.297681,5033.400406,4959.379811
350.601125,6128.763984,4811.338623,5847.626942
350.601434,5132.839837,3849.070898,6809.894666
350.601742,3677.258390,2072.576638,8142.265362
350.602050,1991.848295,1480.411884,9178.553681
350.602358,1455.581446,-740.205942,10881.027347
350.602666,76.609550,-2294.638420,12065.356855
350.602974,229.828649,-3775.050304,13027.624579
350.603283,-153.219100,-4145.153275,13767.830521
350.603591,689.485948,-3997.112087,13915.871710
350.603899,1225.752797,-3849.070898,13323.706956
350.604207,2528.115143,-2812.782580,12213.398043
350.604515,4213.525239,-2294.638420,11029.068536
350.604823,5056.230287,-888.247130,8808.450710
350.605132,5592.497135,1258.350101,7920.203579
350.605440,6358.592633,1998.556043,6809.894666
350.605748,6358.592633,2960.823768,6143.709319
350.606056,5898.935335,3627.009116,6069.688724
350.606364,5669.106685,3627.009116,6069.688724
350.606672,4979.620737,2146.597232,6957.935855
350.606981,3677.258390,666.185348,8364.327145
350.607289,2298.286494,-1480.411884,10066.800811
350.607597,1532.190996,-3182.885551,12065.356855
350.607905,76.609550,-4515.256246,13693.809927
350.608213,153.219100,-4367.215058,13693.809927
350.608522,1149.143247,-2960.823768,12731.542202
350.608830,3140.991542,-1480.411884,11547.212695
350.609138,5056.230287,1110.308913,8882.471304
350.609446,6971.469032,3330.926739,6735.874072
350.609754,8350.440928,5107.421000,5033.400406
350.610062,8350.440928,6735.874072,4367.215058
350.610371,7431.126331,6217.729913,4959.379811
350.610679,6205.373534,5107.421000,6143.709319
350.610987,3753.867940,2072.576638,8586.388927
350.611295,766.095498,-1406.391290,11547.212695
350.611603,-1838.629195,-3849.070898,13545.768739
350.611911,-2987.772442,-5403.503377,15914.427753
350.612220,-4060.306139,-7105.977043,16950.716072
350.612528,-2451.505594,-6365.771101,16876.695478
350.612836,-306.438199,-4515.256246,14508.036463
350.613144,2911.162892,-1406.391290,10510.924376
350.613452,5669.106685,1110.308913,7328.038826
350.613760,8350.440928,4145.153275,5551.544565
350.614069,9499.584175,5773.606348,4293.194464
350.614377,9806.022374,6513.812290,3256.906145
350.614685,9193.145976,5699.585753,3108.864956
350.614993,6818.249932,2812.782580,5551.544565
350.615301,3830.477490,-0.000000,8438.347739
350.615609,1225.752797,-3108.864956,11769.274478
350.615918,-689.485948,-5181.441594,13175.665768
350.616226,-2987.772442,-4367.215058,12435.459826
350.616534,1149.143247,-5033.400406,14804.118840
350.616842,1532.190996,-888.247130,10584.944971
350.617150,4826.401637,1406.391290,9326.594869
350.617459,7967.393179,2146.597232,8438.347739
350.617767,7737.564530,5033.400406,5625.565159
350.618075,8273.831378,4293.194464,7402.059420
350.618383,6741.640382,4071.132681,7031.956449
350.618691,4826.401637,2072.576638,9474.636058
350.618999,1608.800546,-888.247130,10732.986159
350.619308,-383.047749,-1776.494261,12361.439231
350.619616,-766.095498,-2812.782580,13841.851115
350.619924,-2451.505594,-4293.194464,13545.768739
350.620232,-995.924147,-2738.761985,13693.809927
350.620540,1532.190996,-2368.659014,12213.398043
350.620848,3753.867940,-1258.350101,9696.697840
350.621157,4826.401637,296.082377,8216.285956
350.621465,7048.078582,518.144159,7772.162391
350.621773,6358.592633,2590.720797,6365.771101
350.622081,6818.249932,3478.967927,6143.709319
350.622389,6894.859482,4737.318029,6735.874072
350.622697,4826.401637,5921.647536,5921.647536
350.623006,4826.401637,6217.729913,5773.606348
350.623314,5209.449386,5403.503377,6513.812290
350.623622,3600.648841,2812.782580,8512.368333
350.623930,1838.629195,370.102971,10066.800811
350.624238,919.314598,-2368.659014,13323.706956
350.624546,-1762.019645,-5477.523971,15544.324782
350.624854,-3677.258390,-7179.997637,15026.180623
350.625162,-3447.429741,-6291.750507,15470.304188
350.625470,-2451.505594,-4441.235652,12361.439231
350.625779,-536.266849,-1702.473667,10807.006753
350.626087,1608.800546,814.226536,9400.615463
350.626395,3753.867940,1998.556043,7994.224174
350.626703,4826.401637,2738.761985,6143.709319
350.627011,5209.449386,3256.906145,4959.379811
350.627319,5132.839837,2516.700203,5995.668130
350.627627,3983.696590,1850.514855,7846.182985
350.627935,2911.162892,1184.329507,8956.491898
350.628243,1532.190996,-0.000000,9770.718434
350.628551,995.924147,-444.123565,9548.656652
350.628859,1149.143247,-444.123565,9548.656652
350.629167,2451.505594,-444.123565,10140.821405
350.629475,2757.943793,-2146.597232,10955.047942
350.629783,1991.848295,-2590.720797,10214.842000
350.630091,1915.238745,-2812.782580,9992.780217
350.630399,536.266849,-2072.576638,9918.759623
350.630707,766.095498,-666.185348,10066.800811
350.631015,1378.971896,1554.432478,8882.471304
350.631323,2298.286494,2590.720797,8290.306550
350.631631,2604.724693,1850.514855,7550.100608
350.631939,1608.800546,1998.556043,7994.224174
350.632247,842.705048,-74.020594,10362.883188
350.632555,-689.485948,-1480.411884,11843.295072
350.632863,-2068.457845,-1480.411884,12435.459826
350.633171,-1991.848295,-740.205942,12435.459826
350.633479,-766.095498,-148.041188,11843.295072
350.633787,919.314598,1702.473667,10214.842000
350.634095,3370.820191,2294.638420,9252.574275
350.634403,4366.744339,2146.597232,8660.409521
350.634712,3524.039291,370.102971,7994.224174
350.635020,2987.772442,-74.020594,9104.533087
350.635328,1762.019645,-814.226536,9474.636058
350.635636,842.705048,222.061783,9252.574275
350.635944,842.705048,1184.329507,8808.450710
350.636252,2068.457845,2590.720797,8068.244768
350.636560,2221.676944,2590.720797,7772.162391
350.636868,1838.629195,1258.350101,8364.327145
350.637176,1225.752797,-296.082377,8956.491898
350.637484,-689.485948,-2294.638420,10955.047942
350.637792,-2451.505594,-3552.988522,12953.603985
350.638100,-2374.896044,-2590.720797,12805.562797
350.638408,-1378.971896,-370.102971,11251.130318
350.638716,459.657299,1332.370696,10584.944971
350.639024,2987.772442,2516.700203,9178.553681
350.639332,4443.353888,2738.761985,8512.368333
350.639640,4366.744339,888.247130,8734.430116
350.639948,2528.115143,-888.247130,8734.430116
350.640256,1532.190996,-2072.576638,9844.739029
350.640564,0.000000,-2960.823768,10584.944971
350.640872,-766.095498,-2368.659014,10362.883188
350.641180,689.485948,-370.102971,9104.533087
350.641488,2834.553343,814.226536,7402.059420
350.641796,2221.676944,1184.329507,7624.121203
350.642104,3140.991542,666.185348,8364.327145
350.642412,2068.457845,-0.000000,9104.533087
350.642720,383.047749,370.102971,9400.615463
350.643028,306.438199,444.123565,10510.924376
350.643336,76.609550,2590.720797,9622.677246
350.643645,1149.143247,4737.318029,9326.594869
350.643953,2987.772442,5255.462188,8290.306550
350.644261,3907.087040,3997.112087,8438.347739
350.644569,1991.848295,1480.411884,9104.533087
350.644877,0.000000,-1184.329507,10807.006753
350.645185,-2528.115143,-3701.029710,12805.562797
350.645493,-3830.477490,-4589.276840,13101.645173
350.645801,-3524.039291,-4071.132681,12805.562797
350.646109,-2451.505594,-2368.659014,11177.109724
350.646417,0.000000,-518.144159,9622.677246
350.646725,1455.581446,444.123565,8586.388927
350.647033,1991.848295,962.267725,7698.141797
350.647341,995.924147,888.247130,8290.306550
350.647649,0.000000,1110.308913,9104.533087
350.647957,0.000000,1702.473667,9548.656652
350.648265,0.000000,2368.659014,9400.615463
350.648573,1378.971896,4367.215058,7624.121203
350.648881,3677.258390,3923.091493,8364.327145
350.649189,2145.067394,2146.597232,8216.285956
350.649497,1762.019645,444.123565,9400.615463
350.649805,-306.438199,-2664.741391,10510.924376
350.650113,-2757.943793,-4293.194464,11547.212695
350.650421,-3447.429741,-5329.482782,12065.356855
350.650729,-2757.943793,-3627.009116,11103.089130
350.651037,-1225.752797,-2146.597232,10066.800811
350.651345,612.876398,-370.102971,8364.327145
350.651653,1685.410096,1702.473667,7179.997637
350.651961,2145.067394,1406.391290,8290.306550
350.652269,995.924147,444.123565,9548.656652
350.652578,-153.219100,296.082377,9844.739029
350.652886,-1149.143247,1332.370696,10658.965565
350.653194,0.000000,1628.453072,11103.089130
350.653502,459.657299,2886.803174,9844.739029
350.653810,2145.067394,2516.700203,10066.800811
350.654118,2298.286494,2442.679609,8808.450710
350.654426,2451.505594,-222.061783,10288.862594
350.654734,383.047749,-1850.514855,9252.574275
350.655042,-2068.457845,-2590.720797,11399.171507
350.655350,-1302.362347,-3923.091493,12065.356855
350.655658,-2221.676944,-1110.308913,8660.409521
350.655966,0.000000,-666.185348,11251.130318
350.656274,1302.362347,1702.473667,6809.894666
350.656582,1991.848295,2220.617826,8142.265362
350.656890,2528.115143,1258.350101,8808.450710
350.657198,1225.752797,1554.432478,8364.327145
350.657506,995.924147,-0.000000,11843.295072
350.657814,-536.266849,814.226536,9400.615463
350.658122,459.657299,2072.576638,10288.862594
350.658430,1991.848295,2738.761985,9474.636058
350.658738,3140.991542,2294.638420,9326.594869
350.659046,2911.162892,1998.556043,9178.553681
350.659354,2068.457845,-592.164754,8882.471304
350.659662,76.609550,-2590.720797,11251.130318
350.659970,-1838.629195,-3404.947333,11029.068536
350.660278,-1991.848295,-3849.070898,12139.377449
350.660586,-1532.190996,-1850.514855,10288.862594
350.660894,306.438199,-0.000000,8586.388927
350.661202,2757.943793,962.267725,7772.162391
350.661511,3140.991542,1554.432478,7031.956449
350.661819,3294.210641,1258.350101,7920.203579
350.662127,1532.190996,296.082377,8734.430116
350.662435,995.924147,222.061783,10140.821405
350.662743,0.000000,740.205942,10214.842000
350.663051,919.314598,2368.659014,9992.780217
350.663359,1685.410096,3108.864956,8882.471304
350.663667,2911.162892,3182.885551,8808.450710
350.663975,2834.553343,2220.617826,8512.368333
350.664283,1608.800546,-296.082377,9844.739029
350.664591,-229.828649,-2812.782580,11917.315666
350.664899,-1378.971896,-2590.720797,11473.192101
350.665207,-1455.581446,-2516.700203,11769.274478
350.665515,-612.876398,-1406.391290,10214.842000
350.665823,766.095498,148.041188,9030.512492
350.666131,2451.505594,1110.308913,8364.327145
350.666439,2451.505594,1332.370696,8290.306550
350.666747,1838.629195,962.267725,8808.450710
350.667055,229.828649,-0.000000,9770.718434
350.667363,-306.438199,-0.000000,11251.130318
350.667671,-383.047749,888.247130,10510.924376
350.667979,842.705048,3108.864956,9696.697840
350.668287,1991.848295,2960.823768,9622.677246
350.668595,2757.943793,2664.741391,8364.327145
350.668903,2451.505594,1850.514855,8734.430116
350.669211,1302.362347,-888.247130,9918.759623
350.669519,-459.657299,-2368.659014,10436.903782
350.669827,-1685.410096,-2590.720797,11325.150913
350.670135,-1838.629195,-2516.700203,11695.253884
350.670444,-995.924147,-1332.370696,9696.697840
350.670752,536.266849,814.226536,8216.285956
350.671060,1991.848295,592.164754,7994.224174
350.671368,1915.238745,370.102971,8142.265362
350.671676,1072.533697,-0.000000,8956.491898
350.671984,-229.828649,-814.226536,10140.821405
350.672292,-1302.362347,-222.061783,10732.986159
350.672600,-1455.581446,1184.329507,10066.800811
350.672908,536.266849,2664.741391,9918.759623
350.673216,1149.143247,3034.844362,8734.430116
350.673524,2451.505594,2812.782580,9696.697840
350.673832,1762.019645,1258.350101,9030.512492
350.674140,383.047749,-1110.308913,9844.739029
350.674448,-1685.410096,-3552.988522,11695.253884
350.674756,-2451.505594,-3849.070898,12065.356855
350.675064,-2451.505594,-3627.009116,10584.944971
350.675372,-1532.190996,-1332.370696,9400.615463
350.675680,1302.362347,444.123565,7994.224174
350.675988,2834.553343,1850.514855,7105.977043
350.676296,2987.772442,1554.432478,7328.038826
350.676604,2145.067394,1184.329507,7550.100608
350.676912,766.095498,962.267725,8882.471304
350.677220,0.000000,740.205942,9918.759623
350.677528,-153.219100,2664.741391,9178.553681
350.677836,1532.190996,3108.864956,9474.636058
350.678144,2834.553343,2738.761985,9548.656652
350.678452,2528.115143,2294.638420,9548.656652
350.678760,1225.752797,-0.000000,9992.780217
350.679069,-459.657299,-2664.741391,11251.130318
350.679377,-2374.896044,-4663.297435,12879.583391
350.679685,-3753.867940,-4441.235652,11843.295072
350.679993,-3064.381992,-3627.009116,12287.418637
350.680301,-1149.143247,-1480.411884,9622.677246
350.680609,842.705048,1184.329507,7846.182985
350.680917,3524.039291,1850.514855,7698.141797
350.681225,3294.210641,1850.514855,5773.606348
350.681533,2221.676944,1702.473667,7994.224174
350.681841,919.314598,592.164754,9474.636058
350.682149,153.219100,1628.453072,9770.718434
350.682457,0.000000,2294.638420,9474.636058
350.682765,1455.581446,2738.761985,9548.656652
350.683073,2911.162892,2738.761985,9696.697840
350.683381,2298.286494,2146.597232,9252.574275
350.683689,1532.190996,-666.185348,9622.677246
350.683997,0.000000,-2516.700203,10510.924376
350.684305,-1915.238745,-3997.112087,11695.253884
350.684613,-2374.896044,-4219.173869,11991.336260
350.684921,-919.314598,-2738.761985,10288.862594
350.685229,0.000000,-148.041188,9178.553681
350.685537,1608.800546,740.205942,8068.244768
350.685845,3524.039291,2294.638420,7031.956449
350.686153,2987.772442,1924.535449,7920.203579
350.686461,1455.581446,1406.391290,8512.368333
350.686769,229.828649,592.164754,10214.842000
350.687077,-459.657299,1406.391290,10732.986159
350.687385,153.219100,1924.535449,10214.842000
350.687693,1838.629195,2886.803174,9474.636058
350.688002,2604.724693,3108.864956,9622.677246
350.688310,2451.505594,1258.350101,8956.491898
350.688618,1225.752797,-592.164754,9992.780217
350.688926,-842.705048,-2886.803174,11473.192101
350.689234,-2451.505594,-4145.153275,12879.583391
350.689542,-3217.601092,-3775.050304,12361.439231
350.689850,-1302.362347,-2738.761985,11547.212695
350.690158,766.095498,814.226536,7994.224174
350.690466,2145.067394,2146.597232,6809.894666
350.690774,3753.867940,1554.432478,7179.997637
350.691082,3294.210641,1850.514855,7624.121203
350.691390,1532.190996,814.226536,9104.533087
350.691698,689.485948,-0.000000,10140.821405
350.692006,0.000000,888.247130,9622.677246
350.692314,-306.438199,1702.473667,9992.780217
350.692622,2068.457845,2442.679609,10658.965565
350.692930,2145.067394,2368.659014,9252.574275
350.693238,2068.457845,1480.411884,9548.656652
350.693546,1532.190996,-1332.370696,10214.842000
350.693854,-689.485948,-2886.803174,11177.109724
350.694162,-1915.238745,-3923.091493,12361.439231
350.694470,-1378.971896,-3997.112087,11621.233289
350.694778,-689.485948,-1628.453072,9252.574275
350.695086,766.095498,-296.082377,8734.430116
350.695394,3140.991542,1036.288319,8216.285956
350.695702,3064.381992,1924.535449,7328.038826
350.696010,2221.676944,666.185348,8290.306550
350.696318,1149.143247,-74.020594,9400.615463
350.696626,-459.657299,296.082377,9844.739029
350.696935,-766.095498,592.164754,11325.150913
350.697243,76.609550,2072.576638,10066.800811
350.697551,1915.238745,3256.906145,9474.636058
350.697859,3294.210641,2368.659014,9474.636058
350.698167,2987.772442,1776.494261,8290.306550
350.698475,1225.752797,-74.020594,9622.677246
350.698783,0.000000,-2664.741391,11769.274478
350.699091,-1378.971896,-2812.782580,10807.006753
350.699399,-1762.019645,-2368.659014,10584.944971
350.699707,-306.438199,-1110.308913,9844.739029
350.700015,919.314598,1480.411884,8290.306550
350.700323,3064.381992,1628.453072,8216.285956
350.700631,3600.648841,1554.432478,7476.080014
350.700939,1991.848295,1184.329507,7550.100608
350.701247,1072.533697,-0.000000,8956.491898
350.701555,-229.828649,518.144159,10436.903782
350.701863,-383.047749,1332.370696,10140.821405
350.702171,229.828649,2442.679609,10066.800811
350.702479,2451.505594,2590.720797,9992.780217
350.702787,2451.505594,2738.761985,8956.491898
350.703095,2451.505594,888.247130,9474.636058
350.703403,0.000000,-1702.473667,10732.986159
350.703711,-1378.971896,-3478.967927,12361.439231
350.704019,-2298.286494,-4145.153275,12657.521608
350.704327,-2221.676944,-3330.926739,11399.171507
350.704635,-1072.533697,-1406.391290,9770.718434
350.704943,1685.410096,740.205942,8512.368333
350.705251,2757.943793,1924.535449,7550.100608
350.705559,2068.457845,1480.411884,8142.265362
350.705868,1991.848295,740.205942,8290.306550
350.706176,383.047749,962.267725,8956.491898
350.706484,0.000000,1036.288319,9696.697840
350.706792,229.828649,1850.514855,10140.821405
350.707100,766.095498,3627.009116,9770.718434
350.707408,2068.457845,2664.741391,9548.656652
350.707716,2374.896044,2220.617826,8882.471304
350.708024,229.828649,-0.000000,10732.986159
350.708332,-995.924147,-2738.761985,12139.377449
350.708640,-2834.553343,-4441.235652,13175.665768
350.708948,-3830.477490,-4737.318029,12953.603985
350.709256,-2528.115143,-2886.803174,12139.377449
350.709564,-536.266849,-1110.308913,9326.594869
350.709872,1225.752797,962.267725,7550.100608
350.710180,3064.381992,1554.432478,6883.915261
350.710488,2757.943793,1776.494261,6957.935855
350.710796,1838.629195,1406.391290,7846.182985
350.711104,536.266849,1332.370696,8216.285956
350.711412,229.828649,2072.576638,9252.574275
350.711720,766.095498,2960.823768,9696.697840
350.712028,1225.752797,3627.009116,8438.347739
350.712336,1838.629195,3404.947333,8586.388927
350.712644,2374.896044,2294.638420,9252.574275
350.712952,1225.752797,-148.041188,10066.800811
350.713260,-1225.752797,-2738.761985,12065.356855
350.713568,-2757.943793,-5107.421000,13545.768739
350.713876,-2987.772442,-4441.235652,12583.501014
350.714184,-2145.067394,-3256.906145,10955.047942
350.714492,0.000000,-814.226536,9178.553681
350.714801,2068.457845,814.226536,7846.182985
350.715109,2757.943793,1184.329507,7920.203579
350.715417,2068.457845,1332.370696,7179.997637
350.715725,2221.676944,666.185348,8216.285956
350.716033,536.266849,1554.432478,8660.409521
350.716341,229.828649,1332.370696,10214.842000
350.716649,612.876398,2812.782580,9918.759623
350.716957,2374.896044,3404.947333,8808.450710
350.717265,2451.505594,2738.761985,9474.636058
350.717573,2604.724693,1702.473667,9770.718434
350.717881,1608.800546,-666.185348,9918.759623
350.718189,-919.314598,-3182.885551,11695.253884
350.718497,-1991.848295,-4737.318029,13175.665768
350.718805,-2451.505594,-3775.050304,11769.274478
350.719113,-1378.971896,-2442.679609,10881.027347
350.719421,229.828649,-296.082377,8290.306550
350.719729,2911.162892,1776.494261,8438.347739
350.720037,3447.429741,1628.453072,8660.409521
350.720345,2451.505594,1554.432478,7476.080014
350.720653,1378.971896,1036.288319,9104.533087
350.720961,229.828649,1480.411884,10214.842000
350.721269,0.000000,1702.473667,9622.677246
350.721577,76.609550,3552.988522,9918.759623
350.721885,2145.067394,2960.823768,9030.512492
350.722193,2451.505594,3182.885551,8512.368333
350.722501,2681.334243,1480.411884,9104.533087
350.722809,1378.971896,-1258.350101,10584.944971
350.723117,-1378.971896,-2590.720797,11621.233289
350.723426,-1838.629195,-4293.194464,12583.501014
350.723734,-2528.115143,-3478.967927,11621.233289
350.724042,-1302.362347,-1628.453072,9844.739029
350.724350,919.314598,-74.020594,8364.327145
350.724658,2068.457845,1480.411884,7846.182985
350.724966,3294.210641,1332.370696,7105.977043
350.725274,2911.162892,1480.411884,7698.141797
350.725582,1838.629195,740.205942,8216.285956
350.725890,459.657299,1258.350101,9548.656652
350.726198,229.828649,592.164754,10584.944971
350.726506,612.876398,2516.700203,9770.718434
350.726814,1302.362347,1924.535449,10214.842000
350.727122,2298.286494,2072.576638,9400.615463
350.727430,2298.286494,444.123565,8882.471304
350.727738,229.828649,-1480.411884,11029.068536
350.728047,-995.924147,-4293.194464,11695.253884
350.728355,-2451.505594,-4071.132681,12435.459826
350.728663,-2528.115143,-3701.029710,11843.295072
350.728971,-536.266849,-1332.370696,9622.677246
350.729279,612.876398,740.205942,8882.471304
350.729587,1991.848295,888.247130,8734.430116
350.729895,2757.943793,2072.576638,6513.812290
350.730203,2374.896044,1258.350101,8586.388927
350.730511,1991.848295,888.247130,9104.533087
350.730819,76.609550,1554.432478,8586.388927
350.731128,383.047749,2072.576638,10510.924376
350.731436,1072.533697,2664.741391,9400.615463
350.731744,2298.286494,3775.050304,9474.636058
350.732052,1762.019645,2146.597232,9400.615463
350.732360,2068.457845,444.123565,9474.636058
350.732668,229.828649,-1924.535449,11325.150913
350.732976,-1991.848295,-3478.967927,12287.418637
350.733284,-2528.115143,-4441.235652,12879.583391
350.733592,-2757.943793,-2738.761985,10584.944971
350.733900,-1915.238745,-1110.308913,10510.924376
350.734209,766.095498,518.144159,8068.244768
350.734517,2298.286494,1776.494261,7624.121203
350.734825,2068.457845,1184.329507,8364.327145
350.735133,2451.505594,1036.288319,8142.265362
350.735441,995.924147,1332.370696,9696.697840
350.735749,229.828649,962.267725,9992.780217
350.736057,459.657299,1998.556043,9104.533087
350.736365,1455.581446,3108.864956,8882.471304
350.736673,1915.238745,2590.720797,9326.594869
350.736982,2068.457845,1998.556043,9030.512492
350.737290,2068.457845,370.102971,9474.636058
350.737598,76.609550,-2072.576638,11103.089130
350.737906,-1532.190996,-4071.132681,12065.356855
350.738214,-2451.505594,-3849.070898,12065.356855
350.738522,-2987.772442,-2960.823768,10732.986159
350.738830,-1378.971896,-1332.370696,9696.697840
350.739138,766.095498,-0.000000,8734.430116
350.739446,919.314598,1406.391290,8734.430116
350.739754,1838.629195,1184.329507,8586.388927
350.740063,1762.019645,1258.350101,8142.265362
350.740371,306.438199,1110.308913,9548.656652
350.740679,919.314598,1702.473667,10214.842000
350.740987,76.609550,2368.659014,8882.471304
350.741295,1608.800546,3478.967927,9252.574275
350.741603,2681.334243,2738.761985,9030.512492
350.741911,2451.505594,2664.741391,8438.347739
350.742219,1455.581446,-0.000000,10066.800811
350.742527,0.000000,-2368.659014,10510.924376
350.742836,-1991.848295,-3775.050304,12139.377449
350.743144,-2757.943793,-4737.318029,12953.603985
350.743452,-2604.724693,-2886.803174,10584.944971
350.743760,-1378.971896,-1036.288319,9770.718434
350.744068,1072.533697,-0.000000,9992.780217
350.744376,2068.457845,1554.432478,7772.162391
350.744684,2145.067394,1406.391290,7328.038826
350.744992,1838.629195,814.226536,8660.409521
350.745300,1302.362347,2146.597232,8068.244768
350.745608,459.657299,2442.679609,9622.677246
350.745917,1455.581446,2960.823768,9622.677246
350.746225,2221.676944,4071.132681,7920.203579
350.746533,2451.505594,3478.967927,9178.553681
350.746841,2834.553343,1480.411884,9104.533087
350.747149,919.314598,-740.205942,10288.862594
350.747457,-995.924147,-2886.803174,12435.459826
350.747765,-2604.724693,-4737.318029,12583.501014
350.748073,-3370.820191,-4219.173869,11843.295072
350.748381,-2451.505594,-3108.864956,11695.253884
350.748690,-459.657299,-814.226536,9474.636058
350.748998,1838.629195,1702.473667,8142.265362
350.749306,3217.601092,1480.411884,7994.224174
350.749614,3140.991542,1036.288319,7994.224174
350.749922,1762.019645,2072.576638,8216.285956
350.750230,1455.581446,888.247130,9770.718434
350.750538,0.000000,2368.659014,9844.739029
350.750846,2068.457845,2368.659014,9622.677246
350.751154,2068.457845,3256.906145,8882.471304
350.751462,2604.724693,1702.473667,9474.636058
350.751771,1685.410096,296.082377,9400.615463
350.752079,76.609550,-1406.391290,11103.089130
350.752387,-689.485948,-3478.967927,12213.398043
350.752695,-2451.505594,-4367.215058,11177.109724
350.753003,-1991.848295,-4219.173869,11621.233289
350.753311,-1762.019645,-2146.597232,9696.697840
350.753619,1072.533697,-814.226536,8956.491898
350.753927,1455.581446,888.247130,8142.265362
350.754235,2068.457845,518.144159,8882.471304
350.754543,2145.067394,814.226536,8290.306550
350.754852,1685.410096,1036.288319,8882.471304
350.755160,229.828649,1702.473667,9252.574275
350.755468,689.485948,2590.720797,9104.533087
350.755776,2604.724693,2812.782580,9400.615463
350.756084,1378.971896,3627.009116,8290.306550
350.756392,3294.210641,2590.720797,8290.306550
350.756700,2604.724693,1036.288319,9326.594869
350.757008,306.438199,-1406.391290,10510.924376
350.757316,-919.314598,-3627.009116,11251.130318
350.757625,-2298.286494,-4071.132681,12065.356855
350.757933,-3140.991542,-3997.112087,11843.295072
350.758241,-2221.676944,-2072.576638,9992.780217
350.758549,1072.533697,444.123565,9474.636058
350.758857,1838.629195,888.247130,7772.162391
350.759165,2298.286494,1406.391290,7846.182985
350.759473,2451.505594,1702.473667,8586.388927
350.759781,1072.533697,1258.350101,8956.491898
350.760089,0.000000,1480.411884,9992.780217
350.760397,612.876398,3108.864956,9474.636058
350.760706,1838.629195,3256.906145,9844.739029
350.761014,1532.190996,3923.091493,8216.285956
350.761322,4060.306139,2960.823768,8956.491898
350.761630,2834.553343,888.247130,9326.594869
350.761938,76.609550,-1480.411884,10066.800811
350.762246,-995.924147,-3775.050304,12509.480420
350.762554,-2451.505594,-3701.029710,12287.418637
350.762862,-2757.943793,-3330.926739,11547.212695
350.763170,-1762.019645,-1776.494261,9844.739029
350.763479,689.485948,-0.000000,9030.512492
350.763787,1685.410096,1332.370696,8364.327145
350.764095,1991.848295,666.185348,8512.368333
350.764403,1608.800546,1406.391290,8142.265362
350.764711,0.000000,888.247130,9400.615463
350.765019,0.000000,888.247130,10955.047942
350.765327,0.000000,2146.597232,9770.718434
350.765635,1685.410096,3404.947333,9696.697840
350.765943,2221.676944,3182.885551,8512.368333
350.766251,2681.334243,2368.659014,8068.244768
350.766560,2528.115143,-0.000000,9030.512492
350.766868,306.438199,-1998.556043,10584.944971
350.767176,-1149.143247,-3775.050304,11399.171507
350.767484,-2681.334243,-3997.112087,11843.295072
350.767792,-1378.971896,-3256.906145,11251.130318
350.768100,-1455.581446,-814.226536,8364.327145
350.768408,1225.752797,-0.000000,9400.615463
350.768716,2911.162892,518.144159,8068.244768
350.769024,2221.676944,1110.308913,7476.080014
350.769332,919.314598,370.102971,9178.553681
350.769641,383.047749,222.061783,9696.697840
350.769949,0.000000,1332.370696,10436.903782
350.770257,229.828649,2368.659014,9770.718434
350.770565,2068.457845,3182.885551,8364.327145
350.770873,2757.943793,3256.906145,7994.224174
350.771181,2681.334243,1776.494261,9178.553681
350.771489,1608.800546,-0.000000,9622.677246
350.771797,306.438199,-2294.638420,10436.903782
350.772105,-1991.848295,-3627.009116,11621.233289
350.772414,-2298.286494,-3256.906145,11621.233289
350.772722,-1302.362347,-2220.617826,10436.903782
350.773030,-689.485948,296.082377,8438.347739
350.773338,1685.410096,1110.308913,8142.265362
350.773646,2911.162892,1702.473667,7994.224174
350.773954,2451.505594,814.226536,7994.224174
350.774262,995.924147,592.164754,9474.636058
350.774570,919.314598,370.102971,10881.027347
350.774878,153.219100,1110.308913,10584.944971
350.775186,536.266849,2886.803174,9474.636058
350.775495,1455.581446,2886.803174,9474.636058
350.775803,2451.505594,2812.782580,9178.553681
350.776111,3294.210641,1924.535449,9030.512492
350.776419,1685.410096,-888.247130,9918.759623
350.776727,-383.047749,-2368.659014,10732.986159
350.777035,-1685.410096,-3627.009116,11843.295072
350.777343,-2298.286494,-3256.906145,11769.274478
350.777651,-1225.752797,-1998.556043,10362.883188
350.777959,0.000000,370.102971,8660.409521
350.778268,1455.581446,1110.308913,9178.553681
350.778576,2451.505594,962.267725,8438.347739
350.778884,1608.800546,1332.370696,8364.327145
350.779192,1072.533697,296.082377,9770.718434
350.779500,-306.438199,-74.020594,11177.109724
350.779808,153.219100,1184.329507,10658.965565
350.780116,766.095498,2516.700203,9178.553681
350.780424,1838.629195,3256.906145,8734.430116
350.780732,3677.258390,2516.700203,9622.677246
350.781040,2221.676944,1776.494261,9030.512492
350.781349,306.438199,-1110.308913,10584.944971
350.781657,-1225.752797,-2738.761985,11473.192101
350.781965,-2374.896044,-3182.885551,11029.068536
350.782273,-919.314598,-3627.009116,11769.274478
350.782581,-1838.629195,-2220.617826,8808.450710
350.782889,-306.438199,-0.000000,7624.121203
350.783197,2298.286494,-814.226536,7994.224174
350.783505,2451.505594,2664.741391,6217.729913
350.783813,1685.410096,-0.000000,8660.409521
350.784122,919.314598,222.061783,8956.491898
350.784430,306.438199,370.102971,9326.594869
350.784738,919.314598,1776.494261,7179.997637
350.785046,3447.429741,4145.153275,8068.244768
350.785354,4979.620737,3108.864956,7846.182985
350.785662,2681.334243,2442.679609,6809.894666
350.785970,766.095498,-0.000000,10362.883188
350.786278,3140.991542,-666.185348,11547.212695
350.786586,-2834.553343,-4145.153275,10436.903782
350.786894,-4060.306139,-3256.906145,13989.892304
350.787203,-2757.943793,-4737.318029,13027.624579
350.787511,-3907.087040,-1480.411884,11843.295072
350.787819,-2757.943793,-592.164754,11251.130318
350.788127,1532.190996,592.164754,9770.718434
350.788435,919.314598,1332.370696,9104.533087
350.788743,-536.266849,296.082377,9474.636058
350.789051,-383.047749,888.247130,11399.171507
350.789359,-995.924147,1628.453072,11769.274478
350.789667,-1072.533697,2368.659014,10881.027347
350.789975,766.095498,3701.029710,10288.862594
350.790284,2451.505594,3701.029710,10214.842000
350.790592,2451.505594,2220.617826,9918.759623
350.790900,3294.210641,2072.576638,9696.697840
350.791208,1378.971896,370.102971,10658.965565
350.791516,-229.828649,-2812.782580,12361.439231
350.791824,-1455.581446,-2664.741391,11029.068536
350.792132,-766.095498,-1702.473667,11251.130318
350.792440,-459.657299,-666.185348,10066.800811
350.792748,1378.971896,1628.453072,7624.121203
350.793057,3370.820191,1998.556043,7550.100608
350.793365,2528.115143,1998.556043,6439.791695
350.793673,2681.334243,1702.473667,7031.956449
350.793981,766.095498,1184.329507,8956.491898
350.794289,0.000000,740.205942,9918.759623
350.794597,-536.266849,1258.350101,9770.718434
350.794905,306.438199,2368.659014,10140.821405
350.795213,2145.067394,2294.638420,10140.821405
350.795521,1991.848295,666.185348,9622.677246
350.795829,766.095498,-1480.411884,11177.109724
350.796138,-306.438199,-4145.153275,11399.171507
350.796446,-1608.800546,-5255.462188,11695.253884
350.796754,-1915.238745,-5329.482782,11843.295072
350.797062,-1608.800546,-4145.153275,9992.780217
350.797370,-153.219100,-2146.597232,8068.244768
350.797678,2681.334243,148.041188,7698.141797
350.797986,3983.696590,740.205942,6143.709319
350.798294,4060.306139,1924.535449,5329.482782
350.798602,3907.087040,1332.370696,5995.668130
350.798911,1838.629195,1184.329507,7179.997637
350.799219,919.314598,1702.473667,8438.347739
350.799527,1302.362347,2294.638420,8956.491898
350.799835,1532.190996,2886.803174,8364.327145
350.800143,2987.772442,3330.926739,7698.141797
350.800451,2757.943793,2146.597232,8734.430116
350.800759,2298.286494,296.082377,10214.842000
350.801067,76.609550,-2294.638420,11177.109724
350.801375,-2068.457845,-3404.947333,12287.418637
350.801683,-2681.334243,-4441.235652,12583.501014
350.801992,-3064.381992,-3256.906145,11917.315666
350.802300,-1455.581446,-518.144159,9474.636058
350.802608,2145.067394,222.061783,10436.903782
350.802916,1685.410096,1554.432478,6735.874072
350.803224,1685.410096,1628.453072,7772.162391
350.803532,1762.019645,592.164754,10140.821405
350.803840,-153.219100,1406.391290,9474.636058
350.804148,0.000000,1258.350101,11177.109724
350.804456,229.828649,3404.947333,9178.553681
350.804764,1915.238745,3627.009116,9844.739029
350.805073,2451.505594,3478.967927,8882.471304
350.805381,3524.039291,2738.761985,9104.533087
350.805689,1838.629195,-74.020594,11103.089130
350.805997,-306.438199,-2590.720797,10584.944971
350.806305,-1532.190996,-3108.864956,12583.501014
350.806613,-2451.505594,-3997.112087,12361.439231
350.806921,-2221.676944,-2590.720797,10584.944971
350.807229,-229.828649,-222.061783,8364.327145
350.807537,2681.334243,1406.391290,8438.347739
350.807846,2145.067394,1258.350101,7698.141797
350.808154,2145.067394,1258.350101,7105.977043
350.808462,1608.800546,740.205942,9326.594869
350.808770,-612.876398,296.082377,10140.821405
350.809078,-612.876398,1184.329507,10214.842000
350.809386,-306.438199,2220.617826,10955.047942
350.809694,229.828649,2516.700203,10140.821405
350.810002,1378.971896,2368.659014,10066.800811
350.810310,1838.629195,1036.288319,10140.821405
350.810618,383.047749,-1258.350101,10807.006753
350.810927,-1455.581446,-3256.906145,12065.356855
350.811235,-2068.457845,-3701.029710,12953.603985
350.811543,-2451.505594,-3552.988522,11103.089130
350.811851,-1838.629195,-1776.494261,9252.574275
350.812159,919.314598,444.123565,8660.409521
350.812467,2451.505594,1480.411884,7476.080014
350.812775,2221.676944,1998.556043,6735.874072
350.813083,2757.943793,1332.370696,7920.203579
350.813391,1149.143247,1110.308913,8512.368333
350.813700,-229.828649,740.205942,9474.636058
350.814008,-153.219100,1406.391290,10362.883188
350.814316,383.047749,2516.700203,9622.677246
350.814624,1302.362347,3701.029710,9474.636058
350.814932,3064.381992,2590.720797,9400.615463
350.815240,2145.067394,1628.453072,8734.430116
350.815548,1072.533697,-888.247130,10881.027347
350.815856,-536.266849,-2812.782580,11547.212695
350.816164,-2068.457845,-3849.070898,11621.233289
350.816472,-2604.724693,-3849.070898,11991.336260
350.816781,-1762.019645,-2294.638420,9474.636058
350.817089,153.219100,-370.102971,8882.471304
350.817397,1532.190996,592.164754,8660.409521
350.817705,2451.505594,666.185348,7920.203579
350.818013,1455.581446,222.061783,8216.285956
350.818321,919.314598,-0.000000,8808.450710
350.818629,76.609550,592.164754,9474.636058
350.818937,153.219100,1850.514855,9474.636058
350.819245,1378.971896,2442.679609,9474.636058
350.819554,2528.115143,3775.050304,7772.162391
350.819862,3370.820191,3627.009116,8734.430116
350.820170,3677.258390,962.267725,9178.553681
350.820478,1149.143247,-592.164754,9548.656652
350.820786,-459.657299,-3108.864956,11843.295072
350.821094,-2068.457845,-3775.050304,11769.274478
350.821402,-1991.848295,-3034.844362,11103.089130
350.821710,-1225.752797,-1480.411884,9992.780217
350.822018,0.000000,592.164754,8142.265362
350.822326,1915.238745,1110.308913,7624.121203
350.822635,2528.115143,814.226536,8068.244768
350.822943,2451.505594,592.164754,7994.224174
350.823251,459.657299,962.267725,7920.203579
350.823559,306.438199,1554.432478,10288.862594
350.823867,306.438199,2220.617826,9622.677246
350.824175,536.266849,4071.132681,9474.636058
350.824483,2298.286494,3108.864956,9474.636058
350.824791,3140.991542,3108.864956,8882.471304
350.825099,2068.457845,1110.308913,10288.862594
350.825407,766.095498,-1258.350101,11473.192101
350.825715,-1532.190996,-3108.864956,12287.418637
350.826023,-2757.943793,-4293.194464,13619.789333
350.826331,-2145.067394,-2812.782580,11029.068536
350.826640,-1149.143247,-740.205942,9104.533087
350.826948,842.705048,592.164754,8512.368333
350.827256,2987.772442,2072.576638,8660.409521
350.827564,2757.943793,1110.308913,7402.059420
350.827872,1532.190996,740.205942,8142.265362
350.828180,995.924147,814.226536,9178.553681
350.828488,383.047749,2072.576638,9474.636058
350.828796,612.876398,2590.720797,10066.800811
350.829104,1838.629195,3330.926739,9622.677246
350.829412,2604.724693,3256.906145,8364.327145
350.829720,2145.067394,2146.597232,8956.491898
350.830028,1302.362347,-888.247130,10362.883188
350.830336,-306.438199,-2664.741391,11843.295072
350.830644,-2374.896044,-4219.173869,12361.439231
350.830952,-3600.648841,-4737.318029,12361.439231
350.831260,-3140.991542,-3552.988522,11325.150913
350.831568,-1225.752797,-1406.391290,9548.656652
350.831876,1302.362347,-0.000000,7920.203579
350.832184,2221.676944,1184.329507,7624.121203
350.832493,2757.943793,666.185348,8142.265362
350.832801,1149.143247,962.267725,7920.203579
350.833109,229.828649,1258.350101,8882.471304
350.833417,612.876398,1480.411884,9326.594869
350.833725,612.876398,3404.947333,9030.512492
350.834033,2374.896044,3552.988522,9326.594869
350.834341,2911.162892,3552.988522,8808.450710
350.834649,2604.724693,1702.473667,8882.471304
350.834957,1378.971896,-444.123565,10140.821405
350.835265,0.000000,-2442.679609,11399.171507
350.835573,-1608.800546,-4441.235652,12657.521608
350.835881,-3140.991542,-4219.173869,12509.480420
350.836189,-1302.362347,-2516.700203,10510.924376
350.836497,842.705048,-518.144159,8512.368333
350.836805,1762.019645,1258.350101,7179.997637
350.837113,3907.087040,1036.288319,8142.265362
350.837421,2834.553343,1110.308913,7254.018232
350.837729,919.314598,1036.288319,8586.388927
350.838037,459.657299,296.082377,9918.759623
350.838346,153.219100,1702.473667,9992.780217
350.838654,153.219100,2146.597232,9622.677246
350.838962,1378.971896,3404.947333,9178.553681
350.839270,2987.772442,2516.700203,10066.800811
350.839578,2834.553343,1258.350101,9474.636058
350.839886,1532.190996,-518.144159,10881.027347
350.840194,-612.876398,-3034.844362,12731.542202
350.840502,-1838.629195,-3849.070898,12287.418637
350.840810,-2221.676944,-3182.885551,11325.150913
350.841118,-1378.971896,-1924.535449,9918.759623
350.841426,1072.533697,444.123565,8068.244768
350.841734,2451.505594,1776.494261,7105.977043
350.842042,2987.772442,1628.453072,7179.997637
350.842350,2757.943793,814.226536,7328.038826
350.842658,689.485948,1924.535449,8216.285956
350.842966,842.705048,1184.329507,10288.862594
350.843274,0.000000,1258.350101,9178.553681
350.843582,-689.485948,3404.947333,9400.615463
350.843890,1991.848295,2812.782580,10140.821405
350.844199,1532.190996,2294.638420,8956.491898
350.844507,1455.581446,518.144159,10732.986159
350.844815,536.266849,-1258.350101,10436.903782
350.845123,-1762.019645,-3775.050304,12139.377449
350.845431,-3600.648841,-4219.173869,12879.583391
350.845739,-2911.162892,-3701.029710,11547.212695
350.846047,-1608.800546,-1554.432478,10066.800811
350.846355,383.047749,296.082377,7994.224174
350.846663,2528.115143,962.267725,7772.162391
350.846971,3217.601092,2146.597232,6735.874072
350.847279,2757.943793,1110.308913,7846.182985
350.847587,1532.190996,888.247130,8142.265362
350.847895,229.828649,1258.350101,8956.491898
350.848203,919.314598,1628.453072,10436.903782
350.848511,842.705048,2812.782580,9252.574275
350.848819,2681.334243,3330.926739,9104.533087
350.849127,1991.848295,2368.659014,9252.574275
350.849435,2451.505594,592.164754,9992.780217
350.849743,536.266849,-1850.514855,11029.068536
350.850052,-1378.971896,-3256.906145,11621.233289
350.850360,-2451.505594,-4219.173869,12435.459826
350.850668,-2757.943793,-3182.885551,11473.192101
350.850976,-1149.143247,-1554.432478,10214.842000
350.851284,1149.143247,-0.000000,8586.388927
350.851592,1915.238745,814.226536,8290.306550
350.851900,2757.943793,1480.411884,7698.141797
350.852208,1762.019645,888.247130,8438.347739
350.852516,766.095498,-0.000000,9696.697840
350.852824,0.000000,518.144159,9992.780217
350.853132,229.828649,1776.494261,9992.780217
350.853440,1225.752797,2590.720797,9474.636058
350.853748,2834.553343,3034.844362,8734.430116
350.854056,3753.867940,3034.844362,8734.430116
350.854364,2834.553343,-0.000000,8882.471304
350.854672,1149.143247,-814.226536,10066.800811
350.854980,-766.095498,-3034.844362,11547.212695
350.855288,-1915.238745,-3701.029710,12139.377449
350.855596,-2145.067394,-2516.700203,10807.006753
350.855905,-919.314598,-814.226536,9696.697840
350.856213,536.266849,296.082377,9104.533087
350.856521,2528.115143,518.144159,8660.409521
350.856829,1838.629195,1036.288319,7994.224174
350.857137,1685.410096,296.082377,9400.615463
350.857445,383.047749,-0.000000,9696.697840
350.857753,0.000000,962.267725,10214.842000
350.858061,459.657299,1998.556043,10288.862594
350.858369,1378.971896,3330.926739,8364.327145
350.858677,3447.429741,3701.029710,8216.285956
350.858985,3753.867940,3256.906145,8068.244768
350.859293,2911.162892,1036.288319,9104.533087
350.859601,766.095498,-1480.411884,10288.862594
350.859909,-1225.752797,-3034.844362,12213.398043
350.860217,-1991.848295,-3923.091493,12509.480420
350.860525,-2374.896044,-2442.679609,11103.089130
350.860833,-919.314598,-814.226536,9844.739029
350.861141,1149.143247,-0.000000,9252.574275
350.861449,1455.581446,-222.061783,9252.574275
350.861758,1302.362347,296.082377,8660.409521
350.862066,995.924147,296.082377,8808.450710
350.862374,229.828649,-0.000000,9844.739029
350.862682,-306.438199,1258.350101,9548.656652
350.862990,919.314598,2368.659014,9918.759623
350.863298,2145.067394,4219.173869,8512.368333
350.863606,2834.553343,4219.173869,7698.141797
350.863914,3677.258390,2146.597232,8364.327145
350.864222,2681.334243,1036.288319,8808.450710
350.864530,153.219100,-1554.432478,10584.944971
350.864838,-1378.971896,-3775.050304,11991.336260
350.865146,-3064.381992,-3849.070898,12065.356855
350.865454,-2757.943793,-2960.823768,11029.068536
350.865762,-1302.362347,-1406.391290,9622.677246
350.866070,612.876398,-0.000000,9474.636058
350.866378,1532.190996,518.144159,8438.347739
350.866686,1685.410096,148.041188,7772.162391
350.866994,0.000000,444.123565,8882.471304
350.867302,0.000000,-0.000000,9918.759623
350.867611,0.000000,1776.494261,9474.636058
350.867919,153.219100,2664.741391,9252.574275
350.868227,1378.971896,3701.029710,8734.430116
350.868535,2374.896044,3256.906145,8586.388927
350.868843,2911.162892,1776.494261,8808.450710
350.869151,1455.581446,-592.164754,9548.656652
350.869459,-689.485948,-3108.864956,11399.171507
350.869767,-3064.381992,-4219.173869,11843.295072
350.870075,-2911.162892,-4367.215058,11843.295072
350.870383,-1915.238745,-2442.679609,10214.842000
350.870691,-383.047749,-888.247130,8956.491898
350.870999,1838.629195,1110.308913,7920.203579
350.871307,3140.991542,888.247130,7846.182985
350.871615,1915.238745,814.226536,6883.915261
350.871923,612.876398,444.123565,9474.636058
350.872231,612.876398,888.247130,10140.821405
350.872539,-459.657299,2294.638420,9696.697840
350.872847,1532.190996,2664.741391,10584.944971
350.873155,1532.190996,4589.276840,8216.285956
350.873464,2911.162892,3330.926739,9770.718434
350.873772,3370.820191,1184.329507,10288.862594
350.874080,1225.752797,-518.144159,9918.759623
350.874388,-536.266849,-3182.885551,12879.583391
350.874696,-2451.505594,-4219.173869,12213.398043
350.875004,-2987.772442,-3552.988522,12213.398043
350.875312,-2068.457845,-2220.617826,11029.068536
350.875620,459.657299,-814.226536,9252.574275
350.875928,2068.457845,1332.370696,7402.059420
350.876236,2987.772442,1628.453072,7772.162391
350.876544,3447.429741,370.102971,7994.224174
350.876852,2221.676944,1554.432478,8586.388927
350.877160,919.314598,1110.308913,9992.780217
350.877468,995.924147,2442.679609,8512.368333
350.877776,1915.238745,3775.050304,9400.615463
350.878084,2987.772442,4219.173869,8512.368333
350.878392,4136.915689,3923.091493,7920.203579
350.878700,3294.210641,2072.576638,8734.430116
350.879008,383.047749,-1924.535449,10658.965565
350.879317,-383.047749,-3923.091493,11843.295072
350.879625,-2987.772442,-4515.256246,12435.459826
350.879933,-3140.991542,-3997.112087,12435.459826
350.880241,-1762.019645,-2220.617826,10066.800811
350.880549,0.000000,-148.041188,10066.800811
350.880857,1685.410096,-222.061783,8438.347739
350.881165,2834.553343,1332.370696,7550.100608
350.881473,1991.848295,888.247130,8216.285956
350.881781,1455.581446,296.082377,8586.388927
350.882089,689.485948,1406.391290,9474.636058
350.882397,1149.143247,1850.514855,9696.697840
350.882705,1915.238745,2812.782580,8438.347739
350.883013,2681.334243,4293.194464,7624.121203
350.883321,4673.182538,2294.638420,8882.471304
350.883629,2451.505594,518.144159,8882.471304
350.883937,995.924147,-1776.494261,9992.780217
350.884245,-383.047749,-3849.070898,11547.212695
350.884553,-2221.676944,-3701.029710,11251.130318
350.884861,-2221.676944,-2738.761985,11103.089130
350.885170,-766.095498,-666.185348,9400.615463
350.885478,1072.533697,888.247130,8956.491898
350.885786,2298.286494,1406.391290,7328.038826
350.886094,2528.115143,1776.494261,7624.121203
350.886402,1302.362347,518.144159,9326.594869
350.886710,-306.438199,-0.000000,10362.883188
350.887018,-1378.971896,666.185348,11103.089130
350.887326,-842.705048,1184.329507,10955.047942
350.887634,0.000000,2516.700203,10214.842000
350.887942,1455.581446,3108.864956,9252.574275
350.888250,2604.724693,1998.556043,9326.594869
350.888558,1685.410096,814.226536,10214.842000
350.888866,0.000000,-1924.535449,10214.842000
350.889174,-1378.971896,-2886.803174,11695.253884
350.889482,-2221.676944,-3182.885551,11325.150913
350.889790,-1608.800546,-1924.535449,10214.842000
350.890098,-229.828649,-0.000000,8512.368333
350.890406,1378.971896,740.205942,7698.141797
350.890715,2221.676944,1406.391290,7402.059420
350.891023,1225.752797,1036.288319,8290.306550
350.891331,153.219100,518.144159,9770.718434
350.891639,-919.314598,-222.061783,10510.924376
350.891947,-1225.752797,370.102971,11029.068536
350.892255,-919.314598,1184.329507,10807.006753
350.892563,1072.533697,2738.761985,9178.553681
350.892871,2298.286494,2738.761985,9178.553681
350.893179,2987.772442,1998.556043,8808.450710
350.893487,2528.115143,-0.000000,9030.512492
350.893795,76.609550,-1850.514855,10066.800811
350.894103,-1149.143247,-3404.947333,11473.192101
350.894411,-2374.896044,-2516.700203,10510.924376
350.894719,-1532.190996,-1924.535449,10140.821405
350.895027,-306.438199,-222.061783,8438.347739
350.895335,1915.238745,814.226536,7994.224174
350.895643,1685.410096,592.164754,7920.203579
350.895951,2145.067394,444.123565,8438.347739
350.896259,689.485948,-518.144159,9696.697840
350.896568,-1225.752797,-592.164754,10436.903782
350.896876,-383.047749,296.082377,11251.130318
350.897184,229.828649,1850.514855,9474.636058
350.897492,1838.629195,3330.926739,9400.615463
350.897800,3370.820191,3849.070898,9178.553681
350.898108,3447.429741,2294.638420,8364.327145
350.898416,2681.334243,-74.020594,9548.656652
350.898724,1149.143247,-1110.308913,9918.759623
350.899032,-919.314598,-2442.679609,10881.027347
350.899340,-1225.752797,-3034.844362,11473.192101
350.899648,-1072.533697,-1258.350101,9474.636058
350.899956,229.828649,-296.082377,9474.636058
350.900264,995.924147,-74.020594,8586.388927
350.900572,2068.457845,740.205942,8142.265362
350.900880,1838.629195,444.123565,9252.574275
350.901188,306.438199,-592.164754,9326.594869
350.901496,-229.828649,148.041188,10510.924376
350.901804,0.000000,1110.308913,10881.027347
350.902112,919.314598,3108.864956,8808.450710
350.902421,2681.334243,3849.070898,8808.450710
350.902729,3677.258390,3849.070898,8068.244768
350.903037,3217.601092,2220.617826,8882.471304
350.903345,2145.067394,-0.000000,9474.636058
350.903653,229.828649,-2664.741391,10732.986159
350.903961,-1915.238745,-3775.050304,12139.377449
350.904269,-2604.724693,-3330.926739,11695.253884
350.904577,-1915.238745,-2368.659014,10955.047942
350.904885,-536.266849,-888.247130,9844.739029
350.905193,1378.971896,370.102971,8660.409521
350.905501,1991.848295,518.144159,7698.141797
350.905809,1838.629195,-0.000000,8882.471304
350.906117,1378.971896,518.144159,9030.512492
350.906425,-229.828649,962.267725,9548.656652
350.906733,459.657299,2072.576638,9474.636058
350.907041,919.314598,3256.906145,9178.553681
350.907349,2221.676944,3923.091493,8882.471304
350.907657,3140.991542,2886.803174,9474.636058
350.907965,2911.162892,1184.329507,8808.450710
350.908274,919.314598,-592.164754,9770.718434
350.908582,-612.876398,-3256.906145,11843.295072
350.908890,-2451.505594,-4145.153275,12065.356855
350.909198,-2451.505594,-4219.173869,12287.418637
350.909506,-1608.800546,-2146.597232,9918.759623
350.909814,0.000000,-444.123565,8512.368333
350.910122,1838.629195,666.185348,8956.491898
350.910430,2451.505594,1628.453072,7031.956449
350.910738,1608.800546,740.205942,7994.224174
350.911046,1072.533697,1036.288319,8142.265362
350.911354,842.705048,1480.411884,8438.347739
350.911662,0.000000,2294.638420,9474.636058
350.911970,919.314598,3182.885551,9696.697840
350.912278,2834.553343,3256.906145,9844.739029
350.912586,2298.286494,2220.617826,10066.800811
350.912894,2068.457845,222.061783,10881.027347
350.913202,612.876398,-1480.411884,10732.986159
350.913510,-1072.533697,-3404.947333,12657.521608
350.913818,-2145.067394,-4145.153275,12065.356855
350.914127,-1838.629195,-3478.967927,10881.027347
350.914435,-306.438199,-1776.494261,9844.739029
350.914743,1149.143247,296.082377,7772.162391
350.915051,2451.505594,1110.308913,7550.100608
350.915359,2374.896044,1554.432478,7476.080014
350.915667,1762.019645,518.144159,8586.388927
350.915975,-153.219100,740.205942,8734.430116
350.916283,-306.438199,1036.288319,10066.800811
350.916591,0.000000,1850.514855,10510.924376
350.916899,76.609550,3182.885551,10140.821405
350.917207,2451.505594,2812.782580,9992.780217
350.917515,2068.457845,2294.638420,9326.594869
350.917823,1915.238745,740.205942,9548.656652
350.918131,306.438199,-1258.350101,10732.986159
350.918439,-1302.362347,-3108.864956,11251.130318
350.918747,-2221.676944,-3552.988522,11769.274478
350.919055,-1762.019645,-2516.700203,10584.944971
350.919363,-153.219100,-370.102971,9474.636058
350.919671,1915.238745,1332.370696,7698.141797
350.919980,2221.676944,1924.535449,6735.874072
350.920288,1991.848295,1924.535449,7846.182985
350.920596,1915.238745,518.144159,9252.574275
350.920904,-612.876398,1258.350101,9474.636058
350.921212,-536.266849,148.041188,11547.212695
350.921520,-612.876398,2146.597232,10214.842000
350.921828,306.438199,2960.823768,11029.068536
350.922136,2451.505594,2886.803174,10362.883188
350.922444,1915.238745,1776.494261,9474.636058
350.922752,1149.143247,-222.061783,9992.780217
350.923060,0.000000,-2590.720797,10658.965565
350.923368,-1762.019645,-3256.906145,11769.274478
350.923676,-2451.505594,-3701.029710,12287.418637
350.923984,-1685.410096,-2368.659014,10362.883188
350.924292,0.000000,-0.000000,8216.285956
350.924600,1762.019645,666.185348,7994.224174
350.924908,3753.867940,1332.370696,7254.018232
350.925216,2834.553343,888.247130,7328.038826
350.925524,1455.581446,222.061783,8660.409521
350.925833,76.609550,-148.041188,9992.780217
350.926141,-842.705048,740.205942,10214.842000
350.926448,-306.438199,1480.411884,10881.027347
350.926756,1378.971896,2664.741391,9400.615463
350.927064,2528.115143,2516.700203,9474.636058
350.927372,2145.067394,1480.411884,9178.553681
350.927680,2145.067394,-1036.288319,9326.594869
350.927988,-919.314598,-2072.576638,10362.883188
350.928296,-2145.067394,-3923.091493,12879.583391
350.928604,-2451.505594,-3404.947333,11177.109724
350.928911,-2068.457845,-1628.453072,9992.780217
350.929219,383.047749,-444.123565,8882.471304
350.929527,1302.362347,962.267725,6661.853478
350.929835,3064.381992,1628.453072,7550.100608
350.930143,2681.334243,222.061783,7772.162391
350.930451,1072.533697,148.041188,8438.347739
350.930759,0.000000,740.205942,9622.677246
350.931067,0.000000,814.226536,10066.800811
350.931374,0.000000,2442.679609,9696.697840
350.931682,1838.629195,3182.885551,9178.553681
350.931990,3140.991542,2738.761985,9696.697840
350.932298,2681.334243,1554.432478,8734.430116
350.932606,1608.800546,-222.061783,9548.656652
350.932914,76.609550,-2442.679609,11325.150913
350.933222,-1532.190996,-3330.926739,11251.130318
350.933530,-2068.457845,-3034.844362,11917.315666
350.933838,-1302.362347,-1332.370696,9400.615463
350.934145,1072.533697,592.164754,8438.347739
350.934453,2451.505594,1332.370696,7179.997637
350.934761,3294.210641,962.267725,7254.018232
350.935069,2298.286494,1184.329507,7476.080014
350.935377,842.705048,-444.123565,9178.553681
350.935685,153.219100,-222.061783,10510.924376
350.935993,-995.924147,1110.308913,9696.697840
350.936301,306.438199,1776.494261,11325.150913
350.936608,1532.190996,2516.700203,10510.924376
350.936916,2681.334243,2960.823768,9178.553681
350.937224,2528.115143,666.185348,9474.636058
350.937532,1302.362347,-888.247130,10140.821405
350.937840,-459.657299,-3108.864956,11769.274478
350.938148,-1608.800546,-3552.988522,12361.439231
350.938456,-1608.800546,-3182.885551,11917.315666
350.938764,-995.924147,-962.267725,9326.594869
350.939071,1532.190996,592.164754,8956.491898
350.939379,2681.334243,1184.329507,7402.059420
350.939687,3677.258390,1702.473667,7105.977043
350.939995,3140.991542,1110.308913,7476.080014
350.940303,1532.190996,740.205942,8142.265362
350.940611,76.609550,1258.350101,9400.615463
350.940919,0.000000,1850.514855,10362.883188
350.941227,766.095498,3108.864956,9992.780217
350.941534,2068.457845,3404.947333,9548.656652
350.941842,2451.505594,2812.782580,8882.471304
350.942150,2834.553343,740.205942,9918.759623
350.942458,766.095498,-814.226536,10732.986159
350.942766,-1532.190996,-3330.926739,11843.295072
350.943074,-2911.162892,-4145.153275,13471.748144
350.943382,-2145.067394,-3108.864956,11769.274478
350.943690,-995.924147,-1036.288319,9696.697840
350.943997,1455.581446,592.164754,7994.224174
350.944305,2911.162892,1258.350101,6809.894666
350.944613,2298.286494,1036.288319,7031.956449
350.944921,2298.286494,592.164754,7920.203579
350.945229,995.924147,148.041188,7920.203579
350.945537,-306.438199,1036.288319,9400.615463
350.945845,306.438199,1628.453072,9992.780217
350.946153,919.314598,2886.803174,9400.615463
350.946460,1915.238745,3182.885551,9844.739029
350.946768,2604.724693,1554.432478,9178.553681
350.947076,1378.971896,370.102971,8956.491898
350.947384,-229.828649,-1924.535449,11177.109724
350.947692,-1685.410096,-4293.194464,13027.624579
350.948000,-2987.772442,-3997.112087,12435.459826
350.948308,-2528.115143,-3330.926739,11547.212695
350.948616,-612.876398,-1258.350101,9696.697840
350.948924,919.314598,148.041188,8512.368333
350.949231,2911.162892,592.164754,8586.388927
350.949539,2221.676944,1258.350101,7105.977043
350.949847,1915.238745,-0.000000,8142.265362
350.950155,-229.828649,296.082377,8882.471304
350.950463,-689.485948,1480.411884,9400.615463
350.950771,0.000000,1850.514855,10807.006753
350.951079,689.485948,3923.091493,9474.636058
350.951387,2681.334243,3330.926739,9178.553681
350.951694,2451.505594,2812.782580,8142.265362
350.952002,1762.019645,814.226536,10288.862594
350.952310,0.000000,-2072.576638,11103.089130
350.952618,-2145.067394,-3256.906145,13027.624579
350.952926,-3524.039291,-4145.153275,12953.603985
350.953234,-3064.381992,-3330.926739,10658.965565
350.953542,-766.095498,-740.205942,10066.800811
350.953850,842.705048,666.185348,7846.182985
350.954157,3447.429741,1850.514855,7772.162391
350.954465,2528.115143,888.247130,7105.977043
350.954773,1532.190996,296.082377,7550.100608
350.955081,995.924147,518.144159,8882.471304
350.955389,459.657299,1554.432478,8882.471304
350.955697,383.047749,2516.700203,10066.800811
350.956005,2068.457845,3330.926739,9178.553681
350.956313,2757.943793,3552.988522,8734.430116
350.956620,2757.943793,1776.494261,9992.780217
350.956928,1455.581446,592.164754,8438.347739
350.957236,-766.095498,-2220.617826,11843.295072
350.957544,-1532.190996,-4441.235652,13767.830521
350.957852,-3064.381992,-4293.194464,11843.295072
350.958160,-2298.286494,-2590.720797,10807.006753
350.958468,-153.219100,-740.205942,8956.491898
350.958776,2068.457845,888.247130,7846.182985
350.959083,3524.039291,1184.329507,8142.265362
350.959391,2987.772442,518.144159,7550.100608
350.959699,1378.971896,370.102971,7624.121203
350.960007,612.876398,222.061783,9918.759623
350.960315,459.657299,1258.350101,9696.697840
350.960623,383.047749,2368.659014,9178.553681
350.960931,1685.410096,3108.864956,9474.636058
350.961239,2451.505594,2812.782580,9178.553681
350.961546,2068.457845,1628.453072,9030.512492
350.961854,766.095498,-222.061783,10362.883188
350.962162,-459.657299,-2516.700203,11843.295072
350.962470,-2298.286494,-3627.009116,12657.521608
350.962778,-3294.210641,-4367.215058,12731.542202
350.963086,-1915.238745,-2294.638420,10214.842000
350.963394,0.000000,296.082377,8512.368333
350.963702,2374.896044,1406.391290,8142.265362
350.964010,3447.429741,1406.391290,6291.750507
350.964317,3140.991542,1332.370696,6883.915261
350.964625,1302.362347,1036.288319,8512.368333
350.964933,1532.190996,518.144159,9474.636058
350.965241,459.657299,1998.556043,10510.924376
350.965549,306.438199,2368.659014,9918.759623
350.965857,1762.019645,2516.700203,9252.574275
350.966165,2145.067394,2664.741391,8882.471304
350.966473,1685.410096,518.144159,9548.656652
350.966780,919.314598,-814.226536,10510.924376
350.967088,-536.266849,-2812.782580,11769.274478
350.967396,-3064.381992,-4219.173869,12731.542202
350.967704,-2834.553343,-3034.844362,10955.047942
350.968012,-1072.533697,-1628.453072,10732.986159
350.968320,919.314598,370.102971,8734.430116
350.968628,2911.162892,1554.432478,7105.977043
350.968936,3217.601092,1628.453072,7254.018232
350.969243,2374.896044,296.082377,7105.977043
350.969551,842.705048,1110.308913,8290.306550
350.969859,689.485948,444.123565,10288.862594
350.970167,689.485948,1110.308913,10510.924376
350.970475,919.314598,2294.638420,9400.615463
350.970783,1915.238745,2664.741391,9474.636058
350.971091,2451.505594,1480.411884,9548.656652
350.971399,2604.724693,1184.329507,8660.409521
350.971706,153.219100,-962.267725,10066.800811
350.972014,-1378.971896,-3478.967927,12139.377449
350.972322,-2374.896044,-3182.885551,11547.212695
350.972630,-2528.115143,-2146.597232,10807.006753
350.972938,-1225.752797,-2072.576638,10881.027347
350.973246,1149.143247,370.102971,8734.430116
350.973554,2451.505594,1332.370696,8438.347739
350.973862,1838.629195,962.267725,7846.182985
350.974169,1991.848295,444.123565,8290.306550
350.974477,766.095498,814.226536,9104.533087
350.974785,153.219100,962.267725,10140.821405
350.975093,459.657299,1924.535449,9400.615463
350.975401,1532.190996,2738.761985,9474.636058
350.975709,2451.505594,3108.864956,8512.368333
350.976017,2681.334243,2294.638420,7846.182985
350.976325,2221.676944,814.226536,10140.821405
350.976632,-536.266849,-1554.432478,11029.068536
350.976940,-2451.505594,-3034.844362,12139.377449
350.977248,-3677.258390,-3775.050304,13471.748144
350.977556,-2911.162892,-2146.597232,11325.150913
350.977864,-1455.581446,-592.164754,9992.780217
350.978172,1225.752797,814.226536,9326.594869
350.978480,2987.772442,1776.494261,7624.121203
350.978788,2221.676944,1554.432478,7105.977043
350.979096,2068.457845,296.082377,8364.327145
350.979403,1149.143247,444.123565,9030.512492
350.979711,76.609550,1850.514855,9030.512492
350.980019,689.485948,1702.473667,10288.862594
350.980327,1915.238745,2960.823768,8660.409521
350.980635,2681.334243,3627.009116,8512.368333
350.980943,3140.991542,2146.597232,8734.430116
350.981251,1991.848295,592.164754,9474.636058
350.981559,0.000000,-1998.556043,11547.212695
350.981866,-1838.629195,-3701.029710,12065.356855
350.982174,-3370.820191,-3552.988522,11843.295072
350.982482,-2604.724693,-3627.009116,11473.192101
350.982790,-459.657299,-1110.308913,10140.821405
350.983098,1838.629195,666.185348,8438.347739
350.983406,2604.724693,1554.432478,7476.080014
350.983714,2834.553343,740.205942,8068.244768
350.984022,1225.752797,592.164754,8512.368333
350.984329,383.047749,-222.061783,10362.883188
350.984637,-306.438199,1332.370696,10362.883188
350.984945,-383.047749,2368.659014,10140.821405
350.985253,1455.581446,2664.741391,10140.821405
350.985561,2451.505594,3256.906145,8660.409521
350.985869,2834.553343,3034.844362,9030.512492
350.986177,1838.629195,740.205942,10214.842000
350.986485,-229.828649,-1554.432478,11547.212695
350.986792,-2145.067394,-3330.926739,12805.562797
350.987100,-3294.210641,-3552.988522,11843.295072
350.987408,-2221.676944,-2368.659014,10510.924376
350.987716,-612.876398,-370.102971,9622.677246
350.988024,2298.286494,666.185348,8660.409521
350.988332,2834.553343,1184.329507,6883.915261
350.988640,2221.676944,1406.391290,7402.059420
350.988948,2145.067394,444.123565,8364.327145
350.989255,842.705048,1332.370696,8512.368333
350.989563,612.876398,1554.432478,10510.924376
350.989871,1149.143247,2220.617826,9104.533087
350.990179,2221.676944,3552.988522,8290.306550
350.990487,3217.601092,2960.823768,8660.409521
350.990795,2911.162892,2294.638420,8512.368333
350.991103,1838.629195,-370.102971,9770.718434
350.991411,-689.485948,-2886.803174,11547.212695
350.991719,-2298.286494,-4441.235652,11843.295072
350.992026,-3370.820191,-4293.194464,11843.295072
350.992334,-2374.896044,-3108.864956,11251.130318
350.992642,-153.219100,-1332.370696,8734.430116
350.992950,1915.238745,296.082377,7920.203579
350.993258,3140.991542,296.082377,7550.100608
350.993566,2911.162892,370.102971,6735.874072
350.993874,2145.067394,444.123565,8068.244768
350.994182,306.438199,148.041188,9622.677246
350.994489,459.657299,1036.288319,9326.594869
350.994797,1378.971896,2294.638420,9622.677246
350.995105,2528.115143,3256.906145,7994.224174
350.995413,3064.381992,3404.947333,7624.121203
350.995721,3140.991542,1850.514855,8956.491898
350.996029,1608.800546,-74.020594,9400.615463
350.996337,-1378.971896,-2220.617826,11695.253884
350.996645,-2757.943793,-4071.132681,12287.418637
350.996952,-3447.429741,-3775.050304,12287.418637
350.997260,-2834.553343,-2368.659014,10584.944971
350.997568,-383.047749,-370.102971,9696.697840
350.997876,1838.629195,518.144159,8734.430116
350.998184,2298.286494,1110.308913,7328.038826
350.998492,1608.800546,592.164754,8068.244768
350.998800,995.924147,-0.000000,8882.471304
350.999108,383.047749,962.267725,10140.821405
350.999415,766.095498,1702.473667,10066.800811
350.999723,1302.362347,2960.823768,9178.553681
351.000031,2834.553343,3701.029710,8290.306550
351.000339,3294.210641,3404.947333,8734.430116
351.000647,2451.505594,1406.391290,9178.553681
351.000955,1149.143247,-1184.329507,11251.130318
351.001263,-1532.190996,-2960.823768,12287.418637
351.001571,-3983.696590,-3775.050304,12879.583391
351.001878,-3370.820191,-3404.947333,12361.439231
351.002186,-1608.800546,-1332.370696,10732.986159
351.002494,0.000000,148.041188,9030.512492
351.002802,2298.286494,740.205942,8290.306550
351.003110,2834.553343,1258.350101,7105.977043
351.003418,2298.286494,1702.473667,7328.038826
351.003726,1225.752797,-74.020594,9104.533087
351.004034,153.219100,592.164754,10214.842000
351.004341,689.485948,1036.288319,10658.965565
351.004649,995.924147,2738.761985,9326.594869
351.004957,2528.115143,3182.885551,8586.388927
351.005265,2834.553343,2516.700203,9474.636058
351.005573,2221.676944,1110.308913,9696.697840
351.005881,1149.143247,-666.185348,10214.842000
351.006189,-536.266849,-2590.720797,10807.006753
351.006497,-1838.629195,-3182.885551,11843.295072
351.006805,-2604.724693,-2590.720797,11177.109724
351.007112,-459.657299,-592.164754,10732.986159
351.007420,1072.533697,962.267725,8364.327145
351.007728,1991.848295,1258.350101,7846.182985
351.008036,2298.286494,1332.370696,7698.141797
351.008344,995.924147,518.144159,8290.306550
351.008652,306.438199,74.020594,9474.636058
351.008960,-1225.752797,-0.000000,11103.089130
351.009268,0.000000,1110.308913,11251.130318
351.009575,766.095498,2146.597232,9844.739029
351.009883,2757.943793,3330.926739,8808.450710
351.010191,2834.553343,2442.679609,9178.553681
351.010499,2604.724693,814.226536,9252.574275
351.010807,1378.971896,-962.267725,10584.944971
351.011115,-1455.581446,-2812.782580,10732.986159
351.011423,-1915.238745,-3256.906145,11769.274478
351.011731,-1991.848295,-2368.659014,10140.821405
351.012038,-383.047749,-666.185348,9400.615463
351.012346,1149.143247,-0.000000,8290.306550
351.012654,2145.067394,518.144159,7920.203579
351.012962,2145.067394,814.226536,7550.100608
351.013270,1608.800546,-222.061783,7179.997637
351.013578,0.000000,-296.082377,9474.636058
351.013886,-76.609550,-0.000000,10584.944971
351.014194,536.266849,1184.329507,9622.677246
351.014501,1532.190996,2960.823768,8660.409521
351.014809,3064.381992,3330.926739,8586.388927
351.015117,2987.772442,2294.638420,9178.553681
351.015425,2298.286494,296.082377,9474.636058
351.015733,306.438199,-2220.617826,10584.944971
351.016041,-1608.800546,-2886.803174,11621.233289
351.016349,-2757.943793,-3849.070898,11843.295072
351.016657,-2221.676944,-1924.535449,10288.862594
351.016964,76.609550,-592.164754,9178.553681
351.017272,1225.752797,888.247130,8512.368333
351.017580,2528.115143,444.123565,7994.224174
351.017888,2757.943793,1258.350101,7179.997637
351.018196,612.876398,370.102971,8512.368333
351.018504,383.047749,666.185348,10288.862594
351.018812,-306.438199,740.205942,10214.842000
351.019120,536.266849,1776.494261,10807.006753
351.019427,1455.581446,2960.823768,8290.306550
351.019735,2987.772442,3552.988522,9178.553681
351.020043,3524.039291,1628.453072,10066.800811
351.020351,1608.800546,888.247130,8956.491898
351.020659,0.000000,-1924.535449,11621.233289
351.020967,-1608.800546,-2664.741391,11991.336260
351.021275,-2145.067394,-2590.720797,11399.171507
351.021583,-1915.238745,-1702.473667,11251.130318
351.021891,612.876398,-296.082377,9400.615463
351.022198,1532.190996,814.226536,8290.306550
351.022506,1608.800546,444.123565,8142.265362
351.022814,1455.581446,296.082377,8364.327145
351.023122,766.095498,296.082377,8142.265362
351.023430,-306.438199,-0.000000,11103.089130
351.023738,-306.438199,740.205942,10288.862594
351.024046,612.876398,2368.659014,9326.594869
351.024354,2145.067394,3256.906145,9030.512492
351.024661,3217.601092,3256.906145,8438.347739
351.024969,3524.039291,1998.556043,9548.656652
351.025277,2068.457845,-222.061783,9696.697840
351.025585,-306.438199,-1924.535449,11029.068536
351.025893,-1532.190996,-3478.967927,12213.398043
351.026201,-2068.457845,-3404.947333,11547.212695
351.026509,-2068.457845,-1406.391290,9770.718434
351.026817,306.438199,-592.164754,9474.636058
351.027124,2068.457845,444.123565,7846.182985
351.027432,1838.629195,1406.391290,6291.750507
351.027740,1762.019645,-0.000000,8364.327145
351.028048,919.314598,-370.102971,9770.718434
351.028356,-459.657299,296.082377,10140.821405
351.028664,-306.438199,1258.350101,10214.842000
351.028972,1149.143247,2442.679609,9400.615463
351.029280,2221.676944,3552.988522,8734.430116
351.029587,3294.210641,3923.091493,9030.512492
351.029895,3524.039291,1554.432478,8956.491898
351.030203,1225.752797,296.082377,9030.512492
351.030511,-153.219100,-2368.659014,11103.089130
351.030819,-1915.238745,-3478.967927,12657.521608
351.031127,-2604.724693,-3552.988522,12361.439231
351.031435,-1532.190996,-1998.556043,10362.883188
351.031743,919.314598,-222.061783,8512.368333
351.032050,1991.848295,962.267725,7031.956449
351.032358,2681.334243,814.226536,6957.935855
351.032666,2451.505594,592.164754,7846.182985
351.032974,536.266849,-0.000000,8882.471304
351.033282,-306.438199,-222.061783,10066.800811
351.033590,0.000000,1480.411884,9918.759623
351.033898,919.314598,2368.659014,10066.800811
351.034206,2145.067394,2738.761985,9326.594869
351.034514,2451.505594,2590.720797,9474.636058
351.034821,2451.505594,518.144159,9992.780217
351.035129,383.047749,-814.226536,9918.759623
351.035437,-1072.533697,-2738.761985,11843.295072
351.035745,-2451.505594,-3997.112087,12361.439231
351.036053,-1991.848295,-2960.823768,11695.253884
351.036361,-842.705048,-1184.329507,9622.677246
351.036669,995.924147,592.164754,7772.162391
351.036977,2834.553343,1480.411884,7105.977043
351.037285,2528.115143,1332.370696,6587.832884
351.037593,1685.410096,1184.329507,7846.182985
351.037900,919.314598,-74.020594,8438.347739
351.038208,-612.876398,222.061783,10140.821405
351.038516,-1225.752797,1258.350101,10955.047942
351.038824,459.657299,2146.597232,11029.068536
351.039132,1072.533697,3256.906145,9622.677246
351.039440,2068.457845,1924.535449,10362.883188
351.039748,1991.848295,888.247130,8956.491898
351.040056,229.828649,-1036.288319,10732.986159
351.040364,-1685.410096,-2812.782580,12583.501014
351.040672,-2145.067394,-3404.947333,11695.253884
351.040980,-2221.676944,-1924.535449,10955.047942
351.041287,-229.828649,-1036.288319,9326.594869
351.041595,2068.457845,1406.391290,7550.100608
351.041903,2451.505594,2072.576638,6957.935855
351.042211,3753.867940,1480.411884,6883.915261
351.042519,2221.676944,1332.370696,7402.059420
351.042827,689.485948,518.144159,8808.450710
351.043135,-306.438199,74.020594,9548.656652
351.043443,-229.828649,1702.473667,9918.759623
351.043751,995.924147,1628.453072,10510.924376
351.044059,1915.238745,2294.638420,9918.759623
351.044366,1915.238745,1628.453072,9992.780217
351.044674,1455.581446,-0.000000,10436.903782
351.044982,-383.047749,-1998.556043,11103.089130
351.045290,-1302.362347,-3552.988522,12731.542202
351.045598,-2604.724693,-3034.844362,12065.356855
351.045906,-1991.848295,-2664.741391,11325.150913
351.046214,0.000000,-296.082377,9252.574275
351.046522,1838.629195,1184.329507,8142.265362
351.046830,2757.943793,1554.432478,7105.977043
351.047138,3294.210641,1036.288319,7105.977043
351.047445,2068.457845,1406.391290,7772.162391
351.047753,306.438199,222.061783,8808.450710
351.048061,76.609550,888.247130,10732.986159
351.048369,76.609550,1480.411884,10362.883188
351.048677,1302.362347,2664.741391,9326.594869
351.048985,2145.067394,2516.700203,9104.533087
351.049293,3524.039291,1554.432478,9178.553681
351.049601,1991.848295,444.123565,9400.615463
351.049909,0.000000,-1924.535449,10584.944971
351.050217,-919.314598,-3108.864956,11843.295072
351.050524,-2604.724693,-2368.659014,11843.295072
351.050832,-1685.410096,-2368.659014,11325.150913
351.051140,-229.828649,-444.123565,9400.615463
351.051448,1762.019645,666.185348,8290.306550
351.051756,2528.115143,740.205942,7476.080014
351.052064,1455.581446,1110.308913,6809.894666
351.052372,766.095498,-74.020594,9548.656652
351.052680,153.219100,-518.144159,11103.089130
351.052988,-842.705048,666.185348,9696.697840
351.053296,-919.314598,2146.597232,9918.759623
351.053604,1762.019645,1924.535449,10881.027347
351.053911,2757.943793,3478.967927,8586.388927
351.054219,2681.334243,1554.432478,9400.615463
351.054527,2374.896044,814.226536,8438.347739
351.054835,229.828649,-1702.473667,9844.739029
351.055143,-919.314598,-2664.741391,12287.418637
351.055451,-2145.067394,-2886.803174,11473.192101
351.055759,-612.876398,-1332.370696,10658.965565
351.056067,459.657299,-518.144159,8882.471304
351.056375,2145.067394,1036.288319,7624.121203
351.056683,3294.210641,518.144159,7772.162391
351.056990,2068.457845,518.144159,7846.182985
351.057298,1685.410096,296.082377,8882.471304
351.057606,-383.047749,-0.000000,9696.697840
351.057914,-919.314598,444.123565,10955.047942
351.058222,0.000000,1628.453072,10510.924376
351.058530,1915.238745,2812.782580,9844.739029
351.058838,2374.896044,1998.556043,9474.636058
351.059146,2451.505594,1258.350101,8956.491898
351.059454,1685.410096,-296.082377,10510.924376
351.059762,-612.876398,-2590.720797,11621.233289
351.060069,-1915.238745,-2590.720797,12509.480420
351.060377,-2221.676944,-3182.885551,11843.295072
351.060685,-1455.581446,-1554.432478,9844.739029
351.060993,612.876398,-148.041188,8512.368333
351.061301,2604.724693,1110.308913,7624.121203
351.061609,2451.505594,1628.453072,7105.977043
351.061917,2298.286494,518.144159,6809.894666
351.062225,1072.533697,592.164754,7698.141797
351.062533,689.485948,444.123565,9696.697840
351.062841,-612.876398,1554.432478,9474.636058
351.063148,842.705048,2220.617826,10288.862594
351.063456,1455.581446,2664.741391,9696.697840
351.063764,1302.362347,2146.597232,9400.615463
351.064072,1838.629195,518.144159,9918.759623
351.064380,1225.752797,-1036.288319,10288.862594
351.064688,-766.095498,-2368.659014,11695.253884
351.064996,-1532.190996,-3701.029710,12805.562797
351.065304,-2068.457845,-2886.803174,11251.130318
351.065612,-1072.533697,-1406.391290,9548.656652
351.065920,919.314598,-0.000000,9178.553681
351.066228,2834.553343,1110.308913,7624.121203
351.066535,2834.553343,1332.370696,6513.812290
351.066843,1838.629195,814.226536,8142.265362
351.067151,2068.457845,888.247130,8364.327145
351.067459,-612.876398,1258.350101,9178.553681
351.067767,-153.219100,1702.473667,10214.842000
351.068075,1455.581446,2442.679609,10362.883188
351.068383,1991.848295,3108.864956,8734.430116
351.068691,2374.896044,2294.638420,9770.718434
351.068999,2145.067394,296.082377,10066.800811
351.069307,153.219100,-962.267725,11177.109724
351.069614,-2068.457845,-3108.864956,13249.686362
351.069922,-2145.067394,-3997.112087,12879.583391
351.070230,-3064.381992,-2664.741391,10881.027347
351.070538,-995.924147,-1554.432478,10881.027347
351.070846,1378.971896,592.164754,8512.368333
351.071154,2145.067394,1184.329507,7846.182985
351.071462,2757.943793,1036.288319,7994.224174
351.071770,2068.457845,962.267725,7328.038826
351.072078,995.924147,1554.432478,8660.409521
351.072386,153.219100,888.247130,9696.697840
351.072693,459.657299,2294.638420,9548.656652
351.073001,1608.800546,2886.803174,9474.636058
351.073309,2145.067394,2886.803174,9474.636058
351.073617,2528.115143,2072.576638,8808.450710
351.073925,1072.533697,592.164754,9992.780217
351.074233,536.266849,-2072.576638,11769.274478
351.074541,-2987.772442,-3256.906145,11769.274478
351.074849,-2834.553343,-4071.132681,13027.624579
351.075157,-2528.115143,-3108.864956,11399.171507
351.075465,-842.705048,-888.247130,8808.450710
351.075773,1532.190996,444.123565,8808.450710
351.076080,2911.162892,1480.411884,6957.935855
351.076388,3447.429741,444.123565,6809.894666
351.076696,1762.019645,1110.308913,7550.100608
351.077004,1072.533697,1036.288319,8808.450710
351.077312,766.095498,1110.308913,9474.636058
351.077620,459.657299,2590.720797,9030.512492
351.077928,1838.629195,2812.782580,9844.739029
351.078236,2451.505594,2738.761985,8956.491898
351.078544,2298.286494,1850.514855,8734.430116
351.078852,1302.362347,-0.000000,9918.759623
351.079159,0.000000,-2072.576638,11177.109724
351.079467,-2298.286494,-3478.967927,13101.645173
351.079775,-3140.991542,-3552.988522,11251.130318
351.080083,-1685.410096,-2516.700203,11251.130318
351.080391,306.438199,-222.061783,9178.553681
351.080699,2068.457845,1110.308913,8068.244768
351.081007,3524.039291,962.267725,7105.977043
351.081315,3294.210641,666.185348,7105.977043
351.081623,2145.067394,666.185348,7920.203579
351.081931,1455.581446,370.102971,8660.409521
351.082238,689.485948,592.164754,9918.759623
351.082546,153.219100,1258.350101,10288.862594
351.082854,1072.533697,2368.659014,9844.739029
351.083162,2451.505594,2368.659014,9696.697840
351.083470,1991.848295,1776.494261,9178.553681
351.083778,153.219100,444.123565,10584.944971
351.084086,0.000000,-2516.700203,12139.377449
351.084394,-2451.505594,-2590.720797,11695.253884
351.084702,-3064.381992,-2220.617826,11843.295072
351.085010,-995.924147,-1258.350101,10362.883188
351.085317,153.219100,740.205942,8808.450710
351.085625,1762.019645,1554.432478,7920.203579
351.085933,3294.210641,1702.473667,7254.018232
351.086241,2221.676944,1406.391290,6883.915261
351.086549,306.438199,888.247130,7328.038826
351.086857,153.219100,-0.000000,9918.759623
351.087165,-689.485948,962.267725,10066.800811
351.087473,-689.485948,1258.350101,10288.862594
351.087781,919.314598,1924.535449,10140.821405
351.088089,1072.533697,1480.411884,9918.759623
351.088397,1762.019645,666.185348,9770.718434
351.088704,842.705048,-592.164754,9844.739029
351.089012,-1072.533697,-2442.679609,12065.356855
351.089320,-2145.067394,-3478.967927,11103.089130
351.089628,-2528.115143,-2146.597232,11621.233289
351.089936,-1225.752797,-1110.308913,11769.274478
351.090244,306.438199,222.061783,9178.553681
351.090552,2374.896044,1924.535449,7698.141797
351.090860,3294.210641,1628.453072,7179.997637
351.091168,2987.772442,1406.391290,7031.956449
351.091476,1378.971896,1332.370696,7920.203579
351.091783,766.095498,296.082377,10436.903782
351.092091,76.609550,1036.288319,9696.697840
351.092399,306.438199,2368.659014,9696.697840
351.092707,1685.410096,2072.576638,10066.800811
351.093015,2068.457845,2072.576638,9252.574275
351.093323,1685.410096,444.123565,10584.944971
351.093631,1149.143247,-1258.350101,9918.759623
351.093939,-153.219100,-1924.535449,10807.006753
351.094247,-2145.067394,-3404.947333,12583.501014
351.094555,-2451.505594,-2072.576638,11621.233289
351.094862,-766.095498,-740.205942,10955.047942
351.095170,1149.143247,370.102971,9104.533087
351.095478,2528.115143,1776.494261,7254.018232
351.095786,2911.162892,1998.556043,7254.018232
351.096094,2221.676944,1036.288319,7624.121203
351.096402,1838.629195,-0.000000,8882.471304
351.096710,-306.438199,518.144159,9252.574275
351.097018,-383.047749,592.164754,9992.780217
351.097326,766.095498,1702.473667,9400.615463
351.097634,1915.238745,2738.761985,9030.512492
351.097942,2451.505594,2220.617826,8882.471304
351.098249,2221.676944,888.247130,8512.368333
351.098557,1302.362347,-962.267725,10658.965565
351.098865,-1532.190996,-2442.679609,11621.233289
351.099173,-2987.772442,-3849.070898,11917.315666
351.099481,-2298.286494,-3034.844362,11251.130318
351.099789,-1455.581446,-1332.370696,10362.883188
351.100097,153.219100,-370.102971,9548.656652
351.100405,1915.238745,-0.000000,8142.265362
351.100713,2374.896044,740.205942,7402.059420
351.101021,1378.971896,-222.061783,7328.038826
351.101328,766.095498,-296.082377,9474.636058
351.101636,229.828649,-518.144159,10214.842000
351.101944,-766.095498,962.267725,8660.409521
351.102252,1225.752797,2146.597232,9474.636058
351.102560,3217.601092,3182.885551,9178.553681
351.102868,3140.991542,2886.803174,8068.244768
351.103176,3217.601092,1554.432478,8438.347739
351.103484,2451.505594,148.041188,8956.491898
351.103792,-536.266849,-1850.514855,10732.986159
351.104100,-1838.629195,-2516.700203,11177.109724
351.104407,-1302.362347,-1924.535449,11843.295072
351.104715,-1225.752797,-888.247130,10510.924376
351.105023,229.828649,-0.000000,9474.636058
351.105331,1608.800546,740.205942,8216.285956
351.105639,1532.190996,148.041188,8438.347739
351.105947,842.705048,-0.000000,9104.533087
351.106255,229.828649,-0.000000,9696.697840
351.106563,0.000000,222.061783,10881.027347
351.106871,0.000000,1628.453072,10362.883188
351.107179,1378.971896,3108.864956,9770.718434
351.107486,2987.772442,3627.009116,9696.697840
351.107794,3677.258390,3330.926739,8290.306550
351.108102,3140.991542,2072.576638,8808.450710
351.108410,995.924147,-0.000000,9770.718434
351.108718,-153.219100,-1776.494261,11843.295072
351.109026,-2298.286494,-2146.597232,11695.253884
351.109334,-2221.676944,-2368.659014,11695.253884
351.109642,-1072.533697,-1406.391290,10732.986159
351.109950,153.219100,-0.000000,9992.780217
351.110258,1455.581446,-0.000000,9030.512492
351.110566,1991.848295,666.185348,7698.141797
351.110873,1149.143247,666.185348,8438.347739
351.111181,612.876398,-0.000000,10510.924376
351.111489,-459.657299,814.226536,9474.636058
351.111797,383.047749,2072.576638,10214.842000
351.112105,1991.848295,2442.679609,9178.553681
351.112413,2068.457845,3108.864956,8142.265362
351.112721,2757.943793,1628.453072,9474.636058
351.113029,1608.800546,-0.000000,8512.368333
351.113337,-229.828649,-1406.391290,10732.986159
351.113645,-1532.190996,-3404.947333,12435.459826
351.113952,-2757.943793,-3552.988522,11843.295072
351.114260,-2987.772442,-2516.700203,11695.253884
351.114568,-919.314598,-1628.453072,10362.883188
351.114876,842.705048,296.082377,9252.574275
351.115184,2068.457845,814.226536,7476.080014
351.115492,2451.505594,1406.391290,6217.729913
351.115800,1685.410096,1110.308913,7476.080014
351.116108,1149.143247,1184.329507,8882.471304
351.116416,1072.533697,1998.556043,9992.780217
351.116724,919.314598,2738.761985,9696.697840
351.117031,2068.457845,2220.617826,8808.450710
351.117339,2374.896044,2442.679609,8660.409521
351.117647,2681.334243,1258.350101,9252.574275
351.117955,766.095498,-1332.370696,9918.759623
351.118263,-612.876398,-2664.741391,11103.089130
351.118571,-1838.629195,-3478.967927,11325.150913
351.118879,-2911.162892,-3182.885551,12805.562797
351.119187,-1762.019645,-2072.576638,11695.253884
351.119495,0.000000,-1258.350101,10362.883188
351.119803,1225.752797,592.164754,8290.306550
351.120110,2757.943793,888.247130,6883.915261
351.120418,1762.019645,1184.329507,6143.709319
351.120726,1455.581446,1702.473667,8586.388927
351.121034,2221.676944,-0.000000,10807.006753
351.121342,-1915.238745,3108.864956,8438.347739
351.121650,1685.410096,888.247130,11325.150913
351.121958,1302.362347,3034.844362,9474.636058
351.122266,1685.410096,2516.700203,9474.636058
351.122574,2681.334243,740.205942,10362.883188
351.122882,1072.533697,-0.000000,9400.615463
351.123190,-306.438199,-2738.761985,12065.356855
351.123497,-2604.724693,-3034.844362,11103.089130
351.123805,-2528.115143,-2294.638420,12657.521608
351.124113,-1838.629195,-1924.535449,11103.089130
351.124421,306.438199,-370.102971,9326.594869
351.124729,1378.971896,1554.432478,8290.306550
351.125037,2221.676944,518.144159,6957.935855
351.125345,2451.505594,1776.494261,7846.182985
351.125653,919.314598,1480.411884,8142.265362
351.125961,1378.971896,740.205942,9918.759623
351.126269,0.000000,1998.556043,9696.697840
351.126576,1378.971896,2590.720797,9844.739029
351.126884,2451.505594,2146.597232,9474.636058
351.127192,2911.162892,3034.844362,8142.265362
351.127500,3907.087040,888.247130,9622.677246
351.127808,1532.190996,-666.185348,9104.533087
351.128116,-383.047749,-2368.659014,11325.150913
351.128424,-1685.410096,-2738.761985,11695.253884
351.128732,-1991.848295,-2368.659014,12065.356855
351.129040,-766.095498,-1998.556043,11103.089130
351.129348,306.438199,-0.000000,8882.471304
351.129655,2145.067394,-0.000000,8438.347739
351.129963,2068.457845,740.205942,6809.894666
351.130271,1532.190996,370.102971,7846.182985
351.130579,459.657299,444.123565,9474.636058
351.130887,0.000000,222.061783,10732.986159
351.131195,-536.266849,666.185348,10066.800811
351.131503,612.876398,1776.494261,9918.759623
351.131811,2451.505594,1776.494261,9918.759623
351.132119,3140.991542,1702.473667,8216.285956
351.132427,2757.943793,1110.308913,8734.430116
351.132731,1685.410096,-444.123565,9696.697840
351.133039,-766.095498,-1924.535449,10066.800811
351.133347,-1685.410096,-1924.535449,11695.253884
351.133655,-612.876398,-1776.494261,11325.150913
351.133963,-612.876398,-148.041188,9474.636058
351.134270,229.828649,444.123565,9030.512492
351.134578,1915.238745,592.164754,7846.182985
351.134886,995.924147,1110.308913,7105.977043
351.135194,0.000000,-222.061783,8512.368333
351.135502,-383.047749,-222.061783,10140.821405
351.135810,-1302.362347,-74.020594,11103.089130
351.136118,-1991.848295,148.041188,10881.027347
351.136426,229.828649,1776.494261,11103.089130
351.136734,1838.629195,2146.597232,9474.636058
351.137041,2298.286494,1554.432478,8660.409521
351.137349,2298.286494,1184.329507,8438.347739
351.137657,1915.238745,-1036.288319,9474.636058
351.137965,-612.876398,-1184.329507,10732.986159
351.138273,-995.924147,-1776.494261,11399.171507
351.138581,-919.314598,-1554.432478,11029.068536
351.138889,-153.219100,-370.102971,9770.718434
351.139197,1915.238745,-0.000000,8882.471304
351.139504,2298.286494,1554.432478,6809.894666
351.139812,2145.067394,370.102971,7476.080014
351.140120,1225.752797,-0.000000,8956.491898
351.140428,76.609550,370.102971,10214.842000
351.140736,-536.266849,-148.041188,10807.006753
351.141044,76.609550,962.267725,10436.903782
351.141352,1378.971896,2368.659014,9992.780217
351.141660,2451.505594,2146.597232,9326.594869
351.141968,2681.334243,1850.514855,9326.594869
351.142275,1915.238745,814.226536,9178.553681
351.142583,153.219100,-1332.370696,11103.089130
351.142891,-689.485948,-1998.556043,11991.336260
351.143199,-1762.019645,-2516.700203,11473.192101
351.143507,-1302.362347,-1924.535449,11843.295072
351.143815,-229.828649,-222.061783,9252.574275
351.144123,919.314598,740.205942,8364.327145
351.144431,1915.238745,666.185348,8808.450710
351.144739,2145.067394,740.205942,6587.832884
351.145046,1149.143247,740.205942,7994.224174
351.145354,229.828649,888.247130,9992.780217
351.145662,229.828649,1332.370696,10214.842000
351.145970,919.314598,2368.659014,9548.656652
351.146278,1991.848295,2664.741391,9696.697840
351.146586,2911.162892,2812.782580,8586.388927
351.146894,2681.334243,1998.556043,9104.533087
351.147202,2221.676944,-0.000000,9474.636058
351.147509,-383.047749,-1184.329507,9992.780217
351.147817,-1302.362347,-3404.947333,12139.377449
351.148125,-2221.676944,-2442.679609,11695.253884
351.148433,-1762.019645,-2812.782580,11547.212695
351.148741,-153.219100,-1332.370696,10288.862594
351.149049,612.876398,-0.000000,7920.203579
351.149357,1302.362347,666.185348,8290.306550
351.149665,1072.533697,-666.185348,8364.327145
351.149973,0.000000,296.082377,8956.491898
351.150280,-383.047749,148.041188,11325.150913
351.150588,153.219100,222.061783,9992.780217
351.150896,-306.438199,2442.679609,8956.491898
351.151204,2451.505594,1702.473667,10362.883188
351.151512,3677.258390,2738.761985,8142.265362
351.151820,2757.943793,2146.597232,7698.141797
351.152128,3140.991542,296.082377,8734.430116
351.152436,919.314598,-1332.370696,9474.636058
351.152744,-689.485948,-2220.617826,11029.068536
351.153051,-1455.581446,-2812.782580,11769.274478
351.153359,-612.876398,-1776.494261,10658.965565
351.153667,0.000000,-592.164754,9474.636058
351.153975,1149.143247,592.164754,8364.327145
351.154283,2068.457845,888.247130,7994.224174
351.154591,1455.581446,740.205942,7920.203579
351.154899,766.095498,370.102971,9178.553681
351.155207,-153.219100,592.164754,9918.759623
351.155514,536.266849,740.205942,10658.965565
351.155822,306.438199,1776.494261,9696.697840
351.156130,1838.629195,2812.782580,9548.656652
351.156438,2987.772442,2072.576638,9474.636058
351.156746,2374.896044,1258.350101,8956.491898
351.157054,1378.971896,-296.082377,9844.739029
351.157362,0.000000,-1998.556043,10584.944971
351.157670,-612.876398,-2590.720797,11103.089130
351.157978,-842.705048,-2220.617826,11473.192101
351.158285,0.000000,-1554.432478,10140.821405
351.158593,0.000000,-444.123565,9474.636058
351.158901,2068.457845,296.082377,9030.512492
351.159209,2068.457845,1406.391290,7105.977043
351.159517,1455.581446,962.267725,8216.285956
351.159825,229.828649,-666.185348,9326.594869
351.160133,-459.657299,1554.432478,10066.800811
351.160441,-612.876398,1480.411884,11251.130318
351.160749,229.828649,1998.556043,9844.739029
351.161056,1149.143247,2812.782580,9770.718434
351.161364,2068.457845,1998.556043,9918.759623
351.161672,1762.019645,740.205942,9178.553681
351.161980,229.828649,-888.247130,10288.862594
351.162288,-612.876398,-2886.803174,12213.398043
351.162596,-2068.457845,-2146.597232,11621.233289
351.162904,-2221.676944,-2146.597232,11621.233289
351.163212,-842.705048,-1184.329507,11325.150913
351.163519,766.095498,592.164754,8734.430116
351.163827,2374.896044,1480.411884,7105.977043
351.164135,2757.943793,1480.411884,7105.977043
351.164443,1915.238745,1036.288319,6291.750507
351.164751,1072.533697,962.267725,8734.430116
351.165059,536.266849,888.247130,9992.780217
351.165367,76.609550,1258.350101,9548.656652
351.165675,229.828649,1184.329507,10288.862594
351.165983,1532.190996,1850.514855,9770.718434
351.166290,1302.362347,888.247130,9474.636058
351.166598,1225.752797,-0.000000,10288.862594
351.166906,0.000000,-1850.514855,10732.986159
351.167214,-1608.800546,-2886.803174,11695.253884
351.167522,-1838.629195,-2738.761985,10955.047942
351.167830,-1455.581446,-2368.659014,11695.253884
351.168138,536.266849,-518.144159,9548.656652
351.168446,1378.971896,962.267725,7698.141797
351.168754,2298.286494,1184.329507,7624.121203
351.169061,2451.505594,888.247130,7624.121203
351.169369,919.314598,1036.288319,7402.059420
351.169677,459.657299,370.102971,8882.471304
351.169985,383.047749,962.267725,9548.656652
351.170293,0.000000,1332.370696,10140.821405
351.170601,0.000000,1850.514855,10510.924376
351.170909,1762.019645,2146.597232,9992.780217
351.171217,1762.019645,1480.411884,9622.677246
351.171524,1302.362347,-444.123565,9696.697840
351.171832,153.219100,-1480.411884,10510.924376
351.172140,-1532.190996,-2960.823768,11473.192101
351.172448,-1838.629195,-2516.700203,11473.192101
351.172756,-459.657299,-1924.535449,11029.068536
351.173064,306.438199,-222.061783,10140.821405
351.173372,1455.581446,814.226536,8290.306550
351.173680,2528.115143,1554.432478,7105.977043
351.173988,2834.553343,1332.370696,7179.997637
351.174295,1685.410096,444.123565,7550.100608
351.174603,459.657299,1258.350101,8068.244768
351.174911,766.095498,888.247130,10288.862594
351.175219,0.000000,1998.556043,9548.656652
351.175527,1762.019645,1998.556043,10066.800811
351.175835,2528.115143,2294.638420,9474.636058
351.176143,2374.896044,1258.350101,8808.450710
351.176451,1838.629195,444.123565,9474.636058
351.176758,-153.219100,-666.185348,10732.986159
351.177066,-612.876398,-1776.494261,11843.295072
351.177374,-1685.410096,-1480.411884,11103.089130
351.177682,-766.095498,-222.061783,10881.027347
351.177990,0.000000,592.164754,9178.553681
351.178298,689.485948,1776.494261,7994.224174
351.178606,689.485948,888.247130,8882.471304
351.178914,-1225.752797,-0.000000,8808.450710
351.179222,-1991.848295,-740.205942,10510.924376
351.179529,-3830.477490,-1406.391290,12139.377449
351.179837,-3294.210641,-888.247130,12731.542202
351.180145,-2911.162892,148.041188,11251.130318
351.180453,-1378.971896,1258.350101,11103.089130
351.180761,689.485948,1406.391290,9918.759623
351.181069,1532.190996,1924.535449,7550.100608
351.181377,1149.143247,1258.350101,7994.224174
351.181685,459.657299,-296.082377,8660.409521
351.181993,-153.219100,-444.123565,8808.450710
351.182300,-995.924147,-518.144159,9696.697840
351.182608,-842.705048,222.061783,8956.491898
351.182916,-536.266849,888.247130,8216.285956
351.183224,-153.219100,1554.432478,8364.327145
351.183532,0.000000,518.144159,7550.100608
351.183840,-1685.410096,-148.041188,8142.265362
351.184148,-2681.334243,-1406.391290,10658.965565
351.184456,-3830.477490,-2516.700203,11843.295072
351.184763,-4903.011187,-2294.638420,12731.542202
351.185071,-4213.525239,-1628.453072,12361.439231
351.185379,-2221.676944,-0.000000,10066.800811
351.185687,-229.828649,1554.432478,9770.718434
351.185995,1762.019645,1776.494261,8512.368333
351.186303,1685.410096,1628.453072,7550.100608
351.186611,1455.581446,-0.000000,8216.285956
351.186919,229.828649,-1036.288319,9326.594869
351.187227,-995.924147,-1480.411884,9918.759623
351.187534,-1915.238745,-1406.391290,10066.800811
351.187842,-1149.143247,-222.061783,9474.636058
351.188150,-306.438199,1702.473667,7698.141797
351.188458,229.828649,2368.659014,7031.956449
351.188766,612.876398,2146.597232,7105.977043
351.189074,612.876398,1184.329507,7105.977043
351.189382,-1608.800546,740.205942,8734.430116
351.189690,-2451.505594,-592.164754,10955.047942
351.189998,-4060.306139,-370.102971,11843.295072
351.190305,-4596.572988,296.082377,11991.336260
351.190613,-3140.991542,1332.370696,11769.274478
351.190921,-1915.238745,2664.741391,10288.862594
351.191229,-229.828649,2368.659014,9622.677246
351.191537,-459.657299,740.205942,8586.388927
351.191845,-1685.410096,-518.144159,9770.718434
351.192153,-2911.162892,-3182.885551,11991.336260
351.192461,-4290.134789,-4885.359217,13693.809927
351.192768,-5669.106685,-4737.318029,13323.706956
351.193076,-4366.744339,-3775.050304,12731.542202
351.193384,-3140.991542,-962.267725,10066.800811
351.193692,-766.095498,1998.556043,7772.162391
351.194000,1685.410096,3108.864956,6439.791695
351.194308,2221.676944,4663.297435,4515.256246
351.194616,2145.067394,4515.256246,4515.256246
351.194924,1685.410096,3108.864956,5921.647536
351.195232,-536.266849,2368.659014,7698.141797
351.195539,-2451.505594,962.267725,10214.842000
351.195847,-3447.429741,-0.000000,10955.047942
351.196155,-4673.182538,296.082377,10955.047942
351.196463,-4136.915689,-0.000000,11917.315666
351.196771,-3294.210641,444.123565,11473.192101
351.197079,-3600.648841,592.164754,10807.006753
351.197387,-2221.676944,-370.102971,10140.821405
351.197695,-2451.505594,-1702.473667,10362.883188
351.198003,-3447.429741,-2664.741391,11251.130318
351.198310,-4366.744339,-3849.070898,12731.542202
351.198618,-4596.572988,-3627.009116,13323.706956
351.198926,-4290.134789,-2960.823768,12213.398043
351.199234,-4596.572988,-1702.473667,10881.027347
351.199542,-2911.162892,518.144159,9696.697840
351.199850,-1532.190996,2368.659014,8216.285956
351.200158,-229.828649,3627.009116,6587.832884
351.200466,842.705048,4589.276840,5329.482782
351.200773,1225.752797,4367.215058,5033.400406
351.201081,689.485948,3552.988522,6069.688724
351.201389,-229.828649,1998.556043,7550.100608
351.201697,-1838.629195,814.226536,9474.636058
351.202005,-3753.867940,-1628.453072,10955.047942
351.202313,-4366.744339,-1998.556043,10955.047942
351.202621,-4979.620737,-1776.494261,11251.130318
351.202929,-4136.915689,-1036.288319,11325.150913
351.203237,-2451.505594,-0.000000,10140.821405
351.203544,-1149.143247,1184.329507,8808.450710
351.203852,0.000000,962.267725,7402.059420
351.204160,0.000000,1924.535449,7624.121203
351.204468,-919.314598,592.164754,9030.512492
351.204776,-2911.162892,-1184.329507,10732.986159
351.205084,-5056.230287,-3256.906145,12287.418637
351.205392,-7124.688131,-4959.379811,13989.892304
351.205700,-7967.393179,-4589.276840,14434.015869
351.206008,-7124.688131,-3775.050304,14285.974681
351.206315,-4826.401637,-2146.597232,12509.480420
351.206623,-2451.505594,592.164754,9252.574275
351.206931,306.438199,2738.761985,6439.791695
351.207239,2145.067394,5255.462188,4737.318029
351.207547,3907.087040,6513.812290,3034.844362
351.207855,4213.525239,7179.997637,2220.617826
351.208163,3217.601092,5847.626942,3701.029710
351.208471,536.266849,3330.926739,6069.688724
351.208778,-2528.115143,-0.000000,9622.677246
351.209086,-5669.106685,-2294.638420,13027.624579
351.209394,-7584.345430,-4811.338623,14582.057057
351.209702,-8886.707777,-6069.688724,16062.468941
351.210010,-8503.660028,-6143.709319,16432.571912
351.210318,-5975.544884,-4663.297435,14952.160028
351.210626,-3370.820191,-1998.556043,11621.233289
351.210934,-612.876398,814.226536,8142.265362
351.211242,1302.362347,3330.926739,6587.832884
351.211549,2451.505594,5699.585753,5921.647536
351.211857,3524.039291,6143.709319,4885.359217
351.212165,2451.505594,7105.977043,5107.421000
351.212473,459.657299,5403.503377,6735.874072
351.212781,-2068.457845,2368.659014,9770.718434
351.213089,-4673.182538,-962.267725,12583.501014
351.213397,-7967.393179,-3404.947333,14285.974681
351.213705,-9422.974625,-5551.544565,15544.324782
351.214013,-8656.879127,-5773.606348,15692.365970
351.214320,-6818.249932,-5255.462188,14878.139434
351.214628,-4290.134789,-3478.967927,12139.377449
351.214936,-995.924147,-1480.411884,8956.491898
351.215244,995.924147,592.164754,6587.832884
351.215552,2451.505594,3182.885551,4959.379811
351.215860,3983.696590,5403.503377,4885.359217
351.216168,4366.744339,6069.688724,4663.297435
351.216476,3600.648841,7254.018232,3997.112087
351.216783,2068.457845,5551.544565,5255.462188
351.217091,-306.438199,2886.803174,8438.347739
351.217399,-3447.429741,1258.350101,10584.944971
351.217707,-5592.497135,-1924.535449,13175.665768
351.218015,-7354.516781,-4219.173869,13989.892304
351.218323,-8656.879127,-3923.091493,13619.789333
351.218631,-7201.297681,-4737.318029,14656.077652
351.218939,-5056.230287,-3997.112087,13175.665768
351.219247,-3830.477490,-2664.741391,10807.006753
351.219554,-2681.334243,-1332.370696,9178.553681
351.219862,-153.219100,962.267725,7772.162391
351.220170,459.657299,2220.617826,6957.935855
351.220478,1225.752797,3330.926739,6957.935855
351.220786,1378.971896,3404.947333,6809.894666
351.221094,1455.581446,2664.741391,6809.894666
351.221402,76.609550,1998.556043,8142.265362
351.221710,-995.924147,814.226536,9548.656652
351.222018,-1915.238745,-370.102971,10658.965565
351.222325,-2911.162892,-1406.391290,10584.944971
351.222633,-3217.601092,-1554.432478,10362.883188
351.222941,-2911.162892,-1554.432478,9770.718434
351.223249,-2604.724693,-1110.308913,9474.636058
351.223557,-1378.971896,-148.041188,9252.574275
351.223865,-2221.676944,518.144159,8216.285956
351.224173,-2068.457845,1406.391290,8216.285956
351.224481,-1838.629195,2220.617826,8956.491898
351.224788,-2374.896044,2368.659014,9400.615463
351.225096,-3294.210641,2146.597232,10066.800811
351.225404,-4366.744339,740.205942,10510.924376
351.225712,-6128.763984,-592.164754,11843.295072
351.226020,-6588.421283,-2146.597232,13249.686362
351.226328,-7277.907231,-2812.782580,13249.686362
351.226636,-7124.688131,-2960.823768,12805.562797
351.226944,-5822.325785,-2590.720797,12287.418637
351.227252,-4519.963438,-1850.514855,10881.027347
351.227559,-2528.115143,-1110.308913,9474.636058
351.227867,-919.314598,-148.041188,7920.203579
351.228175,229.828649,888.247130,7105.977043
351.228483,1302.362347,1776.494261,6069.688724
351.228791,1608.800546,2294.638420,5847.626942
351.229099,1838.629195,2812.782580,6439.791695
351.229407,919.314598,3182.885551,6809.894666
351.229715,0.000000,2516.700203,7698.141797
351.230022,-766.095498,1258.350101,9400.615463
351.230330,-2451.505594,-0.000000,10658.965565
351.230638,-3447.429741,-962.267725,11325.150913
351.230946,-3983.696590,-1554.432478,11473.192101
351.231254,-3600.648841,-1850.514855,11843.295072
351.231562,-3447.429741,-1628.453072,10436.903782
351.231870,-2834.553343,-888.247130,10510.924376
351.232178,-2145.067394,-296.082377,9992.780217
351.232486,-1608.800546,666.185348,9474.636058
351.232793,-689.485948,1480.411884,9326.594869
351.233101,-995.924147,1776.494261,9474.636058
351.233409,-766.095498,1554.432478,9326.594869
351.233717,-1378.971896,2146.597232,9474.636058
351.234025,-1225.752797,1036.288319,9696.697840
351.234333,-1991.848295,518.144159,9844.739029
351.234641,-2528.115143,370.102971,10362.883188
351.234949,-2298.286494,-0.000000,10510.924376
351.235257,-2374.896044,148.041188,10140.821405
351.235565,-2145.067394,-222.061783,9474.636058
351.235873,-1225.752797,-148.041188,9252.574275
351.236181,-1225.752797,-0.000000,9030.512492
351.236489,-1072.533697,592.164754,8882.471304
351.236797,-919.314598,740.205942,8956.491898
351.237105,-1225.752797,1258.350101,8660.409521
351.237413,-1378.971896,1110.308913,8882.471304
351.237721,-2145.067394,814.226536,9400.615463
351.238029,-2681.334243,666.185348,9844.739029
351.238337,-2834.553343,-444.123565,10510.924376
351.238645,-3983.696590,-666.185348,11029.068536
351.238953,-3753.867940,-814.226536,10658.965565
351.239261,-3983.696590,-1184.329507,10955.047942
351.239568,-3524.039291,-1110.308913,10584.944971
351.239876,-3064.381992,-888.247130,10140.821405
351.240184,-2298.286494,-1036.288319,9770.718434
351.240492,-1838.629195,-592.164754,9252.574275
351.240800,-1532.190996,-148.041188,9178.553681
351.241108,-995.924147,-74.020594,9104.533087
351.241416,-766.095498,296.082377,8956.491898
351.241724,-536.266849,222.061783,8734.430116
351.242032,-383.047749,666.185348,8734.430116
351.242340,-306.438199,1110.308913,8438.347739
351.242648,0.000000,1258.350101,8512.368333
351.242956,153.219100,1332.370696,8586.388927
351.243264,-306.438199,1480.411884,8364.327145
351.243572,76.609550,1184.329507,8438.347739
351.243880,-995.924147,1036.288319,8956.491898
351.244188,-1838.629195,888.247130,9548.656652
351.244496,-2451.505594,518.144159,10214.842000
351.244804,-2834.553343,518.144159,10510.924376
351.245112,-3217.601092,370.102971,10584.944971
351.245420,-3370.820191,740.205942,11029.068536
351.245728,-4213.525239,518.144159,11251.130318
351.246036,-3753.867940,592.164754,11103.089130
351.246344,-3830.477490,-0.000000,10955.047942
351.246652,-3907.087040,148.041188,11103.089130
351.246960,-3907.087040,-0.000000,10584.944971
351.247268,-3600.648841,-0.000000,10658.965565
351.247576,-3140.991542,592.164754,9696.697840
351.247884,-2757.943793,592.164754,9770.718434
351.248192,-2757.943793,962.267725,9252.574275
351.248500,-2987.772442,888.247130,9030.512492
351.248808,-3217.601092,814.226536,9252.574275
351.249116,-3064.381992,1184.329507,8734.430116
351.249424,-3064.381992,592.164754,9252.574275
351.249732,-3447.429741,444.123565,9474.636058
351.250040,-3753.867940,-0.000000,9844.739029
351.250347,-4366.744339,-296.082377,9696.697840
351.250655,-4290.134789,-518.144159,9696.697840
351.250963,-4213.525239,-1036.288319,9770.718434
351.251271,-4136.915689,-962.267725,9844.739029
351.251579,-4213.525239,-888.247130,9326.594869
351.251887,-3983.696590,-444.123565,9400.615463
351.252195,-3753.867940,-592.164754,9474.636058
351.252503,-3753.867940,-740.205942,9252.574275
351.252811,-3294.210641,-814.226536,9622.677246
351.253119,-2528.115143,-814.226536,9770.718434
351.253427,-3140.991542,-1110.308913,9548.656652
351.253735,-2987.772442,-888.247130,10214.842000
351.254043,-2681.334243,-1184.329507,10288.862594
351.254351,-2374.896044,-1258.350101,9992.780217
351.254659,-1838.629195,-1406.391290,10214.842000
351.254967,-1378.971896,-1110.308913,9696.697840
351.255275,-689.485948,-592.164754,9548.656652
351.255583,76.609550,148.041188,8586.388927
351.255891,1072.533697,1110.308913,7920.203579
351.256199,1302.362347,1924.535449,7105.977043
351.256507,1532.190996,2664.741391,6661.853478
351.256815,1378.971896,3552.988522,6439.791695
351.257123,1072.533697,3627.009116,6957.935855
351.257431,383.047749,3182.885551,7624.121203
351.257739,-766.095498,2812.782580,8808.450710
351.258047,-1915.238745,2368.659014,10066.800811
351.258355,-3140.991542,1036.288319,11251.130318
351.258663,-4366.744339,370.102971,12139.377449
351.258971,-4903.011187,-740.205942,12509.480420
351.259279,-5362.668486,-1036.288319,12731.542202
351.259587,-5132.839837,-1850.514855,13027.624579
351.259895,-5362.668486,-2516.700203,12657.521608
351.260203,-4519.963438,-1924.535449,12287.418637
351.260511,-3677.258390,-1850.514855,11695.253884
351.260818,-2911.162892,-1110.308913,10955.047942
351.261126,-2757.943793,-814.226536,10732.986159
351.261434,-1455.581446,-74.020594,9474.636058
351.261742,-689.485948,888.247130,8586.388927
351.262050,-153.219100,1184.329507,8290.306550
351.262358,153.219100,1776.494261,7920.203579
351.262666,1378.971896,1998.556043,8142.265362
351.262974,689.485948,2220.617826,7328.038826
351.263282,919.314598,3330.926739,6513.812290
351.263590,536.266849,2812.782580,7179.997637
351.263898,76.609550,2516.700203,7476.080014
351.264206,-766.095498,2220.617826,7698.141797
351.264514,-1915.238745,1480.411884,8882.471304
351.264822,-3217.601092,148.041188,10362.883188
351.265130,-4213.525239,-814.226536,10732.986159
351.265438,-5515.887586,-2516.700203,11843.295072
351.265746,-6511.811733,-3108.864956,12657.521608
351.266054,-6511.811733,-3552.988522,13175.665768
351.266362,-6052.154434,-3775.050304,12953.603985
351.266670,-5592.497135,-3108.864956,12731.542202
351.266978,-4596.572988,-2886.803174,12435.459826
351.267286,-3217.601092,-2072.576638,11029.068536
351.267594,-2221.676944,-814.226536,9474.636058
351.267902,-229.828649,444.123565,8660.409521
351.268210,995.924147,2738.761985,7105.977043
351.268518,2451.505594,4737.318029,4959.379811
351.268826,3524.039291,5551.544565,3775.050304
351.269134,3064.381992,5847.626942,3478.967927
351.269442,2757.943793,5033.400406,5255.462188
351.269750,766.095498,3923.091493,6735.874072
351.270058,-1378.971896,1554.432478,8734.430116
351.270366,-4519.963438,-222.061783,11399.171507
351.270674,-5515.887586,-2738.761985,13175.665768
351.270982,-7354.516781,-4441.235652,14582.057057
351.271290,-8503.660028,-5625.565159,14434.015869
351.271597,-7048.078582,-5995.668130,15692.365970
351.271905,-5822.325785,-4663.297435,13323.706956
351.272213,-5056.230287,-1776.494261,10510.924376
351.272521,-2145.067394,-444.123565,10066.800811
351.272829,229.828649,2738.761985,7105.977043
351.273137,1378.971896,5107.421000,6439.791695
351.273445,2681.334243,6291.750507,4589.276840
351.273753,3064.381992,6439.791695,4071.132681
351.274061,842.705048,4811.338623,5847.626942
351.274369,-1455.581446,2072.576638,8290.306550
351.274677,-4213.525239,-1184.329507,11695.253884
351.274985,-7277.907231,-4441.235652,14137.933492
351.275293,-8580.269578,-6513.812290,15396.283594
351.275601,-8733.488677,-7105.977043,15026.180623
351.275909,-7354.516781,-6957.935855,14508.036463
351.276217,-5209.449386,-3478.967927,11177.109724
351.276525,-2068.457845,-222.061783,8660.409521
351.276833,1149.143247,2368.659014,6735.874072
351.277141,3524.039291,5921.647536,4145.153275
351.277449,4903.011187,8142.265362,2516.700203
351.277757,5286.058936,7772.162391,2812.782580
351.278065,3524.039291,7402.059420,4293.194464
351.278373,766.095498,3997.112087,7698.141797
351.278681,-3294.210641,148.041188,11917.315666
351.278989,-6435.202183,-3182.885551,14656.077652
351.279297,-9346.365076,-6291.750507,16654.633695
351.279605,-10495.508323,-7328.038826,17616.901420
351.279913,-9652.803275,-6735.874072,16284.530724
351.280221,-6205.373534,-4071.132681,13619.789333
351.280529,-2451.505594,-222.061783,9178.553681
351.280837,0.000000,2368.659014,6217.729913
351.281145,1685.410096,3404.947333,5773.606348
351.281453,2834.553343,5995.668130,4441.235652
351.281761,2451.505594,5329.482782,5181.441594
351.282069,766.095498,4145.153275,6587.832884
351.282376,-1915.238745,1850.514855,7920.203579
351.282684,-3830.477490,-74.020594,11473.192101
351.282992,-6971.469032,-1628.453072,12879.583391
351.283300,-7354.516781,-2738.761985,13619.789333
351.283608,-7048.078582,-2368.659014,13323.706956
351.283916,-4673.182538,-888.247130,11251.130318
351.284224,-1225.752797,888.247130,9326.594869
351.284532,1302.362347,1184.329507,7254.018232
351.284840,3294.210641,592.164754,6513.812290
351.285148,2451.505594,222.061783,6883.915261
351.285456,1608.800546,148.041188,7476.080014
351.285764,0.000000,-0.000000,8142.265362
351.286072,-1608.800546,370.102971,9104.533087
351.286380,-2451.505594,592.164754,10066.800811
351.286688,-1608.800546,962.267725,10436.903782
351.286996,-2374.896044,222.061783,10584.944971
351.287304,-3447.429741,-0.000000,10066.800811
351.287612,-2681.334243,-2146.597232,12509.480420
351.287920,-3600.648841,-4367.215058,13323.706956
351.288228,-5898.935335,-4441.235652,12139.377449
351.288536,-4290.134789,-4441.235652,12657.521608
351.288844,-3983.696590,-3108.864956,10807.006753
351.289152,-2451.505594,740.205942,9104.533087
351.289460,1608.800546,2146.597232,7772.162391
351.289768,3677.258390,5255.462188,4441.235652
351.290076,4519.963438,5773.606348,3775.050304
351.290384,5209.449386,5551.544565,5033.400406
351.290692,3677.258390,3627.009116,7402.059420
351.291000,1685.410096,666.185348,9696.697840
351.291308,-1302.362347,-296.082377,10362.883188
351.291616,-3064.381992,-1998.556043,12657.521608
351.291924,-4366.744339,-2960.823768,14211.954086
351.292232,-3447.429741,-1850.514855,13619.789333
351.292540,-1378.971896,-444.123565,11177.109724
351.292848,-2068.457845,222.061783,8364.327145
351.293155,153.219100,-370.102971,10584.944971
351.293463,-229.828649,-592.164754,9400.615463
351.293771,-1072.533697,740.205942,9326.594869
351.294079,-919.314598,444.123565,9844.739029
351.294387,-919.314598,2738.761985,8068.244768
351.294695,-1149.143247,2368.659014,10955.047942
351.295003,76.609550,3182.885551,8438.347739
351.295311,842.705048,3849.070898,7772.162391
351.295619,689.485948,2442.679609,8956.491898
351.295927,76.609550,-0.000000,9992.780217
351.296235,-1225.752797,-1406.391290,12435.459826
351.296543,-2298.286494,-2146.597232,11325.150913
351.296851,-1915.238745,-1998.556043,10658.965565
351.297159,-612.876398,-1110.308913,9918.759623
351.297467,459.657299,-666.185348,9918.759623
351.297775,1072.533697,666.185348,8438.347739
351.298083,2374.896044,888.247130,7031.956449
351.298391,1532.190996,-0.000000,7624.121203
351.298699,-153.219100,-1110.308913,8586.388927
351.299007,-1762.019645,-1628.453072,11103.089130
351.299315,-2451.505594,-1332.370696,11695.253884
351.299623,-2757.943793,666.185348,9992.780217
351.299931,459.657299,1628.453072,10214.842000
351.300239,1532.190996,1998.556043,8956.491898
351.300547,2681.334243,2072.576638,7846.182985
351.300855,2834.553343,1036.288319,8364.327145
351.301163,1378.971896,-814.226536,8734.430116
351.301471,-842.705048,-2516.700203,10140.821405
351.301779,-995.924147,-2220.617826,10881.027347
351.302087,-1608.800546,-1184.329507,10881.027347
351.302395,306.438199,370.102971,10214.842000
351.302703,2298.286494,1406.391290,9030.512492
351.303011,3140.991542,1554.432478,7328.038826
351.303319,3064.381992,1332.370696,6735.874072
351.303627,2451.505594,370.102971,7846.182985
351.303934,-383.047749,-1036.288319,9400.615463
351.304242,-1838.629195,-2072.576638,11399.171507
351.304550,-2528.115143,-370.102971,10807.006753
351.304858,-1838.629195,1110.308913,10658.965565
351.305166,1072.533697,2220.617826,9696.697840
351.305474,2068.457845,3701.029710,8142.265362
351.305782,2528.115143,2442.679609,8216.285956
351.306090,1762.019645,1332.370696,8068.244768
351.306398,-153.219100,-1258.350101,10510.924376
351.306706,-2374.896044,-2368.659014,12361.439231
351.307014,-2221.676944,-1628.453072,12065.356855
351.307322,-2221.676944,-370.102971,11325.150913
351.307630,-536.266849,-814.226536,10955.047942
351.307938,995.924147,-222.061783,9474.636058
351.308246,995.924147,-666.185348,9030.512492
351.308554,536.266849,-1924.535449,9770.718434
351.308862,-1302.362347,-2368.659014,9992.780217
351.309170,-1149.143247,-2294.638420,10362.883188
351.309478,-1072.533697,-1332.370696,10288.862594
351.309786,229.828649,1480.411884,9474.636058
351.310094,2451.505594,3256.906145,7698.141797
351.310402,4749.792088,4737.318029,6143.709319
351.310710,5439.278036,4367.215058,5255.462188
351.311018,4213.525239,2886.803174,7328.038826
351.311326,1915.238745,1110.308913,9474.636058
351.311634,-229.828649,-0.000000,10436.903782
351.311942,-1149.143247,-1258.350101,11695.253884
351.312250,-1225.752797,-1480.411884,11991.336260
351.312558,-383.047749,-1110.308913,11251.130318
351.312866,383.047749,-1554.432478,10584.944971
351.313174,76.609550,-2294.638420,9770.718434
351.313482,-153.219100,-3182.885551,10732.986159
351.313790,-1991.848295,-3330.926739,11843.295072
351.314098,-2068.457845,-2812.782580,11917.315666
351.314406,-1225.752797,-148.041188,10362.883188
351.314713,689.485948,2072.576638,9252.574275
351.315021,3524.039291,4293.194464,7254.018232
351.315329,4826.401637,5699.585753,6365.771101
351.315637,4903.011187,4885.359217,6809.894666
351.315945,3140.991542,2664.741391,8216.285956
351.316253,1838.629195,1406.391290,9474.636058
351.316561,-689.485948,-444.123565,11103.089130
351.316869,-1149.143247,-592.164754,12435.459826
351.317177,-1072.533697,-592.164754,10510.924376
351.317485,995.924147,-444.123565,10288.862594
351.317793,1685.410096,-148.041188,9178.553681
351.318101,383.047749,-1998.556043,8512.368333
351.318409,842.705048,-1628.453072,9622.677246
351.318717,-1225.752797,-2590.720797,10288.862594
351.319025,-2528.115143,-1850.514855,11473.192101
351.319333,-229.828649,-296.082377,10955.047942
351.319641,995.924147,2442.679609,8808.450710
351.319949,1991.848295,2590.720797,8808.450710
351.320257,4060.306139,4145.153275,6809.894666
351.320565,3907.087040,3923.091493,7402.059420
351.320873,2068.457845,1110.308913,8734.430116
351.321181,383.047749,-814.226536,9474.636058
351.321489,-1302.362347,-1110.308913,11325.150913
351.321797,-1532.190996,-1998.556043,11769.274478
351.322105,-919.314598,-1998.556043,10658.965565
351.322413,689.485948,-740.205942,9252.574275
351.322721,1225.752797,-1480.411884,9178.553681
351.323029,1072.533697,-1998.556043,8290.306550
351.323337,0.000000,-2368.659014,9844.739029
351.323645,-1915.238745,-2886.803174,10436.903782
351.323953,-1072.533697,-1554.432478,9844.739029
351.324261,0.000000,1184.329507,9622.677246
351.324569,995.924147,2146.597232,8956.491898
351.324877,3370.820191,3923.091493,7105.977043
351.325185,4136.915689,4441.235652,6957.935855
351.325492,3753.867940,2738.761985,7846.182985
351.325800,1378.971896,962.267725,8660.409521
351.326108,0.000000,-740.205942,10955.047942
351.326416,-1378.971896,-1702.473667,12435.459826
351.326724,-1762.019645,-1332.370696,11547.212695
351.327032,-689.485948,-962.267725,12287.418637
351.327340,0.000000,-1184.329507,10362.883188
351.327648,459.657299,-1184.329507,9400.615463
351.327956,536.266849,-1184.329507,9696.697840
351.328264,0.000000,-1406.391290,9918.759623
351.328572,-766.095498,-1776.494261,10066.800811
351.328880,-689.485948,-0.000000,10732.986159
351.329188,76.609550,1776.494261,9326.594869
351.329496,1685.410096,3404.947333,7772.162391
351.329804,4366.744339,4885.359217,6957.935855
351.330112,4443.353888,4515.256246,6957.935855
351.330420,3753.867940,2664.741391,8512.368333
351.330728,1532.190996,962.267725,9400.615463
351.331036,-306.438199,-888.247130,10807.006753
351.331344,-995.924147,-1480.411884,11917.315666
351.331652,-766.095498,-1110.308913,11917.315666
351.331960,-995.924147,-1184.329507,11325.150913
351.332268,612.876398,-592.164754,10066.800811
351.332576,1378.971896,-666.185348,8882.471304
351.332884,766.095498,-296.082377,8956.491898
351.333192,306.438199,-2442.679609,10807.006753
351.333500,-1608.800546,-1702.473667,9770.718434
351.333808,-1072.533697,-518.144159,9770.718434
351.334116,0.000000,962.267725,9326.594869
351.334424,1302.362347,3108.864956,8068.244768
351.334732,3447.429741,3923.091493,7846.182985
351.335040,3983.696590,3330.926739,6439.791695
351.335348,2834.553343,1924.535449,8512.368333
351.335656,1225.752797,-0.000000,9622.677246
351.335963,-536.266849,-962.267725,10807.006753
351.336271,-1991.848295,-1628.453072,12509.480420
351.336579,-1378.971896,-1850.514855,12139.377449
351.336887,-153.219100,-592.164754,10807.006753
351.337195,1072.533697,-296.082377,9104.533087
351.337503,1762.019645,-0.000000,8142.265362
351.337811,1149.143247,-1776.494261,8882.471304
351.338119,0.000000,-1776.494261,10214.842000
351.338427,-1455.581446,-2220.617826,10881.027347
