#time,accel_x,accel_y,accel_z
408.429026,919.314598,370.102971,9474.636058
408.429334,842.705048,148.041188,9622.677246
408.429643,536.266849,222.061783,9548.656652
408.429951,612.876398,296.082377,9474.636058
408.430259,612.876398,-0.000000,9696.697840
408.430567,612.876398,222.061783,9474.636058
408.430876,612.876398,-0.000000,9474.636058
408.431184,536.266849,222.061783,9770.718434
408.431492,766.095498,-0.000000,9548.656652
408.431800,689.485948,666.185348,9992.780217
408.432109,612.876398,-74.020594,9474.636058
408.432417,459.657299,222.061783,9622.677246
408.432725,383.047749,296.082377,9622.677246
408.433034,612.876398,-0.000000,9770.718434
408.433342,76.609550,-0.000000,9474.636058
408.433650,459.657299,-74.020594,9474.636058
408.433958,995.924147,-0.000000,9548.656652
408.434267,842.705048,296.082377,9474.636058
408.434575,459.657299,-0.000000,9474.636058
408.434883,612.876398,222.061783,9622.677246
408.435191,459.657299,222.061783,9474.636058
408.435500,459.657299,-0.000000,9474.636058
408.435808,229.828649,296.082377,9474.636058
408.436116,536.266849,-0.000000,9770.718434
408.436424,919.314598,-0.000000,9696.697840
408.436733,689.485948,296.082377,9696.697840
408.437041,689.485948,-0.000000,9474.636058
408.437349,689.485948,-0.000000,9548.656652
408.437657,766.095498,-0.000000,9548.656652
408.437966,919.314598,444.123565,9474.636058
408.438274,919.314598,222.061783,9622.677246
408.438582,766.095498,-0.000000,9474.636058
408.438890,766.095498,-0.000000,9548.656652
408.439199,536.266849,296.082377,9696.697840
408.439507,459.657299,-0.000000,9474.636058
408.439815,459.657299,370.102971,9770.718434
408.440123,536.266849,-0.000000,9548.656652
408.440432,459.657299,370.102971,9696.697840
408.440740,459.657299,148.041188,9696.697840
408.441048,919.314598,-0.000000,9992.780217
408.441356,766.095498,-148.041188,10140.821405
408.441665,919.314598,-592.164754,9622.677246
408.441973,1072.533697,-518.144159,10436.903782
408.442281,766.095498,-444.123565,10140.821405
408.442589,766.095498,-444.123565,10140.821405
408.442898,689.485948,-296.082377,10066.800811
408.443206,1149.143247,-148.041188,9622.677246
408.443514,1838.629195,148.041188,9030.512492
408.443822,2298.286494,592.164754,8882.471304
408.444131,1915.238745,814.226536,8882.471304
408.444439,2068.457845,740.205942,8882.471304
408.444747,2068.457845,888.247130,9252.574275
408.445055,1762.019645,518.144159,9400.615463
408.445364,1532.190996,518.144159,9548.656652
408.445672,1685.410096,222.061783,9918.759623
408.445980,2068.457845,-74.020594,9622.677246
408.446288,1608.800546,-296.082377,10214.842000
408.446597,1455.581446,-592.164754,9992.780217
408.446905,1991.848295,-444.123565,9918.759623
408.447213,2068.457845,-444.123565,9992.780217
408.447521,2068.457845,-74.020594,9696.697840
408.447830,2681.334243,296.082377,9474.636058
408.448138,2987.772442,222.061783,8882.471304
408.448446,2987.772442,-0.000000,9474.636058
408.448754,2757.943793,296.082377,9400.615463
408.449063,3140.991542,370.102971,9474.636058
408.449371,2451.505594,-0.000000,9474.636058
408.449679,2451.505594,-0.000000,9770.718434
408.449987,2451.505594,148.041188,9770.718434
408.450296,2451.505594,-0.000000,9770.718434
408.450604,2911.162892,-370.102971,9844.739029
408.450912,2834.553343,-444.123565,9992.780217
408.451221,2604.724693,-222.061783,10436.903782
408.451529,2145.067394,-296.082377,9844.739029
408.451837,3140.991542,-0.000000,9918.759623
408.452145,3217.601092,148.041188,9696.697840
408.452454,3370.820191,222.061783,9400.615463
408.452762,3907.087040,444.123565,9400.615463
408.453070,3907.087040,888.247130,9474.636058
408.453378,4443.353888,592.164754,9104.533087
408.453687,4136.915689,666.185348,9178.553681
408.453995,4443.353888,-0.000000,9178.553681
408.454303,4366.744339,296.082377,9326.594869
408.454611,4213.525239,222.061783,9400.615463
408.454920,4290.134789,222.061783,9400.615463
408.455228,3907.087040,-0.000000,9474.636058
408.455536,4290.134789,-0.000000,9696.697840
408.455844,4596.572988,666.185348,9622.677246
408.456153,4519.963438,740.205942,9474.636058
408.456461,4366.744339,1110.308913,9252.574275
408.456769,4749.792088,1036.288319,9030.512492
408.457077,4673.182538,1184.329507,9104.533087
408.457386,4673.182538,1480.411884,9030.512492
408.457694,4136.915689,1258.350101,8956.491898
408.458002,4596.572988,592.164754,9252.574275
408.458310,4290.134789,740.205942,9252.574275
408.458619,3064.381992,592.164754,10066.800811
408.458927,3140.991542,444.123565,10807.006753
408.459235,2987.772442,296.082377,10510.924376
408.459543,3217.601092,666.185348,10066.800811
408.459852,2451.505594,370.102971,9918.759623
408.460160,2911.162892,1036.288319,9474.636058
408.460468,2757.943793,518.144159,9696.697840
408.460776,2451.505594,666.185348,9696.697840
408.461085,2451.505594,148.041188,9918.759623
408.461393,1685.410096,148.041188,9770.718434
408.461701,1838.629195,-444.123565,10214.842000
408.462009,1685.410096,-444.123565,10732.986159
408.462318,919.314598,-888.247130,10362.883188
408.462626,1149.143247,-1406.391290,10658.965565
408.462934,2374.896044,-1036.288319,10584.944971
408.463242,2298.286494,-1480.411884,10510.924376
408.463551,2757.943793,-1776.494261,10510.924376
408.463859,3064.381992,-1998.556043,9992.780217
408.464167,3370.820191,-1332.370696,9622.677246
408.464475,3753.867940,-1110.308913,9400.615463
408.464784,4060.306139,-370.102971,9400.615463
408.465092,5362.668486,148.041188,8956.491898
408.465400,4903.011187,888.247130,8216.285956
408.465708,5439.278036,962.267725,8290.306550
408.466017,5515.887586,1036.288319,8438.347739
408.466325,4903.011187,666.185348,8512.368333
408.466633,4519.963438,296.082377,8586.388927
408.466941,3907.087040,-0.000000,8882.471304
408.467250,3600.648841,-444.123565,9548.656652
408.467558,3064.381992,-740.205942,9548.656652
408.467866,3524.039291,-0.000000,9770.718434
408.468174,3217.601092,592.164754,9474.636058
408.468483,3447.429741,1554.432478,9178.553681
408.468791,4519.963438,2442.679609,8586.388927
408.469099,4366.744339,3108.864956,8290.306550
408.469408,4749.792088,3256.906145,8438.347739
408.469716,4290.134789,2812.782580,8438.347739
408.470024,3217.601092,1406.391290,9770.718434
408.470332,2681.334243,-222.061783,10732.986159
408.470641,1455.581446,-1480.411884,11843.295072
408.470949,919.314598,-2886.803174,12953.603985
408.471257,0.000000,-3552.988522,13693.809927
408.471565,766.095498,-3701.029710,13767.830521
408.471874,1762.019645,-3552.988522,12583.501014
408.472182,3294.210641,-2072.576638,11251.130318
408.472490,4519.963438,-370.102971,9326.594869
408.472798,6894.859482,444.123565,8216.285956
408.473107,7507.735880,2146.597232,6513.812290
408.473415,7507.735880,3701.029710,5921.647536
408.473723,8197.221829,4737.318029,6069.688724
408.474031,7354.516781,5033.400406,4885.359217
408.474340,6435.202183,4959.379811,5847.626942
408.474648,4903.011187,4071.132681,6587.832884
408.474956,3753.867940,2146.597232,8142.265362
408.475264,2374.896044,-0.000000,9696.697840
408.475573,1225.752797,-814.226536,11177.109724
408.475881,-153.219100,-2664.741391,12287.418637
408.476189,-306.438199,-3775.050304,13397.727550
408.476497,0.000000,-4145.153275,14211.954086
408.476806,612.876398,-3775.050304,13323.706956
408.477114,1225.752797,-3552.988522,12879.583391
408.477422,2374.896044,-2368.659014,12657.521608
408.477730,3907.087040,-1776.494261,11251.130318
408.478039,5209.449386,-518.144159,9474.636058
408.478347,6205.373534,1036.288319,7550.100608
408.478655,6052.154434,2220.617826,6957.935855
408.478963,6052.154434,2960.823768,6291.750507
408.479272,5898.935335,3552.988522,6587.832884
408.479580,5439.278036,3478.967927,6217.729913
408.479888,5286.058936,2664.741391,6883.915261
408.480196,4443.353888,962.267725,7994.224174
408.480505,2987.772442,-666.185348,9918.759623
408.480813,1378.971896,-2664.741391,11843.295072
408.481121,536.266849,-3849.070898,12731.542202
408.481429,995.924147,-4293.194464,13249.686362
408.481738,1532.190996,-2738.761985,12435.459826
408.482046,3140.991542,-1110.308913,11325.150913
408.482354,5515.887586,592.164754,9474.636058
408.482662,6205.373534,2664.741391,6809.894666
408.482971,7354.516781,5033.400406,5255.462188
408.483279,7967.393179,5847.626942,4811.338623
408.483587,7814.174080,6365.771101,4737.318029
408.483895,6435.202183,4811.338623,5847.626942
408.484204,4366.744339,1850.514855,8734.430116
408.484512,1455.581446,-1406.391290,11695.253884
408.484820,-1532.190996,-2516.700203,12805.562797
408.485128,-2987.772442,-5403.503377,15618.345376
408.485437,-3064.381992,-6587.832884,17394.839637
408.485745,-2987.772442,-6513.812290,16580.613101
408.486053,-383.047749,-4219.173869,14730.098246
408.486362,2451.505594,-1406.391290,10510.924376
408.486670,4903.011187,962.267725,7698.141797
408.486978,7737.564530,4071.132681,5921.647536
408.487286,9116.536426,4959.379811,5255.462188
408.487595,9806.022374,5921.647536,3701.029710
408.487903,9116.536426,5477.523971,3330.926739
408.488211,7431.126331,2886.803174,5625.565159
408.488519,4290.134789,-370.102971,8068.244768
408.488828,1225.752797,-3330.926739,11029.068536
408.489136,-919.314598,-4441.235652,13175.665768
408.489444,-1149.143247,-5107.421000,13175.665768
408.489752,-229.828649,-3627.009116,12731.542202
408.490061,2451.505594,-666.185348,11103.089130
408.490369,5898.935335,1258.350101,8808.450710
408.490677,6894.859482,2960.823768,6587.832884
408.490985,8503.660028,4219.173869,6365.771101
408.491294,7814.174080,4737.318029,6439.791695
408.491602,5669.106685,4293.194464,6809.894666
408.491910,5439.278036,1184.329507,10584.944971
408.492218,842.705048,-222.061783,9400.615463
408.492527,536.266849,-2368.659014,12583.501014
408.492835,-2068.457845,-3775.050304,13249.686362
408.493143,-3600.648841,-3256.906145,13989.892304
408.493451,-612.876398,-4515.256246,15100.201217
408.493760,536.266849,-1776.494261,9918.759623
408.494068,3830.477490,-2146.597232,10955.047942
408.494376,5592.497135,-740.205942,7920.203579
408.494684,6281.983084,370.102971,8660.409521
408.494992,6971.469032,444.123565,8142.265362
408.495300,6894.859482,2590.720797,6069.688724
408.495608,6971.469032,3923.091493,7105.977043
408.495916,6358.592633,5181.441594,4811.338623
408.496225,6894.859482,6365.771101,5995.668130
408.496533,6435.202183,5551.544565,5921.647536
408.496841,6052.154434,3849.070898,7179.997637
408.497149,4519.963438,814.226536,9178.553681
408.497457,2451.505594,-2072.576638,11177.109724
408.497765,0.000000,-5625.565159,15026.180623
408.498073,-1991.848295,-6439.791695,15100.201217
408.498381,-1762.019645,-5921.647536,15692.365970
408.498689,-1072.533697,-5033.400406,13397.727550
408.498997,1302.362347,-1480.411884,10807.006753
408.499305,3753.867940,444.123565,10140.821405
408.499613,4979.620737,1998.556043,8142.265362
408.499921,6281.983084,1702.473667,6587.832884
408.500229,6358.592633,2664.741391,5255.462188
408.500538,5975.544884,3552.988522,5107.421000
408.500846,6128.763984,3552.988522,6957.935855
408.501154,5592.497135,3997.112087,7328.038826
408.501462,5132.839837,3701.029710,7994.224174
408.501770,4596.572988,1776.494261,8364.327145
408.502078,3370.820191,592.164754,9400.615463
408.502386,2987.772442,-2442.679609,11917.315666
408.502694,2145.067394,-3478.967927,12065.356855
408.503002,689.485948,-5033.400406,12879.583391
408.503310,536.266849,-5033.400406,12805.562797
408.503618,459.657299,-3256.906145,11917.315666
408.503926,2374.896044,-814.226536,10584.944971
408.504234,4519.963438,1702.473667,9400.615463
408.504542,6128.763984,1924.535449,7328.038826
408.504851,5745.716235,2442.679609,6365.771101
408.505159,4979.620737,814.226536,8586.388927
408.505467,3677.258390,1110.308913,9326.594869
408.505775,2451.505594,962.267725,9474.636058
408.506083,1762.019645,1776.494261,9992.780217
408.506391,2451.505594,2368.659014,9548.656652
408.506699,4060.306139,3701.029710,9030.512492
408.507007,4519.963438,1924.535449,8956.491898
408.507315,4290.134789,296.082377,9696.697840
408.507623,2451.505594,-1406.391290,10362.883188
408.507931,153.219100,-3478.967927,11991.336260
408.508239,-995.924147,-3627.009116,12361.439231
408.508547,-229.828649,-1850.514855,11621.233289
408.508855,1455.581446,666.185348,10140.821405
408.509163,3064.381992,1776.494261,7772.162391
408.509472,4443.353888,2220.617826,7698.141797
408.509780,4519.963438,1480.411884,7550.100608
408.510088,2834.553343,592.164754,8438.347739
408.510396,995.924147,-0.000000,10140.821405
408.510704,612.876398,370.102971,10066.800811
408.511012,766.095498,1184.329507,10881.027347
408.511320,3064.381992,1850.514855,9696.697840
408.511628,3907.087040,1776.494261,8734.430116
408.511936,3830.477490,1036.288319,9326.594869
408.512244,2451.505594,-1702.473667,10066.800811
408.512552,76.609550,-2294.638420,11621.233289
408.512860,-1838.629195,-2886.803174,12953.603985
408.513168,306.438199,-2590.720797,12731.542202
408.513476,2221.676944,-1110.308913,9474.636058
408.513785,2528.115143,-370.102971,7105.977043
408.514093,3907.087040,-148.041188,7179.997637
408.514401,4060.306139,1628.453072,8142.265362
408.514709,3447.429741,1110.308913,9252.574275
408.515017,1762.019645,1554.432478,8808.450710
408.515325,3140.991542,2368.659014,9030.512492
408.515633,3140.991542,3256.906145,8734.430116
408.515941,4366.744339,2738.761985,8882.471304
408.516249,3447.429741,2590.720797,8882.471304
408.516557,2681.334243,-0.000000,10881.027347
408.516865,76.609550,-1776.494261,11399.171507
408.517173,-1532.190996,-1924.535449,12213.398043
408.517481,-995.924147,-2590.720797,12657.521608
408.517789,-842.705048,-2146.597232,10584.944971
408.518098,995.924147,-1258.350101,9474.636058
408.518406,1455.581446,-518.144159,8068.244768
408.518714,1072.533697,370.102971,8290.306550
408.519022,1915.238745,1184.329507,8734.430116
408.519330,1608.800546,2442.679609,9400.615463
408.519638,1838.629195,3478.967927,8142.265362
408.519946,2221.676944,3108.864956,8956.491898
408.520254,2987.772442,1998.556043,9548.656652
408.520562,1302.362347,-0.000000,10140.821405
408.520870,689.485948,-1332.370696,11843.295072
408.521178,-1608.800546,-2738.761985,12139.377449
408.521486,-2451.505594,-3849.070898,12361.439231
408.521794,-1378.971896,-2812.782580,11473.192101
408.522102,153.219100,-1998.556043,9918.759623
408.522410,1915.238745,-370.102971,7772.162391
408.522719,2068.457845,1480.411884,5033.400406
408.523027,2374.896044,2294.638420,6217.729913
408.523335,2987.772442,2368.659014,7179.997637
408.523643,2604.724693,3108.864956,6809.894666
408.523951,3600.648841,3775.050304,7994.224174
408.524259,2834.553343,1406.391290,7920.203579
408.524567,1608.800546,-0.000000,9770.718434
408.524875,-459.657299,-1702.473667,12805.562797
408.525183,-2298.286494,-2516.700203,13323.706956
408.525491,-4366.744339,-4293.194464,13989.892304
408.525799,-4060.306139,-4293.194464,14063.912898
408.526107,-2374.896044,-3256.906145,12583.501014
408.526415,-536.266849,-2146.597232,9696.697840
408.526723,1149.143247,-74.020594,7846.182985
408.527032,2145.067394,888.247130,6365.771101
408.527340,2681.334243,1998.556043,6735.874072
408.527648,2681.334243,2812.782580,7402.059420
408.527956,3907.087040,4293.194464,6587.832884
408.528264,4826.401637,3997.112087,6513.812290
408.528572,2987.772442,2738.761985,7328.038826
408.528880,2757.943793,814.226536,9474.636058
408.529188,995.924147,-296.082377,11177.109724
408.529496,-1838.629195,-1850.514855,13249.686362
408.529804,-3294.210641,-3923.091493,13471.748144
408.530112,-2374.896044,-3404.947333,12731.542202
408.530420,-1915.238745,-2886.803174,11251.130318
408.530728,-842.705048,-1554.432478,9030.512492
408.531036,1225.752797,-222.061783,8660.409521
408.531345,689.485948,1850.514855,7402.059420
408.531653,1991.848295,2146.597232,7772.162391
408.531961,3524.039291,3478.967927,7328.038826
408.532269,3677.258390,4737.318029,7476.080014
408.532577,4060.306139,3404.947333,7402.059420
408.532885,2757.943793,2220.617826,7846.182985
408.533193,612.876398,888.247130,11547.212695
408.533501,-383.047749,-2220.617826,13027.624579
408.533809,-2681.334243,-1406.391290,11769.274478
408.534117,-2298.286494,-4219.173869,12065.356855
408.534425,-1915.238745,-2442.679609,10066.800811
408.534733,-1072.533697,-2220.617826,9548.656652
408.535041,383.047749,-1406.391290,9992.780217
408.535349,1149.143247,1110.308913,7624.121203
408.535658,919.314598,1850.514855,8142.265362
408.535966,2911.162892,2368.659014,8586.388927
408.536274,3907.087040,3997.112087,7994.224174
408.536582,4519.963438,2960.823768,7476.080014
408.536890,2604.724693,2146.597232,8216.285956
408.537198,1608.800546,962.267725,10436.903782
408.537506,-919.314598,-296.082377,12065.356855
408.537814,-1378.971896,-1406.391290,13471.748144
408.538122,-2221.676944,-2664.741391,12509.480420
408.538430,-2298.286494,-2664.741391,10140.821405
408.538738,-995.924147,-2590.720797,9030.512492
408.539046,-766.095498,-2220.617826,8882.471304
408.539354,-153.219100,-222.061783,9030.512492
408.539662,689.485948,-0.000000,8290.306550
408.539970,1532.190996,1332.370696,7920.203579
408.540279,2451.505594,2368.659014,8660.409521
408.540587,3294.210641,2664.741391,8068.244768
408.540895,3217.601092,3182.885551,8216.285956
408.541203,919.314598,2294.638420,8734.430116
408.541511,612.876398,814.226536,11695.253884
408.541819,-306.438199,444.123565,12287.418637
408.542127,-1225.752797,-0.000000,10807.006753
408.542435,-459.657299,-1406.391290,9992.780217
408.542743,-766.095498,-1110.308913,7994.224174
408.543051,0.000000,-1776.494261,8882.471304
408.543359,-383.047749,-1036.288319,8142.265362
408.543667,306.438199,-0.000000,8438.347739
408.543975,612.876398,-74.020594,10288.862594
408.544283,1762.019645,740.205942,9104.533087
408.544592,2681.334243,1776.494261,8512.368333
408.544900,2374.896044,1924.535449,8512.368333
408.545208,1685.410096,2146.597232,9178.553681
408.545516,1149.143247,592.164754,10510.924376
408.545824,-995.924147,888.247130,11473.192101
408.546132,-842.705048,-888.247130,11843.295072
408.546440,-459.657299,-1406.391290,9844.739029
408.546748,-766.095498,-2294.638420,8808.450710
408.547056,-919.314598,-2146.597232,9178.553681
408.547364,-689.485948,-666.185348,8586.388927
408.547672,-153.219100,-962.267725,9474.636058
408.547980,-306.438199,-0.000000,8882.471304
408.548288,2068.457845,444.123565,9548.656652
408.548596,3064.381992,888.247130,9326.594869
408.548905,3140.991542,1776.494261,8512.368333
408.549213,2987.772442,1406.391290,8586.388927
408.549521,995.924147,592.164754,10066.800811
408.549829,689.485948,222.061783,11251.130318
408.550137,-689.485948,370.102971,10362.883188
408.550445,0.000000,-962.267725,10584.944971
408.550753,306.438199,-1406.391290,8142.265362
408.551061,-459.657299,-814.226536,7846.182985
408.551369,-306.438199,-1258.350101,9918.759623
408.551677,459.657299,-296.082377,8660.409521
408.551985,306.438199,740.205942,9474.636058
408.552293,1378.971896,740.205942,9992.780217
408.552601,2757.943793,1702.473667,8734.430116
408.552909,2757.943793,2738.761985,7920.203579
408.553218,2528.115143,1850.514855,9326.594869
408.553526,1455.581446,1332.370696,9770.718434
408.553834,306.438199,888.247130,11547.212695
408.554142,-1072.533697,296.082377,11325.150913
408.554450,153.219100,-666.185348,10066.800811
408.554758,-76.609550,-74.020594,8734.430116
408.555066,-383.047749,-1036.288319,8586.388927
408.555374,-766.095498,-1406.391290,8956.491898
408.555682,-536.266849,222.061783,9696.697840
408.555990,-612.876398,-1036.288319,11325.150913
408.556298,306.438199,-0.000000,9992.780217
408.556606,2451.505594,518.144159,9770.718434
408.556914,2911.162892,1036.288319,9326.594869
408.557222,2681.334243,1036.288319,8808.450710
408.557530,1762.019645,888.247130,10140.821405
408.557839,1149.143247,222.061783,11251.130318
408.558147,0.000000,444.123565,10807.006753
408.558455,383.047749,-74.020594,10066.800811
408.558763,1149.143247,-740.205942,8586.388927
408.559071,229.828649,-296.082377,7402.059420
408.559379,383.047749,-370.102971,8290.306550
408.559687,306.438199,-222.061783,9178.553681
408.559995,-383.047749,-518.144159,9252.574275
408.560303,842.705048,-370.102971,10584.944971
408.560611,2145.067394,222.061783,10584.944971
408.560919,2987.772442,814.226536,8808.450710
408.561227,1455.581446,666.185348,8882.471304
408.561535,1685.410096,296.082377,9992.780217
408.561843,153.219100,592.164754,10807.006753
408.562152,-536.266849,962.267725,11695.253884
408.562460,-229.828649,222.061783,10510.924376
408.562768,536.266849,-518.144159,8512.368333
408.563076,-842.705048,-222.061783,7698.141797
408.563384,459.657299,-740.205942,8290.306550
408.563692,459.657299,518.144159,8734.430116
408.564000,-1149.143247,222.061783,9178.553681
408.564308,459.657299,370.102971,9326.594869
408.564616,2374.896044,1480.411884,9474.636058
408.564924,2298.286494,1998.556043,8290.306550
408.565232,2374.896044,1036.288319,8586.388927
408.565540,995.924147,666.185348,10066.800811
408.565848,-459.657299,888.247130,11695.253884
408.566156,-612.876398,-814.226536,13027.624579
408.566465,0.000000,-0.000000,11103.089130
408.566773,-689.485948,-1110.308913,9548.656652
408.567081,229.828649,-296.082377,7402.059420
408.567389,612.876398,-444.123565,8216.285956
408.567697,0.000000,592.164754,8512.368333
408.568005,-536.266849,-74.020594,9844.739029
408.568313,1149.143247,666.185348,9992.780217
408.568621,2374.896044,962.267725,9474.636058
408.568929,2068.457845,962.267725,9622.677246
408.569237,1762.019645,888.247130,9326.594869
408.569545,842.705048,-592.164754,10955.047942
408.569853,-306.438199,148.041188,11325.150913
408.570161,-1608.800546,-444.123565,12657.521608
408.570469,-1072.533697,-1184.329507,11991.336260
408.570778,0.000000,-1184.329507,9844.739029
408.571086,306.438199,-1258.350101,7994.224174
408.571394,1149.143247,-74.020594,8068.244768
408.571702,1072.533697,740.205942,8438.347739
408.572010,306.438199,1480.411884,7846.182985
408.572318,1762.019645,888.247130,9474.636058
408.572626,2604.724693,1702.473667,8734.430116
408.572934,2528.115143,2368.659014,7846.182985
408.573242,2298.286494,1332.370696,8734.430116
408.573550,1072.533697,296.082377,10288.862594
408.573858,-459.657299,222.061783,11769.274478
408.574166,-612.876398,-296.082377,11991.336260
408.574474,-1532.190996,-1258.350101,11029.068536
408.574782,-1149.143247,-1184.329507,9696.697840
408.575090,689.485948,-1036.288319,8068.244768
408.575399,919.314598,-444.123565,7328.038826
408.575707,229.828649,740.205942,8364.327145
408.576015,1378.971896,-0.000000,9178.553681
408.576323,842.705048,1406.391290,8512.368333
408.576631,1378.971896,1480.411884,9252.574275
408.576939,2604.724693,1110.308913,9770.718434
408.577247,2451.505594,1628.453072,8956.491898
408.577555,1302.362347,-0.000000,10140.821405
408.577863,459.657299,-518.144159,11325.150913
408.578171,306.438199,-518.144159,11917.315666
408.578479,-995.924147,-2072.576638,12657.521608
408.578787,-306.438199,-2220.617826,11029.068536
408.579095,229.828649,-1184.329507,7994.224174
408.579403,153.219100,-592.164754,8068.244768
408.579712,306.438199,518.144159,8290.306550
408.580020,1225.752797,1036.288319,8364.327145
408.580328,1532.190996,1776.494261,8438.347739
408.580636,2374.896044,2146.597232,7846.182985
408.580944,3447.429741,1924.535449,8068.244768
408.581252,2681.334243,1776.494261,8882.471304
408.581560,995.924147,222.061783,10214.842000
408.581868,-229.828649,-518.144159,11547.212695
408.582176,-1149.143247,-1036.288319,12657.521608
408.582484,-2221.676944,-2220.617826,12435.459826
408.582792,-536.266849,-2072.576638,11177.109724
408.583100,0.000000,-962.267725,8142.265362
408.583408,76.609550,-0.000000,7698.141797
408.583716,1378.971896,-0.000000,8290.306550
408.584025,1532.190996,1110.308913,8142.265362
408.584333,689.485948,1924.535449,8142.265362
408.584641,1915.238745,2368.659014,7254.018232
408.584949,3753.867940,2664.741391,7920.203579
408.585257,3217.601092,2368.659014,9178.553681
408.585565,612.876398,962.267725,8956.491898
408.585873,76.609550,-666.185348,12805.562797
408.586181,-766.095498,-1184.329507,13545.768739
408.586489,-2451.505594,-2294.638420,12953.603985
408.586797,-2068.457845,-2886.803174,12361.439231
408.587105,0.000000,-2812.782580,9918.759623
408.587413,0.000000,-1406.391290,7772.162391
408.587721,536.266849,592.164754,8068.244768
408.588029,2911.162892,1332.370696,8364.327145
408.588337,2298.286494,2368.659014,6587.832884
408.588646,3140.991542,3404.947333,6809.894666
408.588954,3677.258390,3108.864956,7772.162391
408.589262,3370.820191,2590.720797,8364.327145
408.589570,1838.629195,1258.350101,10288.862594
408.589878,-766.095498,-370.102971,11769.274478
408.590186,-2528.115143,-1110.308913,13027.624579
408.590494,-1532.190996,-3182.885551,14582.057057
408.590802,-2068.457845,-2146.597232,12361.439231
408.591110,-1072.533697,-2516.700203,8734.430116
408.591418,-459.657299,-1406.391290,8216.285956
408.591726,612.876398,592.164754,8734.430116
408.592034,1302.362347,1406.391290,8512.368333
408.592342,1608.800546,2664.741391,7846.182985
408.592650,2987.772442,3849.070898,6217.729913
408.592959,3830.477490,4737.318029,6661.853478
408.593267,4519.963438,2886.803174,8216.285956
408.593575,2374.896044,2146.597232,8586.388927
408.593883,-612.876398,740.205942,10362.883188
408.594191,-919.314598,-1554.432478,13027.624579
408.594499,-2911.162892,-2590.720797,13693.809927
408.594807,-3140.991542,-2886.803174,14211.954086
408.595115,-1685.410096,-3701.029710,10510.924376
408.595423,-1072.533697,-2738.761985,9104.533087
408.595731,76.609550,-1110.308913,9770.718434
408.596039,1072.533697,-444.123565,8882.471304
408.596347,766.095498,1184.329507,8660.409521
408.596655,2604.724693,2886.803174,7254.018232
408.596963,4060.306139,2960.823768,7476.080014
408.597271,3677.258390,2960.823768,7994.224174
408.597579,3370.820191,1184.329507,8290.306550
408.597887,1225.752797,740.205942,9696.697840
408.598195,-612.876398,-592.164754,12435.459826
408.598503,-1838.629195,-2738.761985,14582.057057
408.598811,-2528.115143,-3034.844362,12879.583391
408.599119,-1991.848295,-3478.967927,10362.883188
408.599427,-612.876398,-3404.947333,9622.677246
408.599735,-1072.533697,-1036.288319,7994.224174
408.600043,0.000000,-518.144159,8512.368333
408.600351,1762.019645,74.020594,9030.512492
408.600659,1455.581446,3478.967927,5477.523971
408.600967,2834.553343,3478.967927,6143.709319
408.601275,3907.087040,3256.906145,7624.121203
408.601583,2604.724693,3034.844362,7328.038826
408.601891,1149.143247,1776.494261,8586.388927
408.602199,536.266849,1258.350101,9844.739029
408.602507,-1608.800546,-740.205942,12583.501014
408.602815,-1915.238745,-2738.761985,12731.542202
408.603123,-1915.238745,-2220.617826,10362.883188
408.603431,-2068.457845,-2590.720797,10140.821405
408.603739,-536.266849,-1850.514855,10214.842000
408.604047,383.047749,370.102971,9474.636058
408.604356,536.266849,1776.494261,7994.224174
408.604664,1838.629195,962.267725,8438.347739
408.604972,3064.381992,3997.112087,6661.853478
408.605280,4443.353888,3330.926739,7994.224174
408.605588,3217.601092,2368.659014,7994.224174
408.605896,1838.629195,1258.350101,8512.368333
408.606204,1072.533697,592.164754,10881.027347
408.606512,-1302.362347,-888.247130,12139.377449
408.606820,-1532.190996,-3108.864956,13027.624579
408.607128,-2604.724693,-3182.885551,11399.171507
408.607436,-1455.581446,-2442.679609,9474.636058
408.607744,-842.705048,-2590.720797,9992.780217
408.608052,76.609550,-0.000000,9918.759623
408.608360,995.924147,518.144159,8882.471304
408.608668,1378.971896,1406.391290,7994.224174
408.608976,3677.258390,2368.659014,8290.306550
408.609284,4443.353888,3256.906145,8068.244768
408.609592,3907.087040,3182.885551,7846.182985
408.609900,2681.334243,2294.638420,9548.656652
408.610208,1838.629195,444.123565,11695.253884
408.610516,-1915.238745,-74.020594,11029.068536
408.610824,-919.314598,-2664.741391,13545.768739
408.611132,-1455.581446,-3034.844362,10732.986159
408.611440,-2451.505594,-1480.411884,8956.491898
408.611748,-1149.143247,-3552.988522,11399.171507
408.612056,-383.047749,-74.020594,9178.553681
408.612364,766.095498,666.185348,8956.491898
408.612672,1685.410096,2368.659014,7476.080014
408.612980,4213.525239,2368.659014,7254.018232
408.613288,3753.867940,3849.070898,7772.162391
408.613596,3983.696590,3182.885551,8142.265362
408.613904,2834.553343,2738.761985,7920.203579
408.614212,1072.533697,1850.514855,10510.924376
408.614520,-229.828649,-148.041188,11843.295072
408.614828,-1149.143247,-740.205942,11695.253884
408.615136,-2145.067394,-2812.782580,11917.315666
408.615444,-1225.752797,-2516.700203,9844.739029
408.615752,-1608.800546,-2294.638420,9104.533087
408.616060,-842.705048,-1406.391290,11029.068536
408.616368,-995.924147,-888.247130,9104.533087
408.616676,1072.533697,666.185348,9548.656652
408.616984,2221.676944,1850.514855,8808.450710
408.617292,2987.772442,2146.597232,7772.162391
408.617600,3830.477490,2368.659014,7994.224174
408.617908,2757.943793,2146.597232,9474.636058
408.618216,1225.752797,1258.350101,10140.821405
408.618524,0.000000,-74.020594,11695.253884
408.618832,-612.876398,-1480.411884,11325.150913
408.619140,-995.924147,-2590.720797,10436.903782
408.619448,-536.266849,-3256.906145,9696.697840
408.619756,-1608.800546,-2516.700203,9844.739029
408.620064,-1072.533697,-1480.411884,9622.677246
408.620372,-306.438199,-444.123565,9326.594869
408.620680,1072.533697,814.226536,8512.368333
408.620988,2528.115143,2220.617826,8216.285956
408.621296,3677.258390,2738.761985,7920.203579
408.621604,3600.648841,2368.659014,8068.244768
408.621912,2604.724693,2220.617826,8660.409521
408.622220,1302.362347,1702.473667,9178.553681
408.622528,766.095498,-0.000000,11029.068536
408.622836,-995.924147,-888.247130,11177.109724
408.623144,-1378.971896,-1628.453072,10436.903782
408.623452,-1685.410096,-2072.576638,9844.739029
408.623760,-1532.190996,-2368.659014,9622.677246
408.624068,-1532.190996,-1332.370696,9548.656652
408.624376,-153.219100,-0.000000,9548.656652
408.624684,995.924147,666.185348,9030.512492
408.624992,1608.800546,2072.576638,8586.388927
408.625300,3294.210641,2738.761985,8512.368333
408.625608,3677.258390,2960.823768,8142.265362
408.625916,2451.505594,2516.700203,8438.347739
408.626224,1915.238745,1924.535449,9548.656652
408.626532,612.876398,1258.350101,11177.109724
408.626840,-995.924147,-444.123565,12065.356855
408.627148,-306.438199,-1850.514855,10881.027347
408.627456,-766.095498,-1702.473667,9474.636058
408.627764,-1149.143247,-2516.700203,9326.594869
408.628072,-1532.190996,-2072.576638,9474.636058
408.628380,-612.876398,-74.020594,9770.718434
408.628688,229.828649,-518.144159,10436.903782
408.628996,1608.800546,962.267725,8956.491898
408.629304,2681.334243,2220.617826,8734.430116
408.629612,3370.820191,2294.638420,9918.759623
408.629920,3907.087040,1998.556043,8142.265362
408.630228,2374.896044,1628.453072,8586.388927
408.630536,1225.752797,518.144159,10510.924376
408.630844,306.438199,-1480.411884,11769.274478
408.631152,-995.924147,-1258.350101,10288.862594
408.631460,-1838.629195,-2886.803174,9104.533087
408.631768,-1532.190996,-1850.514855,9844.739029
408.632076,-1532.190996,-1850.514855,10362.883188
408.632384,-842.705048,-296.082377,9474.636058
408.632692,-459.657299,888.247130,8142.265362
408.633000,1838.629195,1850.514855,9178.553681
408.633308,2451.505594,2960.823768,8142.265362
408.633616,3600.648841,3182.885551,8216.285956
408.633924,3524.039291,2442.679609,7476.080014
408.634232,2145.067394,1406.391290,9696.697840
408.634540,842.705048,962.267725,10807.006753
408.634848,-306.438199,-740.205942,12435.459826
408.635156,-995.924147,-1776.494261,11769.274478
408.635464,-1302.362347,-1480.411884,9178.553681
408.635772,-842.705048,-2294.638420,10362.883188
408.636080,-1532.190996,-1554.432478,9030.512492
408.636388,153.219100,-888.247130,9474.636058
408.636696,306.438199,-148.041188,8882.471304
408.637004,919.314598,740.205942,8734.430116
408.637312,2298.286494,1332.370696,9400.615463
408.637621,2987.772442,2146.597232,7994.224174
408.637929,2298.286494,2368.659014,8512.368333
408.638237,2987.772442,740.205942,9400.615463
408.638545,766.095498,1258.350101,9326.594869
408.638853,612.876398,-518.144159,11917.315666
408.639161,76.609550,-1554.432478,10732.986159
408.639469,-612.876398,-1628.453072,10214.842000
408.639777,0.000000,-2664.741391,9326.594869
408.640085,-536.266849,-1258.350101,8586.388927
408.640393,-383.047749,-518.144159,9622.677246
408.640701,-459.657299,-74.020594,9178.553681
408.641009,1149.143247,1258.350101,9178.553681
408.641317,1991.848295,1258.350101,9992.780217
408.641625,2451.505594,1406.391290,9030.512492
408.641933,2451.505594,1110.308913,8956.491898
408.642241,1225.752797,518.144159,9548.656652
408.642549,612.876398,666.185348,10732.986159
408.642857,153.219100,222.061783,10732.986159
408.643165,-536.266849,-666.185348,10584.944971
408.643473,-536.266849,-296.082377,9030.512492
408.643781,0.000000,-1110.308913,8438.347739
408.644089,306.438199,-0.000000,8734.430116
408.644397,995.924147,296.082377,8364.327145
408.644705,229.828649,1110.308913,8142.265362
408.645013,689.485948,1184.329507,9622.677246
408.645321,2145.067394,1406.391290,9474.636058
408.645629,2604.724693,2664.741391,8808.450710
408.645937,2145.067394,1480.411884,9474.636058
408.646245,1378.971896,-0.000000,9178.553681
408.646553,229.828649,296.082377,11547.212695
408.646861,-536.266849,-1184.329507,12435.459826
408.647169,-459.657299,-1924.535449,12213.398043
408.647477,-995.924147,-1332.370696,10436.903782
408.647785,-383.047749,-1332.370696,9474.636058
408.648093,383.047749,-592.164754,8216.285956
408.648401,153.219100,666.185348,8216.285956
408.648709,459.657299,740.205942,9178.553681
408.649017,1149.143247,962.267725,8142.265362
408.649325,2221.676944,2072.576638,8882.471304
408.649633,2451.505594,1332.370696,10584.944971
408.649941,1838.629195,1258.350101,8512.368333
408.650249,1455.581446,222.061783,10584.944971
408.650557,459.657299,-888.247130,11251.130318
408.650865,-306.438199,-1258.350101,11473.192101
408.651173,-306.438199,-1480.411884,11251.130318
408.651481,-1149.143247,-1702.473667,9400.615463
408.651789,689.485948,-1184.329507,9104.533087
408.652097,383.047749,-74.020594,7994.224174
408.652405,919.314598,444.123565,7698.141797
408.652713,76.609550,1406.391290,7698.141797
408.653021,612.876398,1628.453072,8660.409521
408.653329,1532.190996,2294.638420,8882.471304
408.653637,1838.629195,2220.617826,9326.594869
408.653945,1838.629195,1480.411884,9252.574275
408.654253,1455.581446,518.144159,9474.636058
408.654561,0.000000,-222.061783,11251.130318
408.654869,-995.924147,-370.102971,11251.130318
408.655177,-612.876398,-962.267725,11251.130318
408.655485,-766.095498,-1036.288319,10436.903782
408.655793,-536.266849,-1184.329507,8956.491898
408.656101,919.314598,-222.061783,7994.224174
408.656409,919.314598,148.041188,7920.203579
408.656717,459.657299,592.164754,7624.121203
408.657025,689.485948,814.226536,8512.368333
408.657333,1072.533697,1998.556043,9178.553681
408.657641,1915.238745,1110.308913,9918.759623
408.657949,2145.067394,1110.308913,9178.553681
408.658257,995.924147,666.185348,9992.780217
408.658565,995.924147,-1184.329507,11547.212695
408.658873,-229.828649,-296.082377,11029.068536
408.659181,-306.438199,-1184.329507,11917.315666
408.659489,-306.438199,-1998.556043,11029.068536
408.659797,306.438199,-1258.350101,9178.553681
408.660105,766.095498,-0.000000,8142.265362
408.660413,919.314598,-0.000000,7476.080014
408.660721,842.705048,1258.350101,7698.141797
408.661029,1302.362347,888.247130,8882.471304
408.661337,1378.971896,1110.308913,9178.553681
408.661645,1685.410096,1406.391290,9548.656652
408.661953,2145.067394,888.247130,10362.883188
408.662261,1072.533697,-74.020594,10510.924376
408.662569,459.657299,-592.164754,11251.130318
408.662877,0.000000,-666.185348,12287.418637
408.663185,-689.485948,-962.267725,11695.253884
408.663493,-459.657299,-1110.308913,10362.883188
408.663801,1072.533697,-296.082377,9104.533087
408.664109,1378.971896,-0.000000,8142.265362
408.664417,1685.410096,962.267725,7105.977043
408.664725,1455.581446,1480.411884,7846.182985
408.665033,842.705048,1924.535449,8512.368333
408.665341,1149.143247,2368.659014,8734.430116
408.665649,1455.581446,2590.720797,9474.636058
408.665957,1532.190996,1480.411884,10658.965565
408.666265,536.266849,1258.350101,10732.986159
408.666573,1532.190996,-666.185348,12583.501014
408.666881,-1072.533697,-148.041188,11621.233289
408.667189,-1302.362347,-888.247130,12139.377449
408.667497,-536.266849,-1332.370696,12139.377449
408.667805,-383.047749,-518.144159,10510.924376
408.668113,1072.533697,-518.144159,8290.306550
408.668421,2145.067394,740.205942,6217.729913
408.668729,689.485948,1406.391290,7179.997637
408.669037,612.876398,1184.329507,9474.636058
408.669345,1378.971896,1258.350101,9326.594869
408.669653,1455.581446,2368.659014,9474.636058
408.669961,2221.676944,1110.308913,8956.491898
408.670269,1149.143247,592.164754,9622.677246
408.670577,-153.219100,-1628.453072,12583.501014
408.670885,-612.876398,-1998.556043,11843.295072
408.671194,-2068.457845,-1702.473667,11621.233289
408.671502,-1608.800546,-2960.823768,12065.356855
408.671810,-229.828649,-2886.803174,9696.697840
408.672118,689.485948,-370.102971,8142.265362
408.672426,1762.019645,-148.041188,6809.894666
408.672734,1378.971896,1110.308913,6217.729913
408.673042,1685.410096,1702.473667,7179.997637
408.673350,2451.505594,1628.453072,7846.182985
408.673658,2145.067394,2590.720797,7772.162391
408.673966,2451.505594,2664.741391,8290.306550
408.674274,1685.410096,222.061783,10066.800811
408.674582,0.000000,-0.000000,10066.800811
408.674890,306.438199,-962.267725,11843.295072
408.675198,-2298.286494,-814.226536,11103.089130
408.675506,-1072.533697,-2220.617826,12361.439231
408.675814,-766.095498,-1628.453072,11473.192101
408.676122,612.876398,-1258.350101,8734.430116
408.676430,459.657299,-370.102971,6957.935855
408.676738,1302.362347,1406.391290,5995.668130
408.677046,2068.457845,1406.391290,8882.471304
408.677354,1378.971896,2146.597232,7476.080014
408.677662,2528.115143,2812.782580,8660.409521
408.677970,2681.334243,2442.679609,9030.512492
408.678278,1991.848295,1332.370696,9326.594869
408.678586,1455.581446,148.041188,10584.944971
408.678894,0.000000,-370.102971,11547.212695
408.679202,-995.924147,-888.247130,12361.439231
408.679510,-1991.848295,-1998.556043,12139.377449
408.679818,-995.924147,-2368.659014,11325.150913
408.680126,-842.705048,-1702.473667,8882.471304
408.680434,842.705048,-1258.350101,8586.388927
408.680742,612.876398,296.082377,7402.059420
408.681050,536.266849,814.226536,7920.203579
408.681358,1455.581446,740.205942,9770.718434
408.681666,1838.629195,2368.659014,7698.141797
408.681974,2145.067394,2738.761985,8660.409521
408.682282,2528.115143,1702.473667,9474.636058
408.682590,1455.581446,296.082377,11177.109724
408.682898,0.000000,-148.041188,11621.233289
408.683206,-919.314598,-666.185348,11695.253884
408.683514,-1149.143247,-1702.473667,12509.480420
408.683822,-612.876398,-2146.597232,10807.006753
408.684130,0.000000,-1480.411884,9252.574275
408.684438,919.314598,-1110.308913,7846.182985
408.684746,306.438199,444.123565,6957.935855
408.685054,842.705048,962.267725,8586.388927
408.685362,1302.362347,1480.411884,9326.594869
408.685670,1225.752797,2664.741391,8882.471304
408.685978,2451.505594,2738.761985,8068.244768
408.686286,3753.867940,2368.659014,9104.533087
408.686594,1149.143247,1850.514855,9400.615463
408.686902,306.438199,888.247130,10732.986159
408.687210,1149.143247,-444.123565,12879.583391
408.687518,-3140.991542,-592.164754,11177.109724
408.687826,-1225.752797,-3256.906145,13249.686362
408.688134,-383.047749,-2368.659014,11103.089130
408.688442,-612.876398,-1332.370696,8512.368333
408.688750,229.828649,-1258.350101,8660.409521
408.689058,689.485948,592.164754,7846.182985
408.689366,536.266849,666.185348,10436.903782
408.689674,1149.143247,2294.638420,7698.141797
408.689982,4060.306139,3775.050304,8364.327145
408.690290,3370.820191,3108.864956,8882.471304
408.690598,2221.676944,1776.494261,9178.553681
408.690906,766.095498,814.226536,10288.862594
408.691214,-842.705048,296.082377,12509.480420
408.691522,-1608.800546,-1776.494261,13027.624579
408.691830,-2451.505594,-1776.494261,10955.047942
408.692138,-1225.752797,-2812.782580,11769.274478
408.692446,-1149.143247,-2294.638420,8808.450710
408.692754,306.438199,-0.000000,7254.018232
408.693062,1225.752797,296.082377,9252.574275
408.693370,1072.533697,740.205942,8586.388927
408.693678,2374.896044,2664.741391,7328.038826
408.693986,2757.943793,3256.906145,7402.059420
408.694294,3447.429741,2664.741391,8956.491898
408.694602,3217.601092,1924.535449,8512.368333
408.694910,1072.533697,1332.370696,9400.615463
408.695218,76.609550,-222.061783,10881.027347
408.695526,-689.485948,-1924.535449,11991.336260
408.695834,-1838.629195,-2812.782580,13249.686362
408.696142,-1762.019645,-3182.885551,10140.821405
408.696450,-1532.190996,-3108.864956,8882.471304
408.696758,-1072.533697,-2294.638420,9178.553681
408.697066,229.828649,-0.000000,8068.244768
408.697374,919.314598,-0.000000,8660.409521
408.697682,2145.067394,1036.288319,9326.594869
408.697990,3217.601092,2960.823768,6365.771101
408.698298,4060.306139,3182.885551,7179.997637
408.698606,3524.039291,1924.535449,9474.636058
408.698914,2374.896044,2590.720797,8438.347739
408.699222,612.876398,1184.329507,10140.821405
408.699530,-1149.143247,-1184.329507,12657.521608
408.699838,-1532.190996,-1628.453072,12657.521608
408.700146,-1838.629195,-2738.761985,11103.089130
408.700454,-2451.505594,-2738.761985,10881.027347
408.700762,-1225.752797,-2590.720797,9178.553681
408.701070,-995.924147,-0.000000,9326.594869
408.701378,-766.095498,-148.041188,10510.924376
408.701686,1608.800546,1110.308913,9104.533087
408.701994,2834.553343,2886.803174,7328.038826
408.702302,3370.820191,3849.070898,7920.203579
408.702610,3677.258390,2738.761985,8142.265362
408.702918,2987.772442,2146.597232,9400.615463
408.703226,-153.219100,2072.576638,10066.800811
408.703534,383.047749,-0.000000,11547.212695
408.703842,-1225.752797,-1924.535449,12213.398043
408.704150,-2145.067394,-2146.597232,10288.862594
408.704458,-919.314598,-2664.741391,8882.471304
408.704766,-1072.533697,-1776.494261,9548.656652
408.705074,0.000000,-1406.391290,9474.636058
408.705382,-383.047749,-222.061783,9548.656652
408.705690,1455.581446,740.205942,9918.759623
408.705998,3064.381992,1998.556043,7994.224174
408.706306,4519.963438,4145.153275,6957.935855
408.706614,4060.306139,2812.782580,8142.265362
408.706922,2757.943793,2072.576638,8882.471304
408.707230,1915.238745,1480.411884,9326.594869
408.707538,919.314598,-0.000000,11325.150913
408.707846,-995.924147,-2590.720797,13027.624579
408.708154,-1455.581446,-2442.679609,10807.006753
408.708462,-2068.457845,-3108.864956,10510.924376
408.708770,-842.705048,-2812.782580,10214.842000
408.709078,-383.047749,-1036.288319,8956.491898
408.709386,229.828649,-0.000000,9548.656652
408.709693,919.314598,222.061783,9474.636058
408.710001,2911.162892,1924.535449,7920.203579
408.710309,4290.134789,2738.761985,8734.430116
408.710617,4060.306139,2368.659014,8290.306550
408.710925,2834.553343,2442.679609,7846.182985
408.711233,1455.581446,1924.535449,9844.739029
408.711541,0.000000,-0.000000,11547.212695
408.711849,-1685.410096,-888.247130,12065.356855
408.712157,-1838.629195,-2590.720797,12139.377449
408.712465,-2298.286494,-2738.761985,10214.842000
408.712773,-995.924147,-2738.761985,9770.718434
408.713081,-995.924147,-1702.473667,9918.759623
408.713389,-919.314598,222.061783,9326.594869
408.713697,1608.800546,592.164754,9474.636058
408.714005,1991.848295,2960.823768,7105.977043
408.714313,3907.087040,3552.988522,7476.080014
408.714621,4290.134789,2664.741391,7772.162391
408.714929,3140.991542,3256.906145,8438.347739
408.715237,1685.410096,2072.576638,8882.471304
408.715545,459.657299,518.144159,11177.109724
408.715853,-995.924147,-740.205942,12731.542202
408.716161,-1991.848295,-2146.597232,11177.109724
408.716469,-2068.457845,-2368.659014,11029.068536
408.716777,-1532.190996,-3034.844362,10288.862594
408.717085,-2451.505594,-2294.638420,9696.697840
408.717393,-1072.533697,-1184.329507,9770.718434
408.717701,229.828649,-592.164754,10881.027347
408.718009,2145.067394,1480.411884,9326.594869
408.718317,2834.553343,3256.906145,7920.203579
408.718625,4749.792088,2072.576638,9474.636058
408.718933,3447.429741,2590.720797,7328.038826
408.719241,1762.019645,2516.700203,8734.430116
408.719549,1225.752797,-0.000000,11695.253884
408.719857,-842.705048,-518.144159,11251.130318
408.720165,-1685.410096,-1776.494261,11103.089130
408.720473,-2451.505594,-2738.761985,10510.924376
408.720781,-1532.190996,-2812.782580,9252.574275
408.721089,-2068.457845,-1998.556043,9178.553681
408.721397,-1532.190996,-370.102971,10362.883188
408.721705,0.000000,-148.041188,10140.821405
408.722013,459.657299,1850.514855,9622.677246
408.722321,3140.991542,2294.638420,8142.265362
408.722629,2911.162892,2368.659014,7846.182985
408.722937,3524.039291,1924.535449,8808.450710
408.723245,1685.410096,2516.700203,8290.306550
408.723553,1149.143247,888.247130,10140.821405
408.723861,383.047749,-74.020594,11917.315666
408.724169,-459.657299,-1110.308913,10362.883188
408.724476,-1072.533697,-1628.453072,9918.759623
408.724784,-1762.019645,-2590.720797,10140.821405
408.725092,-1608.800546,-1110.308913,10510.924376
408.725400,-1685.410096,-74.020594,9252.574275
408.725708,76.609550,518.144159,10955.047942
408.726016,1762.019645,1480.411884,8512.368333
408.726324,3370.820191,2590.720797,7624.121203
408.726632,4136.915689,2664.741391,8142.265362
408.726940,4213.525239,1776.494261,7698.141797
408.727248,2451.505594,2738.761985,8216.285956
408.727556,1455.581446,1332.370696,10732.986159
408.727864,842.705048,-0.000000,11251.130318
408.728172,-306.438199,-814.226536,10807.006753
408.728480,-306.438199,-2072.576638,9918.759623
408.728788,-842.705048,-2516.700203,9104.533087
408.729096,-766.095498,-1554.432478,9474.636058
408.729404,-1455.581446,-1406.391290,10362.883188
408.729712,153.219100,-666.185348,9992.780217
408.730020,995.924147,296.082377,9992.780217
408.730328,2221.676944,592.164754,9104.533087
408.730636,3907.087040,1628.453072,7994.224174
408.730944,3294.210641,2072.576638,8364.327145
408.731252,1378.971896,1628.453072,8882.471304
408.731560,1532.190996,740.205942,10584.944971
408.731868,0.000000,148.041188,11843.295072
408.732176,-842.705048,-1776.494261,11473.192101
408.732484,-383.047749,-2220.617826,10066.800811
408.732792,-1225.752797,-1702.473667,7994.224174
408.733100,-1915.238745,-1258.350101,9104.533087
408.733408,-1302.362347,-1110.308913,9696.697840
408.733716,0.000000,1480.411884,9178.553681
408.734024,1685.410096,1184.329507,8734.430116
408.734332,1685.410096,2220.617826,7179.997637
408.734640,3217.601092,2738.761985,8438.347739
408.734948,3140.991542,2220.617826,9030.512492
408.735256,1838.629195,2442.679609,8660.409521
408.735564,689.485948,1258.350101,10066.800811
408.735872,536.266849,-0.000000,11177.109724
408.736180,-459.657299,-888.247130,10140.821405
408.736488,-919.314598,-1628.453072,9178.553681
408.736796,-612.876398,-1998.556043,10288.862594
408.737104,-383.047749,-2442.679609,9326.594869
408.737412,-1378.971896,-518.144159,8956.491898
408.737720,-536.266849,-814.226536,11029.068536
408.738028,536.266849,-0.000000,9992.780217
408.738336,1455.581446,1406.391290,9178.553681
408.738644,2451.505594,962.267725,10436.903782
408.738952,2911.162892,2220.617826,9326.594869
408.739259,1302.362347,1184.329507,9400.615463
408.739567,766.095498,1184.329507,10732.986159
408.739875,995.924147,-74.020594,11769.274478
408.740183,153.219100,-222.061783,10510.924376
408.740491,0.000000,-1258.350101,9992.780217
408.740799,-306.438199,-1258.350101,8882.471304
408.741107,-612.876398,-518.144159,7920.203579
408.741415,-689.485948,-296.082377,9030.512492
408.741723,-459.657299,-592.164754,9696.697840
408.742031,766.095498,444.123565,9918.759623
408.742339,1302.362347,1480.411884,8586.388927
408.742647,2298.286494,370.102971,10066.800811
408.742955,2604.724693,2220.617826,8438.347739
408.743263,1762.019645,1998.556043,10288.862594
408.743571,689.485948,1036.288319,10955.047942
408.743879,766.095498,888.247130,11251.130318
408.744187,0.000000,-0.000000,11695.253884
408.744495,0.000000,-222.061783,9474.636058
408.744803,76.609550,-518.144159,8734.430116
408.745111,-1149.143247,-74.020594,8512.368333
408.745419,-919.314598,-74.020594,9622.677246
408.745727,-306.438199,-222.061783,9548.656652
408.746035,-689.485948,740.205942,8956.491898
408.746343,766.095498,1036.288319,9770.718434
408.746651,2374.896044,1036.288319,9326.594869
408.746959,2298.286494,888.247130,10584.944971
408.747267,536.266849,222.061783,10584.944971
408.747575,1149.143247,-148.041188,10955.047942
408.747883,536.266849,-888.247130,11769.274478
408.748191,-612.876398,-888.247130,11103.089130
408.748499,842.705048,-1702.473667,10066.800811
408.748807,612.876398,-666.185348,8882.471304
408.749115,306.438199,-222.061783,7476.080014
408.749423,1225.752797,-370.102971,7402.059420
408.749731,153.219100,1332.370696,8364.327145
408.750039,842.705048,-0.000000,9178.553681
408.750347,2068.457845,1406.391290,8364.327145
408.750655,2528.115143,1702.473667,8660.409521
408.750963,1455.581446,666.185348,9696.697840
408.751271,689.485948,-222.061783,10732.986159
408.751579,153.219100,-444.123565,11103.089130
408.751887,-1072.533697,-444.123565,10807.006753
408.752195,-689.485948,-1110.308913,11695.253884
408.752503,153.219100,-1110.308913,9844.739029
408.752811,-383.047749,-0.000000,7846.182985
408.753119,383.047749,-740.205942,7624.121203
408.753427,612.876398,740.205942,7994.224174
408.753735,536.266849,1184.329507,7994.224174
408.754042,306.438199,1184.329507,8808.450710
408.754350,1915.238745,1628.453072,9104.533087
408.754658,1991.848295,2368.659014,8512.368333
408.754966,1838.629195,1480.411884,9622.677246
408.755274,1532.190996,1036.288319,9696.697840
408.755582,842.705048,296.082377,10436.903782
408.755890,-229.828649,-0.000000,10658.965565
408.756198,-689.485948,-1036.288319,11029.068536
408.756506,0.000000,-1110.308913,10881.027347
408.756814,0.000000,-1036.288319,9178.553681
408.757122,689.485948,-1184.329507,7920.203579
408.757430,459.657299,-74.020594,7994.224174
408.757738,459.657299,888.247130,8364.327145
408.758046,383.047749,1184.329507,9474.636058
408.758354,1225.752797,740.205942,9548.656652
408.758662,1532.190996,518.144159,9844.739029
408.758970,2451.505594,1110.308913,9474.636058
408.759278,1378.971896,-592.164754,10510.924376
408.759586,0.000000,-1258.350101,11547.212695
408.759894,-842.705048,-1554.432478,11769.274478
408.760202,-842.705048,-1776.494261,11917.315666
408.760510,0.000000,-2146.597232,11103.089130
408.760818,689.485948,-1036.288319,9252.574275
408.761126,1378.971896,-888.247130,8068.244768
408.761434,1532.190996,370.102971,6809.894666
408.761742,1455.581446,1924.535449,7772.162391
408.762050,1685.410096,1406.391290,9178.553681
408.762358,1225.752797,2368.659014,7846.182985
408.762666,1991.848295,2664.741391,8142.265362
408.762974,3140.991542,1998.556043,8808.450710
408.763282,1685.410096,1480.411884,9992.780217
408.763590,-383.047749,-222.061783,11399.171507
408.763898,-612.876398,-1036.288319,11991.336260
408.764206,-689.485948,-1036.288319,11917.315666
408.764514,-1072.533697,-1406.391290,11473.192101
408.764822,76.609550,-1184.329507,9992.780217
408.765130,383.047749,-518.144159,8364.327145
408.765438,383.047749,740.205942,7476.080014
408.765746,689.485948,962.267725,8512.368333
408.766054,383.047749,1628.453072,9104.533087
408.766362,1149.143247,1850.514855,9770.718434
408.766670,1685.410096,2368.659014,9104.533087
408.766978,1838.629195,1406.391290,10658.965565
408.767286,1455.581446,592.164754,9992.780217
408.767594,-153.219100,-148.041188,10955.047942
408.767902,-229.828649,-814.226536,12435.459826
408.768210,-766.095498,-1554.432478,12509.480420
408.768518,-229.828649,-1406.391290,11029.068536
408.768825,153.219100,-1776.494261,10732.986159
408.769133,1455.581446,-1554.432478,8438.347739
408.769441,76.609550,444.123565,6661.853478
408.769749,1225.752797,222.061783,8216.285956
408.770057,1149.143247,740.205942,9104.533087
408.770365,842.705048,2146.597232,8512.368333
408.770673,2145.067394,2146.597232,8438.347739
408.770981,2757.943793,1332.370696,9104.533087
408.771289,1378.971896,740.205942,9548.656652
408.771597,76.609550,-592.164754,11473.192101
408.771905,-536.266849,-2146.597232,12805.562797
408.772213,-1608.800546,-2294.638420,12361.439231
408.772521,-2068.457845,-2220.617826,11843.295072
408.772829,-459.657299,-2294.638420,10584.944971
408.773137,0.000000,-962.267725,7994.224174
408.773445,536.266849,222.061783,7624.121203
408.773753,842.705048,1554.432478,6883.915261
408.774061,1532.190996,2812.782580,7624.121203
408.774369,1838.629195,2738.761985,7846.182985
408.774677,2451.505594,3256.906145,7624.121203
408.774985,2374.896044,2664.741391,8364.327145
408.775293,1915.238745,1406.391290,9178.553681
408.775601,76.609550,-222.061783,10584.944971
408.775909,-459.657299,-962.267725,11251.130318
408.776217,-1072.533697,-740.205942,11991.336260
408.776525,-1685.410096,-1776.494261,12065.356855
408.776833,-612.876398,-2220.617826,10807.006753
408.777141,536.266849,-296.082377,8438.347739
408.777449,842.705048,-296.082377,7105.977043
408.777757,383.047749,1184.329507,7105.977043
408.778065,459.657299,1184.329507,9252.574275
408.778373,1149.143247,1332.370696,9178.553681
408.778681,1838.629195,2146.597232,7402.059420
408.778989,2528.115143,2294.638420,8956.491898
408.779297,2145.067394,1110.308913,9992.780217
408.779605,229.828649,-222.061783,11103.089130
408.779913,-612.876398,-1110.308913,12213.398043
408.780221,-1532.190996,-2072.576638,12287.418637
408.780529,-1532.190996,-2886.803174,12139.377449
408.780837,-1072.533697,-3627.009116,10881.027347
408.781145,0.000000,-2220.617826,8734.430116
408.781453,383.047749,-1628.453072,7920.203579
408.781761,1225.752797,740.205942,7550.100608
408.782069,1302.362347,1036.288319,7328.038826
408.782377,1838.629195,2368.659014,8216.285956
408.782685,2298.286494,2220.617826,7254.018232
408.782993,3294.210641,2664.741391,7994.224174
408.783301,1915.238745,1110.308913,8660.409521
408.783608,842.705048,-370.102971,11029.068536
408.783916,-153.219100,-1332.370696,11621.233289
408.784224,-1838.629195,-1110.308913,12065.356855
408.784532,-2451.505594,-2368.659014,12657.521608
408.784840,-1302.362347,-2220.617826,11177.109724
408.785148,-383.047749,-814.226536,9104.533087
408.785456,536.266849,-222.061783,7105.977043
408.785764,1685.410096,1628.453072,6735.874072
408.786072,1838.629195,1998.556043,8438.347739
408.786380,2604.724693,2368.659014,7994.224174
408.786688,2451.505594,2738.761985,7179.997637
408.786996,2834.553343,2960.823768,8068.244768
408.787304,2298.286494,1184.329507,9844.739029
408.787612,842.705048,-0.000000,10732.986159
408.787920,-766.095498,-1184.329507,11695.253884
408.788228,-1149.143247,-1480.411884,13841.851115
408.788536,-1608.800546,-3404.947333,14211.954086
408.788844,-1072.533697,-2294.638420,11103.089130
408.789152,-1302.362347,-1924.535449,10436.903782
408.789460,536.266849,-1406.391290,8808.450710
408.789768,2298.286494,1332.370696,7254.018232
408.790076,1915.238745,2294.638420,7254.018232
408.790384,2451.505594,1332.370696,7624.121203
408.790692,2757.943793,2886.803174,7772.162391
408.791000,3294.210641,3849.070898,8438.347739
408.791308,3217.601092,1554.432478,10881.027347
408.791616,1072.533697,-74.020594,10066.800811
408.791924,-229.828649,-0.000000,11769.274478
408.792232,-1072.533697,-1628.453072,12139.377449
408.792540,-1838.629195,-2368.659014,12805.562797
408.792848,-1072.533697,-2738.761985,11991.336260
408.793156,-995.924147,-1628.453072,9918.759623
408.793464,842.705048,-1776.494261,8808.450710
408.793772,766.095498,1110.308913,7031.956449
408.794080,1302.362347,1480.411884,8660.409521
408.794388,1149.143247,2146.597232,8512.368333
408.794696,2757.943793,3330.926739,7846.182985
408.795004,3294.210641,4441.235652,7698.141797
408.795312,2681.334243,2960.823768,8586.388927
408.795620,1838.629195,1110.308913,11029.068536
408.795928,689.485948,296.082377,11325.150913
408.796236,-995.924147,-592.164754,12731.542202
408.796544,-2298.286494,-2220.617826,13027.624579
408.796852,-2221.676944,-3034.844362,12953.603985
408.797160,-919.314598,-2146.597232,9918.759623
408.797468,-919.314598,-1406.391290,8586.388927
408.797776,612.876398,-222.061783,8068.244768
408.798084,0.000000,1184.329507,7920.203579
408.798391,2145.067394,1702.473667,8216.285956
408.798699,2298.286494,1924.535449,7772.162391
408.799007,3447.429741,3034.844362,7476.080014
408.799315,3217.601092,2146.597232,8660.409521
408.799623,1685.410096,888.247130,9474.636058
408.799932,1225.752797,-0.000000,10510.924376
408.800240,-153.219100,-1036.288319,11177.109724
408.800548,-1302.362347,-1924.535449,12583.501014
408.800856,-1072.533697,-2664.741391,11917.315666
408.801164,-612.876398,-2516.700203,10881.027347
408.801472,-229.828649,-1332.370696,8438.347739
408.801780,766.095498,-296.082377,7698.141797
408.802088,1149.143247,1480.411884,7624.121203
408.802396,1302.362347,1480.411884,8068.244768
408.802704,2451.505594,2516.700203,7179.997637
408.803012,3447.429741,3108.864956,7254.018232
408.803320,2834.553343,2442.679609,8586.388927
408.803628,2451.505594,1258.350101,9918.759623
408.803936,459.657299,666.185348,10881.027347
408.804244,-919.314598,-592.164754,12361.439231
408.804552,-2221.676944,-2368.659014,12583.501014
408.804860,-2145.067394,-2590.720797,12657.521608
408.805169,-1762.019645,-2738.761985,10807.006753
408.805477,-919.314598,-1480.411884,7846.182985
408.805785,919.314598,-222.061783,8068.244768
408.806093,1225.752797,1332.370696,7550.100608
408.806401,919.314598,1406.391290,7846.182985
408.806709,2451.505594,2886.803174,8290.306550
408.807017,3370.820191,3478.967927,7031.956449
408.807325,2757.943793,4071.132681,8068.244768
408.807633,2681.334243,888.247130,10436.903782
408.807941,536.266849,1406.391290,10362.883188
408.808249,-995.924147,-666.185348,11473.192101
408.808557,-1302.362347,-1850.514855,12879.583391
408.808865,-2374.896044,-2664.741391,12139.377449
408.809173,-2298.286494,-2960.823768,11843.295072
408.809481,-995.924147,-2072.576638,9696.697840
408.809789,-612.876398,-1110.308913,8290.306550
408.810097,76.609550,-0.000000,9844.739029
408.810405,842.705048,888.247130,8734.430116
408.810714,1915.238745,1924.535449,7920.203579
408.811022,3217.601092,3849.070898,8290.306550
408.811330,3907.087040,3627.009116,8068.244768
408.811638,2221.676944,2072.576638,8956.491898
408.811946,1762.019645,888.247130,10288.862594
408.812254,76.609550,-148.041188,10658.965565
408.812562,-1225.752797,-2072.576638,12139.377449
408.812870,-1915.238745,-2738.761985,12657.521608
408.813178,-1991.848295,-3182.885551,11251.130318
408.813486,-1838.629195,-3108.864956,9992.780217
408.813794,-612.876398,-1110.308913,8068.244768
408.814102,459.657299,222.061783,8438.347739
408.814410,383.047749,740.205942,9326.594869
408.814718,1762.019645,2442.679609,8068.244768
408.815026,3830.477490,3256.906145,6957.935855
408.815334,3140.991542,3627.009116,6883.915261
408.815642,3447.429741,2590.720797,8438.347739
408.815951,2528.115143,1184.329507,9400.615463
408.816259,1072.533697,1036.288319,10584.944971
408.816567,-842.705048,-1332.370696,11325.150913
408.816875,-1455.581446,-1110.308913,12805.562797
408.817183,-919.314598,-2960.823768,12509.480420
408.817491,-2834.553343,-1924.535449,9992.780217
408.817799,-1455.581446,-1628.453072,11177.109724
408.818107,-919.314598,-814.226536,9770.718434
408.818415,-689.485948,740.205942,9326.594869
408.818723,1225.752797,1628.453072,9252.574275
408.819031,2911.162892,3478.967927,8068.244768
408.819339,3753.867940,3701.029710,9178.553681
408.819647,3677.258390,3182.885551,8882.471304
408.819955,2604.724693,1924.535449,9548.656652
408.820263,1149.143247,1776.494261,10732.986159
408.820571,-153.219100,-740.205942,11843.295072
408.820879,-995.924147,-2072.576638,12657.521608
408.821188,-2374.896044,-2664.741391,11251.130318
408.821496,-1072.533697,-2886.803174,10732.986159
408.821804,-1072.533697,-2294.638420,8882.471304
408.822112,-536.266849,-1036.288319,9474.636058
408.822420,383.047749,-592.164754,10214.842000
408.822728,1838.629195,962.267725,8290.306550
408.823036,2987.772442,2812.782580,7994.224174
408.823344,4136.915689,2960.823768,7624.121203
408.823652,4213.525239,2664.741391,7846.182985
408.823960,2681.334243,1702.473667,8882.471304
408.824268,1685.410096,1332.370696,9474.636058
408.824576,536.266849,222.061783,10214.842000
408.824884,-689.485948,-1110.308913,11177.109724
408.825192,-1149.143247,-2146.597232,11325.150913
408.825500,-1378.971896,-2368.659014,8956.491898
408.825808,-995.924147,-2368.659014,9104.533087
408.826116,-1072.533697,-740.205942,8216.285956
408.826424,-229.828649,-370.102971,8882.471304
408.826733,1378.971896,-0.000000,8808.450710
408.827041,1532.190996,2294.638420,7920.203579
408.827349,3064.381992,1480.411884,9030.512492
408.827657,2298.286494,1110.308913,9326.594869
408.827965,2451.505594,1776.494261,10066.800811
408.828273,995.924147,148.041188,9474.636058
408.828581,-536.266849,-0.000000,11103.089130
408.828889,-689.485948,-1702.473667,11917.315666
408.829197,-995.924147,-1776.494261,10732.986159
408.829505,-1762.019645,-1998.556043,11029.068536
408.829813,-383.047749,-1924.535449,9400.615463
408.830121,0.000000,-1258.350101,8734.430116
408.830429,-459.657299,-0.000000,8142.265362
408.830737,689.485948,1036.288319,9178.553681
408.831045,2757.943793,2516.700203,8586.388927
408.831353,3064.381992,2960.823768,6661.853478
408.831661,3217.601092,2960.823768,8290.306550
408.831970,2911.162892,888.247130,9104.533087
408.832278,919.314598,518.144159,9992.780217
408.832586,-306.438199,-888.247130,11473.192101
408.832894,-1225.752797,-1702.473667,12213.398043
408.833202,-2145.067394,-2368.659014,11843.295072
408.833510,-2298.286494,-2368.659014,10732.986159
408.833818,-766.095498,-1850.514855,10362.883188
408.834126,-766.095498,-444.123565,8882.471304
408.834434,-229.828649,888.247130,8660.409521
408.834742,995.924147,814.226536,9770.718434
408.835050,2145.067394,2664.741391,8290.306550
408.835358,3217.601092,3034.844362,8142.265362
408.835666,3217.601092,3997.112087,8956.491898
408.835974,2681.334243,1628.453072,9252.574275
408.836282,1225.752797,1554.432478,9696.697840
408.836590,153.219100,740.205942,11103.089130
408.836898,-153.219100,-1110.308913,12287.418637
408.837206,-1608.800546,-1480.411884,12213.398043
408.837515,-1072.533697,-1998.556043,10955.047942
408.837823,-383.047749,-1480.411884,9104.533087
408.838131,0.000000,-518.144159,8438.347739
408.838439,153.219100,888.247130,8956.491898
408.838747,1302.362347,1184.329507,8956.491898
408.839055,2068.457845,2590.720797,8216.285956
408.839363,2145.067394,2072.576638,8512.368333
408.839671,3600.648841,2220.617826,9770.718434
408.839979,2298.286494,1110.308913,9474.636058
408.840287,1608.800546,1110.308913,10658.965565
408.840595,459.657299,-74.020594,10881.027347
408.840903,-229.828649,-1036.288319,11769.274478
408.841211,-1225.752797,-1850.514855,11843.295072
408.841519,-766.095498,-1480.411884,10584.944971
408.841827,76.609550,-2516.700203,9548.656652
408.842135,0.000000,-666.185348,8364.327145
408.842443,689.485948,-444.123565,8068.244768
408.842752,76.609550,-222.061783,8808.450710
408.843060,995.924147,962.267725,9400.615463
408.843368,1915.238745,1480.411884,8438.347739
408.843676,2451.505594,1924.535449,8808.450710
408.843984,2374.896044,518.144159,9548.656652
408.844292,1532.190996,444.123565,9992.780217
408.844600,459.657299,-592.164754,10881.027347
408.844908,-766.095498,-1480.411884,11177.109724
408.845216,-459.657299,-1184.329507,10955.047942
408.845524,0.000000,-962.267725,9104.533087
408.845832,-229.828649,-814.226536,8216.285956
408.846140,536.266849,222.061783,7698.141797
408.846448,536.266849,1406.391290,7772.162391
408.846756,1072.533697,1332.370696,8512.368333
408.847064,689.485948,1406.391290,8660.409521
408.847372,1685.410096,1554.432478,8956.491898
408.847680,1838.629195,1036.288319,9178.553681
408.847988,1072.533697,666.185348,9474.636058
408.848297,612.876398,-0.000000,10732.986159
408.848605,-229.828649,-296.082377,10881.027347
408.848913,-919.314598,-1258.350101,11473.192101
408.849221,-1072.533697,-1258.350101,12065.356855
408.849529,-383.047749,-1702.473667,10584.944971
408.849837,0.000000,-888.247130,8882.471304
408.850145,919.314598,-370.102971,7476.080014
408.850453,612.876398,740.205942,7105.977043
408.850761,383.047749,1184.329507,8512.368333
408.851069,919.314598,1406.391290,8660.409521
408.851377,1991.848295,2368.659014,8882.471304
408.851685,2528.115143,2072.576638,8956.491898
408.851993,2221.676944,814.226536,10658.965565
408.852301,-1072.533697,-296.082377,11621.233289
408.852609,383.047749,-2072.576638,13693.809927
408.852917,-2451.505594,-1850.514855,10584.944971
408.853225,-919.314598,-2220.617826,11769.274478
408.853534,-536.266849,-2738.761985,11991.336260
408.853842,76.609550,-370.102971,7624.121203
408.854150,1225.752797,-962.267725,8882.471304
408.854458,153.219100,1998.556043,6735.874072
408.854766,1149.143247,1036.288319,9474.636058
408.855074,1149.143247,2516.700203,8142.265362
408.855382,2987.772442,2664.741391,7846.182985
408.855690,1915.238745,2590.720797,8290.306550
408.855998,2604.724693,1184.329507,9474.636058
408.856306,1072.533697,-74.020594,11473.192101
408.856614,0.000000,-1036.288319,11547.212695
408.856922,-306.438199,-1702.473667,12361.439231
408.857230,-1072.533697,-1406.391290,11029.068536
408.857538,76.609550,-1406.391290,11843.295072
408.857846,1072.533697,-666.185348,9400.615463
408.858154,1072.533697,666.185348,6291.750507
408.858462,2068.457845,962.267725,7476.080014
408.858770,1302.362347,1924.535449,7254.018232
408.859079,1685.410096,2442.679609,9474.636058
408.859387,1455.581446,2442.679609,8956.491898
408.859695,2451.505594,2368.659014,9474.636058
408.860003,1378.971896,1776.494261,9474.636058
408.860311,612.876398,444.123565,11621.233289
408.860619,76.609550,-666.185348,12139.377449
408.860927,-1838.629195,-1184.329507,12287.418637
408.861235,-1608.800546,-2368.659014,13175.665768
408.861543,-919.314598,-2368.659014,10732.986159
408.861851,-229.828649,-1332.370696,9474.636058
408.862159,76.609550,-222.061783,8586.388927
408.862467,2068.457845,740.205942,6957.935855
408.862775,919.314598,2220.617826,6957.935855
408.863083,1915.238745,1702.473667,8808.450710
408.863391,1915.238745,2072.576638,8216.285956
408.863699,2145.067394,2664.741391,8364.327145
408.864007,1991.848295,592.164754,9548.656652
408.864316,1072.533697,-0.000000,11177.109724
408.864624,-459.657299,-1406.391290,12879.583391
408.864932,-1455.581446,-1258.350101,11621.233289
408.865240,-459.657299,-2072.576638,12065.356855
408.865548,689.485948,-1110.308913,9992.780217
408.865856,-919.314598,-518.144159,7920.203579
408.866164,2221.676944,-666.185348,8290.306550
408.866472,1072.533697,1110.308913,5477.523971
408.866780,995.924147,1998.556043,7328.038826
408.867088,1762.019645,888.247130,8438.347739
408.867396,2604.724693,2590.720797,8734.430116
408.867704,1302.362347,1924.535449,8512.368333
408.868012,1225.752797,888.247130,9400.615463
408.868320,1455.581446,-370.102971,11547.212695
408.868628,-1455.581446,-1776.494261,10732.986159
408.868936,-1072.533697,-2442.679609,13619.789333
408.869244,-1302.362347,-2294.638420,12731.542202
408.869552,-1225.752797,-2368.659014,11029.068536
408.869861,-459.657299,-666.185348,10881.027347
408.870169,2145.067394,-0.000000,8290.306550
408.870477,1685.410096,1332.370696,6587.832884
408.870785,1072.533697,2368.659014,6439.791695
408.871093,1455.581446,1924.535449,8290.306550
408.871401,1455.581446,2812.782580,8290.306550
408.871709,2145.067394,2516.700203,8586.388927
408.872017,1608.800546,1480.411884,9400.615463
408.872325,76.609550,-518.144159,11325.150913
408.872633,-842.705048,-1924.535449,13101.645173
408.872941,-2298.286494,-1850.514855,12435.459826
408.873249,-1685.410096,-3256.906145,13249.686362
408.873557,-1608.800546,-3034.844362,11917.315666
408.873865,-459.657299,-2294.638420,9918.759623
408.874173,766.095498,-1258.350101,8734.430116
408.874481,1149.143247,1480.411884,6809.894666
408.874789,1915.238745,2442.679609,6735.874072
408.875098,2911.162892,2738.761985,7624.121203
408.875406,2374.896044,3849.070898,7105.977043
408.875714,2911.162892,2886.803174,7920.203579
408.876022,2911.162892,2220.617826,8808.450710
408.876330,995.924147,814.226536,10881.027347
408.876638,-383.047749,-1184.329507,12361.439231
408.876946,-1149.143247,-2368.659014,12879.583391
408.877254,-2145.067394,-2368.659014,12953.603985
408.877562,-1072.533697,-2886.803174,12731.542202
408.877870,229.828649,-1332.370696,9696.697840
408.878178,1072.533697,-888.247130,7994.224174
408.878486,1991.848295,370.102971,7254.018232
408.878794,2298.286494,1850.514855,6513.812290
408.879102,2145.067394,2516.700203,7772.162391
408.879410,3064.381992,2294.638420,8734.430116
408.879718,2911.162892,3701.029710,6735.874072
408.880026,2528.115143,2516.700203,8438.347739
408.880334,1762.019645,370.102971,11029.068536
408.880643,919.314598,-1036.288319,11547.212695
408.880951,-1149.143247,-1406.391290,12509.480420
408.881259,-1915.238745,-2294.638420,12879.583391
408.881567,-919.314598,-4071.132681,14211.954086
408.881875,-842.705048,-1776.494261,10510.924376
408.882183,306.438199,-1554.432478,9178.553681
408.882491,689.485948,296.082377,7476.080014
408.882799,1378.971896,2294.638420,7624.121203
408.883107,1072.533697,2294.638420,8216.285956
408.883415,1378.971896,2960.823768,7994.224174
408.883723,2987.772442,2960.823768,8660.409521
408.884031,1915.238745,2886.803174,7994.224174
408.884339,995.924147,740.205942,10362.883188
408.884647,-919.314598,-1702.473667,12731.542202
408.884955,-1762.019645,-1628.453072,12435.459826
408.885263,-2528.115143,-2590.720797,12435.459826
408.885571,-1378.971896,-2812.782580,12287.418637
408.885880,383.047749,-1554.432478,10436.903782
408.886188,1149.143247,-666.185348,7031.956449
408.886496,1838.629195,592.164754,7105.977043
408.886804,2604.724693,1554.432478,5033.400406
408.887112,1608.800546,2368.659014,7031.956449
408.887420,2374.896044,2442.679609,8290.306550
408.887728,2834.553343,4293.194464,5921.647536
408.888036,3140.991542,2664.741391,8512.368333
408.888344,1838.629195,1110.308913,8956.491898
408.888652,0.000000,-962.267725,12065.356855
408.888960,-1532.190996,-1998.556043,13175.665768
408.889268,-2528.115143,-2442.679609,12361.439231
408.889576,-1991.848295,-3256.906145,12879.583391
408.889884,-1608.800546,-2960.823768,11473.192101
408.890192,536.266849,-1924.535449,8956.491898
408.890500,919.314598,-74.020594,6661.853478
408.890808,842.705048,592.164754,7105.977043
408.891117,1685.410096,2220.617826,7624.121203
408.891425,1455.581446,2442.679609,8290.306550
408.891733,1915.238745,3997.112087,7920.203579
408.892041,2451.505594,3108.864956,8068.244768
408.892349,2068.457845,1332.370696,10066.800811
408.892657,0.000000,-814.226536,11251.130318
408.892965,-1378.971896,-1850.514855,11917.315666
408.893273,-2068.457845,-3034.844362,13249.686362
408.893581,-1915.238745,-3478.967927,13323.706956
408.893889,-1455.581446,-3256.906145,11547.212695
408.894197,0.000000,-2368.659014,10214.842000
408.894505,1149.143247,-444.123565,7254.018232
408.894813,1225.752797,1850.514855,5181.441594
408.895121,2068.457845,2294.638420,7624.121203
408.895429,2374.896044,3478.967927,7105.977043
408.895737,3600.648841,4663.297435,6365.771101
408.896045,4136.915689,3997.112087,7624.121203
408.896353,2911.162892,2368.659014,9030.512492
408.896662,1685.410096,148.041188,10807.006753
408.896970,-919.314598,-1184.329507,11843.295072
408.897278,-2068.457845,-2220.617826,12731.542202
408.897586,-2374.896044,-3404.947333,13619.789333
408.897894,-1762.019645,-2738.761985,12879.583391
408.898202,-229.828649,-2146.597232,10288.862594
408.898510,-459.657299,-2146.597232,8142.265362
408.898818,1378.971896,518.144159,7105.977043
408.899125,1608.800546,1998.556043,7476.080014
408.899433,1685.410096,2738.761985,7698.141797
408.899741,3217.601092,4071.132681,7920.203579
408.900049,4366.744339,3775.050304,7179.997637
408.900357,2987.772442,3330.926739,8586.388927
408.900665,2145.067394,814.226536,10214.842000
408.900973,459.657299,-370.102971,10881.027347
408.901281,-2221.676944,-666.185348,11917.315666
408.901589,-1838.629195,-3849.070898,14434.015869
408.901897,-1608.800546,-2516.700203,12287.418637
408.902205,-919.314598,-1776.494261,10955.047942
408.902513,0.000000,-1258.350101,8808.450710
408.902820,536.266849,296.082377,7994.224174
408.903128,842.705048,2072.576638,7402.059420
408.903436,842.705048,1702.473667,8586.388927
408.903744,2604.724693,3034.844362,8290.306550
408.904052,2987.772442,3997.112087,7476.080014
408.904360,2451.505594,2368.659014,9474.636058
408.904668,919.314598,296.082377,9474.636058
408.904976,153.219100,-592.164754,11473.192101
408.905284,-1378.971896,-2146.597232,12731.542202
408.905592,-2221.676944,-2220.617826,11695.253884
408.905900,-1072.533697,-4071.132681,12731.542202
408.906208,-689.485948,-2442.679609,10066.800811
408.906515,536.266849,-1332.370696,7698.141797
408.906823,1532.190996,-296.082377,7328.038826
408.907131,1455.581446,740.205942,6957.935855
408.907439,995.924147,1850.514855,8068.244768
408.907747,2298.286494,2664.741391,8142.265362
408.908055,3600.648841,4293.194464,7994.224174
408.908363,2604.724693,2220.617826,9474.636058
408.908671,1225.752797,1702.473667,10140.821405
408.908979,919.314598,-148.041188,9918.759623
408.909287,-1532.190996,-1110.308913,11547.212695
408.909595,-1991.848295,-2368.659014,12879.583391
408.909903,-1532.190996,-3182.885551,13175.665768
408.910210,-1991.848295,-2294.638420,11029.068536
408.910518,-306.438199,-2368.659014,9474.636058
408.910826,383.047749,-666.185348,7105.977043
408.911134,153.219100,518.144159,8660.409521
408.911442,383.047749,1184.329507,8734.430116
408.911750,1991.848295,3404.947333,8142.265362
408.912058,3447.429741,3849.070898,9104.533087
408.912366,2068.457845,4071.132681,7105.977043
408.912674,3753.867940,1702.473667,10066.800811
408.912982,459.657299,962.267725,9622.677246
408.913290,-536.266849,-740.205942,10140.821405
408.913598,-1685.410096,-2294.638420,13767.830521
408.913905,-1915.238745,-2960.823768,12287.418637
408.914213,-1685.410096,-3627.009116,12361.439231
408.914521,-612.876398,-1850.514855,8734.430116
408.914829,612.876398,-888.247130,8882.471304
408.915137,536.266849,592.164754,7328.038826
408.915445,2068.457845,1184.329507,7031.956449
408.915753,2681.334243,2146.597232,8142.265362
408.916061,3447.429741,2886.803174,7402.059420
408.916369,2681.334243,3404.947333,9030.512492
408.916677,2528.115143,1776.494261,9770.718434
408.916985,1149.143247,814.226536,9770.718434
408.917293,-612.876398,-0.000000,10288.862594
408.917600,-153.219100,-1184.329507,12065.356855
408.917908,-1608.800546,-2220.617826,12657.521608
408.918216,-1149.143247,-2368.659014,10881.027347
408.918524,0.000000,-2368.659014,10066.800811
408.918832,-229.828649,-1406.391290,7994.224174
408.919140,0.000000,-0.000000,8512.368333
408.919448,612.876398,666.185348,8660.409521
408.919756,1455.581446,1406.391290,8882.471304
408.920064,2451.505594,2812.782580,8290.306550
408.920372,3677.258390,3256.906145,8956.491898
408.920680,2987.772442,2072.576638,8956.491898
408.920988,1838.629195,1332.370696,9622.677246
408.921295,612.876398,518.144159,10807.006753
408.921603,0.000000,-666.185348,11251.130318
408.921911,-229.828649,-2516.700203,12657.521608
408.922219,-995.924147,-1702.473667,10510.924376
408.922527,0.000000,-2590.720797,9770.718434
408.922835,-689.485948,-1406.391290,9104.533087
408.923143,-383.047749,-0.000000,7772.162391
408.923451,-536.266849,222.061783,9104.533087
408.923759,0.000000,1406.391290,9326.594869
408.924067,2528.115143,2368.659014,9474.636058
408.924375,2604.724693,3330.926739,8586.388927
408.924683,2298.286494,2368.659014,9400.615463
408.924991,2068.457845,888.247130,9918.759623
408.925298,153.219100,888.247130,9696.697840
408.925606,689.485948,-0.000000,11029.068536
408.925914,0.000000,-814.226536,10881.027347
408.926222,-766.095498,-1332.370696,11029.068536
408.926530,-536.266849,-1628.453072,9104.533087
408.926838,536.266849,-1258.350101,8808.450710
408.927146,153.219100,-518.144159,8586.388927
408.927454,-919.314598,814.226536,8216.285956
408.927762,919.314598,888.247130,10140.821405
408.928070,1532.190996,1332.370696,9474.636058
408.928378,2221.676944,2516.700203,9326.594869
408.928686,1991.848295,1554.432478,9326.594869
408.928993,1532.190996,666.185348,9474.636058
408.929301,383.047749,444.123565,10510.924376
408.929609,153.219100,-222.061783,10807.006753
408.929917,153.219100,-1480.411884,11251.130318
408.930225,-766.095498,-1924.535449,11325.150913
408.930533,306.438199,-1850.514855,9696.697840
408.930841,459.657299,-1110.308913,7994.224174
408.931149,-459.657299,-0.000000,8142.265362
408.931457,-153.219100,-0.000000,9252.574275
408.931765,-459.657299,1332.370696,9400.615463
408.932073,689.485948,1406.391290,9992.780217
408.932381,2451.505594,1554.432478,9178.553681
408.932688,2221.676944,2294.638420,8808.450710
408.932996,1455.581446,666.185348,10066.800811
408.933304,306.438199,222.061783,9992.780217
408.933612,229.828649,-592.164754,11251.130318
408.933920,-842.705048,-1998.556043,11991.336260
408.934228,0.000000,-1702.473667,10510.924376
408.934536,0.000000,-1332.370696,9770.718434
408.934844,0.000000,-1332.370696,8586.388927
408.935152,459.657299,-296.082377,7550.100608
408.935460,-153.219100,814.226536,8512.368333
408.935768,689.485948,370.102971,9474.636058
408.936076,842.705048,2368.659014,8956.491898
408.936383,3064.381992,2368.659014,9104.533087
408.936691,2451.505594,2146.597232,8216.285956
408.936999,2068.457845,1406.391290,9178.553681
408.937307,1302.362347,444.123565,10658.965565
408.937615,0.000000,-518.144159,10510.924376
408.937923,-612.876398,-1184.329507,11251.130318
408.938231,459.657299,-1702.473667,10584.944971
408.938539,-229.828649,-1628.453072,9030.512492
408.938847,76.609550,-1258.350101,9622.677246
408.939155,612.876398,-444.123565,7476.080014
408.939463,-536.266849,740.205942,8734.430116
408.939771,0.000000,-148.041188,10214.842000
408.940078,1762.019645,1406.391290,9400.615463
408.940386,2068.457845,2368.659014,9696.697840
408.940694,2451.505594,1628.453072,9030.512492
408.941002,2145.067394,1702.473667,9178.553681
408.941310,1072.533697,1184.329507,10510.924376
408.941618,306.438199,-444.123565,10732.986159
408.941926,-459.657299,-740.205942,11251.130318
408.942234,536.266849,-1480.411884,11843.295072
408.942542,0.000000,-1036.288319,9178.553681
408.942850,229.828649,-1258.350101,9252.574275
408.943158,-153.219100,-222.061783,8586.388927
408.943466,-919.314598,814.226536,7994.224174
408.943773,-536.266849,962.267725,10214.842000
408.944081,1149.143247,1924.535449,10066.800811
408.944389,1685.410096,1998.556043,8734.430116
408.944697,1532.190996,1998.556043,8660.409521
408.945005,2374.896044,1184.329507,9844.739029
408.945313,1378.971896,814.226536,10066.800811
408.945621,76.609550,962.267725,10288.862594
408.945929,153.219100,-148.041188,10732.986159
408.946237,153.219100,-74.020594,9696.697840
408.946545,153.219100,740.205942,9030.512492
408.946853,76.609550,370.102971,7846.182985
408.947161,-1225.752797,666.185348,7105.977043
408.947468,-2145.067394,296.082377,9400.615463
408.947776,-3294.210641,222.061783,9474.636058
408.948084,-2451.505594,-0.000000,11991.336260
408.948392,-2221.676944,518.144159,11917.315666
408.948700,-1225.752797,-222.061783,11251.130318
408.949008,-1072.533697,-148.041188,10584.944971
408.949316,-2374.896044,-1406.391290,11547.212695
408.949624,-1532.190996,-2146.597232,12139.377449
408.949932,-2221.676944,-888.247130,9474.636058
408.950240,-612.876398,-1628.453072,11177.109724
408.950548,229.828649,-1184.329507,9474.636058
408.950856,536.266849,1184.329507,6439.791695
408.951163,612.876398,666.185348,7031.956449
408.951471,-383.047749,2294.638420,5551.544565
408.951779,-766.095498,1776.494261,8290.306550
408.952087,-1915.238745,1998.556043,9548.656652
408.952395,-995.924147,1702.473667,9770.718434
408.952703,-612.876398,740.205942,11325.150913
408.953011,-1302.362347,-0.000000,10214.842000
408.953319,-1225.752797,-1554.432478,10881.027347
408.953627,-2834.553343,-3404.947333,12287.418637
408.953935,-3753.867940,-3701.029710,12287.418637
408.954243,-3524.039291,-3478.967927,11917.315666
408.954551,-1991.848295,-2516.700203,10658.965565
408.954858,0.000000,-962.267725,9178.553681
408.955166,1149.143247,814.226536,5699.585753
408.955474,1225.752797,2442.679609,5107.421000
408.955782,536.266849,3256.906145,6143.709319
408.956090,306.438199,4145.153275,6661.853478
408.956398,1149.143247,4737.318029,7476.080014
408.956706,689.485948,4219.173869,8364.327145
408.957014,383.047749,2664.741391,10066.800811
408.957322,-1225.752797,-0.000000,11769.274478
408.957630,-2145.067394,-1702.473667,12805.562797
408.957938,-4136.915689,-3552.988522,13027.624579
408.958246,-5439.278036,-3182.885551,13101.645173
408.958554,-4903.011187,-2960.823768,12139.377449
408.958861,-2681.334243,-1554.432478,10510.924376
408.959169,-1532.190996,222.061783,8142.265362
408.959477,0.000000,1480.411884,6809.894666
408.959785,-383.047749,1184.329507,6217.729913
408.960093,-1455.581446,2368.659014,6809.894666
408.960401,-1378.971896,3330.926739,9178.553681
408.960709,-1149.143247,3997.112087,9326.594869
408.961017,-766.095498,3923.091493,10066.800811
408.961325,-1225.752797,1998.556043,10807.006753
408.961633,-1915.238745,-0.000000,11029.068536
408.961941,-2374.896044,-2220.617826,12435.459826
408.962249,-4136.915689,-3627.009116,12139.377449
408.962556,-4519.963438,-4737.318029,12731.542202
408.962864,-5439.278036,-4515.256246,11621.233289
408.963172,-3600.648841,-3182.885551,10732.986159
408.963480,-1302.362347,-666.185348,8290.306550
408.963788,-229.828649,1110.308913,6587.832884
408.964096,536.266849,1184.329507,6365.771101
408.964404,-536.266849,1776.494261,5625.565159
408.964712,-995.924147,2368.659014,7772.162391
408.965020,-689.485948,2442.679609,9400.615463
408.965328,-1915.238745,3627.009116,9548.656652
408.965636,-1915.238745,2812.782580,11547.212695
408.965944,-1149.143247,1554.432478,10881.027347
408.966251,-689.485948,962.267725,10658.965565
408.966559,-1838.629195,-888.247130,10658.965565
408.966867,-2298.286494,-2072.576638,10584.944971
408.967175,-4136.915689,-2886.803174,11103.089130
408.967483,-5745.716235,-3701.029710,11325.150913
408.967791,-4213.525239,-2368.659014,11769.274478
408.968099,-3140.991542,444.123565,9252.574275
408.968407,-1762.019645,2072.576638,7846.182985
408.968715,76.609550,3627.009116,6291.750507
408.969023,766.095498,3478.967927,7031.956449
408.969331,-229.828649,2960.823768,8142.265362
408.969639,-1378.971896,2590.720797,9104.533087
408.969946,-3217.601092,888.247130,10807.006753
408.970254,-3983.696590,-296.082377,11991.336260
408.970562,-3677.258390,814.226536,11103.089130
408.970870,-2911.162892,518.144159,10658.965565
408.971178,-1991.848295,592.164754,9548.656652
408.971486,-1608.800546,444.123565,8586.388927
408.971794,-1762.019645,-1332.370696,9178.553681
408.972102,-3140.991542,-2590.720797,10288.862594
408.972410,-3983.696590,-3775.050304,11695.253884
408.972718,-4903.011187,-4515.256246,11769.274478
408.973026,-4903.011187,-3034.844362,11843.295072
408.973334,-3294.210641,-1110.308913,11103.089130
408.973641,-1072.533697,1110.308913,9178.553681
408.973949,383.047749,3404.947333,7105.977043
408.974257,1149.143247,3627.009116,5329.482782
408.974565,1608.800546,3034.844362,6439.791695
408.974873,0.000000,1702.473667,7328.038826
408.975181,-1838.629195,-0.000000,8734.430116
408.975489,-3983.696590,-1332.370696,9770.718434
408.975797,-5515.887586,-1406.391290,10362.883188
408.976105,-5745.716235,-518.144159,11103.089130
408.976413,-4060.306139,148.041188,10955.047942
408.976721,-2987.772442,1702.473667,9548.656652
408.977029,-1991.848295,2072.576638,8438.347739
408.977336,-766.095498,1184.329507,8364.327145
408.977644,-1838.629195,296.082377,9770.718434
408.977952,-2451.505594,-1036.288319,10881.027347
408.978260,-3294.210641,-2220.617826,12139.377449
408.978568,-4443.353888,-3627.009116,12583.501014
408.978876,-5056.230287,-3701.029710,11991.336260
408.979184,-4290.134789,-2960.823768,11917.315666
408.979492,-2911.162892,-888.247130,9770.718434
408.979800,-1149.143247,592.164754,9030.512492
408.980108,-612.876398,2368.659014,6439.791695
408.980416,383.047749,2960.823768,6143.709319
408.980724,919.314598,3552.988522,5995.668130
408.981031,1225.752797,4145.153275,5699.585753
408.981339,1072.533697,3330.926739,7402.059420
408.981647,-306.438199,1628.453072,8438.347739
408.981955,-2221.676944,370.102971,10066.800811
408.982263,-2834.553343,-0.000000,10288.862594
408.982571,-3524.039291,-222.061783,10955.047942
408.982879,-3677.258390,148.041188,11103.089130
408.983187,-3370.820191,444.123565,10955.047942
408.983495,-1762.019645,518.144159,10214.842000
408.983803,-1378.971896,1036.288319,8586.388927
408.984111,-1378.971896,444.123565,8512.368333
408.984419,-1991.848295,-1258.350101,9252.574275
408.984726,-3294.210641,-2368.659014,11177.109724
408.985034,-4979.620737,-3404.947333,12879.583391
408.985342,-6128.763984,-3849.070898,13915.871710
408.985650,-6281.983084,-3923.091493,14211.954086
408.985958,-6281.983084,-3330.926739,13397.727550
408.986266,-4213.525239,-1998.556043,11843.295072
408.986574,-1532.190996,296.082377,9622.677246
408.986882,0.000000,2812.782580,7254.018232
408.987190,2451.505594,4811.338623,4885.359217
408.987498,4060.306139,6217.729913,3330.926739
408.987806,3983.696590,6513.812290,2886.803174
408.988114,2528.115143,5107.421000,3627.009116
408.988422,383.047749,3627.009116,5255.462188
408.988729,-2451.505594,740.205942,8660.409521
408.989037,-5745.716235,-1628.453072,12139.377449
408.989345,-7124.688131,-3627.009116,14359.995275
408.989653,-8350.440928,-4959.379811,15766.386565
408.989961,-8197.221829,-5107.421000,15470.304188
408.990269,-6128.763984,-4071.132681,14137.933492
408.990577,-3753.867940,-2146.597232,11547.212695
408.990885,-1608.800546,518.144159,9030.512492
408.991193,536.266849,2442.679609,7179.997637
408.991501,1455.581446,4071.132681,6513.812290
408.991809,2298.286494,4885.359217,5773.606348
408.992117,1378.971896,4885.359217,5699.585753
408.992424,0.000000,3701.029710,7105.977043
408.992732,-2451.505594,1258.350101,9474.636058
408.993040,-4903.011187,-1406.391290,11843.295072
408.993348,-7660.954980,-4219.173869,14211.954086
408.993656,-8886.707777,-5625.565159,15618.345376
408.993964,-8580.269578,-6069.688724,15470.304188
408.994272,-7048.078582,-4515.256246,14434.015869
408.994580,-3753.867940,-3552.988522,11695.253884
408.994888,-919.314598,-1110.308913,8660.409521
408.995196,1991.848295,1628.453072,6217.729913
408.995504,3140.991542,3627.009116,4663.297435
408.995812,4596.572988,5107.421000,4367.215058
408.996119,4443.353888,6513.812290,2812.782580
408.996427,4060.306139,6513.812290,3330.926739
408.996735,2528.115143,5181.441594,5329.482782
408.997043,-383.047749,3108.864956,7254.018232
408.997351,-3907.087040,592.164754,11029.068536
408.997659,-5898.935335,-2442.679609,13841.851115
408.997967,-8733.488677,-4071.132681,13915.871710
408.998275,-8963.317327,-4663.297435,15100.201217
408.998583,-7584.345430,-4737.318029,15618.345376
408.998891,-5592.497135,-4367.215058,13471.748144
408.999199,-4749.792088,-2812.782580,11325.150913
408.999507,-2757.943793,-1184.329507,9770.718434
408.999814,-612.876398,814.226536,8068.244768
409.000122,306.438199,2368.659014,7105.977043
409.000430,1838.629195,3701.029710,7105.977043
409.000738,1838.629195,3923.091493,6365.771101
409.001046,1455.581446,3404.947333,6661.853478
409.001354,842.705048,2738.761985,7920.203579
409.001662,-306.438199,962.267725,9844.739029
409.001970,-2298.286494,-0.000000,10658.965565
409.002278,-2757.943793,-666.185348,11029.068536
409.002585,-3600.648841,-1258.350101,11029.068536
409.002893,-2911.162892,-814.226536,10732.986159
409.003201,-2145.067394,296.082377,9474.636058
409.003509,-1378.971896,1036.288319,9474.636058
409.003817,-1378.971896,814.226536,8586.388927
409.004125,-1302.362347,2368.659014,8290.306550
409.004433,-1838.629195,2072.576638,9696.697840
409.004741,-2451.505594,2220.617826,9622.677246
409.005049,-3907.087040,1332.370696,10288.862594
409.005356,-4826.401637,222.061783,11251.130318
409.005664,-6128.763984,-1184.329507,11917.315666
409.005972,-6894.859482,-1924.535449,13545.768739
409.006280,-6971.469032,-2442.679609,13323.706956
409.006588,-6205.373534,-2738.761985,12805.562797
409.006896,-5975.544884,-2516.700203,12065.356855
409.007204,-3907.087040,-1628.453072,10584.944971
409.007512,-2221.676944,-814.226536,9326.594869
409.007820,-766.095498,-74.020594,7476.080014
409.008127,612.876398,1036.288319,6587.832884
409.008435,1532.190996,1998.556043,5551.544565
409.008743,1455.581446,2442.679609,5699.585753
409.009051,1915.238745,2960.823768,6143.709319
409.009359,766.095498,2960.823768,6513.812290
409.009667,153.219100,2146.597232,7624.121203
409.009975,-1072.533697,1110.308913,8882.471304
409.010283,-2374.896044,-0.000000,10140.821405
409.010591,-3294.210641,-1184.329507,10955.047942
409.010898,-3907.087040,-1406.391290,11103.089130
409.011206,-3830.477490,-1924.535449,11399.171507
409.011514,-3907.087040,-2072.576638,11029.068536
409.011822,-3753.867940,-1776.494261,10807.006753
409.012130,-2987.772442,-1258.350101,10510.924376
409.012438,-2451.505594,-370.102971,9548.656652
409.012746,-1838.629195,444.123565,9474.636058
409.013054,-1225.752797,592.164754,9474.636058
409.013362,-1149.143247,1184.329507,8882.471304
409.013670,-919.314598,1554.432478,9326.594869
409.013977,-919.314598,1406.391290,8956.491898
409.014285,-1225.752797,962.267725,9326.594869
409.014593,-1762.019645,888.247130,9844.739029
409.014901,-1915.238745,222.061783,10140.821405
409.015209,-1915.238745,370.102971,9622.677246
409.015517,-1915.238745,444.123565,9696.697840
409.015825,-1149.143247,148.041188,9030.512492
409.016133,-1225.752797,296.082377,8808.450710
409.016441,-1685.410096,888.247130,9252.574275
409.016748,-1378.971896,740.205942,9030.512492
409.017056,-1685.410096,666.185348,9030.512492
409.017364,-1991.848295,888.247130,9400.615463
409.017672,-2374.896044,518.144159,9844.739029
409.017980,-3140.991542,-0.000000,10140.821405
409.018288,-3600.648841,-740.205942,10510.924376
409.018596,-3294.210641,-518.144159,11547.212695
409.018904,-3677.258390,-962.267725,11547.212695
409.019212,-3753.867940,-1036.288319,11103.089130
409.019519,-3370.820191,-518.144159,10955.047942
409.019827,-2834.553343,-370.102971,10288.862594
409.020135,-2068.457845,-444.123565,9992.780217
409.020443,-1378.971896,148.041188,8808.450710
409.020751,-919.314598,-296.082377,8956.491898
409.021059,0.000000,-74.020594,8956.491898
409.021367,-229.828649,148.041188,8660.409521
409.021675,-306.438199,370.102971,8882.471304
409.021983,-153.219100,1110.308913,8512.368333
409.022290,76.609550,1406.391290,8364.327145
409.022598,76.609550,1406.391290,8364.327145
409.022906,536.266849,1702.473667,8586.388927
409.023214,153.219100,1628.453072,8290.306550
409.023522,-995.924147,1332.370696,8734.430116
409.023830,-919.314598,962.267725,9548.656652
409.024138,-1915.238745,962.267725,10066.800811
409.024446,-2681.334243,518.144159,10732.986159
409.024754,-3064.381992,-0.000000,10658.965565
409.025061,-3294.210641,-0.000000,11103.089130
409.025369,-3447.429741,-0.000000,11251.130318
409.025677,-3677.258390,-0.000000,11473.192101
409.025985,-3830.477490,-0.000000,11103.089130
409.026293,-2987.772442,-148.041188,11029.068536
409.026601,-3447.429741,-148.041188,10732.986159
409.026909,-3294.210641,-0.000000,9992.780217
409.027217,-3064.381992,518.144159,9622.677246
409.027525,-2987.772442,666.185348,9326.594869
409.027832,-2604.724693,592.164754,9178.553681
409.028140,-2451.505594,222.061783,9104.533087
409.028448,-2604.724693,740.205942,8882.471304
409.028756,-3294.210641,666.185348,9104.533087
409.029064,-3524.039291,444.123565,9178.553681
409.029372,-3447.429741,-0.000000,9400.615463
409.029680,-3907.087040,-0.000000,9474.636058
409.029988,-4136.915689,-444.123565,9474.636058
409.030296,-3830.477490,-740.205942,9918.759623
409.030604,-4366.744339,-1036.288319,10140.821405
409.030911,-4366.744339,-1258.350101,9844.739029
409.031219,-4060.306139,-814.226536,9548.656652
409.031527,-4290.134789,-1036.288319,9622.677246
409.031835,-3983.696590,-888.247130,9400.615463
409.032143,-3830.477490,-666.185348,9326.594869
409.032451,-3370.820191,-740.205942,9548.656652
409.032759,-3677.258390,-1110.308913,9178.553681
409.033067,-4136.915689,-592.164754,9474.636058
409.033375,-2681.334243,-1628.453072,10658.965565
409.033682,-2987.772442,-592.164754,9474.636058
409.033990,-2528.115143,-1332.370696,10658.965565
409.034298,-2145.067394,-1258.350101,9992.780217
409.034606,-2145.067394,-1184.329507,9918.759623
409.034914,-1608.800546,-1036.288319,9770.718434
409.035222,-229.828649,-0.000000,9252.574275
409.035530,-229.828649,740.205942,8882.471304
409.035838,995.924147,1184.329507,7328.038826
409.036146,919.314598,2664.741391,7105.977043
409.036453,1685.410096,2960.823768,6513.812290
409.036761,1225.752797,3627.009116,6513.812290
409.037069,766.095498,3849.070898,7105.977043
409.037377,0.000000,3034.844362,7846.182985
409.037685,-1225.752797,2886.803174,9696.697840
409.037993,-2528.115143,2146.597232,10732.986159
409.038301,-2911.162892,740.205942,11473.192101
409.038609,-4826.401637,-74.020594,12657.521608
409.038917,-5132.839837,-740.205942,12805.562797
409.039224,-5515.887586,-1332.370696,13323.706956
409.039532,-5362.668486,-1480.411884,13027.624579
409.039840,-4979.620737,-1702.473667,13027.624579
409.040148,-4596.572988,-1998.556043,12213.398043
409.040456,-3140.991542,-1554.432478,12139.377449
409.040764,-2834.553343,-1554.432478,10807.006753
409.041072,-1991.848295,-148.041188,10510.924376
409.041380,-1455.581446,518.144159,9104.533087
409.041688,-612.876398,888.247130,8808.450710
409.041995,-153.219100,1406.391290,8216.285956
409.042303,536.266849,2072.576638,7624.121203
409.042611,1072.533697,2146.597232,7772.162391
409.042919,842.705048,2886.803174,6957.935855
409.043227,383.047749,2886.803174,6661.853478
409.043535,536.266849,2960.823768,7179.997637
409.043843,153.219100,3034.844362,7920.203579
409.044151,-612.876398,2368.659014,8586.388927
409.044459,-1838.629195,1480.411884,8956.491898
409.044766,-2528.115143,-0.000000,10288.862594
409.045074,-3753.867940,-1332.370696,11029.068536
409.045382,-5056.230287,-2220.617826,11843.295072
409.045690,-6281.983084,-2812.782580,12657.521608
409.045998,-6511.811733,-3330.926739,12879.583391
409.046306,-5822.325785,-3627.009116,13397.727550
409.046614,-5515.887586,-3182.885551,12361.439231
409.046922,-4749.792088,-2886.803174,11695.253884
409.047230,-3447.429741,-2220.617826,10955.047942
409.047537,-2145.067394,-666.185348,9400.615463
409.047845,-1608.800546,888.247130,8808.450710
409.048153,1455.581446,2516.700203,6587.832884
409.048461,2374.896044,4367.215058,5033.400406
409.048769,3370.820191,5181.441594,4367.215058
409.049077,3294.210641,5551.544565,3701.029710
409.049385,2451.505594,4811.338623,4737.318029
409.049693,842.705048,3108.864956,6957.935855
409.050001,-1072.533697,962.267725,9030.512492
409.050309,-4749.792088,-666.185348,10214.842000
409.050616,-4979.620737,-3108.864956,13693.809927
409.050924,-7431.126331,-4071.132681,13841.851115
409.051232,-7431.126331,-5477.523971,14211.954086
409.051540,-6741.640382,-6069.688724,14211.954086
409.051848,-6052.154434,-4441.235652,12805.562797
409.052156,-5056.230287,-2590.720797,11325.150913
409.052464,-2451.505594,222.061783,9918.759623
409.052772,76.609550,2738.761985,7846.182985
409.053080,1685.410096,4663.297435,5551.544565
409.053387,3140.991542,6439.791695,3923.091493
409.053695,2451.505594,6439.791695,3923.091493
409.054003,842.705048,4145.153275,6069.688724
409.054311,-1378.971896,1850.514855,8586.388927
409.054619,-4903.011187,-1036.288319,10881.027347
409.054927,-7201.297681,-5033.400406,13767.830521
409.055235,-8273.831378,-6143.709319,15248.242405
409.055543,-8044.002729,-6439.791695,14878.139434
409.055851,-7277.907231,-5921.647536,13471.748144
409.056158,-4673.182538,-3034.844362,10881.027347
409.056466,-1762.019645,222.061783,8808.450710
409.056774,1072.533697,2812.782580,7105.977043
409.057082,3600.648841,6365.771101,3997.112087
409.057390,5439.278036,7772.162391,3256.906145
409.057698,5439.278036,7402.059420,3701.029710
409.058006,2987.772442,6809.894666,4441.235652
409.058314,306.438199,3108.864956,9252.574275
409.058622,-3524.039291,-222.061783,12213.398043
409.058929,-7277.907231,-3404.947333,15100.201217
409.059237,-9806.022374,-6513.812290,17246.798449
409.059545,-10648.727422,-7254.018232,17838.963202
409.059853,-9269.755526,-5773.606348,15988.448347
409.060161,-5132.839837,-2590.720797,13619.789333
409.060469,-1608.800546,518.144159,8290.306550
409.060777,383.047749,2886.803174,6291.750507
409.061085,1838.629195,4071.132681,6365.771101
409.061393,2757.943793,6069.688724,4811.338623
409.061700,1991.848295,5847.626942,5329.482782
409.062008,229.828649,4071.132681,6661.853478
409.062316,-2145.067394,1480.411884,8882.471304
409.062624,-5362.668486,-666.185348,11325.150913
409.062932,-6588.421283,-1702.473667,12731.542202
409.063240,-7354.516781,-3108.864956,14063.912898
409.063548,-6971.469032,-2738.761985,13397.727550
409.063856,-4213.525239,-518.144159,11029.068536
409.064164,-1072.533697,592.164754,8956.491898
409.064471,1608.800546,962.267725,7624.121203
409.064779,2757.943793,-74.020594,6809.894666
409.065087,2221.676944,-74.020594,7031.956449
409.065395,766.095498,-370.102971,7698.141797
409.065703,-842.705048,-0.000000,8216.285956
409.066011,-2221.676944,370.102971,9696.697840
409.066319,-2757.943793,1036.288319,9992.780217
409.066627,-2834.553343,740.205942,9696.697840
409.066935,-2757.943793,740.205942,9178.553681
409.067243,-3140.991542,-74.020594,9992.780217
409.067550,-3447.429741,-1554.432478,11029.068536
409.067858,-3447.429741,-3182.885551,12065.356855
409.068166,-4673.182538,-3404.947333,11251.130318
409.068474,-4903.011187,-2886.803174,9844.739029
409.068782,-4136.915689,-1332.370696,10510.924376
409.069090,-2145.067394,1036.288319,9474.636058
409.069398,459.657299,3034.844362,6809.894666
409.069706,1302.362347,5181.441594,4663.297435
409.070014,2221.676944,4515.256246,5181.441594
409.070321,1915.238745,2886.803174,7402.059420
409.070629,-919.314598,666.185348,9104.533087
409.070937,-2987.772442,-740.205942,10288.862594
409.071245,-4443.353888,-2812.782580,12583.501014
409.071553,-6511.811733,-2812.782580,13471.748144
409.071861,-5822.325785,-3404.947333,14211.954086
409.072169,-3907.087040,-2368.659014,12361.439231
409.072477,-3600.648841,-1036.288319,9548.656652
409.072785,-2451.505594,-1332.370696,9326.594869
409.073092,-1225.752797,-1406.391290,9622.677246
409.073400,-2374.896044,-814.226536,9326.594869
409.073708,-2298.286494,1110.308913,7994.224174
409.074016,-536.266849,3182.885551,7772.162391
409.074324,459.657299,4441.235652,7179.997637
409.074632,919.314598,5255.462188,6365.771101
409.074940,2221.676944,5921.647536,5699.585753
409.075248,1302.362347,3775.050304,6957.935855
409.075556,-995.924147,1554.432478,9474.636058
409.075863,-3370.820191,-666.185348,11843.295072
409.076171,-5439.278036,-2294.638420,13101.645173
409.076479,-5975.544884,-2664.741391,13693.809927
409.076787,-4519.963438,-1998.556043,13175.665768
409.077095,-3140.991542,-2960.823768,12361.439231
409.077403,-2451.505594,-2590.720797,11399.171507
409.077711,-1838.629195,-2516.700203,9696.697840
409.078019,-3294.210641,-2442.679609,9104.533087
409.078327,-4213.525239,-2738.761985,10584.944971
409.078634,-3294.210641,-962.267725,10362.883188
409.078942,-2145.067394,1776.494261,9770.718434
409.079250,306.438199,2960.823768,8660.409521
409.079558,2757.943793,4663.297435,5699.585753
409.079866,3907.087040,5107.421000,6217.729913
409.080174,3907.087040,3108.864956,7698.141797
409.080482,1762.019645,1998.556043,7920.203579
409.080790,-153.219100,740.205942,9992.780217
409.081098,-2604.724693,-1110.308913,11103.089130
409.081405,-1991.848295,-814.226536,11695.253884
409.081713,-1072.533697,-1406.391290,10881.027347
409.082021,-383.047749,-1258.350101,9844.739029
409.082329,-383.047749,-2886.803174,9770.718434
409.082637,-2298.286494,-2294.638420,9548.656652
409.082945,-2528.115143,-2146.597232,11399.171507
409.083253,-2604.724693,-518.144159,10807.006753
409.083561,-2451.505594,962.267725,10955.047942
409.083869,0.000000,2368.659014,10140.821405
409.084177,995.924147,4515.256246,7105.977043
409.084484,2451.505594,4293.194464,7179.997637
409.084792,2145.067394,3404.947333,7920.203579
409.085100,306.438199,2368.659014,8438.347739
409.085408,-1762.019645,962.267725,11177.109724
409.085716,-2528.115143,-814.226536,11177.109724
409.086024,-2987.772442,-1628.453072,11695.253884
409.086332,-2528.115143,-2590.720797,11621.233289
409.086640,-2298.286494,-3404.947333,10214.842000
409.086948,-2987.772442,-3775.050304,10881.027347
409.087255,-3064.381992,-2368.659014,9844.739029
409.087563,-1991.848295,-888.247130,9474.636058
409.087871,-229.828649,1258.350101,8512.368333
409.088179,2298.286494,2886.803174,7254.018232
409.088487,3600.648841,4071.132681,5995.668130
409.088795,4290.134789,3330.926739,5773.606348
409.089103,2987.772442,1924.535449,7105.977043
409.089411,459.657299,1110.308913,8142.265362
409.089719,-919.314598,-296.082377,10510.924376
409.090026,-2528.115143,-2220.617826,13323.706956
409.090334,-3217.601092,-3034.844362,12657.521608
409.090642,-2681.334243,-3034.844362,12065.356855
409.090950,-1915.238745,-3775.050304,10658.965565
409.091258,-1762.019645,-2516.700203,10288.862594
409.091566,-1225.752797,-1998.556043,9770.718434
409.091874,-1225.752797,-0.000000,9030.512492
409.092182,1532.190996,1924.535449,8586.388927
409.092490,2528.115143,4071.132681,6661.853478
409.092797,3524.039291,4071.132681,6365.771101
409.093105,3907.087040,2590.720797,7550.100608
409.093413,1762.019645,2146.597232,8512.368333
409.093721,536.266849,592.164754,10584.944971
409.094029,-995.924147,-296.082377,12065.356855
409.094337,-1838.629195,-2516.700203,12435.459826
409.094645,-919.314598,-2368.659014,12509.480420
409.094953,-1991.848295,-1924.535449,10510.924376
409.095261,-842.705048,-2812.782580,10288.862594
409.095568,-919.314598,-1110.308913,9844.739029
409.095876,-689.485948,296.082377,9474.636058
409.096184,689.485948,1406.391290,8956.491898
409.096492,2145.067394,4293.194464,6883.915261
409.096800,3830.477490,4293.194464,6735.874072
409.097108,4060.306139,4441.235652,6735.874072
409.097416,2987.772442,4219.173869,7179.997637
409.097724,1915.238745,2368.659014,9622.677246
409.098032,-459.657299,1110.308913,10214.842000
409.098339,-842.705048,-592.164754,14211.954086
409.098647,-2068.457845,-3034.844362,13693.809927
409.098955,-2987.772442,-3182.885551,11769.274478
409.099263,-2528.115143,-4737.318029,13249.686362
409.099571,-2145.067394,-4071.132681,10807.006753
409.099879,-2298.286494,-2738.761985,11251.130318
409.100187,-842.705048,-444.123565,9252.574275
409.100495,1532.190996,1702.473667,8512.368333
409.100803,3907.087040,3849.070898,7254.018232
409.101110,4519.963438,4219.173869,5033.400406
409.101418,5592.497135,4441.235652,7402.059420
409.101726,4213.525239,3330.926739,7328.038826
409.102034,2834.553343,2368.659014,9030.512492
409.102342,1608.800546,-444.123565,11399.171507
409.102650,536.266849,-2072.576638,12213.398043
409.102958,-1225.752797,-3701.029710,11843.295072
409.103266,-2068.457845,-3775.050304,10214.842000
409.103574,-2987.772442,-4663.297435,12139.377449
409.103882,-2068.457845,-4885.359217,12953.603985
409.104190,-919.314598,-1924.535449,9548.656652
409.104498,842.705048,370.102971,9252.574275
409.104806,2451.505594,2368.659014,7328.038826
409.105114,4903.011187,4515.256246,6587.832884
409.105422,4903.011187,4515.256246,6957.935855
409.105730,4596.572988,4441.235652,6587.832884
409.106038,2834.553343,4145.153275,7328.038826
409.106346,1072.533697,1406.391290,11621.233289
409.106654,1302.362347,-962.267725,12731.542202
409.106962,-919.314598,-1036.288319,10658.965565
409.107270,-766.095498,-2738.761985,10584.944971
409.107578,-2451.505594,-3182.885551,10955.047942
409.107886,-2604.724693,-3478.967927,11769.274478
409.108194,-1225.752797,-2590.720797,11843.295072
409.108502,-306.438199,-370.102971,9400.615463
409.108810,1455.581446,1406.391290,7254.018232
409.109118,3830.477490,2590.720797,7105.977043
409.109426,5439.278036,4737.318029,6883.915261
409.109734,4366.744339,4367.215058,5995.668130
409.110042,3677.258390,4589.276840,7476.080014
409.110350,2911.162892,2664.741391,9474.636058
409.110658,1685.410096,148.041188,11103.089130
409.110966,919.314598,-518.144159,10584.944971
409.111274,-689.485948,-1850.514855,10510.924376
409.111582,-1685.410096,-3775.050304,11399.171507
409.111890,-3140.991542,-3552.988522,11843.295072
409.112198,-2681.334243,-2960.823768,12139.377449
409.112506,-1608.800546,-1776.494261,10955.047942
409.112814,-306.438199,296.082377,8734.430116
409.113122,1455.581446,1110.308913,8660.409521
409.113430,2987.772442,2590.720797,7772.162391
409.113738,2757.943793,3034.844362,7550.100608
409.114046,2987.772442,3404.947333,8290.306550
409.114354,2681.334243,2516.700203,10288.862594
409.114662,1532.190996,444.123565,11399.171507
409.114970,459.657299,-888.247130,10510.924376
409.115278,-612.876398,-1258.350101,10510.924376
409.115586,-1378.971896,-3108.864956,10955.047942
409.115894,-3064.381992,-2812.782580,11399.171507
409.116202,-2987.772442,-3034.844362,11843.295072
409.116510,-2374.896044,-2072.576638,10584.944971
409.116818,-1225.752797,-518.144159,10362.883188
409.117126,1225.752797,814.226536,8438.347739
409.117434,2987.772442,3034.844362,6957.935855
409.117742,3370.820191,4071.132681,6735.874072
409.118050,2604.724693,4293.194464,7105.977043
409.118358,2528.115143,3849.070898,9104.533087
409.118666,2604.724693,2220.617826,9992.780217
409.118974,1838.629195,148.041188,8586.388927
409.119282,229.828649,-0.000000,8882.471304
409.119590,76.609550,-2146.597232,10066.800811
409.119898,-2834.553343,-2738.761985,10807.006753
409.120206,-3140.991542,-3330.926739,11843.295072
409.120514,-2834.553343,-2368.659014,10658.965565
409.120822,-1378.971896,-1924.535449,10362.883188
409.121130,0.000000,-666.185348,10066.800811
409.121438,1532.190996,518.144159,9178.553681
409.121746,3447.429741,2442.679609,7920.203579
409.122054,2451.505594,3034.844362,7846.182985
409.122362,3064.381992,2886.803174,9622.677246
409.122670,2757.943793,2294.638420,9400.615463
409.122978,2374.896044,-0.000000,9474.636058
409.123286,1608.800546,-0.000000,8438.347739
409.123594,0.000000,-1332.370696,9474.636058
409.123902,-2528.115143,-3108.864956,11695.253884
409.124210,-2374.896044,-2442.679609,10955.047942
409.124518,-2145.067394,-1850.514855,11177.109724
409.124826,-995.924147,-1628.453072,10807.006753
409.125134,1225.752797,-74.020594,8808.450710
409.125442,1762.019645,518.144159,8660.409521
409.125750,3753.867940,1776.494261,8290.306550
409.126058,2451.505594,3034.844362,7254.018232
409.126365,2528.115143,3701.029710,10510.924376
409.126673,3524.039291,1776.494261,9548.656652
409.126981,2221.676944,2146.597232,8068.244768
409.127289,2451.505594,-74.020594,10140.821405
409.127597,1149.143247,-222.061783,8216.285956
409.127905,-1302.362347,-2294.638420,10955.047942
409.128213,-2987.772442,-1998.556043,11177.109724
409.128521,-1991.848295,-2072.576638,10436.903782
409.128829,-2374.896044,-1110.308913,11103.089130
409.129137,-1225.752797,-148.041188,9696.697840
409.129445,1991.848295,1184.329507,8956.491898
409.129753,2528.115143,2738.761985,7105.977043
409.130061,1838.629195,2146.597232,7994.224174
409.130369,3217.601092,3108.864956,8882.471304
409.130677,2528.115143,2442.679609,9696.697840
409.130985,1991.848295,592.164754,9400.615463
409.131293,1532.190996,-0.000000,8142.265362
409.131601,1608.800546,-518.144159,10436.903782
409.131909,-1455.581446,-2738.761985,10658.965565
409.132217,-2374.896044,-1480.411884,9844.739029
409.132525,-1762.019645,-1110.308913,11251.130318
409.132833,-766.095498,-1258.350101,10807.006753
409.133141,229.828649,-296.082377,9622.677246
409.133449,2451.505594,592.164754,9104.533087
409.133757,1838.629195,1480.411884,6661.853478
409.134065,2604.724693,1998.556043,8068.244768
409.134373,2604.724693,2590.720797,9400.615463
409.134681,1838.629195,1850.514855,10584.944971
409.134989,1378.971896,-0.000000,10510.924376
409.135297,995.924147,-0.000000,8586.388927
409.135605,76.609550,-1258.350101,10436.903782
409.135913,-1378.971896,-2442.679609,10584.944971
409.136221,-2068.457845,-1702.473667,11325.150913
409.136529,-2451.505594,-1554.432478,10955.047942
409.136837,-1915.238745,-1406.391290,10510.924376
409.137145,766.095498,-74.020594,10881.027347
409.137453,0.000000,2368.659014,7550.100608
409.137761,3600.648841,1554.432478,9030.512492
409.138069,2298.286494,2960.823768,7328.038826
409.138377,2145.067394,3627.009116,8586.388927
409.138685,2374.896044,1924.535449,11251.130318
409.138993,1838.629195,2294.638420,9178.553681
409.139301,919.314598,-0.000000,10214.842000
409.139609,153.219100,-370.102971,8290.306550
409.139917,-459.657299,-1776.494261,11177.109724
409.140225,-2528.115143,-2368.659014,11325.150913
409.140533,-2528.115143,-1184.329507,10807.006753
409.140841,-1455.581446,-1480.411884,11251.130318
409.141149,-383.047749,-1036.288319,9548.656652
409.141457,1532.190996,1702.473667,8290.306550
409.141765,2528.115143,1554.432478,7550.100608
409.142073,2987.772442,1850.514855,8216.285956
409.142381,1991.848295,2590.720797,8290.306550
409.142689,2604.724693,1332.370696,10955.047942
409.142997,1762.019645,-370.102971,11029.068536
409.143305,1072.533697,-0.000000,9030.512492
409.143613,766.095498,-1332.370696,9992.780217
409.143921,-766.095498,-3256.906145,10288.862594
409.144229,-1915.238745,-2368.659014,11029.068536
409.144537,-2451.505594,-1554.432478,10955.047942
409.144845,-612.876398,-1406.391290,11177.109724
409.145153,919.314598,-222.061783,8512.368333
409.145461,2451.505594,814.226536,8290.306550
409.145769,3217.601092,1110.308913,7846.182985
409.146077,2681.334243,2590.720797,6143.709319
409.146385,2681.334243,2812.782580,9400.615463
409.146693,1685.410096,2072.576638,9992.780217
409.147001,1532.190996,1184.329507,10436.903782
409.147309,1685.410096,814.226536,9548.656652
409.147617,689.485948,-370.102971,9326.594869
409.147925,-459.657299,-2146.597232,10732.986159
409.148233,-2145.067394,-2072.576638,11251.130318
409.148541,-2145.067394,-1776.494261,11251.130318
409.148849,-2451.505594,-1036.288319,10436.903782
409.149157,-842.705048,-296.082377,9992.780217
409.149465,1608.800546,1702.473667,8734.430116
409.149773,2451.505594,2442.679609,7105.977043
409.150081,2987.772442,2664.741391,7698.141797
409.150389,3140.991542,4071.132681,7994.224174
409.150697,2681.334243,3256.906145,9548.656652
409.151005,1685.410096,1036.288319,10066.800811
409.151313,1532.190996,1036.288319,9474.636058
409.151620,842.705048,-296.082377,9770.718434
409.151928,-612.876398,-2738.761985,10362.883188
409.152236,-1762.019645,-2738.761985,11695.253884
409.152544,-2681.334243,-2886.803174,11843.295072
409.152852,-2681.334243,-2738.761985,11917.315666
409.153160,-766.095498,-1406.391290,10510.924376
409.153468,1072.533697,296.082377,9104.533087
409.153776,2757.943793,962.267725,8142.265362
409.154084,3370.820191,2072.576638,6365.771101
409.154392,2987.772442,3256.906145,7772.162391
409.154700,2528.115143,3034.844362,9400.615463
409.155008,2068.457845,1924.535449,9992.780217
409.155316,1149.143247,888.247130,10066.800811
409.155624,459.657299,-518.144159,9474.636058
409.155932,-1072.533697,-2220.617826,10362.883188
409.156240,-2374.896044,-4145.153275,11843.295072
409.156548,-3677.258390,-2886.803174,11695.253884
409.156856,-2911.162892,-3108.864956,11843.295072
409.157164,-1225.752797,-1258.350101,10362.883188
409.157472,919.314598,-0.000000,9030.512492
409.157780,2451.505594,1998.556043,7179.997637
409.158088,4826.401637,2664.741391,6587.832884
409.158396,3677.258390,3108.864956,6513.812290
409.158704,3294.210641,4441.235652,7105.977043
409.159012,3217.601092,2294.638420,9400.615463
409.159320,2145.067394,1702.473667,9252.574275
409.159628,766.095498,-0.000000,9030.512492
409.159936,-766.095498,-1850.514855,9622.677246
409.160244,-3064.381992,-3627.009116,12287.418637
409.160552,-3370.820191,-3775.050304,12435.459826
409.160860,-4366.744339,-2886.803174,11843.295072
409.161168,-1685.410096,-1480.411884,11177.109724
409.161476,229.828649,-296.082377,9104.533087
409.161784,2757.943793,2368.659014,7550.100608
409.162092,3447.429741,2368.659014,7031.956449
409.162400,3677.258390,3404.947333,7772.162391
409.162708,3600.648841,4515.256246,8364.327145
409.163016,3447.429741,2738.761985,9696.697840
409.163324,1915.238745,296.082377,11029.068536
409.163632,1378.971896,-0.000000,10732.986159
409.163940,-1072.533697,-1850.514855,11695.253884
409.164248,-3370.820191,-4145.153275,12065.356855
409.164556,-3524.039291,-4219.173869,13693.809927
409.164864,-2911.162892,-2368.659014,12287.418637
409.165172,-1378.971896,-1258.350101,11325.150913
409.165480,689.485948,666.185348,9622.677246
409.165788,3294.210641,2368.659014,7402.059420
409.166096,4290.134789,3478.967927,6513.812290
409.166404,4596.572988,4071.132681,6661.853478
409.166712,4596.572988,4145.153275,7994.224174
409.167020,2834.553343,4071.132681,8068.244768
409.167328,1991.848295,1184.329507,10140.821405
409.167636,1302.362347,148.041188,10288.862594
409.167944,-919.314598,-1332.370696,10288.862594
409.168252,-2911.162892,-2960.823768,11473.192101
409.168560,-3370.820191,-3923.091493,13027.624579
409.168868,-3447.429741,-2738.761985,12139.377449
409.169176,-2145.067394,-1924.535449,11621.233289
409.169484,306.438199,-814.226536,9844.739029
409.169792,2451.505594,1036.288319,6957.935855
409.170100,2911.162892,2516.700203,6661.853478
409.170408,4443.353888,2812.782580,7105.977043
409.170716,4366.744339,3997.112087,7476.080014
409.171024,3140.991542,3923.091493,7772.162391
409.171332,2374.896044,1702.473667,9104.533087
409.171640,2145.067394,-222.061783,10436.903782
409.171948,-612.876398,-1406.391290,9400.615463
409.172256,-2374.896044,-3182.885551,11177.109724
409.172564,-2911.162892,-4367.215058,12287.418637
409.172872,-3447.429741,-2590.720797,11695.253884
409.173180,-2145.067394,-1924.535449,11843.295072
409.173488,0.000000,-74.020594,10066.800811
409.173796,2757.943793,1184.329507,7920.203579
409.174104,3140.991542,2368.659014,5921.647536
409.174412,4366.744339,2812.782580,7031.956449
409.174720,4290.134789,3478.967927,7476.080014
409.175028,3370.820191,3775.050304,8734.430116
409.175336,2374.896044,1702.473667,9400.615463
409.175644,1532.190996,-0.000000,9844.739029
409.175952,-383.047749,-814.226536,9844.739029
409.176260,-2451.505594,-3108.864956,11177.109724
409.176568,-3830.477490,-3701.029710,12509.480420
409.176875,-4749.792088,-3627.009116,13989.892304
409.177183,-3600.648841,-2738.761985,12213.398043
409.177491,-1532.190996,-1628.453072,10362.883188
409.177799,1685.410096,296.082377,8956.491898
409.178107,2604.724693,2442.679609,6883.915261
409.178415,3983.696590,3849.070898,6069.688724
409.178723,3830.477490,4071.132681,7031.956449
409.179031,3677.258390,4219.173869,7105.977043
409.179339,3294.210641,3108.864956,7254.018232
409.179647,1838.629195,592.164754,8512.368333
409.179955,766.095498,-1184.329507,9474.636058
409.180263,-2068.457845,-2664.741391,9696.697840
409.180571,-3677.258390,-4145.153275,11843.295072
409.180879,-4366.744339,-4885.359217,13323.706956
409.181187,-3600.648841,-3108.864956,12287.418637
409.181495,-1838.629195,-2368.659014,11769.274478
409.181803,1532.190996,148.041188,9400.615463
409.182111,4290.134789,1998.556043,7920.203579
409.182419,2451.505594,3701.029710,4959.379811
409.182727,5286.058936,3182.885551,8142.265362
409.183035,5132.839837,4663.297435,6809.894666
409.183343,2987.772442,4367.215058,6735.874072
409.183651,3370.820191,148.041188,11103.089130
409.183959,1072.533697,222.061783,8216.285956
409.184267,-1149.143247,-2960.823768,12509.480420
409.184575,-3753.867940,-3552.988522,11695.253884
409.184883,-4443.353888,-4145.153275,13101.645173
409.185191,-3677.258390,-3552.988522,13841.851115
409.185499,-1838.629195,-1924.535449,10658.965565
409.185807,919.314598,592.164754,9178.553681
409.186115,3370.820191,1628.453072,7402.059420
409.186423,3600.648841,3108.864956,7328.038826
409.186731,4519.963438,2960.823768,7476.080014
409.187039,4290.134789,4367.215058,7994.224174
409.187347,3217.601092,4145.153275,8808.450710
409.187655,3447.429741,1628.453072,9104.533087
409.187963,1302.362347,888.247130,9844.739029
409.188271,-1455.581446,-518.144159,9918.759623
409.188579,-2298.286494,-2368.659014,11547.212695
409.188887,-4749.792088,-3701.029710,13101.645173
409.189195,-4979.620737,-3182.885551,13175.665768
409.189503,-2451.505594,-2738.761985,12287.418637
409.189811,306.438199,-444.123565,9918.759623
409.190119,2374.896044,1480.411884,7476.080014
409.190427,3753.867940,3404.947333,6513.812290
409.190735,4979.620737,3627.009116,6809.894666
409.191043,5362.668486,4663.297435,6217.729913
409.191351,4290.134789,4219.173869,7698.141797
409.191659,3677.258390,1480.411884,8068.244768
409.191967,1608.800546,-0.000000,9326.594869
409.192275,383.047749,-1850.514855,10140.821405
409.192583,-2451.505594,-3256.906145,10955.047942
409.192891,-3677.258390,-3997.112087,12879.583391
409.193199,-4060.306139,-3849.070898,13101.645173
409.193507,-2834.553343,-2590.720797,11769.274478
409.193815,-306.438199,-1184.329507,10732.986159
409.194123,2298.286494,296.082377,8438.347739
409.194431,3677.258390,1776.494261,7476.080014
409.194739,3753.867940,2146.597232,7624.121203
409.195047,5209.449386,3256.906145,7624.121203
409.195355,3677.258390,3923.091493,6883.915261
409.195663,3753.867940,2072.576638,8364.327145
409.195971,2681.334243,740.205942,8142.265362
409.196279,536.266849,-0.000000,8660.409521
409.196587,-2298.286494,-2516.700203,10807.006753
409.196895,-4213.525239,-3923.091493,12435.459826
409.197203,-5362.668486,-4071.132681,13619.789333
409.197511,-3830.477490,-2886.803174,12509.480420
409.197819,-1838.629195,-1924.535449,10510.924376
409.198127,306.438199,296.082377,9400.615463
409.198435,2145.067394,2146.597232,8586.388927
409.198743,4136.915689,2960.823768,6587.832884
409.199051,3294.210641,4589.276840,6217.729913
409.199359,3447.429741,4071.132681,8068.244768
409.199667,3524.039291,3330.926739,6957.935855
409.199975,2528.115143,1702.473667,8068.244768
409.200283,842.705048,148.041188,8956.491898
409.200591,-2145.067394,-2072.576638,9696.697840
409.200899,-3600.648841,-3404.947333,12657.521608
409.201207,-5669.106685,-3701.029710,13027.624579
409.201515,-3830.477490,-3627.009116,13545.768739
409.201823,-2374.896044,-2220.617826,11843.295072
409.202131,536.266849,444.123565,10584.944971
409.202439,2604.724693,1628.453072,7698.141797
409.202747,3753.867940,2516.700203,7328.038826
409.203055,4519.963438,3552.988522,7550.100608
409.203363,4443.353888,4367.215058,7031.956449
409.203671,4673.182538,2220.617826,9326.594869
409.203979,3524.039291,1924.535449,8364.327145
409.204287,919.314598,-296.082377,8586.388927
409.204595,-1302.362347,-1776.494261,11325.150913
409.204903,-3370.820191,-2664.741391,12213.398043
409.205211,-2604.724693,-3330.926739,14137.933492
409.205519,-6511.811733,-1776.494261,9252.574275
409.205827,-1378.971896,-2516.700203,14730.098246
409.206135,2451.505594,-592.164754,11103.089130
409.206443,1149.143247,2664.741391,5551.544565
409.206751,5209.449386,1036.288319,10658.965565
409.207059,5056.230287,3923.091493,6513.812290
409.207367,4596.572988,3849.070898,9104.533087
409.207675,2068.457845,2590.720797,8512.368333
409.207983,4519.963438,2146.597232,8438.347739
