#time,accel_x,accel_y,accel_z
191.748015,2834.553343,-74.020594,9474.636058
191.748323,2834.553343,-592.164754,9400.615463
191.748631,3294.210641,-518.144159,9696.697840
191.748939,3140.991542,-148.041188,9474.636058
191.749247,2911.162892,-148.041188,9548.656652
191.749555,2987.772442,-0.000000,9400.615463
191.749863,2987.772442,666.185348,9104.533087
191.750171,3907.087040,444.123565,9918.759623
191.750479,3140.991542,296.082377,9326.594869
191.750787,3140.991542,740.205942,8808.450710
191.751095,3524.039291,370.102971,9400.615463
191.751403,3524.039291,888.247130,9252.574275
191.751711,2757.943793,962.267725,9770.718434
191.752019,2757.943793,1184.329507,9474.636058
191.752327,2604.724693,888.247130,9844.739029
191.752635,2451.505594,-0.000000,9696.697840
191.752943,2221.676944,-0.000000,10881.027347
191.753251,1915.238745,-1036.288319,11251.130318
191.753560,1455.581446,-1184.329507,11473.192101
191.753868,1685.410096,-1110.308913,11695.253884
191.754176,1762.019645,-1480.411884,11621.233289
191.754484,2528.115143,-1036.288319,10584.944971
191.754792,3064.381992,-0.000000,9918.759623
191.755100,4060.306139,-148.041188,9770.718434
191.755408,4443.353888,-74.020594,9400.615463
191.755716,4443.353888,-74.020594,8956.491898
191.756024,4596.572988,-222.061783,8956.491898
191.756332,4596.572988,-0.000000,8808.450710
191.756640,4826.401637,-0.000000,8512.368333
191.756948,4903.011187,-0.000000,8364.327145
191.757256,5056.230287,296.082377,8882.471304
191.757564,4903.011187,296.082377,8660.409521
191.757872,5439.278036,444.123565,8512.368333
191.758180,5286.058936,148.041188,8808.450710
191.758488,5822.325785,148.041188,8882.471304
191.758796,5286.058936,518.144159,8734.430116
191.759104,5592.497135,1036.288319,8364.327145
191.759412,5592.497135,1184.329507,8364.327145
191.759720,5515.887586,1554.432478,8290.306550
191.760028,5822.325785,1628.453072,8660.409521
191.760336,5439.278036,1776.494261,8586.388927
191.760645,5056.230287,1776.494261,8882.471304
191.760953,4979.620737,1850.514855,9474.636058
191.761261,4673.182538,1480.411884,9548.656652
191.761569,3753.867940,1184.329507,9844.739029
191.761877,2834.553343,962.267725,10288.862594
191.762185,2374.896044,814.226536,10881.027347
191.762493,1991.848295,444.123565,11103.089130
191.762801,1915.238745,222.061783,11251.130318
191.763109,1608.800546,-148.041188,11473.192101
191.763417,1378.971896,-592.164754,11177.109724
191.763725,919.314598,-814.226536,10955.047942
191.764033,1225.752797,-148.041188,11473.192101
191.764341,1685.410096,-148.041188,10881.027347
191.764649,2145.067394,-74.020594,10288.862594
191.764957,2298.286494,-0.000000,9696.697840
191.765265,2911.162892,-370.102971,9770.718434
191.765573,2834.553343,-0.000000,9474.636058
191.765881,3370.820191,-0.000000,9030.512492
191.766189,2834.553343,-370.102971,8734.430116
191.766497,3447.429741,-370.102971,8660.409521
191.766805,3294.210641,-370.102971,8512.368333
191.767113,3294.210641,-666.185348,8512.368333
191.767422,3370.820191,-222.061783,8364.327145
191.767730,3140.991542,-370.102971,8808.450710
191.768038,2911.162892,-518.144159,8882.471304
191.768346,2528.115143,-222.061783,9030.512492
191.768654,2987.772442,-592.164754,9178.553681
191.768962,2451.505594,-740.205942,9474.636058
191.769270,1991.848295,-1258.350101,10214.842000
191.769578,1608.800546,-1332.370696,10436.903782
191.769886,1302.362347,-1184.329507,10436.903782
191.770194,1455.581446,-888.247130,9770.718434
191.770502,1915.238745,-0.000000,9696.697840
191.770810,2374.896044,1036.288319,9326.594869
191.771118,2451.505594,1702.473667,8438.347739
191.771426,2221.676944,2812.782580,7846.182985
191.771734,2451.505594,3404.947333,7698.141797
191.772042,2681.334243,3552.988522,7476.080014
191.772350,2451.505594,3478.967927,7550.100608
191.772658,1991.848295,3034.844362,8808.450710
191.772966,689.485948,1480.411884,10066.800811
191.773274,-536.266849,444.123565,10807.006753
191.773582,-1532.190996,-962.267725,11547.212695
191.773890,-2374.896044,-2072.576638,12805.562797
191.774198,-2911.162892,-2738.761985,13767.830521
191.774507,-3064.381992,-2886.803174,13619.789333
191.774815,-2298.286494,-2812.782580,13027.624579
191.775123,-1149.143247,-2220.617826,11769.274478
191.775431,0.000000,-1110.308913,10362.883188
191.775739,1838.629195,-0.000000,9326.594869
191.776047,2987.772442,370.102971,8290.306550
191.776355,3294.210641,1480.411884,7402.059420
191.776663,3524.039291,1702.473667,7328.038826
191.776971,2834.553343,1332.370696,7105.977043
191.777279,2145.067394,666.185348,7402.059420
191.777587,1762.019645,592.164754,7772.162391
191.777895,1608.800546,370.102971,7994.224174
191.778203,766.095498,222.061783,8216.285956
191.778511,612.876398,814.226536,7846.182985
191.778819,612.876398,1480.411884,8216.285956
191.779127,689.485948,1702.473667,8142.265362
191.779435,689.485948,1924.535449,8660.409521
191.779743,612.876398,1406.391290,9474.636058
191.780051,153.219100,222.061783,10362.883188
191.780359,-766.095498,-592.164754,10658.965565
191.780667,-2451.505594,-1850.514855,10955.047942
191.780975,-3447.429741,-3108.864956,12953.603985
191.781284,-3983.696590,-3923.091493,13989.892304
191.781592,-4290.134789,-3997.112087,13989.892304
191.781900,-3830.477490,-3997.112087,13471.748144
191.782208,-3217.601092,-3256.906145,13101.645173
191.782516,0.000000,-2738.761985,12065.356855
191.782824,536.266849,-0.000000,8882.471304
191.783132,2681.334243,1554.432478,8290.306550
191.783440,4673.182538,2664.741391,7328.038826
191.783748,5592.497135,3552.988522,6069.688724
191.784056,5362.668486,4071.132681,5329.482782
191.784364,4826.401637,4219.173869,5033.400406
191.784672,4903.011187,3034.844362,6513.812290
191.784980,2834.553343,2738.761985,6587.832884
191.785288,2451.505594,2812.782580,7698.141797
191.785596,995.924147,1480.411884,8216.285956
191.785904,383.047749,1702.473667,7920.203579
191.786212,76.609550,1110.308913,8882.471304
191.786520,229.828649,740.205942,9770.718434
191.786828,459.657299,740.205942,10362.883188
191.787136,-153.219100,-74.020594,9992.780217
191.787444,-306.438199,-518.144159,10066.800811
191.787752,-1225.752797,-1850.514855,12139.377449
191.788060,-2221.676944,-1628.453072,13323.706956
191.788369,-3677.258390,-3034.844362,13545.768739
191.788677,-3370.820191,-4071.132681,14582.057057
191.788985,-3600.648841,-4293.194464,14211.954086
191.789292,-3140.991542,-3775.050304,12953.603985
191.789600,-1302.362347,-3182.885551,11843.295072
191.789908,612.876398,-2072.576638,10066.800811
191.790216,2068.457845,-814.226536,9104.533087
191.790524,4213.525239,-0.000000,8512.368333
191.790832,4290.134789,1480.411884,6735.874072
191.791139,4979.620737,2516.700203,5625.565159
191.791447,5515.887586,3330.926739,5107.421000
191.791755,5362.668486,3775.050304,5773.606348
191.792063,4519.963438,3997.112087,4885.359217
191.792371,4519.963438,4737.318029,5033.400406
191.792678,4673.182538,4441.235652,6513.812290
191.792986,2604.724693,3849.070898,6439.791695
191.793294,1378.971896,2738.761985,8364.327145
191.793602,383.047749,1110.308913,10362.883188
191.793910,-536.266849,-1036.288319,11769.274478
191.794218,-2987.772442,-1406.391290,11399.171507
191.794525,-2987.772442,-2812.782580,13841.851115
191.794833,-2757.943793,-4219.173869,14952.160028
191.795141,-4596.572988,-3997.112087,15100.201217
191.795449,-3907.087040,-3923.091493,15322.262999
191.795757,-3370.820191,-3775.050304,15174.221811
191.796065,-2374.896044,-3256.906145,14211.954086
191.796372,-1302.362347,-1332.370696,12213.398043
191.796680,1149.143247,-148.041188,10881.027347
191.796988,1378.971896,888.247130,8142.265362
191.797296,4136.915689,1554.432478,8438.347739
191.797604,4903.011187,2442.679609,7550.100608
191.797911,4290.134789,2442.679609,6513.812290
191.798219,4290.134789,1776.494261,6809.894666
191.798527,3907.087040,1924.535449,6439.791695
191.798835,3677.258390,1554.432478,7550.100608
191.799143,3140.991542,2368.659014,5699.585753
191.799451,2987.772442,3552.988522,5773.606348
191.799758,3677.258390,3923.091493,5699.585753
191.800066,3370.820191,4145.153275,5403.503377
191.800374,3753.867940,4367.215058,7105.977043
191.800682,2068.457845,3552.988522,7476.080014
191.800990,1378.971896,1850.514855,9696.697840
191.801297,-383.047749,148.041188,9696.697840
191.801605,-2374.896044,-1110.308913,11177.109724
191.801913,-2681.334243,-3330.926739,14508.036463
191.802221,-4826.401637,-4441.235652,15026.180623
191.802529,-5439.278036,-4737.318029,15988.448347
191.802837,-4979.620737,-5995.668130,15544.324782
191.803144,-4060.306139,-5847.626942,15692.365970
191.803452,-3294.210641,-5107.421000,13767.830521
191.803760,-995.924147,-2738.761985,11473.192101
191.804068,1455.581446,-1110.308913,9474.636058
191.804376,2374.896044,666.185348,7254.018232
191.804684,5439.278036,2072.576638,7624.121203
191.804991,4903.011187,4219.173869,4219.173869
191.805299,5439.278036,4737.318029,4663.297435
191.805607,5362.668486,4589.276840,4589.276840
191.805915,4443.353888,4441.235652,5033.400406
191.806223,3370.820191,3775.050304,5403.503377
191.806530,2145.067394,3849.070898,5107.421000
191.806838,1915.238745,3034.844362,7179.997637
191.807146,383.047749,2368.659014,7920.203579
191.807454,0.000000,1110.308913,10436.903782
191.807762,-766.095498,-666.185348,11177.109724
191.808070,-2911.162892,-1480.411884,10658.965565
191.808377,-3600.648841,-2590.720797,12805.562797
191.808685,-3677.258390,-3775.050304,13989.892304
191.808993,-4366.744339,-3627.009116,14211.954086
191.809301,-4673.182538,-3775.050304,13915.871710
191.809609,-4213.525239,-3404.947333,14285.974681
191.809916,-3524.039291,-3849.070898,14211.954086
191.810224,-3064.381992,-2368.659014,12583.501014
191.810532,-1072.533697,-1850.514855,12435.459826
191.810840,-229.828649,-1258.350101,9992.780217
191.811148,383.047749,-0.000000,8364.327145
191.811456,2834.553343,1110.308913,8290.306550
191.811763,3600.648841,1332.370696,7031.956449
191.812071,3064.381992,1776.494261,6513.812290
191.812379,3753.867940,2442.679609,6069.688724
191.812687,3600.648841,2664.741391,6365.771101
191.812995,3217.601092,2812.782580,6143.709319
191.813303,3294.210641,4589.276840,4959.379811
191.813610,3753.867940,4885.359217,5329.482782
191.813918,3753.867940,4589.276840,6069.688724
191.814226,3140.991542,4589.276840,6069.688724
191.814534,2528.115143,3849.070898,8142.265362
191.814842,842.705048,1258.350101,9696.697840
191.815149,-383.047749,-814.226536,11399.171507
191.815457,-3064.381992,-2442.679609,11991.336260
191.815765,-3907.087040,-4441.235652,14582.057057
191.816073,-4903.011187,-5773.606348,16210.510130
191.816381,-4903.011187,-5551.544565,15988.448347
191.816689,-4673.182538,-4959.379811,15914.427753
191.816996,-2911.162892,-4441.235652,15100.201217
191.817304,-1532.190996,-3552.988522,13693.809927
191.817612,459.657299,-1480.411884,11473.192101
191.817920,2068.457845,518.144159,8660.409521
191.818228,3677.258390,1850.514855,8290.306550
191.818535,5362.668486,2590.720797,7179.997637
191.818843,5132.839837,3701.029710,5255.462188
191.819151,5669.106685,3701.029710,5329.482782
191.819459,4979.620737,3182.885551,5255.462188
191.819767,4826.401637,3034.844362,6365.771101
191.820075,3983.696590,3404.947333,5699.585753
191.820382,3447.429741,3108.864956,5921.647536
191.820690,2911.162892,3182.885551,6735.874072
191.820998,2145.067394,2590.720797,7402.059420
191.821306,1762.019645,1924.535449,9030.512492
191.821614,1149.143247,814.226536,9622.677246
191.821922,-383.047749,-888.247130,11843.295072
191.822229,-1455.581446,-1628.453072,11843.295072
191.822537,-3217.601092,-1998.556043,12139.377449
191.822845,-2681.334243,-3182.885551,14359.995275
191.823153,-3753.867940,-3478.967927,14211.954086
191.823461,-3447.429741,-3256.906145,14730.098246
191.823768,-2757.943793,-3404.947333,13841.851115
191.824076,-2221.676944,-2812.782580,13175.665768
191.824384,-766.095498,-2368.659014,12287.418637
191.824692,689.485948,-1184.329507,10807.006753
191.825000,2221.676944,-0.000000,9030.512492
191.825308,2298.286494,740.205942,7698.141797
191.825615,4596.572988,1554.432478,7550.100608
191.825923,4290.134789,2368.659014,6365.771101
191.826231,4213.525239,2664.741391,6513.812290
191.826539,4136.915689,2886.803174,6143.709319
191.826847,4213.525239,3404.947333,5921.647536
191.827154,4290.134789,3923.091493,5477.523971
191.827462,3907.087040,5033.400406,4737.318029
191.827770,4290.134789,4959.379811,5403.503377
191.828078,3524.039291,4219.173869,6069.688724
191.828386,2068.457845,3330.926739,7550.100608
191.828694,842.705048,1184.329507,9474.636058
191.829001,0.000000,-1332.370696,11917.315666
191.829309,-2911.162892,-1850.514855,11917.315666
191.829617,-4443.353888,-3627.009116,14359.995275
191.829925,-4596.572988,-5255.462188,16580.613101
191.830233,-5286.058936,-5403.503377,15840.407159
191.830541,-4903.011187,-5181.441594,15766.386565
191.830848,-3447.429741,-4737.318029,14952.160028
191.831156,-2374.896044,-3923.091493,13915.871710
191.831464,-1072.533697,-2072.576638,11917.315666
191.831772,1685.410096,-444.123565,9696.697840
191.832080,2681.334243,1850.514855,7254.018232
191.832387,4290.134789,2664.741391,6883.915261
191.832695,5056.230287,3701.029710,5551.544565
191.833003,4519.963438,4663.297435,4515.256246
191.833311,5056.230287,4441.235652,5255.462188
191.833619,4366.744339,4145.153275,4885.359217
191.833927,2987.772442,3627.009116,6217.729913
191.834234,2451.505594,3478.967927,6143.709319
191.834542,1378.971896,3182.885551,7179.997637
191.834850,919.314598,2146.597232,8142.265362
191.835158,0.000000,1184.329507,8956.491898
191.835466,-842.705048,296.082377,10955.047942
191.835773,-1532.190996,-1554.432478,11473.192101
191.836081,-3524.039291,-1924.535449,11621.233289
191.836389,-3600.648841,-2886.803174,13471.748144
191.836697,-4213.525239,-3849.070898,14582.057057
191.837005,-5515.887586,-4293.194464,13989.892304
191.837313,-4596.572988,-3849.070898,14359.995275
191.837620,-3600.648841,-3478.967927,14211.954086
191.837928,-2834.553343,-3182.885551,13249.686362
191.838236,-1302.362347,-1924.535449,11769.274478
191.838544,842.705048,-1184.329507,10510.924376
191.838852,1072.533697,-296.082377,7920.203579
191.839160,2757.943793,1036.288319,8068.244768
191.839467,4136.915689,1776.494261,7550.100608
191.839775,3600.648841,2294.638420,5995.668130
191.840083,3753.867940,2590.720797,6291.750507
191.840391,3830.477490,3256.906145,5551.544565
191.840699,4060.306139,3552.988522,5847.626942
191.841006,3830.477490,3849.070898,4737.318029
191.841314,3983.696590,4885.359217,4885.359217
191.841622,4366.744339,4515.256246,5995.668130
191.841930,2834.553343,4145.153275,6365.771101
191.842238,1991.848295,2960.823768,8216.285956
191.842546,383.047749,592.164754,9696.697840
191.842853,-1149.143247,-1332.370696,12065.356855
191.843161,-2834.553343,-3182.885551,12287.418637
191.843469,-4366.744339,-4589.276840,14656.077652
191.843777,-4443.353888,-6143.709319,16802.674883
191.844085,-5132.839837,-5625.565159,15100.201217
191.844392,-3983.696590,-4737.318029,15618.345376
191.844700,-2451.505594,-4589.276840,14359.995275
191.845008,-995.924147,-3108.864956,12509.480420
191.845316,536.266849,-1332.370696,10362.883188
191.845624,2911.162892,666.185348,8290.306550
191.845932,3370.820191,2442.679609,7476.080014
191.846239,5515.887586,2738.761985,7254.018232
191.846547,5515.887586,4367.215058,5403.503377
191.846855,5669.106685,4145.153275,5033.400406
191.847163,5209.449386,3997.112087,5329.482782
191.847471,4596.572988,4145.153275,6143.709319
191.847779,3983.696590,3627.009116,5921.647536
191.848086,3370.820191,3627.009116,5995.668130
191.848394,2911.162892,3330.926739,7179.997637
191.848702,2145.067394,2368.659014,7772.162391
191.849010,995.924147,1480.411884,9326.594869
191.849318,0.000000,296.082377,10214.842000
191.849625,-766.095498,-1406.391290,11843.295072
191.849933,-3140.991542,-1924.535449,11843.295072
191.850241,-3064.381992,-2590.720797,13397.727550
191.850549,-3830.477490,-3627.009116,14656.077652
191.850857,-3753.867940,-3775.050304,14211.954086
191.851165,-3447.429741,-3034.844362,14952.160028
191.851472,-2987.772442,-3552.988522,14434.015869
191.851780,-2221.676944,-2442.679609,13693.809927
191.852088,-995.924147,-1998.556043,11843.295072
191.852396,919.314598,-740.205942,10436.903782
191.852704,1915.238745,-0.000000,7772.162391
191.853011,2987.772442,1110.308913,8142.265362
191.853319,4290.134789,2146.597232,7328.038826
191.853627,3983.696590,2442.679609,5773.606348
191.853935,4749.792088,3182.885551,5773.606348
191.854243,4366.744339,3330.926739,4737.318029
191.854551,4060.306139,3552.988522,5403.503377
191.854858,3370.820191,4219.173869,4515.256246
191.855166,3830.477490,4737.318029,4885.359217
191.855474,3524.039291,3849.070898,5625.565159
191.855782,1991.848295,3478.967927,6883.915261
191.856090,1378.971896,2072.576638,9178.553681
191.856398,-153.219100,-666.185348,11177.109724
191.856705,-1915.238745,-2146.597232,12139.377449
191.857013,-4136.915689,-3330.926739,12879.583391
191.857321,-4366.744339,-4959.379811,15840.407159
191.857629,-5132.839837,-5625.565159,16062.468941
191.857937,-4903.011187,-4885.359217,15322.262999
191.858244,-3447.429741,-4663.297435,15100.201217
191.858552,-2451.505594,-3849.070898,13767.830521
191.858860,-995.924147,-2812.782580,11621.233289
191.859168,536.266849,-1036.288319,10362.883188
191.859476,2298.286494,962.267725,8290.306550
191.859784,3600.648841,2516.700203,6957.935855
191.860091,5439.278036,2886.803174,6809.894666
191.860399,4826.401637,3701.029710,4589.276840
191.860707,4673.182538,3627.009116,5181.441594
191.861015,5209.449386,4071.132681,5847.626942
191.861323,3983.696590,3701.029710,5625.565159
191.861630,3140.991542,3552.988522,6365.771101
191.861938,2528.115143,3552.988522,6735.874072
191.862246,1838.629195,3108.864956,7550.100608
191.862554,612.876398,2294.638420,7920.203579
191.862862,0.000000,1184.329507,9696.697840
191.863170,-383.047749,-740.205942,11547.212695
191.863477,-2374.896044,-1998.556043,11177.109724
191.863785,-3600.648841,-2590.720797,13323.706956
191.864093,-3677.258390,-3404.947333,14434.015869
191.864401,-4213.525239,-3404.947333,14508.036463
191.864709,-4673.182538,-3404.947333,14656.077652
191.865016,-3524.039291,-3330.926739,14508.036463
191.865324,-2834.553343,-3182.885551,14359.995275
191.865632,-1608.800546,-1998.556043,12805.562797
191.865940,689.485948,-1702.473667,11251.130318
191.866248,919.314598,-0.000000,8808.450710
191.866556,2145.067394,740.205942,8068.244768
191.866863,4136.915689,1406.391290,7994.224174
191.867171,3524.039291,1924.535449,6439.791695
191.867479,3677.258390,2368.659014,6661.853478
191.867787,3677.258390,2590.720797,5773.606348
191.868095,3983.696590,2960.823768,5773.606348
191.868403,4519.963438,3701.029710,5699.585753
191.868710,4366.744339,4737.318029,4885.359217
191.869018,4519.963438,4811.338623,5255.462188
191.869326,3524.039291,4441.235652,5625.565159
191.869634,2911.162892,3849.070898,7328.038826
191.869942,842.705048,1924.535449,8956.491898
191.870249,-229.828649,-296.082377,11547.212695
191.870557,-2298.286494,-1998.556043,11991.336260
191.870865,-4213.525239,-3404.947333,13471.748144
191.871173,-4596.572988,-5255.462188,16358.551318
191.871481,-5286.058936,-5403.503377,15988.448347
191.871789,-4903.011187,-5403.503377,15766.386565
191.872096,-3677.258390,-4959.379811,14508.036463
191.872404,-1991.848295,-4145.153275,13101.645173
191.872712,-1072.533697,-2738.761985,11325.150913
191.873020,842.705048,-148.041188,9844.739029
191.873328,2834.553343,1702.473667,7846.182985
191.873635,4903.011187,1998.556043,7328.038826
191.873943,5439.278036,3330.926739,5847.626942
191.874251,5515.887586,4293.194464,4663.297435
191.874559,5132.839837,3775.050304,4811.338623
191.874867,4979.620737,3849.070898,5181.441594
191.875175,4213.525239,3997.112087,5921.647536
191.875482,3600.648841,3775.050304,5699.585753
191.875790,2834.553343,3404.947333,6883.915261
191.876098,1685.410096,2664.741391,7624.121203
191.876406,766.095498,1554.432478,8660.409521
191.876714,-229.828649,444.123565,10140.821405
191.877022,-612.876398,-1110.308913,11621.233289
191.877329,-3064.381992,-1850.514855,11695.253884
191.877637,-3447.429741,-3034.844362,12879.583391
191.877945,-2911.162892,-3701.029710,14656.077652
191.878253,-4366.744339,-3330.926739,14434.015869
191.878561,-4366.744339,-3478.967927,14656.077652
191.878868,-3447.429741,-3182.885551,14359.995275
191.879176,-2757.943793,-2886.803174,13619.789333
191.879484,-1838.629195,-2072.576638,12065.356855
191.879792,76.609550,-1184.329507,10658.965565
191.880100,1302.362347,-666.185348,8956.491898
191.880408,2068.457845,370.102971,7698.141797
191.880715,3677.258390,888.247130,7698.141797
191.881023,3753.867940,1776.494261,6735.874072
191.881331,3983.696590,2368.659014,6365.771101
191.881639,3907.087040,2812.782580,5773.606348
191.881947,4136.915689,3627.009116,5255.462188
191.882254,4443.353888,4589.276840,5255.462188
191.882562,5132.839837,5403.503377,4219.173869
191.882870,5056.230287,5255.462188,5403.503377
191.883178,3907.087040,5107.421000,5773.606348
191.883486,2528.115143,3923.091493,7698.141797
191.883794,919.314598,1406.391290,9992.780217
191.884101,-536.266849,-1184.329507,12287.418637
191.884409,-3600.648841,-2442.679609,12509.480420
191.884712,-5286.058936,-4737.318029,14582.057057
191.885020,-5286.058936,-6365.771101,17468.860231
191.885328,-5898.935335,-5847.626942,16654.633695
191.885635,-4979.620737,-5551.544565,16580.613101
191.885943,-3524.039291,-4959.379811,14656.077652
191.886251,-1532.190996,-3627.009116,13027.624579
191.886559,459.657299,-1554.432478,10955.047942
191.886866,2451.505594,888.247130,8142.265362
191.887174,3830.477490,2516.700203,7476.080014
191.887482,6358.592633,3330.926739,6809.894666
191.887790,5209.449386,4145.153275,4885.359217
191.888097,6358.592633,4145.153275,4515.256246
191.888405,4903.011187,3627.009116,5107.421000
191.888713,3830.477490,3330.926739,5921.647536
191.889021,3447.429741,3552.988522,6143.709319
191.889328,2987.772442,3182.885551,6439.791695
191.889636,1838.629195,2886.803174,7254.018232
191.889944,1455.581446,2368.659014,7031.956449
191.890252,1532.190996,1554.432478,9030.512492
191.890559,0.000000,-0.000000,10214.842000
191.890867,-842.705048,-1036.288319,11991.336260
191.891175,-2757.943793,-1776.494261,11843.295072
191.891483,-3447.429741,-2590.720797,13175.665768
191.891790,-3983.696590,-3701.029710,14285.974681
191.892098,-4060.306139,-3034.844362,14582.057057
191.892406,-3907.087040,-3478.967927,15100.201217
191.892714,-3294.210641,-3775.050304,14730.098246
191.893021,-2834.553343,-3256.906145,13767.830521
191.893329,-2451.505594,-2812.782580,12509.480420
191.893637,-306.438199,-2072.576638,10881.027347
191.893945,919.314598,-814.226536,9104.533087
191.894252,2374.896044,1110.308913,7772.162391
191.894560,4136.915689,1258.350101,7772.162391
191.894868,3830.477490,2516.700203,5847.626942
191.895176,4136.915689,3330.926739,4959.379811
191.895483,4290.134789,4071.132681,4885.359217
191.895791,4596.572988,4219.173869,4737.318029
191.896099,4749.792088,5033.400406,4737.318029
191.896407,4903.011187,5773.606348,4145.153275
191.896714,4290.134789,4959.379811,5255.462188
191.897022,3064.381992,4219.173869,6143.709319
191.897330,1378.971896,2886.803174,8808.450710
191.897638,-383.047749,-518.144159,11621.233289
191.897945,-2145.067394,-2442.679609,12879.583391
191.898253,-4519.963438,-3775.050304,13101.645173
191.898561,-5286.058936,-5477.523971,15840.407159
191.898869,-5286.058936,-6439.791695,16580.613101
191.899176,-5439.278036,-5847.626942,15914.427753
191.899484,-4060.306139,-5551.544565,15766.386565
191.899792,-2451.505594,-4737.318029,14211.954086
191.900100,-459.657299,-3404.947333,12361.439231
191.900407,0.000000,-148.041188,9918.759623
191.900715,2604.724693,444.123565,8512.368333
191.901023,3677.258390,2072.576638,7105.977043
191.901331,5439.278036,3404.947333,6291.750507
191.901638,5209.449386,3775.050304,4959.379811
191.901946,5286.058936,3849.070898,4737.318029
191.902254,5822.325785,3182.885551,5847.626942
191.902562,4213.525239,3627.009116,5773.606348
191.902869,3830.477490,3256.906145,5773.606348
191.903177,2834.553343,3108.864956,6439.791695
191.903485,2528.115143,3256.906145,6883.915261
191.903793,1149.143247,2368.659014,7550.100608
191.904100,842.705048,1628.453072,8734.430116
191.904408,-153.219100,592.164754,10066.800811
191.904716,-1225.752797,-1184.329507,11843.295072
191.905024,-2681.334243,-2146.597232,12213.398043
191.905331,-4213.525239,-2886.803174,13323.706956
191.905639,-3600.648841,-3478.967927,14508.036463
191.905947,-4060.306139,-3552.988522,14582.057057
191.906255,-4060.306139,-3627.009116,14730.098246
191.906562,-3447.429741,-4071.132681,14656.077652
191.906870,-2681.334243,-3256.906145,13989.892304
191.907178,-1225.752797,-2960.823768,12731.542202
191.907486,919.314598,-1554.432478,10881.027347
191.907793,1991.848295,-148.041188,8734.430116
191.908101,3140.991542,1332.370696,7698.141797
191.908409,4826.401637,2368.659014,7105.977043
191.908717,4749.792088,3182.885551,5033.400406
191.909024,5209.449386,3627.009116,4959.379811
191.909332,5209.449386,4293.194464,5107.421000
191.909640,4979.620737,4219.173869,5033.400406
191.909948,4366.744339,4885.359217,4071.132681
191.910255,4366.744339,5625.565159,4959.379811
191.910563,3524.039291,4959.379811,5625.565159
191.910871,2145.067394,3997.112087,7105.977043
191.911179,1149.143247,2220.617826,9400.615463
191.911486,-689.485948,-444.123565,11473.192101
191.911794,-2528.115143,-2960.823768,12879.583391
191.912102,-5286.058936,-4441.235652,13323.706956
191.912410,-4903.011187,-5551.544565,16136.489536
191.912717,-5362.668486,-5995.668130,16876.695478
191.913025,-5286.058936,-5625.565159,15840.407159
191.913333,-3983.696590,-4811.338623,15100.201217
191.913641,-1991.848295,-3330.926739,13249.686362
191.913948,-995.924147,-2368.659014,11917.315666
191.914256,1685.410096,-296.082377,9696.697840
191.914564,2604.724693,1110.308913,7550.100608
191.914872,4673.182538,2516.700203,6957.935855
191.915179,5745.716235,2886.803174,6957.935855
191.915487,5132.839837,3478.967927,5329.482782
191.915795,5132.839837,3478.967927,4811.338623
191.916103,4826.401637,3108.864956,5477.523971
191.916410,4443.353888,3478.967927,5847.626942
191.916718,2757.943793,3182.885551,5847.626942
191.917026,2451.505594,3404.947333,6809.894666
191.917334,2221.676944,2664.741391,7105.977043
191.917641,689.485948,2368.659014,7772.162391
191.917949,536.266849,1702.473667,8808.450710
191.918257,-459.657299,296.082377,10214.842000
191.918565,-1532.190996,-1332.370696,11769.274478
191.918872,-3140.991542,-1998.556043,11473.192101
191.919180,-2834.553343,-2812.782580,13989.892304
191.919488,-4213.525239,-3849.070898,14656.077652
191.919796,-4443.353888,-3627.009116,15174.221811
191.920103,-4519.963438,-3775.050304,15322.262999
191.920411,-4060.306139,-4441.235652,14952.160028
191.920719,-3447.429741,-3552.988522,13619.789333
191.921027,-1532.190996,-2072.576638,12213.398043
191.921334,1225.752797,-1554.432478,10807.006753
191.921642,1685.410096,222.061783,7772.162391
191.921950,3140.991542,1850.514855,7254.018232
191.922258,4673.182538,1924.535449,6513.812290
191.922565,4443.353888,2812.782580,5181.441594
191.922873,4826.401637,3923.091493,5033.400406
191.923181,4903.011187,4589.276840,4663.297435
191.923489,4673.182538,4441.235652,5329.482782
191.923796,4213.525239,5403.503377,4219.173869
191.924104,3907.087040,5699.585753,4885.359217
191.924412,4290.134789,4145.153275,6365.771101
191.924720,2068.457845,2960.823768,7476.080014
191.925027,306.438199,1554.432478,9918.759623
191.925335,-1455.581446,-1036.288319,11769.274478
191.925643,-2911.162892,-3182.885551,13545.768739
191.925951,-5132.839837,-4219.173869,13545.768739
191.926258,-5209.449386,-5107.421000,16210.510130
191.926566,-4213.525239,-5995.668130,16358.551318
191.926874,-4673.182538,-5329.482782,15248.242405
191.927182,-3677.258390,-3701.029710,14582.057057
191.927489,-1608.800546,-3775.050304,13323.706956
191.927797,-229.828649,-1850.514855,11399.171507
191.928105,1532.190996,-0.000000,9252.574275
191.928413,2987.772442,1702.473667,7328.038826
191.928720,4519.963438,2294.638420,7179.997637
191.929028,6588.421283,2442.679609,6883.915261
191.929336,5745.716235,3627.009116,5255.462188
191.929644,4826.401637,3256.906145,4811.338623
191.929951,5132.839837,3034.844362,5551.544565
191.930259,3830.477490,3701.029710,6217.729913
191.930567,2987.772442,3182.885551,6365.771101
191.930875,2834.553343,3182.885551,6957.935855
191.931182,2068.457845,3108.864956,7179.997637
191.931490,995.924147,2146.597232,7624.121203
191.931798,919.314598,1332.370696,8882.471304
191.932106,153.219100,-0.000000,10584.944971
191.932413,-1532.190996,-1554.432478,11769.274478
191.932721,-3217.601092,-2072.576638,11695.253884
191.933029,-3753.867940,-2960.823768,14211.954086
191.933337,-4213.525239,-4071.132681,15100.201217
191.933644,-4366.744339,-4145.153275,15322.262999
191.933952,-3294.210641,-4441.235652,15396.283594
191.934260,-3294.210641,-4589.276840,14285.974681
191.934568,-2374.896044,-2960.823768,12435.459826
191.934875,-306.438199,-1998.556043,11843.295072
191.935183,1915.238745,-444.123565,9622.677246
191.935491,2451.505594,888.247130,7031.956449
191.935799,4519.963438,1998.556043,6735.874072
191.936106,5286.058936,2294.638420,6513.812290
191.936414,4749.792088,3256.906145,5403.503377
191.936722,5056.230287,3849.070898,5403.503377
191.937030,4826.401637,3775.050304,4811.338623
191.937337,4290.134789,4515.256246,5033.400406
191.937645,3677.258390,5329.482782,4367.215058
191.937953,3753.867940,4737.318029,5625.565159
191.938261,2451.505594,3997.112087,6957.935855
191.938568,1225.752797,2590.720797,8216.285956
191.938876,0.000000,888.247130,10584.944971
191.939184,-1072.533697,-1332.370696,12435.459826
191.939492,-2681.334243,-3627.009116,13027.624579
191.939799,-4979.620737,-4071.132681,13619.789333
191.940107,-4903.011187,-5625.565159,15988.448347
191.940415,-5056.230287,-5773.606348,15840.407159
191.940723,-4749.792088,-4885.359217,15248.242405
191.941030,-2221.676944,-3923.091493,13989.892304
191.941338,-1608.800546,-3997.112087,12287.418637
191.941646,229.828649,-1628.453072,10881.027347
191.941954,2221.676944,148.041188,9400.615463
191.942261,3447.429741,1998.556043,7254.018232
191.942569,5132.839837,1998.556043,6957.935855
191.942877,5515.887586,2960.823768,5847.626942
191.943185,5132.839837,3701.029710,4885.359217
191.943492,4903.011187,2812.782580,5477.523971
191.943800,4903.011187,3404.947333,6069.688724
191.944108,3140.991542,3478.967927,5551.544565
191.944416,2604.724693,3034.844362,5921.647536
191.944723,1915.238745,2886.803174,6957.935855
191.945031,919.314598,2442.679609,7698.141797
191.945339,229.828649,1554.432478,9030.512492
191.945647,-383.047749,666.185348,10288.862594
191.945954,-1072.533697,-592.164754,11399.171507
191.946262,-3140.991542,-1406.391290,11473.192101
191.946570,-3447.429741,-2442.679609,13619.789333
191.946878,-3830.477490,-3552.988522,14952.160028
191.947185,-4826.401637,-3627.009116,14952.160028
191.947493,-4366.744339,-3997.112087,15248.242405
191.947801,-3600.648841,-4145.153275,14878.139434
191.948109,-2987.772442,-2886.803174,13027.624579
191.948416,-766.095498,-2072.576638,11843.295072
191.948724,1225.752797,-370.102971,10658.965565
191.949032,1838.629195,444.123565,7846.182985
191.949340,3753.867940,1628.453072,7476.080014
191.949647,4903.011187,1924.535449,6661.853478
191.949955,4596.572988,2812.782580,5551.544565
191.950263,4826.401637,3552.988522,5107.421000
191.950571,4826.401637,3478.967927,4811.338623
191.950878,4290.134789,3552.988522,5477.523971
191.951186,3830.477490,4663.297435,4959.379811
191.951494,3830.477490,4737.318029,5477.523971
191.951802,2987.772442,3923.091493,6513.812290
191.952109,1532.190996,2886.803174,7624.121203
191.952417,306.438199,1776.494261,9548.656652
191.952725,-766.095498,-222.061783,11177.109724
191.953033,-2604.724693,-2442.679609,12213.398043
191.953340,-3983.696590,-3404.947333,12657.521608
191.953648,-4673.182538,-4515.256246,15322.262999
191.953956,-4290.134789,-5847.626942,15988.448347
191.954264,-5056.230287,-4737.318029,15396.283594
191.954571,-3600.648841,-4367.215058,14804.118840
191.954879,-2221.676944,-3923.091493,13767.830521
191.955187,-995.924147,-2368.659014,11843.295072
191.955495,1072.533697,-0.000000,9622.677246
191.955802,2911.162892,1406.391290,7624.121203
191.956110,4903.011187,1776.494261,7328.038826
191.956418,6281.983084,2516.700203,6143.709319
191.956726,5439.278036,3182.885551,4885.359217
191.957033,5132.839837,3034.844362,5255.462188
191.957341,4903.011187,3256.906145,5551.544565
191.957649,3524.039291,3108.864956,6143.709319
191.957957,2528.115143,2812.782580,5847.626942
191.958264,2451.505594,3034.844362,6661.853478
191.958572,2374.896044,2664.741391,7550.100608
191.958880,1225.752797,2072.576638,8364.327145
191.959188,612.876398,1628.453072,9400.615463
191.959495,-612.876398,444.123565,10584.944971
191.959803,-1225.752797,-814.226536,11843.295072
191.960111,-2834.553343,-1480.411884,11769.274478
191.960419,-3217.601092,-2442.679609,13397.727550
191.960726,-3753.867940,-3404.947333,15100.201217
191.961034,-4673.182538,-3627.009116,14804.118840
191.961342,-4136.915689,-3997.112087,14730.098246
191.961650,-3524.039291,-3701.029710,14211.954086
191.961957,-1991.848295,-2960.823768,13027.624579
191.962265,-536.266849,-1998.556043,11399.171507
191.962573,1378.971896,-666.185348,9548.656652
191.962881,2604.724693,222.061783,7920.203579
191.963188,4673.182538,1480.411884,7846.182985
191.963496,5132.839837,1998.556043,6513.812290
191.963804,5056.230287,3552.988522,5181.441594
191.964112,4903.011187,3552.988522,5255.462188
191.964419,5132.839837,3701.029710,5255.462188
191.964727,4366.744339,3997.112087,5255.462188
191.965035,3907.087040,4515.256246,4885.359217
191.965343,3830.477490,4071.132681,5995.668130
191.965650,2451.505594,3404.947333,7105.977043
191.965958,1149.143247,2442.679609,8586.388927
191.966266,459.657299,740.205942,10214.842000
191.966574,-1532.190996,-888.247130,11917.315666
191.966881,-2911.162892,-2960.823768,12805.562797
191.967189,-4213.525239,-3404.947333,13323.706956
191.967497,-4366.744339,-4441.235652,15248.242405
191.967805,-4749.792088,-5107.421000,15248.242405
191.968112,-4903.011187,-4737.318029,14804.118840
191.968420,-2987.772442,-3775.050304,14730.098246
191.968728,-1838.629195,-3034.844362,13249.686362
191.969036,-306.438199,-1776.494261,11399.171507
191.969343,1532.190996,-222.061783,9696.697840
191.969651,2987.772442,1184.329507,7624.121203
191.969959,4443.353888,2294.638420,7402.059420
191.970267,5286.058936,2368.659014,6661.853478
191.970574,4673.182538,3256.906145,5625.565159
191.970882,4673.182538,3404.947333,5699.585753
191.971190,4903.011187,2886.803174,5699.585753
191.971498,3370.820191,3182.885551,5921.647536
191.971805,2834.553343,3256.906145,6217.729913
191.972113,2298.286494,3256.906145,6661.853478
191.972421,2145.067394,2738.761985,7179.997637
191.972729,1072.533697,2146.597232,8586.388927
191.973036,459.657299,1406.391290,9400.615463
191.973344,-689.485948,-0.000000,10732.986159
191.973652,-1225.752797,-814.226536,11917.315666
191.973960,-3064.381992,-1998.556043,11843.295072
191.974267,-3907.087040,-3034.844362,13619.789333
191.974575,-4290.134789,-3923.091493,15248.242405
191.974883,-4596.572988,-4219.173869,15100.201217
191.975191,-3753.867940,-4071.132681,15174.221811
191.975498,-2528.115143,-3775.050304,13471.748144
191.975806,-2145.067394,-2738.761985,12879.583391
191.976114,0.000000,-1332.370696,11325.150913
191.976422,1685.410096,-370.102971,9622.677246
191.976729,2451.505594,740.205942,7772.162391
191.977037,4290.134789,1776.494261,7179.997637
191.977345,4749.792088,2590.720797,6365.771101
191.977653,4443.353888,3478.967927,5329.482782
191.977960,4596.572988,3478.967927,5699.585753
191.978268,4903.011187,3701.029710,5403.503377
191.978576,4060.306139,4219.173869,5403.503377
191.978884,3600.648841,4589.276840,4959.379811
191.979191,3524.039291,4663.297435,5551.544565
191.979499,2681.334243,3330.926739,7031.956449
191.979807,1608.800546,2294.638420,7920.203579
191.980115,536.266849,518.144159,10140.821405
191.980422,-1608.800546,-1628.453072,11843.295072
191.980730,-2834.553343,-2812.782580,12879.583391
191.981038,-4136.915689,-3330.926739,13323.706956
191.981346,-4596.572988,-4367.215058,15248.242405
191.981653,-4673.182538,-4959.379811,15396.283594
191.981961,-4136.915689,-3923.091493,14730.098246
191.982269,-2987.772442,-3627.009116,14137.933492
191.982577,-842.705048,-3182.885551,11843.295072
191.982884,229.828649,-1702.473667,11029.068536
191.983192,1685.410096,-518.144159,9548.656652
191.983500,3064.381992,1332.370696,7328.038826
191.983808,4060.306139,2294.638420,7105.977043
191.984116,5898.935335,2368.659014,7031.956449
191.984424,4673.182538,3404.947333,4811.338623
191.984732,5132.839837,2960.823768,5181.441594
191.985040,4673.182538,3108.864956,6217.729913
191.985348,3140.991542,3552.988522,6069.688724
191.985656,2757.943793,2960.823768,6587.832884
191.985964,2451.505594,2664.741391,6735.874072
191.986272,1838.629195,2812.782580,7328.038826
191.986580,766.095498,2516.700203,8290.306550
191.986888,612.876398,1850.514855,9474.636058
191.987195,-995.924147,370.102971,11029.068536
191.987503,-1608.800546,-1554.432478,11917.315666
191.987811,-3830.477490,-2072.576638,11769.274478
191.988119,-3983.696590,-2886.803174,14285.974681
191.988427,-4519.963438,-3775.050304,15692.365970
191.988735,-4826.401637,-4145.153275,15100.201217
191.989043,-4060.306139,-4219.173869,15322.262999
191.989351,-3370.820191,-3923.091493,14137.933492
191.989659,-1685.410096,-2812.782580,12953.603985
191.989967,383.047749,-1628.453072,11399.171507
191.990275,2145.067394,-222.061783,9474.636058
191.990583,2604.724693,1036.288319,7698.141797
191.990891,4979.620737,1924.535449,7105.977043
191.991199,5132.839837,3330.926739,5255.462188
191.991507,5056.230287,4071.132681,4589.276840
191.991814,5286.058936,4441.235652,4959.379811
191.992122,5132.839837,4145.153275,5181.441594
191.992430,3907.087040,4589.276840,5033.400406
191.992738,3370.820191,4885.359217,5181.441594
191.993046,3524.039291,4071.132681,6513.812290
191.993354,1532.190996,2886.803174,7772.162391
191.993662,612.876398,1628.453072,9178.553681
191.993970,-919.314598,-74.020594,10807.006753
191.994278,-2298.286494,-1998.556043,12731.542202
191.994586,-3294.210641,-3478.967927,13397.727550
191.994894,-3983.696590,-3923.091493,13619.789333
191.995202,-3753.867940,-4663.297435,15174.221811
191.995510,-3983.696590,-5033.400406,14804.118840
191.995818,-3524.039291,-4071.132681,14285.974681
191.996125,-2604.724693,-3701.029710,13471.748144
191.996433,-1072.533697,-2812.782580,12065.356855
191.996741,229.828649,-1332.370696,10881.027347
191.997049,1991.848295,-370.102971,9696.697840
191.997357,3064.381992,592.164754,7476.080014
191.997665,4213.525239,2220.617826,7328.038826
191.997973,5439.278036,2294.638420,6661.853478
191.998281,4519.963438,3108.864956,4885.359217
191.998589,4673.182538,3182.885551,5921.647536
191.998897,4673.182538,2812.782580,5921.647536
191.999205,3447.429741,3775.050304,5477.523971
191.999513,3140.991542,3108.864956,5921.647536
191.999821,2757.943793,3404.947333,6291.750507
192.000129,1762.019645,2590.720797,7476.080014
192.000437,459.657299,2368.659014,8364.327145
192.000744,0.000000,1628.453072,9474.636058
192.001052,-1378.971896,-296.082377,11251.130318
192.001360,-2374.896044,-1776.494261,12065.356855
192.001668,-4213.525239,-2294.638420,12583.501014
192.001976,-3830.477490,-3997.112087,15692.365970
192.002284,-4673.182538,-4663.297435,15766.386565
192.002592,-4979.620737,-4663.297435,15766.386565
192.002900,-4749.792088,-4737.318029,15470.304188
192.003208,-2834.553343,-4145.153275,14137.933492
192.003516,-1762.019645,-2368.659014,12139.377449
192.003824,766.095498,-1184.329507,10807.006753
192.004132,2298.286494,370.102971,8438.347739
192.004440,3753.867940,1776.494261,7105.977043
192.004748,4979.620737,2738.761985,6735.874072
192.005055,5592.497135,3478.967927,4737.318029
192.005363,5132.839837,3701.029710,4515.256246
192.005671,5439.278036,4071.132681,4885.359217
192.005979,4903.011187,4367.215058,4737.318029
192.006287,3907.087040,4589.276840,4811.338623
192.006595,3524.039291,4367.215058,5847.626942
192.006903,2451.505594,4071.132681,6883.915261
192.007211,1685.410096,2812.782580,7994.224174
192.007519,689.485948,1332.370696,9326.594869
192.007827,-842.705048,-0.000000,11103.089130
192.008135,-2145.067394,-1850.514855,12879.583391
192.008443,-3140.991542,-2886.803174,13027.624579
192.008751,-4290.134789,-3627.009116,13545.768739
192.009059,-3294.210641,-4811.338623,15322.262999
192.009367,-4673.182538,-4663.297435,15470.304188
192.009674,-3447.429741,-4441.235652,14804.118840
192.009982,-2987.772442,-3701.029710,13619.789333
192.010290,-995.924147,-2812.782580,12287.418637
192.010598,153.219100,-1406.391290,11103.089130
192.010906,1762.019645,-370.102971,9548.656652
192.011214,2987.772442,1110.308913,7846.182985
192.011522,4443.353888,1628.453072,7254.018232
192.011830,5822.325785,1924.535449,6217.729913
192.012138,4673.182538,3478.967927,4811.338623
192.012446,5515.887586,3256.906145,5551.544565
192.012754,4749.792088,2886.803174,5329.482782
192.013062,3447.429741,3775.050304,4959.379811
192.013370,3370.820191,3997.112087,5551.544565
192.013678,3217.601092,4071.132681,5847.626942
192.013986,1991.848295,3552.988522,6735.874072
192.014293,1072.533697,2516.700203,8142.265362
192.014601,306.438199,1332.370696,9622.677246
192.014909,-1225.752797,-370.102971,11621.233289
192.015217,-3140.991542,-2516.700203,12657.521608
192.015525,-4443.353888,-3182.885551,13175.665768
192.015833,-4749.792088,-4293.194464,15396.283594
192.016141,-5056.230287,-5033.400406,16432.571912
192.016449,-5132.839837,-4663.297435,15914.427753
192.016757,-4060.306139,-4589.276840,15396.283594
192.017065,-3677.258390,-3997.112087,13027.624579
192.017373,-995.924147,-2146.597232,11917.315666
192.017681,1072.533697,-296.082377,10214.842000
192.017989,2911.162892,1258.350101,8068.244768
192.018297,3907.087040,2368.659014,6735.874072
192.018604,5439.278036,2812.782580,6661.853478
192.018912,5286.058936,3552.988522,4737.318029
192.019220,4903.011187,4145.153275,4219.173869
192.019528,5286.058936,4219.173869,5921.647536
192.019836,4596.572988,3701.029710,4959.379811
192.020144,3217.601092,4293.194464,5107.421000
192.020452,3447.429741,4441.235652,5995.668130
192.020760,2834.553343,3849.070898,6587.832884
192.021068,1225.752797,3034.844362,7920.203579
192.021376,689.485948,1850.514855,9696.697840
192.021684,-612.876398,-0.000000,11029.068536
192.021992,-2298.286494,-2072.576638,12361.439231
192.022300,-3370.820191,-3330.926739,13323.706956
192.022608,-4596.572988,-3478.967927,13693.809927
192.022916,-4136.915689,-4737.318029,15470.304188
192.023223,-4596.572988,-4589.276840,15248.242405
192.023531,-3907.087040,-4145.153275,14878.139434
192.023839,-2681.334243,-3701.029710,13915.871710
192.024147,-1072.533697,-2886.803174,12583.501014
192.024455,76.609550,-1406.391290,11177.109724
192.024763,2068.457845,-814.226536,8956.491898
192.025071,3217.601092,1184.329507,8142.265362
192.025379,4749.792088,1628.453072,7105.977043
192.025687,5439.278036,2516.700203,5773.606348
192.025995,4903.011187,3330.926739,4367.215058
192.026303,5209.449386,3182.885551,5255.462188
192.026611,4673.182538,3478.967927,5551.544565
192.026919,3907.087040,4071.132681,5033.400406
192.027227,3370.820191,4367.215058,5181.441594
192.027535,2987.772442,4219.173869,5921.647536
192.027842,1685.410096,3256.906145,6957.935855
192.028150,766.095498,2146.597232,8660.409521
192.028458,-383.047749,518.144159,10066.800811
192.028766,-1685.410096,-1998.556043,12731.542202
192.029074,-4060.306139,-3108.864956,13101.645173
192.029382,-4979.620737,-3775.050304,13249.686362
192.029690,-4519.963438,-5181.441594,16284.530724
192.029998,-5209.449386,-4441.235652,15544.324782
192.030306,-4749.792088,-3997.112087,15322.262999
192.030614,-3370.820191,-3849.070898,14359.995275
192.030922,-2145.067394,-2812.782580,12583.501014
192.031230,-229.828649,-1628.453072,11325.150913
192.031538,1915.238745,-148.041188,9474.636058
192.031846,2987.772442,1406.391290,7328.038826
192.032153,4443.353888,1850.514855,7328.038826
192.032461,5515.887586,2664.741391,6143.709319
192.032769,4596.572988,3034.844362,4811.338623
192.033077,4749.792088,2960.823768,5847.626942
192.033385,4673.182538,3256.906145,5477.523971
192.033693,4366.744339,3627.009116,5551.544565
192.034001,3217.601092,4071.132681,5699.585753
192.034309,3600.648841,3701.029710,5699.585753
192.034617,2834.553343,3923.091493,6809.894666
192.034925,1991.848295,2738.761985,7624.121203
192.035233,842.705048,1628.453072,9252.574275
192.035541,-995.924147,-518.144159,11251.130318
192.035849,-2145.067394,-2294.638420,13175.665768
192.036157,-3983.696590,-3404.947333,12953.603985
192.036465,-5132.839837,-4367.215058,14285.974681
192.036772,-4443.353888,-5107.421000,15988.448347
192.037080,-4290.134789,-4367.215058,15988.448347
192.037388,-4136.915689,-3923.091493,15248.242405
192.037696,-2757.943793,-3627.009116,13471.748144
192.038004,-766.095498,-2442.679609,12139.377449
192.038312,842.705048,-962.267725,10288.862594
192.038620,3217.601092,370.102971,8142.265362
192.038928,4519.963438,1776.494261,7550.100608
192.039236,5975.544884,1776.494261,7179.997637
192.039544,5056.230287,3330.926739,4293.194464
192.039852,4903.011187,3849.070898,4959.379811
192.040160,5362.668486,3182.885551,5625.565159
192.040468,4136.915689,3997.112087,4959.379811
192.040776,3830.477490,4293.194464,5699.585753
192.041084,3600.648841,3923.091493,5995.668130
192.041391,2681.334243,3552.988522,6587.832884
192.041699,1455.581446,2738.761985,7624.121203
192.042007,919.314598,1554.432478,9844.739029
192.042315,-689.485948,-444.123565,10658.965565
192.042623,-2221.676944,-2072.576638,12583.501014
192.042931,-3677.258390,-3256.906145,13693.809927
192.043239,-4979.620737,-4071.132681,13915.871710
192.043547,-4903.011187,-4737.318029,15840.407159
192.043855,-4903.011187,-4811.338623,15692.365970
192.044163,-4749.792088,-4737.318029,15026.180623
192.044471,-3983.696590,-3923.091493,13619.789333
192.044779,-1762.019645,-2294.638420,12583.501014
192.045087,76.609550,-888.247130,10881.027347
192.045395,1685.410096,370.102971,8882.471304
192.045702,3370.820191,1850.514855,7031.956449
192.046010,3753.867940,2738.761985,6587.832884
192.046318,5898.935335,2516.700203,6365.771101
192.046626,4673.182538,3701.029710,4145.153275
192.046934,5439.278036,3478.967927,5477.523971
192.047242,5056.230287,3330.926739,5625.565159
192.047550,4060.306139,4219.173869,4737.318029
192.047858,3370.820191,4219.173869,5181.441594
192.048166,3983.696590,4145.153275,5773.606348
192.048474,2911.162892,3627.009116,6809.894666
192.048782,1838.629195,2368.659014,7698.141797
192.049090,842.705048,666.185348,10214.842000
192.049398,-1838.629195,-1480.411884,11251.130318
192.049706,-2987.772442,-3034.844362,13175.665768
192.050014,-4060.306139,-3849.070898,14137.933492
192.050321,-5286.058936,-4663.297435,14508.036463
192.050629,-5286.058936,-5107.421000,16062.468941
192.050937,-4979.620737,-4367.215058,15840.407159
192.051245,-3677.258390,-4145.153275,15100.201217
192.051553,-2834.553343,-3478.967927,13027.624579
192.051861,-842.705048,-2146.597232,11399.171507
192.052169,766.095498,-888.247130,9548.656652
192.052477,2374.896044,370.102971,8216.285956
192.052785,3524.039291,1850.514855,7328.038826
192.053093,5132.839837,2220.617826,7105.977043
192.053401,4749.792088,2886.803174,5181.441594
192.053709,4749.792088,4515.256246,4811.338623
192.054017,5209.449386,4071.132681,5995.668130
192.054325,4136.915689,4441.235652,4885.359217
192.054633,4136.915689,4959.379811,5255.462188
192.054940,3907.087040,4663.297435,5329.482782
192.055248,2987.772442,3997.112087,6439.791695
192.055556,1685.410096,2664.741391,7920.203579
192.055864,536.266849,1628.453072,9548.656652
192.056172,-919.314598,-518.144159,11251.130318
192.056480,-2681.334243,-2664.741391,13323.706956
192.056788,-4749.792088,-3997.112087,14137.933492
192.057096,-6128.763984,-4515.256246,14508.036463
192.057404,-5669.106685,-5255.462188,16358.551318
192.057712,-5056.230287,-5033.400406,15914.427753
192.058020,-4443.353888,-4367.215058,14878.139434
192.058328,-3140.991542,-3775.050304,13841.851115
192.058636,-1532.190996,-2516.700203,12065.356855
192.058944,0.000000,-666.185348,10658.965565
192.059251,1685.410096,-0.000000,8882.471304
192.059559,2681.334243,1850.514855,6883.915261
192.059867,4673.182538,2516.700203,7179.997637
192.060175,5592.497135,3034.844362,5995.668130
192.060483,5286.058936,4219.173869,4145.153275
192.060791,5515.887586,3775.050304,5477.523971
192.061099,5515.887586,3701.029710,5033.400406
192.061407,4060.306139,4959.379811,4885.359217
192.061715,4060.306139,4515.256246,4959.379811
192.062023,4290.134789,3923.091493,5921.647536
192.062331,2528.115143,3330.926739,6735.874072
192.062639,1455.581446,2220.617826,8216.285956
192.062947,229.828649,222.061783,10140.821405
192.063255,-1608.800546,-1258.350101,11695.253884
192.063563,-2604.724693,-2886.803174,14137.933492
192.063870,-4213.525239,-3997.112087,14063.912898
192.064178,-5362.668486,-4515.256246,15322.262999
192.064486,-5209.449386,-5181.441594,15914.427753
192.064794,-4519.963438,-4589.276840,15248.242405
192.065102,-3600.648841,-3775.050304,14508.036463
192.065410,-2298.286494,-2886.803174,12435.459826
192.065718,306.438199,-2146.597232,12361.439231
192.066026,842.705048,-1110.308913,9178.553681
192.066334,1915.238745,296.082377,8660.409521
192.066642,3677.258390,814.226536,7772.162391
192.066950,5132.839837,2146.597232,7031.956449
192.067258,5056.230287,2738.761985,5107.421000
192.067566,5362.668486,4737.318029,3849.070898
192.067874,6588.421283,4071.132681,5255.462188
192.068182,4903.011187,4663.297435,4145.153275
192.068489,4903.011187,4959.379811,4885.359217
192.068797,4136.915689,4663.297435,5847.626942
192.069105,3447.429741,3701.029710,5773.606348
192.069413,1608.800546,2812.782580,7624.121203
192.069721,153.219100,1184.329507,9474.636058
192.070029,-1532.190996,-814.226536,11547.212695
192.070337,-2987.772442,-2738.761985,13249.686362
192.070645,-4596.572988,-4515.256246,14211.954086
192.070953,-6052.154434,-5107.421000,15248.242405
192.071261,-5515.887586,-5699.585753,16580.613101
192.071569,-5362.668486,-5107.421000,16506.592507
192.071877,-4290.134789,-4367.215058,14730.098246
192.072185,-3064.381992,-3552.988522,13471.748144
192.072493,-842.705048,-1850.514855,12287.418637
192.072800,153.219100,-444.123565,9918.759623
192.073108,2145.067394,814.226536,8364.327145
192.073416,4213.525239,1998.556043,6809.894666
192.073724,5745.716235,2368.659014,7254.018232
192.074032,5592.497135,3256.906145,5181.441594
192.074340,4826.401637,4441.235652,4071.132681
192.074648,5592.497135,3627.009116,5477.523971
192.074956,4826.401637,4071.132681,4885.359217
192.075264,4519.963438,3997.112087,4737.318029
192.075572,4213.525239,4367.215058,5551.544565
192.075880,4213.525239,3775.050304,5995.668130
192.076188,2528.115143,3182.885551,7105.977043
192.076496,1838.629195,2442.679609,8142.265362
192.076804,383.047749,444.123565,10288.862594
192.077112,-2145.067394,-962.267725,11547.212695
192.077419,-2757.943793,-2590.720797,13619.789333
192.077727,-4443.353888,-3923.091493,14508.036463
192.078035,-5132.839837,-4959.379811,15248.242405
192.078343,-5209.449386,-5255.462188,15692.365970
192.078651,-4519.963438,-4441.235652,16358.551318
192.078959,-4060.306139,-4885.359217,15248.242405
192.079267,-2987.772442,-3775.050304,13323.706956
192.079575,-612.876398,-2738.761985,12509.480420
192.079883,306.438199,-1406.391290,9844.739029
192.080191,2298.286494,296.082377,8364.327145
192.080499,4443.353888,1850.514855,7476.080014
192.080807,5056.230287,2664.741391,6809.894666
192.081115,5286.058936,3849.070898,4071.132681
192.081423,5822.325785,5181.441594,3923.091493
192.081731,6358.592633,5033.400406,4589.276840
192.082038,5362.668486,5329.482782,3701.029710
192.082346,4213.525239,5551.544565,4441.235652
192.082654,4136.915689,4293.194464,5773.606348
192.082962,2757.943793,2960.823768,6809.894666
192.083270,689.485948,2368.659014,8364.327145
192.083578,-766.095498,-0.000000,10288.862594
192.083886,-2451.505594,-1850.514855,12213.398043
192.084194,-3907.087040,-3627.009116,13989.892304
192.084502,-5209.449386,-4441.235652,14582.057057
192.084810,-5822.325785,-5033.400406,15248.242405
192.085118,-5209.449386,-5699.585753,16654.633695
192.085426,-5209.449386,-4885.359217,15988.448347
192.085734,-4060.306139,-4589.276840,14434.015869
192.086042,-2911.162892,-3552.988522,13471.748144
192.086350,-842.705048,-1406.391290,11769.274478
192.086658,536.266849,-0.000000,9474.636058
192.086966,2451.505594,1480.411884,8290.306550
192.087274,3447.429741,2368.659014,6513.812290
192.087582,4979.620737,2590.720797,7254.018232
192.087890,5209.449386,3256.906145,4737.318029
192.088198,4826.401637,3923.091493,4219.173869
192.088506,5362.668486,3182.885551,5625.565159
192.088814,4673.182538,3701.029710,5033.400406
192.089122,3830.477490,4219.173869,5033.400406
192.089430,3830.477490,4367.215058,5403.503377
192.089738,3830.477490,4293.194464,6069.688724
192.090046,2987.772442,3997.112087,6513.812290
192.090354,1685.410096,2294.638420,8068.244768
192.090662,306.438199,444.123565,10288.862594
192.090970,-1762.019645,-1258.350101,11547.212695
192.091278,-3064.381992,-2812.782580,13915.871710
192.091586,-4826.401637,-4441.235652,14063.912898
192.091894,-5592.497135,-4959.379811,15248.242405
192.092202,-5515.887586,-5699.585753,16284.530724
192.092510,-4749.792088,-5329.482782,16580.613101
192.092818,-4596.572988,-4737.318029,15322.262999
192.093126,-2451.505594,-3923.091493,13101.645173
192.093434,-766.095498,-2886.803174,11991.336260
192.093742,919.314598,-1184.329507,9474.636058
192.094050,2757.943793,666.185348,7994.224174
192.094358,4826.401637,2146.597232,7105.977043
192.094666,6128.763984,3108.864956,5847.626942
192.094974,5209.449386,4737.318029,4145.153275
192.095282,6281.983084,4959.379811,4663.297435
192.095590,6435.202183,5477.523971,4515.256246
192.095898,5209.449386,5477.523971,3627.009116
192.096206,4749.792088,5477.523971,4663.297435
192.096514,3907.087040,4441.235652,5551.544565
192.096822,2068.457845,3330.926739,7105.977043
192.097130,383.047749,2220.617826,8586.388927
192.097438,-766.095498,-222.061783,11029.068536
192.097746,-2604.724693,-1850.514855,12657.521608
192.098054,-3830.477490,-3997.112087,14359.995275
192.098362,-5286.058936,-4737.318029,15026.180623
192.098670,-5898.935335,-5181.441594,15618.345376
192.098978,-5745.716235,-5181.441594,16210.510130
192.099286,-4596.572988,-4367.215058,15470.304188
192.099594,-3677.258390,-3775.050304,14211.954086
192.099902,-2221.676944,-2812.782580,12805.562797
192.100210,76.609550,-1406.391290,11547.212695
192.100518,1072.533697,-74.020594,9178.553681
192.100826,2528.115143,1258.350101,8290.306550
192.101134,3753.867940,2368.659014,6957.935855
192.101442,5362.668486,2516.700203,7031.956449
192.101750,4443.353888,2812.782580,4885.359217
192.102058,4519.963438,3627.009116,5329.482782
192.102366,5056.230287,2886.803174,5847.626942
192.102674,5209.449386,4219.173869,4885.359217
192.102982,4519.963438,4219.173869,5255.462188
192.103290,4749.792088,4219.173869,5181.441594
192.103598,4060.306139,4515.256246,5773.606348
192.103906,2528.115143,3478.967927,6513.812290
192.104214,1532.190996,2220.617826,8364.327145
192.104522,-536.266849,296.082377,10436.903782
192.104830,-2374.896044,-1850.514855,12731.542202
192.105138,-3600.648841,-3923.091493,14063.912898
192.105446,-5209.449386,-4737.318029,14211.954086
192.105754,-5822.325785,-5255.462188,16802.674883
192.106062,-5515.887586,-5847.626942,16802.674883
192.106370,-4903.011187,-4959.379811,16062.468941
192.106678,-3600.648841,-4293.194464,13989.892304
192.106986,-842.705048,-2960.823768,12953.603985
192.107294,306.438199,-1924.535449,10955.047942
192.107602,2604.724693,-0.000000,9104.533087
192.107910,4366.744339,1628.453072,7846.182985
192.108218,5822.325785,2812.782580,6217.729913
192.108526,5515.887586,4219.173869,4219.173869
192.108834,6358.592633,5107.421000,3701.029710
192.109142,6741.640382,4811.338623,4071.132681
192.109450,5362.668486,5107.421000,3627.009116
192.109758,4903.011187,4959.379811,4737.318029
192.110066,4443.353888,3849.070898,5625.565159
192.110374,2604.724693,2738.761985,6809.894666
192.110682,842.705048,2368.659014,8586.388927
192.110990,-689.485948,740.205942,10066.800811
192.111298,-2451.505594,-1258.350101,12139.377449
192.111606,-3677.258390,-2812.782580,13545.768739
192.111914,-5209.449386,-3552.988522,13693.809927
192.112222,-5592.497135,-4663.297435,15100.201217
192.112530,-4979.620737,-4885.359217,15840.407159
192.112838,-5056.230287,-4071.132681,15396.283594
192.113146,-4213.525239,-3701.029710,14211.954086
192.113454,-2528.115143,-2886.803174,13323.706956
192.113762,-1455.581446,-1776.494261,11843.295072
192.114070,459.657299,-222.061783,10140.821405
192.114378,2604.724693,666.185348,8586.388927
192.114686,2911.162892,1480.411884,7105.977043
192.114994,5056.230287,1776.494261,8068.244768
192.115302,4903.011187,1776.494261,5255.462188
192.115610,3753.867940,2516.700203,5181.441594
192.115918,4673.182538,2072.576638,6587.832884
192.116226,4213.525239,2960.823768,5255.462188
192.116534,4136.915689,3923.091493,5255.462188
192.116842,4596.572988,4145.153275,4811.338623
192.117150,4979.620737,4441.235652,5551.544565
192.117458,3983.696590,4293.194464,6069.688724
192.117766,2681.334243,3108.864956,7402.059420
192.118074,1225.752797,1406.391290,9326.594869
192.118382,-1378.971896,-370.102971,10658.965565
192.118690,-2451.505594,-2442.679609,13323.706956
192.118998,-4596.572988,-3923.091493,14063.912898
192.119306,-5592.497135,-5625.565159,15840.407159
192.119614,-5669.106685,-6069.688724,17098.757260
192.119922,-5209.449386,-5477.523971,16432.571912
192.120230,-4290.134789,-4811.338623,15322.262999
192.120538,-2757.943793,-3775.050304,13101.645173
192.120846,76.609550,-2442.679609,11843.295072
192.121154,1378.971896,-444.123565,9474.636058
192.121462,3140.991542,1406.391290,7846.182985
192.121770,5515.887586,2368.659014,7328.038826
192.122078,6281.983084,3627.009116,4959.379811
192.122386,6281.983084,5033.400406,3256.906145
192.122694,6894.859482,4737.318029,4737.318029
192.123002,6358.592633,4959.379811,4219.173869
192.123310,4826.401637,4737.318029,4959.379811
192.123618,4060.306139,4515.256246,5477.523971
192.123926,3677.258390,3627.009116,6587.832884
192.124234,1455.581446,2368.659014,7624.121203
192.124542,383.047749,1480.411884,9030.512492
192.124850,-383.047749,-0.000000,11177.109724
192.125158,-2298.286494,-1406.391290,12213.398043
192.125466,-3447.429741,-2738.761985,13619.789333
192.125774,-5132.839837,-3701.029710,13841.851115
192.126082,-5515.887586,-4441.235652,15322.262999
192.126390,-5056.230287,-4589.276840,16062.468941
192.126698,-4213.525239,-4071.132681,14878.139434
192.127006,-4213.525239,-3849.070898,14434.015869
192.127314,-2681.334243,-3034.844362,13323.706956
192.127622,-689.485948,-1702.473667,11695.253884
192.127930,536.266849,-518.144159,10214.842000
192.128238,2145.067394,740.205942,8438.347739
192.128546,3140.991542,1480.411884,7772.162391
192.128854,4903.011187,1850.514855,7179.997637
192.129162,4366.744339,2442.679609,4663.297435
192.129470,4443.353888,2590.720797,5329.482782
192.129778,4979.620737,2590.720797,6069.688724
192.130086,4519.963438,3775.050304,4811.338623
192.130394,4443.353888,4589.276840,5477.523971
192.130702,4596.572988,4737.318029,4959.379811
192.131010,4596.572988,4811.338623,5107.421000
192.131318,3140.991542,4293.194464,5847.626942
192.131626,2451.505594,2516.700203,8734.430116
192.131934,229.828649,740.205942,9992.780217
192.132242,-1532.190996,-888.247130,11843.295072
192.132550,-3370.820191,-3478.967927,14137.933492
192.132858,-5362.668486,-4589.276840,14137.933492
192.133166,-5975.544884,-5107.421000,16580.613101
192.133474,-5745.716235,-5921.647536,17098.757260
192.133782,-4673.182538,-5477.523971,15618.345376
192.134090,-3830.477490,-4515.256246,14434.015869
192.134398,-1838.629195,-3404.947333,13323.706956
192.134706,153.219100,-2294.638420,11473.192101
192.135014,766.095498,296.082377,9326.594869
192.135322,3294.210641,1628.453072,7476.080014
192.135630,5515.887586,2886.803174,6661.853478
192.135938,5745.716235,3923.091493,4589.276840
192.136246,5745.716235,4885.359217,4071.132681
192.136554,6052.154434,4293.194464,5033.400406
192.136862,5362.668486,4515.256246,4515.256246
192.137170,4749.792088,4515.256246,5107.421000
192.137478,4136.915689,4515.256246,5551.544565
192.137786,3217.601092,3627.009116,6069.688724
192.138094,1378.971896,2442.679609,7328.038826
192.138402,153.219100,1184.329507,9622.677246
192.138710,-1532.190996,-666.185348,11029.068536
192.139018,-2451.505594,-1924.535449,12213.398043
192.139326,-3447.429741,-3182.885551,13619.789333
192.139634,-5515.887586,-4367.215058,13767.830521
192.139942,-5898.935335,-4219.173869,15840.407159
192.140250,-5132.839837,-4441.235652,15766.386565
192.140558,-4366.744339,-3627.009116,14730.098246
192.140866,-3600.648841,-2960.823768,13915.871710
192.141174,-1991.848295,-2072.576638,12731.542202
192.141482,-306.438199,-1258.350101,11325.150913
192.141790,689.485948,-296.082377,10362.883188
192.142098,2374.896044,962.267725,7994.224174
192.142406,3447.429741,1776.494261,7624.121203
192.142714,4979.620737,1702.473667,7179.997637
192.143022,3600.648841,2368.659014,4885.359217
192.143330,4290.134789,2442.679609,5995.668130
192.143638,4749.792088,2442.679609,6365.771101
192.143946,4290.134789,3775.050304,4737.318029
192.144254,4290.134789,4293.194464,5477.523971
192.144562,4903.011187,4737.318029,4959.379811
192.144870,5056.230287,4885.359217,5551.544565
192.145178,3064.381992,4219.173869,6143.709319
192.145486,1915.238745,2146.597232,8882.471304
192.145794,0.000000,592.164754,10066.800811
192.146102,-1685.410096,-1184.329507,11917.315666
192.146410,-3447.429741,-3182.885551,14582.057057
192.146718,-5132.839837,-4589.276840,14359.995275
192.147026,-6435.202183,-5033.400406,16580.613101
192.147334,-5669.106685,-6069.688724,16876.695478
192.147642,-4673.182538,-5181.441594,15618.345376
192.147950,-3677.258390,-4219.173869,14211.954086
192.148258,-1532.190996,-3256.906145,12731.542202
192.148566,536.266849,-2072.576638,11473.192101
192.148874,1915.238745,-0.000000,9104.533087
192.149182,3524.039291,1184.329507,7550.100608
192.149490,5822.325785,2812.782580,6513.812290
192.149798,5745.716235,4145.153275,4737.318029
192.150106,5439.278036,4737.318029,4441.235652
192.150414,6052.154434,4589.276840,4885.359217
192.150722,5439.278036,4589.276840,4737.318029
192.151030,4749.792088,4441.235652,5329.482782
192.151338,4596.572988,4071.132681,5181.441594
192.151646,3064.381992,3775.050304,6439.791695
192.151954,1532.190996,2368.659014,7031.956449
192.152262,-306.438199,740.205942,9548.656652
192.152570,-1302.362347,-592.164754,11103.089130
192.152878,-2757.943793,-2220.617826,12435.459826
192.153186,-3830.477490,-3404.947333,13471.748144
192.153494,-4443.353888,-4071.132681,13989.892304
192.153802,-5132.839837,-4219.173869,15322.262999
192.154110,-4290.134789,-4441.235652,15840.407159
192.154417,-3677.258390,-3923.091493,14137.933492
192.154725,-2987.772442,-3404.947333,12953.603985
192.155033,-1685.410096,-2368.659014,12435.459826
192.155341,-306.438199,-1480.411884,11029.068536
192.155649,842.705048,148.041188,9622.677246
192.155957,3064.381992,740.205942,8216.285956
192.156265,4136.915689,1628.453072,7772.162391
192.156573,5286.058936,1332.370696,6661.853478
192.156881,4826.401637,2664.741391,5255.462188
192.157189,4826.401637,2738.761985,6143.709319
192.157497,4749.792088,3108.864956,5921.647536
192.157805,4519.963438,4071.132681,5107.421000
192.158113,4366.744339,4293.194464,5033.400406
192.158421,5286.058936,4885.359217,5033.400406
192.158729,4519.963438,4959.379811,6069.688724
192.159037,3064.381992,3849.070898,6217.729913
192.159345,2221.676944,1776.494261,8438.347739
192.159653,-612.876398,148.041188,10584.944971
192.159961,-2145.067394,-1628.453072,12657.521608
192.160269,-3677.258390,-3330.926739,14285.974681
192.160577,-5439.278036,-4737.318029,14952.160028
192.160885,-6052.154434,-5329.482782,16062.468941
192.161193,-5669.106685,-6217.729913,16876.695478
192.161501,-4749.792088,-5551.544565,16284.530724
192.161809,-3370.820191,-4145.153275,13767.830521
192.162117,-1149.143247,-2738.761985,12731.542202
192.162425,612.876398,-1702.473667,11325.150913
192.162733,2068.457845,148.041188,8660.409521
192.163041,3830.477490,2220.617826,7476.080014
192.163349,6358.592633,2960.823768,6661.853478
192.163657,5132.839837,4589.276840,4293.194464
192.163965,5439.278036,4515.256246,4737.318029
192.164273,5669.106685,4367.215058,5181.441594
192.164581,4673.182538,5033.400406,3849.070898
192.164889,3907.087040,3849.070898,5329.482782
192.165197,3830.477490,4219.173869,5921.647536
192.165505,3140.991542,3256.906145,6365.771101
192.165813,1455.581446,2368.659014,7624.121203
192.166121,766.095498,1036.288319,9548.656652
192.166429,-1225.752797,-888.247130,11251.130318
192.166737,-2528.115143,-1998.556043,12213.398043
192.167045,-3753.867940,-2960.823768,13915.871710
192.167353,-4826.401637,-4145.153275,13915.871710
192.167661,-5286.058936,-3997.112087,15026.180623
192.167969,-4673.182538,-4441.235652,15692.365970
192.168277,-3907.087040,-4145.153275,14730.098246
192.168585,-3217.601092,-2738.761985,13915.871710
192.168893,-1915.238745,-2368.659014,12509.480420
192.169201,0.000000,-1554.432478,11843.295072
192.169509,153.219100,-740.205942,9844.739029
192.169817,2298.286494,518.144159,8512.368333
192.170125,3064.381992,1110.308913,7105.977043
192.170433,4443.353888,1702.473667,7105.977043
192.170741,4443.353888,2220.617826,5699.585753
192.171049,4366.744339,3108.864956,5477.523971
192.171357,4673.182538,2738.761985,5995.668130
192.171665,4290.134789,4293.194464,5033.400406
192.171973,4826.401637,4959.379811,4737.318029
192.172281,4673.182538,5107.421000,4663.297435
192.172589,4826.401637,4811.338623,5033.400406
192.172897,3447.429741,4071.132681,5699.585753
192.173205,1915.238745,1702.473667,7920.203579
192.173513,-229.828649,-370.102971,10658.965565
192.173821,-2681.334243,-2146.597232,12731.542202
192.174129,-4060.306139,-3849.070898,15100.201217
192.174437,-5898.935335,-5329.482782,15322.262999
192.174745,-6588.421283,-5847.626942,16284.530724
192.175053,-5745.716235,-5995.668130,17246.798449
192.175361,-4366.744339,-5551.544565,16136.489536
192.175669,-3447.429741,-3923.091493,13767.830521
192.175977,-689.485948,-2886.803174,12583.501014
192.176285,1149.143247,-1554.432478,10955.047942
192.176593,2604.724693,666.185348,8586.388927
192.176901,3983.696590,2442.679609,7179.997637
192.177209,5975.544884,3552.988522,5699.585753
192.177517,5439.278036,4441.235652,4219.173869
192.177825,5898.935335,4959.379811,4367.215058
192.178133,5975.544884,4811.338623,4737.318029
192.178441,4749.792088,4663.297435,4737.318029
192.178749,3830.477490,3997.112087,5625.565159
192.179057,3524.039291,3627.009116,6291.750507
192.179365,2451.505594,3108.864956,6957.935855
192.179673,1225.752797,2220.617826,7920.203579
192.179981,76.609550,888.247130,9770.718434
192.180289,-1302.362347,-518.144159,11177.109724
192.180597,-2987.772442,-2220.617826,12805.562797
192.180905,-3753.867940,-3108.864956,13841.851115
192.181213,-4213.525239,-4145.153275,13915.871710
192.181521,-5515.887586,-4145.153275,15026.180623
192.181829,-4596.572988,-4367.215058,15618.345376
192.182137,-3907.087040,-3923.091493,14730.098246
192.182445,-3907.087040,-2664.741391,13101.645173
192.182753,-1685.410096,-2220.617826,12879.583391
192.183061,-306.438199,-1628.453072,11547.212695
192.183369,536.266849,-0.000000,9474.636058
192.183677,1991.848295,666.185348,8290.306550
192.183985,3370.820191,1036.288319,7846.182985
192.184293,4366.744339,1332.370696,6957.935855
192.184601,3753.867940,2664.741391,4885.359217
192.184909,4979.620737,2960.823768,6291.750507
192.185218,5056.230287,3330.926739,5033.400406
192.185526,4519.963438,4515.256246,4663.297435
192.185834,5362.668486,5181.441594,4589.276840
192.186142,4979.620737,5477.523971,4663.297435
192.186450,4519.963438,4959.379811,5255.462188
192.186758,2987.772442,3701.029710,5995.668130
192.187066,1149.143247,1184.329507,9326.594869
192.187374,-1378.971896,-814.226536,10807.006753
192.187682,-2451.505594,-2442.679609,13767.830521
192.187990,-4749.792088,-4589.276840,15174.221811
192.188298,-6128.763984,-5773.606348,15322.262999
192.188606,-6818.249932,-6513.812290,16802.674883
192.188914,-5286.058936,-6217.729913,17098.757260
192.189222,-4136.915689,-5255.462188,15248.242405
192.189530,-2374.896044,-3478.967927,13101.645173
192.189838,153.219100,-2220.617826,11621.233289
192.190146,1455.581446,-888.247130,9474.636058
192.190454,3140.991542,1480.411884,7994.224174
192.190762,5056.230287,2960.823768,7105.977043
192.191070,6052.154434,3849.070898,5181.441594
192.191378,5515.887586,4737.318029,3923.091493
192.191686,5898.935335,4663.297435,4811.338623
192.191994,5515.887586,4293.194464,4737.318029
192.192302,4519.963438,3997.112087,5625.565159
192.192610,3983.696590,3997.112087,6143.709319
192.192918,3217.601092,3182.885551,6217.729913
192.193226,2068.457845,2812.782580,6513.812290
192.193534,1149.143247,2368.659014,8364.327145
192.193842,0.000000,666.185348,9844.739029
192.194150,-1685.410096,-370.102971,11177.109724
192.194458,-2528.115143,-1776.494261,12657.521608
192.194766,-3753.867940,-2960.823768,13619.789333
192.195074,-4903.011187,-3552.988522,13989.892304
192.195382,-4826.401637,-4219.173869,14730.098246
192.195690,-4596.572988,-4293.194464,15840.407159
192.195998,-4136.915689,-3552.988522,14804.118840
192.196306,-3524.039291,-3108.864956,13397.727550
192.196614,-1532.190996,-2516.700203,12953.603985
192.196922,-689.485948,-1776.494261,10955.047942
192.197230,842.705048,-296.082377,9474.636058
192.197538,2528.115143,370.102971,8068.244768
192.197846,4060.306139,1332.370696,7994.224174
192.198154,4903.011187,1924.535449,6365.771101
192.198463,3830.477490,3256.906145,4515.256246
192.198771,5056.230287,3108.864956,6291.750507
192.199079,4749.792088,4145.153275,4589.276840
192.199387,4749.792088,5329.482782,4663.297435
192.199695,4826.401637,5255.462188,4441.235652
192.200003,4903.011187,5329.482782,4737.318029
192.200311,3677.258390,4293.194464,5625.565159
192.200619,2451.505594,2294.638420,7550.100608
192.200927,383.047749,296.082377,10362.883188
192.201235,-2145.067394,-1406.391290,11251.130318
192.201543,-3677.258390,-3256.906145,14730.098246
192.201851,-5669.106685,-4663.297435,15100.201217
192.202159,-6741.640382,-5995.668130,15618.345376
192.202467,-6281.983084,-6069.688724,17764.942608
192.202775,-4903.011187,-6439.791695,16432.571912
192.203083,-3753.867940,-4663.297435,14359.995275
192.203391,-2068.457845,-3330.926739,13101.645173
192.203699,383.047749,-1628.453072,11177.109724
192.204007,2068.457845,-0.000000,9030.512492
192.204315,3447.429741,2294.638420,7328.038826
192.204623,5745.716235,2886.803174,6217.729913
192.204931,5439.278036,3923.091493,4885.359217
192.205239,5439.278036,4737.318029,4589.276840
192.205547,5975.544884,4145.153275,5033.400406
192.205855,5362.668486,3923.091493,5255.462188
192.206163,4366.744339,3849.070898,5847.626942
192.206471,3907.087040,3997.112087,5847.626942
192.206779,3294.210641,3404.947333,6365.771101
192.207087,2068.457845,2886.803174,7179.997637
192.207395,689.485948,1924.535449,8734.430116
192.207703,-229.828649,296.082377,10362.883188
192.208011,-1685.410096,-1184.329507,11177.109724
192.208319,-2834.553343,-2072.576638,13249.686362
192.208627,-4443.353888,-3330.926739,13767.830521
192.208935,-5132.839837,-3775.050304,14359.995275
192.209243,-5132.839837,-3997.112087,15618.345376
192.209551,-3907.087040,-4071.132681,15618.345376
192.209859,-4213.525239,-3627.009116,13841.851115
192.210167,-2681.334243,-2368.659014,13027.624579
192.210475,-1072.533697,-2368.659014,12361.439231
192.210783,0.000000,-1480.411884,10214.842000
192.211091,1685.410096,-148.041188,9400.615463
192.211399,2757.943793,740.205942,7698.141797
192.211708,4290.134789,1184.329507,7105.977043
192.212016,4060.306139,2220.617826,5625.565159
192.212324,3677.258390,2516.700203,5255.462188
192.212632,4443.353888,2590.720797,6143.709319
192.212940,4290.134789,4367.215058,4663.297435
192.213248,4673.182538,5329.482782,4737.318029
192.213556,4903.011187,5403.503377,3923.091493
192.213864,4979.620737,5477.523971,4589.276840
192.214172,3677.258390,4589.276840,5773.606348
192.214480,1532.190996,2516.700203,8142.265362
192.214788,-229.828649,518.144159,9918.759623
192.215096,-2681.334243,-1702.473667,11695.253884
192.215404,-3983.696590,-3775.050304,14952.160028
192.215712,-5669.106685,-4663.297435,15396.283594
192.216020,-6971.469032,-5921.647536,16136.489536
192.216328,-6358.592633,-6587.832884,17394.839637
192.216636,-4903.011187,-6069.688724,15766.386565
192.216944,-3294.210641,-4515.256246,14211.954086
192.217252,-766.095498,-2664.741391,13027.624579
192.217560,995.924147,-1554.432478,10658.965565
192.217868,1991.848295,962.267725,8882.471304
192.218176,4366.744339,2516.700203,7476.080014
192.218484,6205.373534,3330.926739,5551.544565
192.218792,5209.449386,4293.194464,3923.091493
192.219100,6128.763984,4515.256246,4885.359217
192.219408,6358.592633,4071.132681,4885.359217
192.219716,4596.572988,4145.153275,4959.379811
192.220024,4290.134789,3849.070898,5699.585753
192.220332,3830.477490,3404.947333,5847.626942
192.220640,2604.724693,3034.844362,6735.874072
192.220948,1225.752797,2812.782580,7105.977043
192.221256,766.095498,1406.391290,9178.553681
192.221564,-842.705048,-74.020594,10584.944971
192.221872,-1991.848295,-1702.473667,12583.501014
192.222180,-3064.381992,-2442.679609,13471.748144
192.222488,-4826.401637,-3923.091493,14063.912898
192.222796,-5822.325785,-4145.153275,14878.139434
192.223104,-4673.182538,-4441.235652,15988.448347
192.223412,-4213.525239,-4367.215058,15026.180623
192.223720,-3983.696590,-3478.967927,13249.686362
192.224028,-1915.238745,-2738.761985,13175.665768
192.224336,-612.876398,-2812.782580,11473.192101
192.224644,536.266849,-1480.411884,9992.780217
192.224953,1838.629195,-0.000000,8808.450710
192.225261,3370.820191,444.123565,8068.244768
192.225569,4290.134789,1406.391290,6661.853478
192.225877,3907.087040,3034.844362,4885.359217
192.226185,5362.668486,3330.926739,5847.626942
192.226493,5669.106685,4145.153275,4589.276840
192.226801,5822.325785,5699.585753,4071.132681
192.227109,5362.668486,5921.647536,4145.153275
192.227417,5745.716235,5921.647536,4441.235652
192.227725,4826.401637,5477.523971,5551.544565
192.228033,3370.820191,3997.112087,6291.750507
192.228341,1225.752797,1332.370696,9400.615463
192.228649,-1608.800546,-370.102971,10807.006753
192.228957,-3064.381992,-2664.741391,13915.871710
192.229265,-4979.620737,-4885.359217,15322.262999
192.229573,-6281.983084,-6069.688724,15618.345376
192.229881,-7048.078582,-6957.935855,16950.716072
192.230189,-5439.278036,-6809.894666,17098.757260
192.230497,-3753.867940,-5625.565159,15914.427753
192.230805,-2757.943793,-3997.112087,13545.768739
192.231113,0.000000,-2368.659014,12213.398043
192.231421,1762.019645,-888.247130,10066.800811
192.231729,3064.381992,1480.411884,7846.182985
192.232037,5439.278036,2442.679609,7179.997637
192.232345,5975.544884,3182.885551,4885.359217
192.232653,5669.106685,4663.297435,4441.235652
192.232961,5822.325785,4515.256246,4885.359217
192.233269,5669.106685,4663.297435,4663.297435
192.233577,4826.401637,4219.173869,5033.400406
192.233885,3983.696590,4071.132681,5181.441594
192.234193,3217.601092,3034.844362,5773.606348
192.234501,2681.334243,2664.741391,6735.874072
192.234809,1762.019645,2590.720797,7254.018232
192.235117,383.047749,888.247130,9622.677246
192.235425,-1378.971896,-222.061783,10658.965565
192.235733,-2374.896044,-1406.391290,12731.542202
192.236041,-3524.039291,-2960.823768,13619.789333
192.236349,-4903.011187,-3701.029710,14063.912898
192.236657,-5515.887586,-4219.173869,14730.098246
192.236965,-4596.572988,-4737.318029,16580.613101
192.237273,-4366.744339,-4737.318029,15396.283594
192.237581,-3753.867940,-3997.112087,14211.954086
192.237889,-2451.505594,-3478.967927,13249.686362
192.238198,-995.924147,-2664.741391,11769.274478
192.238506,0.000000,-740.205942,10066.800811
192.238814,1991.848295,370.102971,8364.327145
192.239122,3830.477490,1258.350101,8142.265362
192.239430,4903.011187,2294.638420,6217.729913
192.239738,4443.353888,3552.988522,4219.173869
192.240046,5592.497135,4145.153275,4885.359217
192.240354,6052.154434,4441.235652,4441.235652
192.240662,5439.278036,5995.668130,3478.967927
192.240970,4979.620737,5403.503377,4145.153275
192.241278,4903.011187,5033.400406,4737.318029
192.241586,3907.087040,4959.379811,5921.647536
192.241894,2451.505594,2886.803174,7328.038826
192.242202,306.438199,740.205942,10066.800811
192.242510,-1838.629195,-1480.411884,11473.192101
192.242818,-3753.867940,-3034.844362,14285.974681
192.243126,-5669.106685,-4811.338623,15174.221811
192.243434,-6435.202183,-5995.668130,15396.283594
192.243742,-6358.592633,-6143.709319,17690.922014
192.244050,-5286.058936,-6365.771101,17172.777854
192.244358,-3294.210641,-5255.462188,14952.160028
192.244666,-2298.286494,-3256.906145,14063.912898
192.244974,306.438199,-2294.638420,11399.171507
192.245282,1455.581446,-74.020594,9918.759623
192.245590,2987.772442,1998.556043,7698.141797
192.245898,5362.668486,2886.803174,7476.080014
192.246206,5439.278036,3552.988522,4811.338623
192.246514,5439.278036,4293.194464,4219.173869
192.246822,6511.811733,3997.112087,5403.503377
192.247130,5362.668486,3997.112087,4663.297435
192.247438,4136.915689,3849.070898,5477.523971
192.247746,3907.087040,3849.070898,5699.585753
192.248054,3677.258390,3404.947333,5773.606348
192.248362,2451.505594,3108.864956,6513.812290
192.248670,1762.019645,2664.741391,7624.121203
192.248978,689.485948,962.267725,10066.800811
192.249286,-995.924147,-370.102971,11917.315666
192.249594,-2987.772442,-1850.514855,12953.603985
192.249902,-4519.963438,-3108.864956,13989.892304
192.250210,-5132.839837,-3849.070898,14211.954086
192.250518,-5592.497135,-4071.132681,15100.201217
192.250826,-4903.011187,-4589.276840,16210.510130
192.251135,-4443.353888,-3997.112087,14656.077652
192.251443,-3830.477490,-3330.926739,13693.809927
192.251751,-1762.019645,-2812.782580,12953.603985
192.252059,-383.047749,-2294.638420,11547.212695
192.252367,995.924147,-740.205942,9770.718434
192.252675,2374.896044,370.102971,7994.224174
192.252983,4366.744339,962.267725,7994.224174
192.253291,4826.401637,2220.617826,5107.421000
192.253599,4979.620737,3701.029710,4367.215058
192.253907,6205.373534,3775.050304,5921.647536
192.254215,5822.325785,4367.215058,3627.009116
192.254523,5515.887586,4959.379811,3923.091493
192.254831,5362.668486,5255.462188,3923.091493
192.255139,5286.058936,5033.400406,4663.297435
192.255447,3677.258390,4737.318029,5477.523971
192.255755,1991.848295,2886.803174,7920.203579
192.256063,0.000000,592.164754,10362.883188
192.256371,-1915.238745,-1036.288319,12065.356855
192.256679,-3294.210641,-3478.967927,14211.954086
192.256987,-5515.887586,-4737.318029,15100.201217
192.257295,-6128.763984,-5773.606348,15914.427753
192.257603,-6052.154434,-6069.688724,17098.757260
192.257911,-4979.620737,-5921.647536,16580.613101
192.258219,-3907.087040,-4737.318029,14434.015869
192.258527,-1762.019645,-2960.823768,12657.521608
192.258835,229.828649,-1924.535449,11177.109724
192.259143,1991.848295,-0.000000,8956.491898
192.259451,3524.039291,1850.514855,7846.182985
192.259759,5286.058936,2664.741391,6957.935855
192.260067,5592.497135,3849.070898,4737.318029
192.260375,5592.497135,4293.194464,4589.276840
192.260683,5898.935335,4071.132681,5403.503377
192.260991,5056.230287,3775.050304,5107.421000
192.261299,3907.087040,3256.906145,5551.544565
192.261607,3677.258390,3330.926739,5921.647536
192.261915,3753.867940,3182.885551,5995.668130
192.262223,2451.505594,2738.761985,6735.874072
192.262531,1302.362347,2590.720797,7994.224174
192.262839,-153.219100,666.185348,9844.739029
192.263147,-1532.190996,-592.164754,11177.109724
192.263455,-2834.553343,-1628.453072,12065.356855
192.263763,-3830.477490,-2886.803174,13767.830521
192.264071,-4979.620737,-3627.009116,14508.036463
192.264380,-4596.572988,-3849.070898,15248.242405
192.264688,-4903.011187,-4737.318029,16802.674883
192.264996,-4673.182538,-4367.215058,14952.160028
192.265304,-3907.087040,-3478.967927,13545.768739
192.265612,-1532.190996,-3256.906145,13397.727550
192.265920,-1302.362347,-2368.659014,11251.130318
192.266228,1072.533697,-370.102971,9622.677246
192.266536,2911.162892,592.164754,8364.327145
192.266844,4903.011187,1110.308913,6957.935855
192.267152,4596.572988,3330.926739,4367.215058
192.267460,5362.668486,4441.235652,4885.359217
192.267768,5745.716235,4219.173869,4959.379811
192.268076,5439.278036,5181.441594,3478.967927
192.268384,5745.716235,5625.565159,4071.132681
192.268692,4596.572988,5625.565159,3701.029710
192.269000,4443.353888,4441.235652,5329.482782
192.269308,2757.943793,3701.029710,6513.812290
192.269616,1378.971896,1998.556043,8734.430116
192.269924,-842.705048,-592.164754,10214.842000
192.270232,-3064.381992,-2368.659014,12731.542202
192.270540,-4519.963438,-3997.112087,15322.262999
192.270848,-6052.154434,-5255.462188,15470.304188
192.271156,-6588.421283,-5847.626942,16580.613101
192.271464,-6052.154434,-5921.647536,16876.695478
192.271772,-4213.525239,-5477.523971,15544.324782
192.272080,-3140.991542,-3849.070898,13915.871710
192.272388,-1149.143247,-2220.617826,12139.377449
192.272696,766.095498,-962.267725,10807.006753
192.273004,2528.115143,592.164754,8808.450710
192.273312,4519.963438,2294.638420,7476.080014
192.273620,5669.106685,2368.659014,6513.812290
192.273928,5592.497135,3627.009116,4811.338623
192.274236,5209.449386,3701.029710,5477.523971
192.274544,5439.278036,3404.947333,5847.626942
192.274852,4596.572988,3330.926739,5477.523971
192.275160,3983.696590,3552.988522,5773.606348
192.275468,3524.039291,3849.070898,5773.606348
192.275776,3064.381992,3849.070898,6069.688724
192.276084,2911.162892,3404.947333,6661.853478
192.276392,1302.362347,2220.617826,8734.430116
192.276700,76.609550,222.061783,9992.780217
192.277008,-1455.581446,-518.144159,11547.212695
192.277316,-3064.381992,-1850.514855,13175.665768
192.277625,-4519.963438,-3330.926739,13915.871710
192.277933,-5362.668486,-3923.091493,14730.098246
192.278241,-5592.497135,-4737.318029,16284.530724
192.278549,-4749.792088,-4959.379811,16284.530724
192.278857,-3907.087040,-4219.173869,14804.118840
192.279165,-3447.429741,-3552.988522,13619.789333
192.279473,-995.924147,-2886.803174,12435.459826
192.279781,76.609550,-1258.350101,10288.862594
192.280089,2145.067394,370.102971,8364.327145
192.280397,3907.087040,1776.494261,7254.018232
192.280705,5362.668486,2368.659014,6513.812290
192.281013,4749.792088,3849.070898,4293.194464
192.281321,5439.278036,4071.132681,4885.359217
192.281629,5669.106685,3849.070898,4885.359217
192.281937,5132.839837,5329.482782,3849.070898
192.282245,4903.011187,5255.462188,4441.235652
192.282553,4749.792088,4885.359217,4663.297435
192.282861,4060.306139,4293.194464,5625.565159
192.283169,2221.676944,3330.926739,7031.956449
192.283477,842.705048,666.185348,9474.636058
192.283785,-1225.752797,-1406.391290,11251.130318
192.284093,-3064.381992,-2960.823768,13323.706956
192.284401,-4596.572988,-4145.153275,14730.098246
192.284709,-5745.716235,-5403.503377,15100.201217
192.285017,-6128.763984,-5477.523971,15988.448347
192.285325,-5362.668486,-5625.565159,16432.571912
192.285633,-4060.306139,-5033.400406,15470.304188
192.285941,-2528.115143,-3552.988522,13323.706956
192.286249,76.609550,-2368.659014,12287.418637
192.286557,842.705048,-962.267725,10288.862594
192.286865,2451.505594,1036.288319,8364.327145
192.287173,4136.915689,2146.597232,7328.038826
192.287481,5362.668486,2960.823768,5921.647536
192.287789,5209.449386,3849.070898,4367.215058
192.288097,5898.935335,3849.070898,5181.441594
192.288405,5439.278036,3256.906145,5329.482782
192.288713,4826.401637,3256.906145,5329.482782
192.289021,3753.867940,3775.050304,5699.585753
192.289329,3677.258390,3775.050304,5551.544565
192.289637,3064.381992,3552.988522,6365.771101
192.289945,2374.896044,3478.967927,6883.915261
192.290253,1149.143247,1628.453072,8586.388927
192.290561,-153.219100,-0.000000,10510.924376
192.290869,-1532.190996,-962.267725,11769.274478
192.291177,-3217.601092,-2294.638420,13397.727550
192.291485,-4903.011187,-3775.050304,14656.077652
192.291793,-5286.058936,-4441.235652,15322.262999
192.292101,-5362.668486,-4589.276840,16284.530724
192.292409,-4673.182538,-4811.338623,15914.427753
192.292717,-3753.867940,-3775.050304,13767.830521
192.293025,-2374.896044,-2442.679609,13619.789333
192.293333,153.219100,-2368.659014,11843.295072
192.293641,766.095498,-370.102971,9992.780217
192.293949,3294.210641,888.247130,8142.265362
192.294257,3907.087040,1554.432478,7328.038826
192.294565,4903.011187,2590.720797,6365.771101
192.294873,4903.011187,3478.967927,5551.544565
192.295181,5209.449386,3775.050304,5403.503377
192.295489,5132.839837,3997.112087,4885.359217
192.295797,4979.620737,4959.379811,4737.318029
192.296105,4826.401637,5477.523971,5107.421000
192.296413,4826.401637,5107.421000,5181.441594
192.296722,3983.696590,4737.318029,5995.668130
192.297030,2528.115143,3404.947333,6735.874072
192.297338,153.219100,740.205942,9474.636058
192.297646,-1608.800546,-1184.329507,11473.192101
192.297954,-3294.210641,-3108.864956,13545.768739
192.298262,-4979.620737,-5107.421000,15026.180623
192.298570,-6128.763984,-5921.647536,15692.365970
192.298878,-6894.859482,-6291.750507,15988.448347
192.299186,-5286.058936,-6143.709319,16950.716072
192.299494,-4290.134789,-4811.338623,14656.077652
192.299802,-2451.505594,-3034.844362,12879.583391
192.300110,0.000000,-1850.514855,11843.295072
192.300418,1685.410096,-592.164754,9326.594869
192.300726,3524.039291,1628.453072,7772.162391
192.301034,4826.401637,2368.659014,6735.874072
192.301342,5592.497135,2664.741391,6217.729913
192.301650,4903.011187,3701.029710,4959.379811
192.301958,4519.963438,3478.967927,5551.544565
192.302266,4749.792088,3404.947333,5847.626942
192.302574,3907.087040,3775.050304,5403.503377
192.302882,3140.991542,3627.009116,5773.606348
192.303190,3294.210641,3256.906145,5625.565159
192.303498,2911.162892,3256.906145,6217.729913
192.303806,2145.067394,2590.720797,6735.874072
192.304114,766.095498,1406.391290,8956.491898
192.304422,-689.485948,-74.020594,10362.883188
192.304730,-2145.067394,-1184.329507,11843.295072
192.305038,-3447.429741,-3034.844362,13619.789333
192.305346,-4596.572988,-3997.112087,14508.036463
192.305654,-5669.106685,-4515.256246,15470.304188
192.305962,-5592.497135,-5107.421000,16432.571912
192.306270,-4903.011187,-5403.503377,15544.324782
192.306578,-3830.477490,-4145.153275,14137.933492
192.306886,-2145.067394,-3034.844362,13027.624579
192.307194,0.000000,-2368.659014,11251.130318
192.307502,1225.752797,-148.041188,9474.636058
192.307810,2451.505594,592.164754,7920.203579
192.308118,4290.134789,1998.556043,7031.956449
192.308426,4826.401637,2812.782580,6291.750507
192.308734,4903.011187,4441.235652,4589.276840
192.309042,5209.449386,4663.297435,4885.359217
192.309350,5592.497135,5403.503377,4885.359217
192.309658,5209.449386,5773.606348,4293.194464
192.309966,4826.401637,5403.503377,4589.276840
192.310274,4596.572988,4737.318029,5181.441594
192.310582,3677.258390,4071.132681,6809.894666
192.310890,2298.286494,2294.638420,6957.935855
192.311198,-612.876398,-666.185348,10288.862594
192.311506,-2374.896044,-2072.576638,12731.542202
192.311814,-3907.087040,-3256.906145,13767.830521
192.312122,-5439.278036,-4737.318029,15470.304188
192.312430,-6052.154434,-5921.647536,15914.427753
192.312738,-5515.887586,-5699.585753,15840.407159
192.313046,-4749.792088,-5181.441594,16580.613101
192.313354,-2987.772442,-4441.235652,14878.139434
192.313662,-1149.143247,-2442.679609,12953.603985
192.313970,383.047749,-1258.350101,11695.253884
192.314278,2298.286494,-0.000000,9178.553681
192.314586,3294.210641,1850.514855,7624.121203
192.314894,4596.572988,2516.700203,6957.935855
192.315202,4443.353888,2368.659014,6439.791695
192.315510,5286.058936,3108.864956,5625.565159
192.315818,4903.011187,3108.864956,6069.688724
192.316126,4519.963438,3552.988522,5699.585753
192.316434,4673.182538,4071.132681,5181.441594
192.316742,3907.087040,4293.194464,5847.626942
192.317050,3830.477490,4071.132681,5181.441594
192.317358,3677.258390,3997.112087,6217.729913
192.317666,3294.210641,3404.947333,6883.915261
192.317974,919.314598,2072.576638,7994.224174
192.318282,-766.095498,-592.164754,10658.965565
192.318590,-1838.629195,-1850.514855,11991.336260
192.318898,-3753.867940,-3108.864956,13545.768739
192.319206,-4903.011187,-4219.173869,14730.098246
192.319514,-5439.278036,-5181.441594,15248.242405
192.319822,-6128.763984,-5107.421000,15988.448347
192.320130,-4979.620737,-5699.585753,16136.489536
192.320438,-3753.867940,-4589.276840,14508.036463
192.320746,-2298.286494,-3478.967927,13027.624579
192.321054,-306.438199,-2368.659014,11621.233289
192.321362,1455.581446,-518.144159,9992.780217
192.321670,2757.943793,1332.370696,7994.224174
192.321978,4060.306139,2368.659014,6439.791695
192.322286,5056.230287,3330.926739,5625.565159
192.322595,5439.278036,4293.194464,4959.379811
192.322903,6128.763984,4885.359217,4589.276840
192.323211,5745.716235,5107.421000,4737.318029
192.323519,4903.011187,5107.421000,4367.215058
192.323827,4290.134789,5107.421000,4663.297435
192.324135,4136.915689,4663.297435,4959.379811
192.324443,3217.601092,3775.050304,6143.709319
192.324751,1302.362347,1628.453072,7550.100608
192.325059,-612.876398,-592.164754,10288.862594
192.325367,-1762.019645,-2516.700203,11843.295072
192.325675,-3907.087040,-3775.050304,13619.789333
192.325983,-5132.839837,-4663.297435,15248.242405
192.326291,-5286.058936,-5773.606348,15914.427753
192.326599,-5592.497135,-5329.482782,15840.407159
192.326907,-4903.011187,-5107.421000,15988.448347
192.327215,-2987.772442,-4071.132681,14434.015869
192.327523,-1378.971896,-2368.659014,13323.706956
192.327831,0.000000,-1628.453072,11251.130318
192.328139,1532.190996,-666.185348,10066.800811
192.328447,2528.115143,1184.329507,8808.450710
192.328755,3907.087040,2294.638420,7105.977043
192.329063,4673.182538,2664.741391,5773.606348
192.329371,4673.182538,3108.864956,5921.647536
192.329679,5209.449386,3256.906145,6069.688724
192.329987,4519.963438,3849.070898,5255.462188
192.330295,4979.620737,4441.235652,5329.482782
192.330603,4366.744339,4885.359217,4885.359217
192.330911,4519.963438,5033.400406,4811.338623
192.331219,3907.087040,4737.318029,5255.462188
192.331527,2757.943793,3478.967927,6809.894666
192.331835,1072.533697,1258.350101,9326.594869
192.332143,-229.828649,-296.082377,10288.862594
192.332451,-1991.848295,-2146.597232,12065.356855
192.332759,-3677.258390,-3478.967927,13397.727550
192.333067,-5056.230287,-4811.338623,15322.262999
192.333375,-5822.325785,-5625.565159,17394.839637
192.333683,-6128.763984,-5773.606348,16728.654289
192.333991,-5439.278036,-5403.503377,15988.448347
192.334299,-4213.525239,-4219.173869,14434.015869
192.334607,-1915.238745,-3256.906145,13545.768739
192.334915,-459.657299,-2146.597232,11843.295072
192.335223,383.047749,296.082377,9548.656652
192.335531,2528.115143,814.226536,8364.327145
192.335839,4519.963438,3478.967927,5847.626942
192.336147,4596.572988,4145.153275,5477.523971
192.336455,5056.230287,4367.215058,5033.400406
192.336763,5056.230287,5181.441594,4737.318029
192.337071,5209.449386,4663.297435,4959.379811
192.337379,4826.401637,5107.421000,3775.050304
192.337687,4826.401637,5033.400406,4441.235652
192.337995,4213.525239,4145.153275,4737.318029
192.338303,3524.039291,3775.050304,5847.626942
192.338611,1991.848295,2072.576638,7698.141797
192.338919,0.000000,-0.000000,9992.780217
192.339227,-1302.362347,-1480.411884,11251.130318
192.339535,-3064.381992,-3108.864956,12509.480420
192.339843,-4366.744339,-4071.132681,14730.098246
192.340151,-5209.449386,-5403.503377,15988.448347
192.340459,-4749.792088,-5329.482782,16580.613101
192.340767,-5286.058936,-5625.565159,16062.468941
192.341075,-3830.477490,-4441.235652,14804.118840
192.341383,-2451.505594,-3404.947333,13915.871710
192.341691,-1378.971896,-2294.638420,11991.336260
192.341999,842.705048,-1110.308913,11103.089130
192.342307,2145.067394,148.041188,8660.409521
192.342615,3753.867940,1628.453072,7179.997637
192.342923,4290.134789,2664.741391,5995.668130
192.343231,5209.449386,3552.988522,5551.544565
192.343539,5209.449386,3552.988522,5403.503377
192.343847,4596.572988,3997.112087,5403.503377
192.344155,4596.572988,3923.091493,5329.482782
192.344463,4290.134789,4663.297435,4737.318029
192.344771,4060.306139,4885.359217,5107.421000
192.345079,3753.867940,4515.256246,5551.544565
192.345387,2911.162892,3552.988522,6587.832884
192.345695,1455.581446,1776.494261,8512.368333
192.346003,153.219100,-0.000000,9696.697840
192.346311,-1072.533697,-1554.432478,11251.130318
192.346619,-2911.162892,-2886.803174,13101.645173
192.346927,-4826.401637,-4959.379811,15026.180623
192.347235,-5592.497135,-6143.709319,16654.633695
192.347543,-5898.935335,-6513.812290,16876.695478
192.347851,-5286.058936,-5847.626942,16284.530724
192.348159,-3907.087040,-4515.256246,14730.098246
192.348467,-2145.067394,-2960.823768,13397.727550
192.348776,-919.314598,-1776.494261,11769.274478
192.349084,995.924147,-296.082377,10066.800811
192.349392,2681.334243,1258.350101,7698.141797
192.349700,4213.525239,2664.741391,5995.668130
192.350008,4903.011187,4071.132681,4959.379811
192.350316,5592.497135,4145.153275,4811.338623
192.350624,5286.058936,4737.318029,5181.441594
192.350932,4749.792088,4737.318029,4589.276840
192.351240,4749.792088,4811.338623,4293.194464
192.351548,4826.401637,5329.482782,4071.132681
192.351856,3830.477490,4737.318029,5625.565159
192.352164,3140.991542,3627.009116,6587.832884
192.352472,2298.286494,2738.761985,7550.100608
192.352780,0.000000,296.082377,9474.636058
192.353088,-1378.971896,-1184.329507,10881.027347
192.353396,-2145.067394,-2442.679609,12657.521608
192.353704,-4290.134789,-4071.132681,14359.995275
192.354012,-5439.278036,-5551.544565,15914.427753
192.354320,-5898.935335,-5995.668130,16432.571912
192.354628,-5515.887586,-5921.647536,16580.613101
192.354936,-3983.696590,-5255.462188,14878.139434
192.355244,-2834.553343,-3108.864956,13915.871710
192.355552,-612.876398,-2146.597232,12509.480420
192.355860,766.095498,-1480.411884,10510.924376
192.356168,2221.676944,740.205942,8660.409521
192.356476,3370.820191,1850.514855,7994.224174
192.356784,3830.477490,2664.741391,6513.812290
192.357092,5286.058936,3256.906145,5995.668130
192.357400,5132.839837,3775.050304,5773.606348
192.357708,4673.182538,3997.112087,5033.400406
192.358016,4749.792088,4737.318029,4737.318029
192.358324,4903.011187,5477.523971,4441.235652
192.358632,4366.744339,5551.544565,4293.194464
192.358940,4213.525239,4811.338623,4737.318029
192.359248,3064.381992,3256.906145,6735.874072
192.359556,919.314598,1480.411884,8956.491898
192.359864,-229.828649,-296.082377,9844.739029
192.360172,-2145.067394,-2442.679609,11917.315666
192.360480,-3983.696590,-3923.091493,13545.768739
192.360788,-5439.278036,-5625.565159,15988.448347
192.361096,-6588.421283,-6513.812290,17394.839637
192.361404,-6588.421283,-6587.832884,17024.736666
192.361712,-4826.401637,-5255.462188,15470.304188
192.362020,-3753.867940,-4219.173869,14137.933492
192.362328,-1838.629195,-3256.906145,12657.521608
192.362636,0.000000,-1332.370696,11103.089130
192.362944,1762.019645,444.123565,9400.615463
192.363252,3294.210641,2072.576638,6883.915261
192.363560,4519.963438,3404.947333,5477.523971
192.363868,5439.278036,4219.173869,5033.400406
192.364176,5822.325785,4589.276840,4663.297435
192.364484,5056.230287,5107.421000,4811.338623
192.364792,5439.278036,4737.318029,4959.379811
192.365100,4443.353888,4959.379811,4515.256246
192.365408,3677.258390,4737.318029,5403.503377
192.365716,3294.210641,3997.112087,6809.894666
192.366024,2145.067394,3256.906145,7328.038826
192.366332,306.438199,888.247130,9178.553681
192.366640,-1455.581446,-222.061783,10584.944971
192.366948,-2451.505594,-2146.597232,12139.377449
192.367256,-3677.258390,-3404.947333,13915.871710
192.367564,-4903.011187,-4737.318029,15100.201217
192.367872,-5515.887586,-5403.503377,16062.468941
192.368180,-5745.716235,-5181.441594,15914.427753
192.368488,-4519.963438,-5181.441594,15692.365970
192.368796,-2604.724693,-4441.235652,14285.974681
192.369104,-1455.581446,-2590.720797,12509.480420
192.369412,612.876398,-1776.494261,10881.027347
192.369720,2374.896044,-74.020594,9252.574275
192.370028,3524.039291,1554.432478,7624.121203
192.370336,4673.182538,2368.659014,5921.647536
192.370644,5592.497135,3108.864956,5477.523971
192.370952,5822.325785,3701.029710,4811.338623
192.371260,5362.668486,4145.153275,4145.153275
192.371568,5439.278036,4145.153275,4441.235652
192.371876,4290.134789,4219.173869,4071.132681
192.372184,3600.648841,4737.318029,4737.318029
192.372492,3370.820191,4071.132681,6291.750507
192.372800,2451.505594,2516.700203,7476.080014
192.373108,919.314598,1332.370696,8882.471304
192.373416,-995.924147,-296.082377,10066.800811
192.373724,-2298.286494,-2368.659014,12361.439231
192.374032,-3830.477490,-3997.112087,13915.871710
192.374340,-4903.011187,-5107.421000,15766.386565
192.374649,-5898.935335,-6143.709319,16062.468941
192.374957,-5898.935335,-5699.585753,15470.304188
192.375265,-4826.401637,-4959.379811,15322.262999
192.375573,-3677.258390,-4367.215058,14063.912898
192.375881,-1762.019645,-2812.782580,12953.603985
192.376189,383.047749,-1258.350101,10807.006753
192.376497,1838.629195,370.102971,8734.430116
192.376805,3753.867940,1332.370696,7254.018232
192.377113,5209.449386,2738.761985,5477.523971
192.377421,5822.325785,3923.091493,5033.400406
192.377729,6358.592633,4293.194464,4737.318029
192.378037,5592.497135,4885.359217,3701.029710
192.378345,5669.106685,4885.359217,4145.153275
192.378653,5132.839837,4737.318029,4441.235652
192.378961,4519.963438,4737.318029,5181.441594
192.379269,3753.867940,4515.256246,5995.668130
192.379577,2681.334243,2960.823768,7105.977043
192.379885,842.705048,2220.617826,8512.368333
192.380193,-459.657299,518.144159,10362.883188
192.380501,-2145.067394,-1628.453072,12213.398043
192.380809,-3524.039291,-3256.906145,13693.809927
192.381117,-4903.011187,-5107.421000,14952.160028
192.381425,-5209.449386,-5773.606348,16136.489536
192.381733,-5515.887586,-6291.750507,16062.468941
192.382041,-4366.744339,-5255.462188,16506.592507
192.382349,-3600.648841,-4145.153275,15396.283594
192.382657,-2374.896044,-2886.803174,13397.727550
192.382965,-383.047749,-1998.556043,11843.295072
192.383273,1608.800546,-0.000000,9474.636058
192.383581,3447.429741,1258.350101,7994.224174
192.383889,4136.915689,2072.576638,6587.832884
192.384197,5592.497135,3552.988522,5773.606348
192.384505,6052.154434,3552.988522,5255.462188
192.384813,5592.497135,4515.256246,4367.215058
192.385121,5286.058936,4737.318029,4663.297435
192.385429,4903.011187,4589.276840,4737.318029
192.385737,4213.525239,4811.338623,5033.400406
192.386045,3294.210641,4293.194464,6217.729913
192.386353,2604.724693,3330.926739,7254.018232
192.386661,1378.971896,2146.597232,8586.388927
192.386969,0.000000,592.164754,9696.697840
192.387277,-1915.238745,-1110.308913,11621.233289
192.387585,-2987.772442,-3034.844362,13249.686362
192.387893,-4673.182538,-3923.091493,14730.098246
192.388201,-5515.887586,-5181.441594,15692.365970
192.388509,-6128.763984,-5995.668130,15470.304188
192.388817,-5975.544884,-5625.565159,15988.448347
192.389125,-4443.353888,-5181.441594,15692.365970
192.389433,-3524.039291,-4145.153275,13471.748144
192.389741,-1838.629195,-2368.659014,12583.501014
192.390049,689.485948,-962.267725,10732.986159
192.390357,2528.115143,888.247130,8142.265362
192.390665,3753.867940,2442.679609,6587.832884
192.390973,5592.497135,3330.926739,5329.482782
192.391281,6665.030833,4071.132681,4959.379811
192.391589,6511.811733,4811.338623,3775.050304
192.391898,6128.763984,4737.318029,3701.029710
192.392206,5669.106685,4959.379811,4145.153275
192.392514,4903.011187,4885.359217,3997.112087
192.392822,3753.867940,4737.318029,5181.441594
192.393130,2834.553343,3775.050304,6143.709319
192.393438,1685.410096,2146.597232,8142.265362
192.393746,536.266849,1480.411884,9104.533087
192.394054,-1149.143247,-666.185348,10881.027347
192.394362,-2451.505594,-2516.700203,12731.542202
192.394670,-3830.477490,-3849.070898,14063.912898
192.394978,-4826.401637,-4811.338623,15322.262999
192.395286,-5669.106685,-5699.585753,15914.427753
192.395594,-5592.497135,-5329.482782,15840.407159
192.395902,-4290.134789,-5403.503377,15396.283594
192.396210,-3217.601092,-3997.112087,14582.057057
192.396518,-2298.286494,-3404.947333,12583.501014
192.396826,0.000000,-1776.494261,11621.233289
192.397134,1762.019645,-222.061783,9178.553681
192.397442,3217.601092,1184.329507,7772.162391
192.397750,4519.963438,2294.638420,6365.771101
192.398058,5592.497135,2960.823768,5477.523971
192.398366,5975.544884,3330.926739,4737.318029
192.398674,5515.887586,4737.318029,3849.070898
192.398982,5898.935335,4811.338623,4441.235652
192.399290,5515.887586,4737.318029,3849.070898
192.399598,4366.744339,5033.400406,4589.276840
192.399906,3907.087040,4589.276840,5551.544565
192.400214,2681.334243,3256.906145,7179.997637
192.400522,842.705048,2072.576638,8586.388927
192.400830,-1072.533697,592.164754,10288.862594
192.401138,-1838.629195,-1776.494261,12287.418637
192.401446,-3830.477490,-3256.906145,13619.789333
192.401755,-5439.278036,-4811.338623,15544.324782
192.402063,-6205.373534,-5921.647536,16580.613101
192.402371,-6358.592633,-6143.709319,16654.633695
192.402679,-5515.887586,-5773.606348,16506.592507
192.402987,-4443.353888,-5033.400406,14952.160028
192.403295,-2604.724693,-3256.906145,13471.748144
192.403603,-612.876398,-2146.597232,12065.356855
192.403911,1532.190996,-148.041188,9918.759623
192.404219,2834.553343,1702.473667,7476.080014
192.404527,4826.401637,3182.885551,6365.771101
192.404835,5286.058936,4071.132681,4811.338623
192.405143,6358.592633,4589.276840,5107.421000
192.405451,6358.592633,4737.318029,4145.153275
192.405759,5439.278036,4885.359217,3701.029710
192.406067,5439.278036,4663.297435,4959.379811
192.406375,4596.572988,4515.256246,4589.276840
192.406683,3447.429741,3701.029710,5477.523971
192.406991,2681.334243,3330.926739,6513.812290
192.407299,1915.238745,2590.720797,8068.244768
192.407607,459.657299,1406.391290,9178.553681
192.407915,-842.705048,-296.082377,10732.986159
192.408223,-1762.019645,-1998.556043,12731.542202
192.408531,-3830.477490,-3552.988522,13323.706956
192.408839,-4673.182538,-4959.379811,14804.118840
192.409147,-5515.887586,-5847.626942,15988.448347
192.409455,-5669.106685,-5625.565159,16432.571912
192.409763,-4673.182538,-5255.462188,15618.345376
192.410071,-3524.039291,-4367.215058,14285.974681
192.410379,-2145.067394,-3182.885551,12731.542202
192.410687,-153.219100,-1924.535449,11843.295072
192.410995,1685.410096,-444.123565,9770.718434
192.411304,3447.429741,1110.308913,7624.121203
192.411612,4749.792088,2368.659014,6069.688724
192.411920,5439.278036,3034.844362,5255.462188
192.412228,6052.154434,4515.256246,4441.235652
192.412536,6435.202183,5255.462188,3923.091493
192.412844,6665.030833,5625.565159,3404.947333
192.413152,5132.839837,5699.585753,3404.947333
192.413460,4443.353888,5477.523971,4811.338623
192.413768,3830.477490,4219.173869,5773.606348
192.414076,2298.286494,3034.844362,7476.080014
192.414384,842.705048,1480.411884,8882.471304
192.414692,-919.314598,-148.041188,10140.821405
192.415000,-2681.334243,-2294.638420,12287.418637
192.415308,-4213.525239,-4293.194464,14211.954086
192.415616,-5669.106685,-5329.482782,16432.571912
192.415924,-6128.763984,-6217.729913,16210.510130
192.416232,-6052.154434,-5773.606348,16728.654289
192.416540,-5286.058936,-5921.647536,16062.468941
192.416848,-3907.087040,-4663.297435,14508.036463
192.417156,-2451.505594,-2590.720797,13175.665768
192.417464,-383.047749,-1110.308913,11843.295072
192.417772,1455.581446,296.082377,9696.697840
192.418080,3064.381992,2220.617826,7920.203579
192.418388,4826.401637,2960.823768,6957.935855
192.418696,5286.058936,3701.029710,5255.462188
192.419004,5439.278036,4071.132681,4737.318029
192.419312,5669.106685,4515.256246,4811.338623
192.419620,5132.839837,4589.276840,4589.276840
192.419928,4903.011187,4663.297435,4663.297435
192.420236,4673.182538,4515.256246,5255.462188
192.420544,4596.572988,4515.256246,5551.544565
192.420852,3600.648841,3923.091493,6809.894666
192.421161,2451.505594,2738.761985,7920.203579
192.421469,995.924147,1850.514855,8956.491898
192.421777,-1072.533697,-148.041188,10658.965565
192.422085,-2451.505594,-1776.494261,12435.459826
192.422393,-3600.648841,-3330.926739,14063.912898
192.422701,-5132.839837,-5181.441594,15248.242405
192.423009,-5439.278036,-6143.709319,16062.468941
192.423317,-5669.106685,-5921.647536,16580.613101
192.423625,-5056.230287,-5699.585753,16284.530724
192.423933,-3907.087040,-4589.276840,14582.057057
192.424241,-1991.848295,-2886.803174,13249.686362
192.424549,536.266849,-1702.473667,11177.109724
192.424857,2451.505594,-74.020594,8734.430116
192.425165,3830.477490,1924.535449,7328.038826
192.425473,5822.325785,2368.659014,5847.626942
192.425781,6741.640382,3997.112087,4737.318029
192.426089,6741.640382,4737.318029,4589.276840
192.426397,6358.592633,5255.462188,3849.070898
192.426705,5669.106685,5625.565159,3849.070898
192.427013,4903.011187,5329.482782,3775.050304
192.427321,4060.306139,4959.379811,4959.379811
192.427629,2451.505594,3478.967927,6217.729913
192.427937,2221.676944,1924.535449,8068.244768
192.428245,-306.438199,666.185348,9474.636058
192.428553,-2451.505594,-1110.308913,11325.150913
192.428861,-3064.381992,-2960.823768,13249.686362
192.429169,-4673.182538,-4589.276840,14285.974681
192.429477,-5898.935335,-5403.503377,15618.345376
192.429785,-6128.763984,-5921.647536,15544.324782
192.430093,-5362.668486,-5773.606348,15692.365970
192.430401,-4213.525239,-5551.544565,15544.324782
192.430709,-3524.039291,-4219.173869,14137.933492
192.431018,-2298.286494,-2442.679609,12879.583391
192.431326,0.000000,-1184.329507,11029.068536
192.431634,1608.800546,518.144159,9104.533087
192.431942,3524.039291,1924.535449,7105.977043
192.432250,4826.401637,3034.844362,5773.606348
192.432558,5362.668486,3478.967927,4811.338623
192.432866,5975.544884,3997.112087,4219.173869
192.433174,5898.935335,4219.173869,4959.379811
192.433482,5056.230287,4145.153275,4441.235652
192.433790,4519.963438,4515.256246,4441.235652
192.434098,3983.696590,4663.297435,5033.400406
192.434406,3370.820191,3923.091493,5921.647536
192.434714,2451.505594,3552.988522,7105.977043
192.435022,1378.971896,2442.679609,8216.285956
192.435330,-536.266849,814.226536,9918.759623
192.435638,-1608.800546,-814.226536,10881.027347
192.435946,-2834.553343,-2960.823768,12583.501014
192.436254,-4136.915689,-4293.194464,14878.139434
192.436562,-5362.668486,-5551.544565,15840.407159
192.436870,-5592.497135,-5921.647536,16210.510130
192.437178,-5056.230287,-5699.585753,16654.633695
192.437486,-4136.915689,-5033.400406,15100.201217
192.437794,-3140.991542,-3627.009116,13989.892304
192.438102,-842.705048,-1924.535449,12805.562797
192.438410,995.924147,-518.144159,10584.944971
192.438718,2451.505594,1332.370696,7624.121203
192.439026,4826.401637,2368.659014,7031.956449
192.439334,5822.325785,3108.864956,5403.503377
192.439642,5822.325785,4737.318029,4145.153275
192.439950,7048.078582,4663.297435,5033.400406
192.440258,5592.497135,5255.462188,3404.947333
192.440566,5209.449386,5255.462188,4367.215058
192.440875,4519.963438,5181.441594,4959.379811
192.441183,3677.258390,4737.318029,6291.750507
192.441491,2221.676944,3256.906145,7328.038826
192.441799,766.095498,2146.597232,8808.450710
192.442107,-76.609550,148.041188,10510.924376
192.442415,-2221.676944,-1702.473667,12065.356855
192.442723,-3677.258390,-2886.803174,14063.912898
192.443031,-5132.839837,-4367.215058,15692.365970
192.443339,-6052.154434,-5847.626942,16580.613101
192.443647,-6052.154434,-5921.647536,16358.551318
192.443955,-4979.620737,-5329.482782,15766.386565
192.444263,-3753.867940,-4441.235652,14804.118840
192.444571,-2987.772442,-3256.906145,13249.686362
192.444879,-766.095498,-1702.473667,12287.418637
192.445187,1072.533697,-74.020594,10288.862594
192.445495,2528.115143,1184.329507,8290.306550
192.445803,4213.525239,2516.700203,6513.812290
192.446111,4979.620737,3034.844362,5477.523971
192.446419,5439.278036,3552.988522,5033.400406
192.446727,5592.497135,3997.112087,4515.256246
192.447035,5362.668486,3627.009116,4811.338623
192.447343,5056.230287,3552.988522,4441.235652
192.447651,4366.744339,4441.235652,4737.318029
192.447959,4290.134789,4219.173869,5625.565159
192.448267,2987.772442,3923.091493,6069.688724
192.448575,2528.115143,3330.926739,7031.956449
192.448883,1378.971896,2368.659014,8290.306550
192.449191,-306.438199,814.226536,9622.677246
192.449499,-1838.629195,-1184.329507,11621.233289
192.449807,-2987.772442,-2590.720797,13323.706956
192.450115,-4443.353888,-4811.338623,14730.098246
192.450424,-5592.497135,-5921.647536,16136.489536
192.450732,-5822.325785,-6513.812290,16728.654289
192.451040,-5286.058936,-5477.523971,16506.592507
192.451348,-4136.915689,-4737.318029,15248.242405
192.451656,-2528.115143,-2886.803174,13619.789333
192.451964,0.000000,-1702.473667,11843.295072
192.452272,2145.067394,-518.144159,9178.553681
192.452580,3600.648841,1702.473667,7328.038826
192.452888,5362.668486,2664.741391,5773.606348
192.453196,5439.278036,3849.070898,4663.297435
192.453504,6588.421283,4737.318029,4515.256246
192.453812,6435.202183,5033.400406,4071.132681
192.454120,5515.887586,5107.421000,3849.070898
192.454428,4903.011187,4811.338623,4219.173869
192.454736,3830.477490,4293.194464,5329.482782
192.455044,2451.505594,3552.988522,6143.709319
192.455352,1149.143247,2516.700203,8364.327145
192.455660,306.438199,1036.288319,9252.574275
192.455968,-1149.143247,-222.061783,10362.883188
192.456276,-2298.286494,-1850.514855,12065.356855
192.456584,-3907.087040,-3404.947333,13545.768739
192.456892,-5056.230287,-5033.400406,15174.221811
192.457200,-5592.497135,-5551.544565,15766.386565
192.457508,-5362.668486,-5477.523971,15914.427753
192.457816,-4979.620737,-5699.585753,15248.242405
192.458124,-4060.306139,-4145.153275,14804.118840
192.458432,-2528.115143,-2738.761985,13249.686362
192.458740,-919.314598,-1332.370696,12361.439231
192.459048,689.485948,296.082377,10140.821405
192.459356,2604.724693,1702.473667,7920.203579
192.459664,4903.011187,2664.741391,6217.729913
192.459972,5515.887586,3404.947333,5033.400406
192.460281,6052.154434,3849.070898,5181.441594
192.460589,6128.763984,4293.194464,4663.297435
192.460897,5362.668486,4219.173869,4737.318029
192.461205,4673.182538,4293.194464,4737.318029
192.461513,4060.306139,4293.194464,5255.462188
192.461821,3370.820191,3552.988522,5995.668130
192.462129,2451.505594,3330.926739,6957.935855
192.462437,1991.848295,2516.700203,7846.182985
192.462745,459.657299,1702.473667,9030.512492
192.463053,-919.314598,-148.041188,10362.883188
192.463361,-2451.505594,-1628.453072,12139.377449
192.463669,-3600.648841,-3552.988522,13915.871710
192.463977,-4596.572988,-4737.318029,15174.221811
192.464285,-5286.058936,-5255.462188,16062.468941
192.464593,-5745.716235,-5921.647536,16654.633695
192.464901,-4826.401637,-5255.462188,16062.468941
192.465209,-3600.648841,-4071.132681,14285.974681
192.465517,-1608.800546,-2664.741391,13027.624579
192.465825,306.438199,-1184.329507,10807.006753
192.466133,2374.896044,296.082377,8586.388927
192.466441,4366.744339,2146.597232,6809.894666
192.466749,5286.058936,3034.844362,5181.441594
192.467057,6665.030833,4293.194464,4367.215058
192.467365,7354.516781,4589.276840,4515.256246
192.467673,7277.907231,4811.338623,3627.009116
192.467981,5975.544884,5255.462188,3552.988522
192.468289,5132.839837,4737.318029,4293.194464
192.468597,3524.039291,4145.153275,5329.482782
192.468905,2298.286494,2886.803174,7254.018232
192.469213,1072.533697,1628.453072,9178.553681
192.469521,-766.095498,-148.041188,10066.800811
192.469829,-1685.410096,-1110.308913,10955.047942
192.470138,-2911.162892,-2812.782580,13027.624579
192.470446,-4519.963438,-4145.153275,14434.015869
192.470754,-5592.497135,-4959.379811,15248.242405
192.471062,-5822.325785,-5625.565159,15470.304188
192.471370,-5286.058936,-5255.462188,15322.262999
192.471678,-3983.696590,-4663.297435,14656.077652
192.471986,-3294.210641,-3182.885551,13767.830521
192.472294,-1915.238745,-2368.659014,12583.501014
192.472602,383.047749,-592.164754,11473.192101
192.472910,1685.410096,1184.329507,8882.471304
192.473218,3524.039291,2146.597232,7179.997637
192.473526,4596.572988,2738.761985,5995.668130
192.473834,5286.058936,3849.070898,5181.441594
192.474142,5822.325785,3404.947333,4959.379811
192.474450,4979.620737,3775.050304,4515.256246
192.474758,4673.182538,3552.988522,4367.215058
192.475066,4596.572988,4071.132681,5403.503377
192.475374,3600.648841,4071.132681,5329.482782
192.475682,3294.210641,3923.091493,6143.709319
192.475990,2451.505594,3923.091493,6809.894666
192.476298,1532.190996,2738.761985,8734.430116
192.476606,153.219100,1258.350101,9474.636058
192.476914,-1378.971896,-444.123565,10955.047942
192.477222,-2374.896044,-2294.638420,12879.583391
192.477530,-3830.477490,-4441.235652,14508.036463
192.477838,-5362.668486,-4811.338623,16358.551318
192.478146,-5898.935335,-5699.585753,16580.613101
192.478454,-5439.278036,-5773.606348,16506.592507
192.478762,-4290.134789,-4811.338623,15618.345376
192.479070,-3677.258390,-4293.194464,13915.871710
192.479378,-1532.190996,-2664.741391,12287.418637
192.479687,1455.581446,-962.267725,10584.944971
192.479995,3140.991542,592.164754,7624.121203
192.480303,4903.011187,2368.659014,5995.668130
192.480611,6205.373534,4071.132681,4737.318029
192.480919,7201.297681,4737.318029,3997.112087
192.481227,7048.078582,5107.421000,4071.132681
192.481535,6358.592633,5107.421000,3627.009116
192.481843,5592.497135,4737.318029,4293.194464
192.482151,4673.182538,4071.132681,5181.441594
192.482459,2834.553343,3552.988522,6365.771101
192.482767,1915.238745,2664.741391,7772.162391
192.483075,383.047749,1110.308913,9326.594869
192.483383,-1072.533697,-74.020594,10214.842000
192.483691,-2374.896044,-1184.329507,11621.233289
192.483999,-3524.039291,-3478.967927,13841.851115
192.484307,-4749.792088,-4219.173869,14878.139434
192.484615,-5439.278036,-5033.400406,15322.262999
192.484923,-5132.839837,-5255.462188,15618.345376
192.485231,-4673.182538,-4737.318029,14952.160028
192.485539,-3830.477490,-4071.132681,14434.015869
192.485847,-2834.553343,-3034.844362,13471.748144
192.486155,-995.924147,-1998.556043,12287.418637
192.486463,536.266849,-666.185348,10066.800811
192.486771,2757.943793,814.226536,8734.430116
192.487079,4060.306139,1924.535449,6883.915261
192.487387,5515.887586,3256.906145,5181.441594
192.487695,5745.716235,3627.009116,4737.318029
192.488003,5745.716235,3775.050304,4367.215058
192.488311,5822.325785,3701.029710,4737.318029
192.488619,4443.353888,3775.050304,4663.297435
192.488928,3830.477490,3330.926739,5477.523971
192.489236,3907.087040,3627.009116,5921.647536
192.489544,2681.334243,3404.947333,5995.668130
192.489852,2374.896044,3108.864956,7698.141797
192.490160,1378.971896,2590.720797,8586.388927
192.490468,0.000000,1110.308913,9918.759623
192.490776,-2068.457845,-666.185348,11621.233289
192.491084,-2911.162892,-2516.700203,13471.748144
192.491392,-3830.477490,-3997.112087,15174.221811
192.491700,-5669.106685,-5181.441594,15174.221811
192.492008,-5362.668486,-5477.523971,16580.613101
192.492316,-5362.668486,-5477.523971,16358.551318
192.492624,-4596.572988,-4959.379811,15322.262999
192.492932,-2681.334243,-3478.967927,13619.789333
192.493241,-306.438199,-2368.659014,12139.377449
192.493549,1302.362347,-888.247130,9844.739029
192.493857,3830.477490,1184.329507,8068.244768
192.494165,5592.497135,2516.700203,5847.626942
192.494473,6971.469032,3701.029710,4441.235652
192.494781,7737.564530,4441.235652,3849.070898
192.495089,7124.688131,5403.503377,3256.906145
192.495397,6281.983084,5181.441594,3256.906145
192.495705,5515.887586,5107.421000,3849.070898
192.496013,4213.525239,4515.256246,5033.400406
192.496321,2757.943793,3404.947333,6217.729913
192.496629,1072.533697,2072.576638,7994.224174
192.496937,-383.047749,1110.308913,9474.636058
192.497245,-1685.410096,-444.123565,11103.089130
192.497553,-3140.991542,-1850.514855,12287.418637
192.497862,-4596.572988,-3775.050304,14137.933492
192.498170,-5439.278036,-4663.297435,14878.139434
192.498478,-5592.497135,-4737.318029,15248.242405
192.498786,-4903.011187,-4811.338623,15692.365970
192.499094,-4290.134789,-4071.132681,14508.036463
192.499402,-3600.648841,-3552.988522,14211.954086
192.499710,-1838.629195,-2886.803174,13027.624579
192.500018,-383.047749,-1480.411884,11917.315666
192.500326,459.657299,-0.000000,9400.615463
192.500634,2681.334243,814.226536,8216.285956
192.500942,4060.306139,1702.473667,6809.894666
192.501250,4673.182538,2368.659014,5181.441594
192.501558,5209.449386,2442.679609,6069.688724
192.501866,4903.011187,3182.885551,4811.338623
192.502175,5362.668486,3256.906145,5033.400406
192.502483,4443.353888,3701.029710,5107.421000
192.502791,4673.182538,4589.276840,5033.400406
192.503099,4290.134789,4663.297435,5255.462188
192.503407,4136.915689,4663.297435,5403.503377
192.503715,2911.162892,3923.091493,6957.935855
192.504023,1072.533697,2442.679609,8438.347739
192.504331,-383.047749,814.226536,10436.903782
192.504639,-2528.115143,-1110.308913,12953.603985
192.504947,-4443.353888,-3330.926739,14434.015869
192.505255,-6128.763984,-4441.235652,15766.386565
192.505563,-6665.030833,-5699.585753,16802.674883
192.505871,-6665.030833,-5921.647536,17616.901420
192.506179,-5439.278036,-5329.482782,16506.592507
192.506487,-3983.696590,-4737.318029,14730.098246
192.506796,-2604.724693,-3256.906145,13323.706956
192.507104,842.705048,-1406.391290,10732.986159
192.507412,3064.381992,444.123565,8438.347739
192.507720,4826.401637,2368.659014,6513.812290
192.508028,6358.592633,3627.009116,5255.462188
192.508336,7354.516781,4515.256246,3775.050304
192.508644,7124.688131,4885.359217,3182.885551
192.508952,6818.249932,4811.338623,3997.112087
192.509260,5592.497135,4737.318029,3701.029710
192.509568,3753.867940,4219.173869,4959.379811
192.509876,3064.381992,3478.967927,5847.626942
192.510184,1685.410096,2368.659014,7772.162391
192.510492,76.609550,1258.350101,9474.636058
192.510800,-1302.362347,222.061783,10584.944971
192.511109,-2604.724693,-1110.308913,12509.480420
192.511417,-4136.915689,-3108.864956,13397.727550
192.511725,-4903.011187,-3034.844362,14211.954086
192.512033,-5209.449386,-4145.153275,14804.118840
192.512341,-4826.401637,-4071.132681,15100.201217
192.512649,-4519.963438,-4663.297435,14804.118840
192.512957,-3677.258390,-3923.091493,14285.974681
192.513265,-2604.724693,-3256.906145,13619.789333
192.513573,-842.705048,-2442.679609,12139.377449
192.513881,229.828649,-1184.329507,10436.903782
192.514189,2374.896044,148.041188,9178.553681
192.514497,2451.505594,888.247130,6883.915261
192.514805,4903.011187,1776.494261,6587.832884
192.515113,5822.325785,2368.659014,4959.379811
192.515421,5975.544884,3108.864956,4145.153275
192.515730,6205.373534,3478.967927,4737.318029
192.516038,5745.716235,3701.029710,4589.276840
192.516346,4596.572988,3775.050304,4663.297435
192.516654,3983.696590,4663.297435,5107.421000
192.516962,3753.867940,4219.173869,5995.668130
192.517270,2298.286494,3627.009116,7179.997637
192.517578,995.924147,2664.741391,8438.347739
