#time,accel_x,accel_y,accel_z
695.208187,-57.427742,-937.986459,-9667.003304
695.210988,-76.570323,-918.843878,-9609.575562
695.213790,-133.998066,-918.843878,-9686.145885
695.216592,-344.566454,172.283227,-10202.995566
695.219393,38.285162,1722.832272,-9781.858789
695.222195,-210.568389,4517.649069,-9513.862658
695.224996,-19.142581,5130.211654,-9341.579430
695.227798,-191.425808,5666.203917,-11179.267187
695.230599,-114.855485,574.277424,-7465.606512
695.233401,191.425808,-1493.121302,-11408.978157
695.236203,-421.136778,-6355.336826,-8537.591037
695.239004,-57.427742,-10490.134278,-9188.438784
695.241806,-95.712904,-10202.995566,-11026.126541
695.244607,899.701298,-2105.683888,-9590.432981
695.247409,-1167.697429,1282.552914,-8154.739421
695.250211,669.990328,-1703.689691,-11045.269122
695.253012,-229.710970,-784.845813,-9284.151688
695.255814,114.855485,-2105.683888,-7810.172966
695.258615,172.283227,-2679.961312,-11313.265253
695.261417,-861.416136,-3981.656806,-8595.018779
695.264123,76.570323,-7733.602643,-8652.446522
695.266830,-267.996131,-11102.696864,-10719.845248
695.269536,38.285162,-9437.292334,-9016.155557
695.272243,803.988394,-2488.535504,-10566.704602
695.274949,-2507.678085,2947.957443,-10470.991698
695.277656,2086.541307,2086.541307,-7580.461997
695.280362,-727.418070,4498.506488,-8614.161360
695.283069,172.283227,2756.531635,-13304.093656
695.285775,-38.285162,-1263.410333,-6699.903280
695.288482,-516.849682,-4555.934230,-9207.581365
695.291189,76.570323,-4843.072942,-12519.247843
695.293895,-1186.840010,-3120.240670,-8212.167163
695.296602,689.132909,-2947.957443,-8786.444587
695.299308,133.998066,-1493.121302,-11255.837510
695.302015,-401.994197,3617.947771,-8212.167163
695.304721,421.136778,2048.256146,-9781.858789
695.307428,-995.414202,1493.121302,-10279.565890
695.310134,363.709035,-1550.549045,-7408.178770
695.312841,-172.283227,-3254.238736,-12614.960747
695.315547,-803.988394,-3101.098090,-10260.423309
695.318254,-95.712904,-3771.088418,-7733.602643
695.320960,1646.261949,-1761.117434,-9820.143950
695.323667,-1473.978722,1933.400661,-9992.427178
695.326373,784.845813,1588.834206,-10241.280728
695.329080,-287.138712,1588.834206,-7542.176835
695.331786,19.142581,-306.281293,-11083.554283
695.334493,-76.570323,-1531.406464,-10049.854920
695.337199,76.570323,-4307.080680,-6719.045861
695.339906,-172.283227,-3120.240670,-12634.103328
695.342612,133.998066,-1971.685822,-8269.594906
695.345319,-133.998066,-631.705166,-10892.128475
695.348025,-574.277424,995.414202,-11274.980091
695.350732,497.707101,1244.267752,-7695.317482
695.353438,-382.851616,1550.549045,-10624.132344
695.356145,-76.570323,-1167.697429,-9016.155557
695.358851,459.421939,-2794.816797,-9839.286531
695.361558,-172.283227,-3617.947771,-8097.311678
695.364264,-1110.269686,421.136778,-12940.384621
695.366971,267.996131,784.845813,-7312.465866
695.369677,-133.998066,-516.849682,-10126.425243
695.372320,-114.855485,-1588.834206,-11944.970419
695.374962,191.425808,-2852.244539,-6259.623922
695.377605,-153.140646,-937.986459,-11389.835576
695.380247,287.138712,-1531.406464,-9667.003304
695.382889,-612.562586,555.134843,-8403.592971
695.385532,191.425808,133.998066,-10470.991698
695.388174,-593.420005,401.994197,-10279.565890
695.390817,344.566454,-612.562586,-8709.874264
695.393459,-459.421939,-1665.404530,-10241.280728
695.396101,191.425808,-1837.687757,-10719.845248
695.398744,57.427742,-2354.537438,-6967.899411
695.401386,-842.273555,38.285162,-11676.974288
695.404029,765.703232,-803.988394,-9207.581365
695.406671,-440.279358,287.138712,-8690.731683
695.409313,-440.279358,306.281293,-11600.403965
695.411956,210.568389,-2067.398726,-7886.743290
695.414598,-382.851616,-1071.984525,-10911.271056
695.417241,650.847747,-2335.394858,-8805.587168
695.419883,-593.420005,-1244.267752,-9494.720077
695.422525,-248.853550,-727.418070,-10260.423309
695.425168,-325.423874,727.418070,-10068.997501
695.427810,172.283227,19.142581,-9016.155557
695.430453,210.568389,-1416.550979,-9437.292334
695.433095,210.568389,-1129.412267,-11006.983960
695.435737,-784.845813,-1167.697429,-9265.009107
695.438380,-516.849682,-459.421939,-7312.465866
695.441022,-191.425808,-2201.396792,-10681.560086
695.443665,-95.712904,-1875.972918,-12059.825904
695.446307,-823.130974,-669.990328,-11351.550414
695.448949,899.701298,535.992262,-9303.294269
695.451592,2392.822600,-191.425808,-4957.928427
695.454234,-2852.244539,1091.127106,-11198.409768
695.456877,861.416136,-1454.836141,-12768.101394
695.459519,880.558717,-2143.969050,-4651.647134
695.462161,-1722.832272,-478.564520,-11274.980091
695.464804,937.986459,-2622.533570,-11006.983960
695.467446,-746.560651,-612.562586,-5513.063270
695.470089,-95.712904,-325.423874,-12404.392358
695.472731,76.570323,-1416.550979,-11102.696864
695.475373,-1205.982590,1684.547110,-5551.348432
695.477975,1627.119368,-1569.691626,-10164.710405
695.480576,-689.132909,-267.996131,-13189.238171
695.483177,-746.560651,-38.285162,-6623.332957
695.485778,631.705166,-1856.830338,-9226.723946
695.488379,-727.418070,-593.420005,-13170.095590
695.490981,574.277424,-2679.961312,-6508.477472
695.493582,114.855485,-2124.826469,-8824.729749
695.496183,-918.843878,-1110.269686,-12710.673651
695.498784,-823.130974,1110.269686,-9341.579430
695.501385,306.281293,516.849682,-6642.475538
695.503987,287.138712,-1359.123237,-12902.099459
695.506588,-76.570323,-1148.554848,-9513.862658
695.509189,-114.855485,-1990.828403,-7484.749093
695.511790,-669.990328,-306.281293,-12404.392358
695.514391,344.566454,-1473.978722,-8269.594906
695.516993,153.140646,-267.996131,-8499.305875
695.519594,-306.281293,-516.849682,-11715.259450
695.522195,-114.855485,-76.570323,-9571.290400
695.524796,-19.142581,-574.277424,-8020.741355
695.527397,-57.427742,-2335.394858,-10375.278794
695.529999,-210.568389,-1684.547110,-11140.982026
695.532600,114.855485,-1339.980656,-6374.479406
695.535201,-19.142581,555.134843,-11562.118803
695.537802,-267.996131,19.142581,-10183.852986
695.540404,-76.570323,-535.992262,-8288.737486
695.543005,516.849682,-1512.263883,-11676.974288
695.545606,-1205.982590,-727.418070,-9724.431046
695.548207,-650.847747,-478.564520,-9035.298138
695.550808,1933.400661,-3311.666478,-8805.587168
695.553410,-1263.410333,-57.427742,-10892.128475
695.556011,-401.994197,-57.427742,-8499.305875
695.558612,880.558717,-382.851616,-9686.145885
695.561213,-1033.699363,210.568389,-10451.849117
695.563814,-0.000000,-1914.258080,-8997.012976
695.566416,478.564520,-2067.398726,-10643.274925
695.569017,-899.701298,-1895.115499,-8480.163294
695.571618,306.281293,-631.705166,-10451.849117
695.574219,287.138712,-669.990328,-8537.591037
695.576820,-612.562586,229.710970,-9762.716208
695.579422,1263.410333,-1033.699363,-9934.999435
695.581992,-1665.404530,823.130974,-10394.421374
695.584563,-1282.552914,1052.841944,-9150.153622
695.587134,1512.263883,-2450.250342,-9973.284597
695.589704,-57.427742,-1569.691626,-8537.591037
695.592275,-689.132909,-2258.824534,-9973.284597
695.594846,497.707101,-1435.693560,-11370.692995
695.597417,-478.564520,-19.142581,-7178.467800
695.599987,2794.816797,-861.416136,-12768.101394
695.602558,-3828.516160,3177.668413,-8173.882002
695.605129,1282.552914,-3062.812928,-7599.604578
695.607699,1110.269686,-2833.101958,-10394.421374
695.610270,-2813.959378,-535.992262,-8824.729749
695.612841,1780.260014,-3081.955509,-12098.111066
695.615411,-1837.687757,248.853550,-9035.298138
695.617982,976.271621,-823.130974,-9954.142016
695.620553,-574.277424,880.558717,-11121.839445
695.623124,-363.709035,344.566454,-8595.018779
695.625694,708.275490,-497.707101,-10662.417506
695.628265,-708.275490,-1397.408398,-8307.880067
695.630836,459.421939,-1493.121302,-10260.423309
695.633406,-229.710970,-1167.697429,-9399.007173
695.635977,-669.990328,-842.273555,-9877.571693
695.638548,535.992262,-1665.404530,-10068.997501
695.641118,-746.560651,-1493.121302,-8805.587168
695.643689,555.134843,-1110.269686,-10336.993632
695.646260,-325.423874,-1627.119368,-8958.727814
695.648830,-229.710970,-535.992262,-9667.003304
695.651401,2143.969050,-1875.972918,-9571.290400
695.653972,-2928.814862,2986.242605,-11581.261384
695.656543,1339.980656,708.275490,-5589.633594
695.659113,784.845813,-2909.672282,-10892.128475
695.661684,-2354.537438,-1378.265818,-11638.689126
695.664058,2009.970984,-4977.071008,-7599.604578
695.666433,-1033.699363,-1110.269686,-9379.864592
695.668807,-306.281293,-708.275490,-11657.831707
695.671181,2124.826469,-555.134843,-8997.012976
695.673556,-2852.244539,3522.234867,-8097.311678
695.675930,1339.980656,-899.701298,-11734.402030
695.678304,-172.283227,-172.283227,-7867.600709
695.680679,-497.707101,-2718.246474,-8652.446522
695.683053,-19.142581,-3254.238736,-13418.949141
695.685427,-114.855485,-1914.258080,-6202.196179
695.687802,-95.712904,-1205.982590,-10470.991698
695.690176,-516.849682,325.423874,-12174.681389
695.692550,248.853550,937.986459,-6278.766502
695.694925,-421.136778,1244.267752,-13591.232368
695.697299,-19.142581,-689.132909,-8020.741355
695.699673,325.423874,-1167.697429,-8824.729749
695.702048,-248.853550,-2584.248408,-10317.851051
695.704422,-248.853550,-2411.965181,-10202.995566
695.706796,-38.285162,-2105.683888,-8575.876198
695.709171,-363.709035,-1799.402595,-11332.407834
695.711545,-191.425808,-57.427742,-9839.286531
695.713919,535.992262,-1014.556782,-7197.610381
695.716294,650.847747,-535.992262,-12346.964616
695.718668,-1741.974853,2354.537438,-8901.300072
695.721042,-133.998066,2469.392923,-9111.868461
695.723417,689.132909,-401.994197,-9379.864592
695.725791,-1263.410333,-2909.672282,-9686.145885
695.728165,555.134843,-3847.658741,-9839.286531
695.730540,-535.992262,-3503.092286,-9035.298138
695.732914,-95.712904,-1282.552914,-11619.546546
695.735288,823.130974,-689.132909,-6891.329088
695.737662,-631.705166,2469.392923,-11523.833642
695.740037,38.285162,1761.117434,-8767.302006
695.742411,-38.285162,401.994197,-8614.161360
695.744785,-555.134843,-401.994197,-10126.425243
695.747160,-38.285162,-4077.369710,-9513.862658
695.749534,-363.709035,-3637.090352,-9667.003304
695.751908,401.994197,-3656.232933,-9743.573627
695.754283,-899.701298,440.279358,-10949.556218
695.756657,957.129040,382.851616,-7369.893608
695.759087,-1052.841944,1722.832272,-10375.278794
695.761517,803.988394,1071.984525,-9284.151688
695.763946,-746.560651,19.142581,-8039.883936
695.766376,-38.285162,-2029.113565,-12366.107197
695.768806,248.853550,-4307.080680,-7274.180704
695.771235,-401.994197,-2986.242605,-9265.009107
695.773665,-57.427742,-2009.970984,-11925.827838
695.776095,-382.851616,650.847747,-8173.882002
695.778524,-38.285162,1186.840010,-9647.860723
695.780954,-76.570323,363.709035,-10930.413637
695.783384,-708.275490,803.988394,-9111.868461
695.785813,937.986459,-2392.822600,-7944.171032
695.788243,-746.560651,-1225.125171,-11734.402030
695.790673,516.849682,-1780.260014,-8441.878133
695.793103,-497.707101,-1665.404530,-9877.571693
695.795532,-421.136778,-1378.265818,-11179.267187
695.797962,-287.138712,-478.564520,-8403.592971
695.800392,-440.279358,631.705166,-10796.415571
695.802821,1167.697429,-784.845813,-9437.292334
695.805251,-1033.699363,1225.125171,-8729.016845
695.807681,210.568389,-1933.400661,-9360.722011
695.810110,210.568389,-1378.265818,-10126.425243
695.812540,-899.701298,-1091.127106,-8824.729749
695.814970,248.853550,-2794.816797,-11408.978157
695.817400,382.851616,-1588.834206,-8480.163294
695.819829,-325.423874,-803.988394,-9054.440718
695.822259,267.996131,669.990328,-12155.538808
695.824689,-287.138712,325.423874,-6393.621987
695.827118,-19.142581,133.998066,-10949.556218
695.829548,-172.283227,-248.853550,-11083.554283
695.831978,-191.425808,-1665.404530,-7025.327154
695.834407,38.285162,-1895.115499,-12002.398162
695.836837,-287.138712,-2699.103893,-8595.018779
695.839267,363.709035,-1627.119368,-9820.143950
695.841697,114.855485,-1225.125171,-9647.860723
695.844126,-1071.984525,1627.119368,-9858.429112
695.846556,555.134843,689.132909,-9647.860723
695.848986,-631.705166,-133.998066,-8212.167163
695.851415,861.416136,-2928.814862,-10987.841379
695.853845,287.138712,-4115.654872,-8116.454259
695.856309,-344.566454,-1397.408398,-12098.111066
695.858772,-38.285162,-784.845813,-7637.889739
695.861236,267.996131,555.134843,-10049.854920
695.863700,-918.843878,1435.693560,-10470.991698
695.866163,191.425808,-306.281293,-8575.876198
695.868627,-593.420005,-689.132909,-9705.288466
695.871091,229.710970,-2660.818731,-9915.856854
695.873554,-248.853550,-2143.969050,-10872.985894
695.876018,-57.427742,-1665.404530,-8499.305875
695.878482,1110.269686,-784.845813,-9705.288466
695.880945,-1493.121302,784.845813,-9016.155557
695.883409,631.705166,-191.425808,-10930.413637
695.885872,-191.425808,459.421939,-8499.305875
695.888336,-191.425808,-1435.693560,-9188.438784
695.890800,57.427742,-1799.402595,-11772.687192
695.893263,-401.994197,-2182.254211,-6087.340694
695.895727,650.847747,-1933.400661,-11562.118803
695.898191,-880.558717,-19.142581,-9973.284597
695.900654,114.855485,153.140646,-8786.444587
695.903118,19.142581,-76.570323,-10758.130410
695.905582,-478.564520,-746.560651,-8901.300072
695.908045,708.275490,-1607.976787,-10336.993632
695.910509,-287.138712,-2163.111630,-8671.589102
695.912973,-248.853550,-937.986459,-10604.989763
695.915436,-172.283227,-1014.556782,-9073.583299
695.917900,363.709035,-1148.554848,-8001.598774
695.920364,669.990328,-1320.838075,-11466.405899
695.922827,-1320.838075,-267.996131,-9360.722011
695.925291,-516.849682,421.136778,-10470.991698
695.927755,803.988394,-1722.832272,-7044.469734
695.930218,-1531.406464,-708.275490,-11140.982026
695.932682,267.996131,-1703.689691,-8786.444587
695.935146,382.851616,-1550.549045,-11619.546546
695.937609,-1454.836141,210.568389,-11791.829773
695.940073,2622.533570,-1071.984525,-4421.936165
695.942536,-1722.832272,287.138712,-11313.265253
695.945000,-765.703232,-842.273555,-11638.689126
695.947464,1780.260014,-2316.252277,-7197.610381
695.949927,-1033.699363,-1933.400661,-8307.880067
695.952391,-248.853550,-2029.113565,-13840.085918
695.954760,459.421939,-1378.265818,-7082.754896
695.957129,-421.136778,-459.421939,-8327.022648
695.959498,-421.136778,-612.562586,-14146.367211
695.961867,-210.568389,-421.136778,-6833.901346
695.964236,1186.840010,-708.275490,-8958.727814
695.966605,-746.560651,-248.853550,-11696.116869
695.968974,-574.277424,306.281293,-8729.016845
695.971343,995.414202,-1895.115499,-8575.876198
695.973712,-1339.980656,-1301.695494,-11906.685258
695.976081,593.420005,-1722.832272,-9839.286531
695.978450,-612.562586,-1110.269686,-8441.878133
695.980820,-918.843878,229.710970,-13686.945272
695.983189,1473.978722,-1799.402595,-5245.067139
695.985558,-612.562586,-1148.554848,-10049.854920
695.987927,1110.269686,-2220.539373,-12212.966550
695.990296,-1071.984525,574.277424,-8269.594906
695.992665,-421.136778,172.283227,-8499.305875
695.995034,650.847747,-2048.256146,-12098.111066
695.997403,-957.129040,0.000000,-8729.016845
695.999772,937.986459,-1799.402595,-7350.751027
696.002141,-248.853550,-210.568389,-12232.109131
696.004510,-459.421939,-516.849682,-8709.874264
696.006879,440.279358,-1493.121302,-8327.022648
696.009248,-708.275490,-593.420005,-12557.533005
696.011617,-133.998066,-1818.545176,-7752.745224
696.013986,287.138712,-1186.840010,-9609.575562
696.016355,-612.562586,-1435.693560,-10643.274925
696.018724,401.994197,-689.132909,-9131.011042
696.021093,19.142581,-593.420005,-8652.446522
696.023462,-516.849682,497.707101,-11351.550414
696.025831,-38.285162,-535.992262,-8977.870395
696.028200,-880.558717,-1665.404530,-8958.727814
696.030569,1378.265818,-2488.535504,-12232.109131
696.032938,-727.418070,-1588.834206,-6623.332957
696.035307,-76.570323,-210.568389,-9762.716208
696.037676,535.992262,-1167.697429,-11370.692995
696.040045,-593.420005,19.142581,-7867.600709
696.042414,38.285162,-172.283227,-10202.995566
696.044783,-516.849682,-1244.267752,-10930.413637
696.047153,-516.849682,-306.281293,-8920.442653
696.049578,555.134843,-2143.969050,-9073.583299
696.052002,363.709035,-2086.541307,-10968.698798
696.054427,421.136778,-2431.107762,-7771.887805
696.056852,-1129.412267,248.853550,-12155.538808
696.059276,38.285162,-133.998066,-7791.030386
696.061701,153.140646,-650.847747,-10356.136213
696.064125,-746.560651,344.566454,-10183.852986
696.066550,574.277424,-1741.974853,-8614.161360
696.068975,-95.712904,-363.709035,-9954.142016
696.071399,-325.423874,-1320.838075,-8977.870395
696.073824,-19.142581,-1301.695494,-10164.710405
696.076248,-95.712904,-1148.554848,-9513.862658
696.078673,-306.281293,-1493.121302,-10528.419440
696.081098,-0.000000,-784.845813,-9226.723946
696.083522,57.427742,-1397.408398,-8958.727814
696.085947,76.570323,-95.712904,-11121.839445
696.088372,95.712904,-784.845813,-7446.463931
696.090796,-133.998066,-153.140646,-10834.700733
696.093221,-172.283227,-1205.982590,-9054.440718
696.095645,-995.414202,-1110.269686,-10011.569758
696.098070,1569.691626,-2105.683888,-10585.847182
696.100495,-1378.265818,-1205.982590,-7523.034254
696.102919,19.142581,-803.988394,-11198.409768
696.105344,823.130974,-1646.261949,-8690.731683
696.107768,-1186.840010,765.703232,-8901.300072
696.110193,421.136778,-631.705166,-11102.696864
696.112618,-612.562586,153.140646,-9647.860723
696.115042,-708.275490,133.998066,-9552.147819
696.117467,1205.982590,-2928.814862,-8422.735552
696.119891,-555.134843,-1703.689691,-10815.558152
696.122316,937.986459,-3139.383251,-8346.165229
696.124741,-1091.127106,95.712904,-11734.402030
696.127165,248.853550,-172.283227,-7063.612315
696.129590,38.285162,-76.570323,-10930.413637
696.132015,-803.988394,784.845813,-10356.136213
696.134439,401.994197,-1378.265818,-8652.446522
696.136864,-57.427742,-899.701298,-9858.429112
696.139288,-114.855485,-2048.256146,-9092.725880
696.141713,95.712904,-1397.408398,-10547.562021
696.144138,-363.709035,-1014.556782,-8805.587168
696.146600,-76.570323,-765.703232,-10872.985894
696.149062,76.570323,-516.849682,-9016.155557
696.151524,-248.853550,-976.271621,-9571.290400
696.153987,76.570323,-478.564520,-10547.562021
696.156449,2928.814862,-421.136778,-9418.149754
696.158911,-3369.094221,2220.539373,-9284.151688
696.161373,976.271621,-2373.680019,-8288.737486
696.163835,918.843878,-3196.810994,-10298.708470
696.166298,-1875.972918,-38.285162,-8327.022648
696.168760,708.275490,-1971.685822,-12040.683323
696.171222,-1359.123237,191.425808,-9628.718142
696.173684,937.986459,-1569.691626,-7637.889739
696.176147,-421.136778,-306.281293,-10872.985894
696.178609,-516.849682,172.283227,-8958.727814
696.181071,153.140646,669.990328,-9667.003304
696.183533,114.855485,-401.994197,-9877.571693
696.185996,-861.416136,-2871.387120,-9552.147819
696.188458,1301.695494,-4364.508422,-9781.858789
696.190920,229.710970,-2967.100024,-8422.735552
696.193382,-612.562586,1282.552914,-11906.685258
696.195844,593.420005,191.425808,-5991.627790
696.198307,-210.568389,727.418070,-12212.966550
696.200769,-325.423874,133.998066,-8939.585234
696.203231,95.712904,-516.849682,-8824.729749
696.205693,-248.853550,-1569.691626,-11408.978157
696.208156,-363.709035,-3694.518094,-8116.454259
696.210618,76.570323,-2737.389054,-10394.421374
696.213080,-114.855485,-1856.830338,-8556.733618
696.215542,-401.994197,708.275490,-11140.982026
696.218005,210.568389,765.703232,-8480.163294
696.220467,-38.285162,478.564520,-10202.995566
696.222929,-727.418070,1110.269686,-10126.425243
696.225391,95.712904,-1512.263883,-8403.592971
696.227853,344.566454,-2048.256146,-11753.544611
696.230316,210.568389,-2622.533570,-5551.348432
696.232778,-19.142581,-2450.250342,-13533.804626
696.235240,-440.279358,-1588.834206,-8997.012976
696.237702,-0.000000,-995.414202,-7944.171032
696.240165,-153.140646,-76.570323,-12672.388490
696.242627,-95.712904,114.855485,-7733.602643
696.245118,306.281293,497.707101,-9494.720077
696.247609,-440.279358,-918.843878,-10624.132344
696.250100,287.138712,-765.703232,-9226.723946
696.252590,-172.283227,-1588.834206,-8499.305875
696.255081,-191.425808,-2335.394858,-11504.691061
696.257572,1263.410333,-3062.812928,-8288.737486
696.260063,-1780.260014,-172.283227,-9494.720077
696.262554,-1225.125171,1895.115499,-12557.533005
696.265045,1397.408398,-267.996131,-7140.182638
696.267536,-1033.699363,133.998066,-12270.394293
696.270027,459.421939,-2182.254211,-8729.016845
696.272518,-76.570323,-1282.552914,-7523.034254
696.275009,-440.279358,-1550.549045,-12212.966550
696.277500,19.142581,-2086.541307,-8403.592971
696.279991,-153.140646,-976.271621,-9418.149754
696.282481,-76.570323,-1588.834206,-10049.854920
696.284972,-76.570323,593.420005,-9973.284597
696.287463,325.423874,-38.285162,-8193.024582
696.289954,-382.851616,76.570323,-11179.267187
696.292445,-114.855485,114.855485,-9820.143950
696.294936,1148.554848,-2163.111630,-8480.163294
696.297427,-1473.978722,-727.418070,-11542.976222
696.299918,382.851616,-3483.949706,-7255.038123
696.302409,708.275490,-2718.246474,-10413.563955
696.304900,-727.418070,-1531.406464,-10183.852986
696.307391,784.845813,-535.992262,-9284.151688
696.309882,-784.845813,880.558717,-8882.157491
696.312373,153.140646,38.285162,-11102.696864
696.314863,-516.849682,1186.840010,-9226.723946
696.317354,-267.996131,-38.285162,-9073.583299
696.319845,497.707101,-1167.697429,-9647.860723
696.322336,95.712904,-2967.100024,-9188.438784
696.324827,-248.853550,-3177.668413,-9992.427178
696.327318,459.421939,-2239.681954,-10585.847182
696.329809,-1091.127106,-57.427742,-8499.305875
696.332300,535.992262,1091.127106,-10490.134278
696.334791,-191.425808,3771.088418,-8231.309744
696.337282,-76.570323,6470.192310,-11370.692995
696.339773,-172.283227,6221.338760,-10719.845248
696.342264,-114.855485,3464.807125,-8135.596840
696.344774,19.142581,-267.996131,-9934.999435
696.347284,-440.279358,-287.138712,-10719.845248
696.349795,210.568389,-803.988394,-9379.864592
696.352305,-344.566454,-191.425808,-9973.284597
696.354815,-76.570323,784.845813,-9475.577496
696.357326,-229.710970,-76.570323,-9858.429112
696.359836,-612.562586,0.000000,-11102.696864
696.362347,382.851616,-555.134843,-8767.302006
696.364857,-76.570323,3177.668413,-9973.284597
696.367367,114.855485,6853.043926,-9743.573627
696.369878,-38.285162,12212.966550,-10202.995566
696.372388,172.283227,9379.864592,-8575.876198
696.374899,-57.427742,2526.820666,-9494.720077
696.377409,497.707101,-5666.203917,-7293.323285
696.379919,-459.421939,-8231.309744,-12002.398162
696.382430,612.562586,-9801.001370,-9667.003304
696.384940,-823.130974,-5915.057467,-8078.169098
696.387451,-38.285162,-1052.841944,-11389.835576
696.389961,-267.996131,3024.527766,-8767.302006
696.392471,-995.414202,5245.067139,-10681.560086
696.394982,918.843878,2699.103893,-9399.007173
696.397492,363.709035,1607.976787,-9341.579430
696.400003,153.140646,133.998066,-9035.298138
696.402513,-1071.984525,-3560.520029,-9839.286531
696.405023,612.562586,-4957.928427,-10030.712339
696.407534,-363.709035,-4785.645200,-8001.598774
696.410044,-765.703232,-2488.535504,-11274.980091
696.412555,689.132909,-1646.261949,-9590.432981
696.415065,-153.140646,1761.117434,-10202.995566
696.417575,287.138712,2584.248408,-10547.562021
696.420086,-76.570323,2201.396792,-7676.174901
696.422596,-38.285162,478.564520,-10719.845248
696.425107,-421.136778,-3311.666478,-10260.423309
696.427617,-229.710970,-3215.953574,-8901.300072
696.430127,57.427742,-4881.358104,-9781.858789
696.432638,-191.425808,-3196.810994,-10796.415571
696.435148,248.853550,-650.847747,-8250.452325
696.437659,-172.283227,842.273555,-9820.143950
696.440169,-401.994197,3751.945837,-11217.552349
696.442679,76.570323,1971.685822,-7465.606512
696.445203,-497.707101,325.423874,-10356.136213
696.447726,478.564520,-2890.529701,-9858.429112
696.450249,-612.562586,-3560.520029,-9628.718142
696.452772,555.134843,-5130.211654,-10758.130410
696.455295,-382.851616,-2660.818731,-8671.589102
696.457818,153.140646,-172.283227,-10126.425243
696.460341,-976.271621,1320.838075,-9954.142016
696.462865,38.285162,2431.107762,-9858.429112
696.465388,957.129040,0.000000,-9418.149754
696.467911,-363.709035,344.566454,-7503.891674
696.470434,363.709035,-669.990328,-11140.982026
696.472957,-631.705166,-1703.689691,-9590.432981
696.475480,401.994197,-2526.820666,-9858.429112
696.478004,-1225.125171,-2143.969050,-10164.710405
696.480527,478.564520,-2679.961312,-10604.989763
696.483050,-153.140646,-1359.123237,-7676.174901
696.485573,-516.849682,631.705166,-10183.852986
696.488096,1531.406464,-1148.554848,-8729.016845
696.490619,-631.705166,-19.142581,-8997.012976
696.493142,-229.710970,191.425808,-11313.265253
696.495666,765.703232,-1971.685822,-8365.307810
696.498189,-1320.838075,-287.138712,-9992.427178
696.500712,459.421939,-3196.810994,-10279.565890
696.503235,-516.849682,-1722.832272,-9150.153622
696.505758,19.142581,-1282.552914,-9609.575562
696.508281,-76.570323,-650.847747,-10068.997501
696.510805,765.703232,325.423874,-8920.442653
696.513328,-1263.410333,1129.412267,-8977.870395
696.515851,172.283227,-76.570323,-12078.968485
696.518374,-153.140646,-1473.978722,-7216.752962
696.520897,-325.423874,-1359.123237,-10107.282662
696.523420,669.990328,-2545.963246,-10968.698798
696.525943,-95.712904,-1416.550979,-7963.313613
696.528467,95.712904,-1244.267752,-10202.995566
696.530990,-1071.984525,-918.843878,-9628.718142
696.533513,842.273555,-133.998066,-10662.417506
696.536036,-593.420005,153.140646,-7791.030386
696.538559,248.853550,-937.986459,-11830.114934
696.541082,-937.986459,-210.568389,-8805.587168
696.543606,-76.570323,-440.279358,-10528.419440
696.546137,-746.560651,95.712904,-10853.843314
696.548668,-0.000000,-1186.840010,-5972.485210
696.551200,-57.427742,-1856.830338,-8518.448456
696.553731,1435.693560,-5666.203917,-12691.531070
696.556263,19.142581,-2411.965181,-14299.507858
696.558794,-1301.695494,976.271621,-1818.545176
696.561325,2220.539373,-861.416136,-12882.956878
696.563857,-1761.117434,2124.826469,-10164.710405
696.566388,861.416136,-76.570323,-4536.791650
696.568920,344.566454,-153.140646,-13265.808494
696.571451,-1416.550979,-1493.121302,-10930.413637
696.573982,459.421939,-3388.236802,-7312.465866
696.576514,-38.285162,-3809.373579,-9379.864592
696.579045,-918.843878,-1607.976787,-12863.814298
696.581577,880.558717,-1091.127106,-6795.616184
696.584108,-287.138712,1014.556782,-6967.899411
696.586640,-440.279358,2086.541307,-15256.636898
696.589171,-287.138712,497.707101,-6757.331022
696.591702,-114.855485,114.855485,-7657.032320
696.594234,1186.840010,-3235.096155,-14261.222696
696.596765,-574.277424,-1512.263883,-6163.911018
696.599297,38.285162,-2009.970984,-7829.315547
696.601828,-210.568389,-2373.680019,-14624.931731
696.604359,-248.853550,-210.568389,-6412.764568
696.606891,555.134843,-210.568389,-6948.756830
696.609422,-727.418070,746.560651,-15103.496251
696.611954,-612.562586,-76.570323,-8422.735552
696.614485,1320.838075,-842.273555,-5608.776174
696.617017,382.851616,-2411.965181,-12136.396227
696.619548,-2909.672282,-114.855485,-11370.692995
696.622079,2584.248408,-3196.810994,-7752.745224
696.624611,-1129.412267,-1569.691626,-8748.159426
696.627142,-1512.263883,669.990328,-14395.220762
696.629674,1856.830338,-1875.972918,-6623.332957
696.632205,-1052.841944,421.136778,-7312.465866
696.634736,-382.851616,-363.709035,-13763.515595
696.637268,1052.841944,-1339.980656,-7312.465866
696.639799,-593.420005,-382.851616,-8269.594906
696.642331,-19.142581,-1684.547110,-12787.243974
696.644862,-133.998066,-1014.556782,-9092.725880
696.647400,-114.855485,-2220.539373,-7312.465866
696.649939,-210.568389,-995.414202,-14108.082050
696.652477,-0.000000,-1052.841944,-7829.315547
696.655016,191.425808,-708.275490,-6680.760699
696.657554,-727.418070,229.710970,-12959.527202
696.660092,-95.712904,-746.560651,-9399.007173
696.662631,746.560651,382.851616,-9590.432981
696.665169,-95.712904,-210.568389,-8480.163294
696.667708,-287.138712,-1473.978722,-10624.132344
696.670246,-401.994197,-2220.539373,-8997.012976
696.672784,689.132909,-2718.246474,-10413.563955
696.675323,-382.851616,-497.707101,-8499.305875
696.677861,535.992262,-1493.121302,-9131.011042
696.680399,-784.845813,650.847747,-11504.691061
696.682938,-325.423874,363.709035,-8422.735552
696.685476,1933.400661,-1473.978722,-10183.852986
696.688015,-2450.250342,344.566454,-8977.870395
696.690553,765.703232,-1895.115499,-10413.563955
696.693091,1416.550979,-2335.394858,-8346.165229
696.695630,-2124.826469,-191.425808,-9705.288466
696.698168,1148.554848,-1263.410333,-12002.398162
696.700707,-401.994197,-535.992262,-7733.602643
696.703245,-689.132909,-210.568389,-9954.142016
696.705783,1148.554848,-2411.965181,-10547.562021
696.708322,-1091.127106,-19.142581,-8786.444587
696.710860,478.564520,-535.992262,-8537.591037
696.713398,-306.281293,-976.271621,-10872.985894
696.715937,-306.281293,-363.709035,-8882.157491
696.718475,478.564520,-2201.396792,-9245.866526
696.721014,-976.271621,-76.570323,-12308.679454
696.723552,267.996131,-1493.121302,-7752.745224
696.726090,-612.562586,-918.843878,-9284.151688
696.728629,-344.566454,-1167.697429,-10298.708470
696.731167,899.701298,-1550.549045,-10222.138147
696.733706,-267.996131,1339.980656,-7905.885870
696.736244,440.279358,-76.570323,-10547.562021
696.738782,-861.416136,-57.427742,-10624.132344
696.741321,-401.994197,-2220.539373,-8307.880067
696.743859,784.845813,-3062.812928,-10681.560086
696.746397,-612.562586,-1818.545176,-8997.012976
696.748939,153.140646,-1359.123237,-8977.870395
696.751482,-497.707101,133.998066,-10643.274925
696.754024,899.701298,-612.562586,-8346.165229
696.756566,-535.992262,957.129040,-10451.849117
696.759108,-1071.984525,382.851616,-10509.276859
696.761650,1301.695494,-1665.404530,-9169.296203
696.764192,-803.988394,-1569.691626,-8690.731683
696.766734,-229.710970,-1818.545176,-10126.425243
696.769276,669.990328,-1933.400661,-10394.421374
696.771818,-861.416136,-555.134843,-7465.606512
696.774360,172.283227,-478.564520,-12519.247843
696.776902,57.427742,-1244.267752,-9150.153622
696.779444,3062.812928,-2871.387120,-4536.791650
696.781986,-1339.980656,-2163.111630,-10432.706536
696.784528,-2067.398726,-287.138712,-14529.218827
696.787070,2182.254211,-248.853550,-5895.914886
696.789612,-2258.824534,1282.552914,-13036.097525
696.792154,153.140646,1741.974853,-9839.286531
696.794696,-937.986459,708.275490,-4785.645200
696.797238,-248.853550,-2297.109696,-14931.213024
696.799780,1033.699363,-3790.230998,-9284.151688
696.802322,-555.134843,-708.275490,-4402.793584
696.804864,976.271621,-1990.828403,-15122.638832
696.807406,-574.277424,248.853550,-7580.461997
696.809948,-593.420005,803.988394,-6508.477472
696.812490,669.990328,-2526.820666,-15696.916256
696.815032,-976.271621,0.000000,-6738.188442
696.817574,1129.412267,-2469.392923,-7408.178770
696.820116,-937.986459,-1167.697429,-13954.941403
696.822658,76.570323,76.570323,-7503.891674
696.825200,57.427742,-1282.552914,-10470.991698
696.827742,-459.421939,-210.568389,-12634.103328
696.830284,650.847747,-1282.552914,-5187.639397
696.832826,-1378.265818,229.710970,-11619.546546
696.835368,650.847747,-2163.111630,-11734.402030
696.837910,-325.423874,-401.994197,-6125.625856
696.840452,459.421939,-1186.840010,-10987.841379
696.842994,-459.421939,-1052.841944,-11026.126541
696.845536,153.140646,38.285162,-6470.192310
696.848079,669.990328,-3081.955509,-10164.710405
696.850556,-1933.400661,727.418070,-13323.236237
696.853034,1416.550979,-1703.689691,-6278.766502
696.855512,-669.990328,-803.988394,-10872.985894
696.857990,-650.847747,287.138712,-10949.556218
696.860468,937.986459,-1071.984525,-6451.049730
696.862946,-631.705166,-229.710970,-11638.689126
696.865424,-95.712904,-1320.838075,-8767.302006
696.867902,-114.855485,-976.271621,-8652.446522
696.870380,-172.283227,-2067.398726,-11351.550414
696.872858,-38.285162,-459.421939,-9265.009107
696.875336,823.130974,-976.271621,-7752.745224
696.877814,-248.853550,-114.855485,-11064.411702
696.880292,-1205.982590,-248.853550,-8729.016845
696.882770,727.418070,-2871.387120,-10700.702667
696.885248,-746.560651,-650.847747,-9839.286531
696.887726,-95.712904,-1703.689691,-8729.016845
696.890204,497.707101,-1320.838075,-10490.134278
696.892682,-689.132909,57.427742,-9781.858789
696.895160,516.849682,-516.849682,-8078.169098
696.897638,-172.283227,823.130974,-11274.980091
696.900116,-153.140646,-1091.127106,-9131.011042
696.902594,-133.998066,-918.843878,-10068.997501
696.905072,-76.570323,-2297.109696,-9150.153622
696.907550,-803.988394,-631.705166,-10719.845248
696.910028,248.853550,-2029.113565,-8461.020714
696.912506,669.990328,-2565.105827,-11887.542677
696.914984,-153.140646,95.712904,-7829.315547
696.917462,593.420005,-38.285162,-9054.440718
696.919940,-918.843878,2392.822600,-11217.552349
696.922418,-478.564520,-95.712904,-7982.456194
696.924896,1071.984525,-2737.389054,-9724.431046
696.927374,-1091.127106,-2201.396792,-11447.263318
696.929852,459.421939,-2833.101958,-8020.741355
696.932330,-57.427742,-1186.840010,-9418.149754
696.934808,-191.425808,-172.283227,-10202.995566
696.937286,267.996131,574.277424,-8863.014910
696.939764,-478.564520,-19.142581,-9647.860723
696.942242,-76.570323,803.988394,-11236.694930
696.944720,-248.853550,-784.845813,-7714.460062
696.947198,133.998066,-2201.396792,-10624.132344
696.949695,382.851616,-2833.101958,-10049.854920
696.952193,-803.988394,-1818.545176,-8441.878133
696.954690,708.275490,-861.416136,-11083.554283
696.957188,-1225.125171,650.847747,-8595.018779
696.959686,344.566454,-229.710970,-9839.286531
696.962183,-191.425808,-689.132909,-10164.710405
696.964681,-76.570323,-459.421939,-9322.436850
696.967178,689.132909,-1110.269686,-8920.442653
696.969676,-631.705166,-1416.550979,-9686.145885
696.972173,248.853550,-1741.974853,-9762.716208
696.974671,-918.843878,-1244.267752,-7886.743290
696.977168,-172.283227,-401.994197,-12002.398162
696.979666,535.992262,-1378.265818,-10088.140082
696.982163,-803.988394,650.847747,-8518.448456
696.984661,976.271621,-306.281293,-9705.288466
696.987159,-1263.410333,1416.550979,-8480.163294
696.989656,669.990328,-401.994197,-10700.702667
696.992154,-19.142581,-2545.963246,-8977.870395
696.994651,-976.271621,-2316.252277,-10490.134278
696.997149,976.271621,-4134.797453,-9092.725880
696.999646,-1167.697429,-1014.556782,-10911.271056
697.002144,784.845813,-1052.841944,-8652.446522
697.004641,-0.000000,861.416136,-8537.591037
697.007139,-76.570323,2507.678085,-11121.839445
697.009636,-765.703232,-191.425808,-7695.317482
697.012134,421.136778,-1339.980656,-12289.536874
697.014632,-784.845813,-2201.396792,-7331.608446
697.017129,248.853550,-2775.674216,-10834.700733
697.019627,-344.566454,-2392.822600,-10490.134278
697.022124,325.423874,-1569.691626,-8652.446522
697.024622,-114.855485,861.416136,-9131.011042
697.027119,-325.423874,2029.113565,-10202.995566
697.029617,38.285162,937.986459,-10202.995566
697.032114,-133.998066,-1703.689691,-7905.885870
697.034612,-440.279358,-1646.261949,-11791.829773
697.037109,440.279358,-3388.236802,-7867.600709
697.039607,-593.420005,-2297.109696,-9839.286531
697.042104,593.420005,-1627.119368,-10509.276859
697.044602,-784.845813,-267.996131,-8193.024582
697.047100,76.570323,1646.261949,-11045.269122
697.049612,-555.134843,1320.838075,-9111.868461
697.052124,-114.855485,133.998066,-10356.136213
697.054635,-229.710970,-2067.398726,-8652.446522
697.057147,-38.285162,-1473.978722,-9322.436850
697.059659,344.566454,-2316.252277,-9418.149754
697.062171,114.855485,-2545.963246,-10145.567824
697.064683,19.142581,-1091.127106,-10566.704602
697.067195,-631.705166,-478.564520,-8346.165229
697.069707,-0.000000,497.707101,-11830.114934
697.072219,267.996131,153.140646,-8480.163294
697.074731,287.138712,344.566454,-8327.022648
697.077242,-937.986459,-306.281293,-10738.987829
697.079754,-1627.119368,-2584.248408,-8805.587168
697.082266,1914.258080,-3885.943902,-10088.140082
697.084778,-1416.550979,-38.285162,-5781.059402
697.087290,382.851616,114.855485,-13801.800757
697.089802,-535.992262,478.564520,-8556.733618
697.092314,-0.000000,823.130974,-7580.461997
697.094826,401.994197,-1225.125171,-12078.968485
697.097337,-555.134843,-574.277424,-8384.450390
697.099849,172.283227,-1454.836141,-9054.440718
697.102361,-76.570323,-2947.957443,-10145.567824
697.104873,-497.707101,-1359.123237,-10528.419440
697.107385,-0.000000,-1588.834206,-8269.594906
697.109897,-19.142581,-899.701298,-10758.130410
697.112409,229.710970,133.998066,-10030.712339
697.114921,-38.285162,421.136778,-7599.604578
697.117432,-497.707101,1703.689691,-12634.103328
697.119944,153.140646,-1014.556782,-8154.739421
697.122456,-267.996131,-1454.836141,-8709.874264
697.124968,-363.709035,-3254.238736,-11006.983960
697.127480,631.705166,-2871.387120,-10107.282662
697.129992,-191.425808,-1512.263883,-8173.882002
697.132504,-497.707101,-650.847747,-10336.993632
697.135016,880.558717,267.996131,-10202.995566
697.137528,-708.275490,1665.404530,-7523.034254
697.140039,-76.570323,1856.830338,-11810.972354
697.142551,382.851616,-995.414202,-8403.592971
697.145063,-1378.265818,-1665.404530,-8327.022648
697.147575,-765.703232,-4479.363907,-11064.411702
697.150098,1435.693560,-5149.354235,-12155.538808
697.152620,-631.705166,172.283227,-4517.649069
697.155142,516.849682,899.701298,-12940.384621
697.157665,-708.275490,2947.957443,-11121.839445
697.160187,-0.000000,1167.697429,-4977.071008
697.162710,-248.853550,95.712904,-14414.363342
697.165232,-38.285162,-2163.111630,-8001.598774
697.167755,1569.691626,-5302.494882,-3541.377448
697.170277,-2201.396792,-2239.681954,-16577.474973
697.172800,1339.980656,-2679.961312,-9131.011042
697.175322,-555.134843,1665.404530,-6853.043926
697.177845,-1129.412267,1837.687757,-12959.527202
697.180367,421.136778,631.705166,-8614.161360
697.182890,-191.425808,-153.140646,-6967.899411
697.185412,153.140646,-1186.840010,-14318.650438
697.187935,-306.281293,-976.271621,-6757.331022
697.190457,306.281293,-2833.101958,-6623.332957
697.192979,-880.558717,-2603.390989,-13667.802691
697.195502,899.701298,-2660.818731,-5398.207786
697.198024,-1052.841944,1167.697429,-12021.540742
697.200547,267.996131,248.853550,-11083.554283
697.203069,-267.996131,937.986459,-6795.616184
697.205592,593.420005,-210.568389,-10317.851051
697.208114,-612.562586,-555.134843,-11026.126541
697.210637,842.273555,-880.558717,-7216.752962
697.213159,-1071.984525,-1627.119368,-10145.567824
697.215682,-880.558717,-2775.674216,-11734.402030
697.218204,1110.269686,-4728.217458,-7465.606512
697.220727,-918.843878,-535.992262,-11791.829773
697.223249,823.130974,765.703232,-8690.731683
697.225772,-421.136778,2603.390989,-8135.596840
697.228294,-38.285162,2086.541307,-11428.120738
697.230817,-708.275490,-1052.841944,-8001.598774
697.233339,-0.000000,-1359.123237,-9743.573627
697.235861,-535.992262,-2813.959378,-9954.142016
697.238384,-114.855485,-2545.963246,-10107.282662
697.240906,574.277424,-2507.678085,-8422.735552
697.243429,-497.707101,-689.132909,-10662.417506
697.245951,382.851616,1091.127106,-9667.003304
697.248474,-229.710970,1493.121302,-8154.739421
697.251005,-516.849682,765.703232,-11868.400096
697.253537,363.709035,-1684.547110,-8461.020714
697.256068,-784.845813,-957.129040,-9399.007173
697.258599,401.994197,-2354.537438,-9399.007173
697.261131,-267.996131,-2297.109696,-9245.866526
697.263662,823.130974,-2852.244539,-10604.989763
697.266194,-823.130974,-1378.265818,-9150.153622
697.268725,382.851616,1014.556782,-10068.997501
697.271257,-325.423874,823.130974,-8939.585234
697.273788,-287.138712,918.843878,-10298.708470
697.276319,401.994197,-937.986459,-9054.440718
697.278851,-95.712904,-1110.269686,-9724.431046
697.281382,-210.568389,-2124.826469,-9418.149754
697.283914,823.130974,-3254.238736,-9150.153622
697.286445,-1148.554848,-1052.841944,-10432.706536
697.288976,267.996131,-1550.549045,-9418.149754
697.291508,-516.849682,803.988394,-10336.993632
697.294039,76.570323,287.138712,-8384.450390
697.296571,-19.142581,267.996131,-9667.003304
697.299102,-95.712904,401.994197,-10624.132344
697.301634,-19.142581,-2182.254211,-7925.028451
697.304165,-401.994197,-1780.260014,-10260.423309
697.306696,-19.142581,-2354.537438,-8499.305875
697.309228,-421.136778,-689.132909,-10796.415571
697.311759,363.709035,-1473.978722,-9437.292334
697.314291,-210.568389,76.570323,-9226.723946
697.316822,57.427742,248.853550,-9724.431046
697.319353,-267.996131,229.710970,-9226.723946
697.321885,229.710970,-210.568389,-10509.276859
697.324416,-861.416136,-1493.121302,-9188.438784
697.326948,-76.570323,-1588.834206,-10681.560086
697.329479,1837.687757,-4651.647134,-6489.334891
697.332011,-2009.970984,-1071.984525,-10872.985894
697.334542,363.709035,-1416.550979,-11715.259450
697.337073,1359.123237,-1665.404530,-7944.171032
697.339605,-2316.252277,3541.377448,-11313.265253
697.342136,1512.263883,382.851616,-8537.591037
697.344668,-1569.691626,1990.828403,-10566.704602
697.347199,459.421939,-2469.392923,-9035.298138
697.349730,-267.996131,-2201.396792,-9724.431046
697.352268,344.566454,-3866.801322,-9360.722011
697.354805,-229.710970,-2756.531635,-10279.565890
697.357342,-708.275490,-440.279358,-9552.147819
697.359879,-19.142581,-727.418070,-8805.587168
697.362416,-133.998066,2220.539373,-12155.538808
697.364954,287.138712,937.986459,-6278.766502
697.367491,-382.851616,-57.427742,-10892.128475
697.370028,363.709035,-2143.969050,-10758.130410
697.372565,-344.566454,-2373.680019,-7101.897477
697.375103,-76.570323,-2067.398726,-11581.261384
697.377640,-210.568389,-1990.828403,-9131.011042
697.380177,248.853550,19.142581,-9934.999435
697.382714,-306.281293,497.707101,-9743.573627
697.385251,-191.425808,1225.125171,-10011.569758
697.387789,-708.275490,-708.275490,-8193.024582
697.390326,497.707101,-2239.681954,-11983.255581
697.392863,-229.710970,-1071.984525,-8097.311678
697.395400,-976.271621,-1071.984525,-10566.704602
697.397938,287.138712,-516.849682,-11542.976222
697.400475,-727.418070,-421.136778,-5915.057467
697.403012,76.570323,-497.707101,-9820.143950
697.405549,765.703232,-3866.801322,-9169.296203
697.408086,708.275490,-4019.941968,-12653.245909
697.410624,-2258.824534,1301.695494,-8231.309744
697.413161,2545.963246,-861.416136,-8097.311678
697.415698,-2756.531635,3311.666478,-11619.546546
697.418235,1416.550979,-669.990328,-6642.475538
697.420773,-957.129040,421.136778,-11734.402030
697.423310,-76.570323,-3005.385186,-9762.716208
697.425847,-172.283227,-3330.809059,-8633.303941
697.428384,229.710970,-2890.529701,-11179.267187
697.430921,401.994197,-1646.261949,-9265.009107
697.433459,-516.849682,2679.961312,-8767.302006
697.435996,287.138712,2086.541307,-9609.575562
697.438533,-631.705166,287.138712,-11274.980091
