#time,accel_x,accel_y,accel_z
266.997324,306.438199,-148.041188,9326.594869
266.997632,306.438199,296.082377,10066.800811
266.997940,306.438199,-222.061783,9548.656652
266.998248,459.657299,296.082377,9622.677246
266.998556,536.266849,296.082377,9770.718434
266.998864,612.876398,222.061783,9696.697840
266.999172,383.047749,222.061783,9548.656652
266.999480,766.095498,296.082377,9696.697840
266.999788,1149.143247,-0.000000,9844.739029
267.000096,766.095498,296.082377,9770.718434
267.000404,689.485948,-0.000000,9696.697840
267.000713,842.705048,222.061783,9474.636058
267.001021,689.485948,296.082377,9770.718434
267.001329,459.657299,222.061783,9696.697840
267.001637,536.266849,222.061783,9696.697840
267.001945,995.924147,148.041188,9696.697840
267.002253,229.828649,-0.000000,9696.697840
267.002561,612.876398,740.205942,9992.780217
267.002869,536.266849,-222.061783,9770.718434
267.003177,689.485948,222.061783,9474.636058
267.003485,766.095498,148.041188,9474.636058
267.003793,612.876398,222.061783,9400.615463
267.004101,612.876398,-0.000000,9622.677246
267.004409,383.047749,296.082377,9696.697840
267.004718,1072.533697,-0.000000,9548.656652
267.005026,536.266849,-0.000000,9844.739029
267.005334,766.095498,222.061783,9548.656652
267.005642,612.876398,-0.000000,9622.677246
267.005950,459.657299,148.041188,9474.636058
267.006258,919.314598,74.020594,9548.656652
267.006566,612.876398,296.082377,9474.636058
267.006874,689.485948,222.061783,9178.553681
267.007182,612.876398,148.041188,9474.636058
267.007490,766.095498,592.164754,9696.697840
267.007798,842.705048,-0.000000,9474.636058
267.008106,842.705048,222.061783,9622.677246
267.008414,536.266849,222.061783,9918.759623
267.008723,536.266849,222.061783,9622.677246
267.009031,689.485948,-148.041188,9326.594869
267.009339,459.657299,-0.000000,9474.636058
267.009647,1149.143247,-0.000000,9548.656652
267.009955,1378.971896,-74.020594,9770.718434
267.010263,842.705048,-444.123565,9474.636058
267.010571,919.314598,-518.144159,9992.780217
267.010879,689.485948,-592.164754,10066.800811
267.011187,766.095498,-592.164754,10066.800811
267.011495,842.705048,-444.123565,9992.780217
267.011803,1225.752797,-222.061783,9696.697840
267.012111,1225.752797,296.082377,9104.533087
267.012420,2221.676944,888.247130,9030.512492
267.012728,2145.067394,962.267725,8734.430116
267.013036,2374.896044,814.226536,9030.512492
267.013344,1915.238745,592.164754,9030.512492
267.013652,1915.238745,370.102971,9178.553681
267.013960,1302.362347,592.164754,9770.718434
267.014268,1685.410096,148.041188,9696.697840
267.014576,2068.457845,-74.020594,10140.821405
267.014884,1608.800546,-222.061783,10066.800811
267.015192,1915.238745,-222.061783,10066.800811
267.015500,1915.238745,-222.061783,10140.821405
267.015808,1915.238745,-222.061783,9844.739029
267.016116,2298.286494,-0.000000,9474.636058
267.016425,2757.943793,-0.000000,9548.656652
267.016733,2604.724693,444.123565,9770.718434
267.017041,3370.820191,740.205942,9474.636058
267.017349,3064.381992,-0.000000,9400.615463
267.017657,2681.334243,370.102971,9474.636058
267.017965,2604.724693,518.144159,9696.697840
267.018273,2451.505594,-0.000000,9622.677246
267.018581,2681.334243,-0.000000,9696.697840
267.018889,2681.334243,-0.000000,9696.697840
267.019197,2834.553343,-74.020594,9770.718434
267.019505,2911.162892,-0.000000,10510.924376
267.019813,2911.162892,-370.102971,10214.842000
267.020121,2911.162892,-74.020594,9918.759623
267.020430,3140.991542,-0.000000,9844.739029
267.020738,3370.820191,-0.000000,9918.759623
267.021046,3677.258390,296.082377,9770.718434
267.021354,3447.429741,222.061783,9474.636058
267.021662,3830.477490,296.082377,9474.636058
267.021970,4673.182538,444.123565,9326.594869
267.022278,4749.792088,592.164754,9400.615463
267.022586,4596.572988,222.061783,8882.471304
267.022894,4366.744339,444.123565,9104.533087
267.023202,4366.744339,296.082377,9326.594869
267.023510,4060.306139,222.061783,9474.636058
267.023818,4213.525239,-0.000000,9918.759623
267.024127,3677.258390,-0.000000,9474.636058
267.024435,4136.915689,148.041188,9474.636058
267.024743,4366.744339,296.082377,9178.553681
267.025051,4443.353888,1036.288319,9030.512492
267.025359,4673.182538,1184.329507,9104.533087
267.025667,4519.963438,1480.411884,8808.450710
267.025975,4366.744339,1184.329507,8512.368333
267.026283,4826.401637,1480.411884,8882.471304
267.026591,4060.306139,444.123565,9474.636058
267.026899,4060.306139,1110.308913,9474.636058
267.027207,2757.943793,148.041188,9770.718434
267.027515,2987.772442,444.123565,10066.800811
267.027823,2911.162892,666.185348,9548.656652
267.028132,2681.334243,370.102971,9992.780217
267.028440,2681.334243,370.102971,10214.842000
267.028748,2374.896044,666.185348,10140.821405
267.029056,2221.676944,296.082377,9992.780217
267.029364,1685.410096,222.061783,9622.677246
267.029672,2451.505594,592.164754,9844.739029
267.029980,1608.800546,-0.000000,9918.759623
267.030288,1762.019645,-148.041188,10214.842000
267.030596,1378.971896,-666.185348,10436.903782
267.030904,1991.848295,-1184.329507,10881.027347
267.031212,1762.019645,-1406.391290,10807.006753
267.031520,2145.067394,-1110.308913,10955.047942
267.031828,2528.115143,-1480.411884,10584.944971
267.032137,2604.724693,-2072.576638,10362.883188
267.032445,3064.381992,-1480.411884,9992.780217
267.032753,3294.210641,-1258.350101,9548.656652
267.033061,3830.477490,-740.205942,9400.615463
267.033369,4519.963438,-222.061783,9474.636058
267.033677,5132.839837,370.102971,8216.285956
267.033985,4979.620737,518.144159,8364.327145
267.034293,5056.230287,666.185348,8512.368333
267.034601,5362.668486,962.267725,8216.285956
267.034909,4596.572988,740.205942,8660.409521
267.035217,4366.744339,370.102971,8660.409521
267.035525,3983.696590,-0.000000,9400.615463
267.035834,3217.601092,-0.000000,9474.636058
267.036142,3600.648841,-296.082377,9696.697840
267.036450,3370.820191,148.041188,9844.739029
267.036758,3370.820191,740.205942,8956.491898
267.037066,3753.867940,1628.453072,8734.430116
267.037374,4136.915689,2590.720797,8290.306550
267.037682,4673.182538,2886.803174,8290.306550
267.037990,4443.353888,3108.864956,8364.327145
267.038298,4060.306139,2368.659014,9030.512492
267.038606,3447.429741,1406.391290,9918.759623
267.038914,1762.019645,-518.144159,11177.109724
267.039222,1455.581446,-1924.535449,12583.501014
267.039530,383.047749,-2960.823768,13027.624579
267.039839,229.828649,-3404.947333,13619.789333
267.040147,842.705048,-3849.070898,13397.727550
267.040455,2221.676944,-2886.803174,12361.439231
267.040763,3524.039291,-1480.411884,10362.883188
267.041071,4903.011187,-0.000000,8734.430116
267.041379,7507.735880,962.267725,8290.306550
267.041687,7201.297681,2294.638420,6143.709319
267.041995,7660.954980,4293.194464,5477.523971
267.042303,8197.221829,4515.256246,5329.482782
267.042611,6818.249932,5033.400406,4737.318029
267.042919,5745.716235,4811.338623,5773.606348
267.043227,4903.011187,3923.091493,6809.894666
267.043535,2681.334243,2368.659014,7476.080014
267.043844,2987.772442,296.082377,10362.883188
267.044152,0.000000,-370.102971,10140.821405
267.044460,-383.047749,-2072.576638,12065.356855
267.044768,-612.876398,-4071.132681,14063.912898
267.045076,-1608.800546,-3330.926739,13175.665768
267.045384,-459.657299,-4293.194464,14211.954086
267.045692,383.047749,-3552.988522,12805.562797
267.046000,1532.190996,-2664.741391,12509.480420
267.046308,2834.553343,-2368.659014,10510.924376
267.046616,3294.210641,-592.164754,9400.615463
267.046924,4136.915689,148.041188,8290.306550
267.047232,4596.572988,1480.411884,7179.997637
267.047541,4903.011187,2442.679609,7031.956449
267.047849,4749.792088,3034.844362,6143.709319
267.048157,4519.963438,3108.864956,6587.832884
267.048465,3524.039291,2664.741391,6513.812290
267.048773,3064.381992,1110.308913,7698.141797
267.049081,1915.238745,-148.041188,9474.636058
267.049389,229.828649,-1776.494261,10807.006753
267.049697,-306.438199,-3404.947333,12287.418637
267.050005,-995.924147,-4071.132681,13027.624579
267.050313,0.000000,-3182.885551,12583.501014
267.050621,1225.752797,-1998.556043,11695.253884
267.050929,2528.115143,-666.185348,10288.862594
267.051237,4213.525239,1702.473667,8290.306550
267.051546,4903.011187,3256.906145,6661.853478
267.051854,5286.058936,4959.379811,4959.379811
267.052162,5592.497135,5477.523971,5107.421000
267.052470,5286.058936,5477.523971,5477.523971
267.052778,3830.477490,3849.070898,7105.977043
267.053086,2145.067394,1332.370696,9326.594869
267.053394,-919.314598,-444.123565,10436.903782
267.053702,-2298.286494,-2960.823768,14063.912898
267.054010,-4673.182538,-5625.565159,16358.551318
267.054318,-4979.620737,-5699.585753,17098.757260
267.054626,-3753.867940,-5477.523971,16284.530724
267.054934,-1915.238745,-4737.318029,14730.098246
267.055242,842.705048,-2368.659014,11843.295072
267.055551,3370.820191,1184.329507,8290.306550
267.055859,5898.935335,3478.967927,6069.688724
267.056167,5592.497135,4885.359217,4515.256246
267.056475,7277.907231,7105.977043,3849.070898
267.056783,6894.859482,7476.080014,2590.720797
267.057091,5439.278036,5403.503377,4441.235652
267.057399,2911.162892,2442.679609,7179.997637
267.057707,-383.047749,-962.267725,9770.718434
267.058015,-3140.991542,-4367.215058,13175.665768
267.058323,-4903.011187,-5921.647536,15544.324782
267.058631,-4979.620737,-6809.894666,15988.448347
267.058939,-3677.258390,-5477.523971,15026.180623
267.059248,-766.095498,-2664.741391,12953.603985
267.059556,2145.067394,222.061783,9770.718434
267.059864,4366.744339,3034.844362,6809.894666
267.060172,5515.887586,6143.709319,4515.256246
267.060480,6511.811733,7846.182985,3997.112087
267.060788,6205.373534,7031.956449,4663.297435
267.061096,4596.572988,5847.626942,5181.441594
267.061404,2374.896044,2442.679609,7105.977043
267.061712,-1455.581446,-962.267725,10807.006753
267.062020,-4136.915689,-5107.421000,15248.242405
267.062328,-6588.421283,-7402.059420,17246.798449
267.062636,-7507.735880,-9104.533087,17542.880825
267.062944,-5822.325785,-8808.450710,17616.901420
267.063253,-2834.553343,-5625.565159,14211.954086
267.063561,612.876398,-2442.679609,9992.780217
267.063869,3600.648841,888.247130,7031.956449
267.064177,5439.278036,5107.421000,3478.967927
267.064485,8044.002729,7328.038826,3256.906145
267.064793,8810.098227,8068.244768,2516.700203
267.065101,7354.516781,8586.388927,1480.411884
267.065409,5439.278036,5921.647536,4219.173869
267.065717,3600.648841,1554.432478,8364.327145
267.066025,-1149.143247,-2886.803174,11843.295072
267.066333,-4213.525239,-5181.441594,14582.057057
267.066641,-5898.935335,-6365.771101,14952.160028
267.066949,-5209.449386,-6957.935855,14804.118840
267.067258,-2834.553343,-3923.091493,13915.871710
267.067566,459.657299,-666.185348,10955.047942
267.067874,2834.553343,1184.329507,7624.121203
267.068182,3983.696590,3997.112087,5255.462188
267.068490,5439.278036,6587.832884,4959.379811
267.068798,4826.401637,6365.771101,5255.462188
267.069106,3983.696590,5699.585753,6069.688724
267.069414,1378.971896,3330.926739,8068.244768
267.069722,-1302.362347,-148.041188,10955.047942
267.070030,-3753.867940,-3330.926739,14730.098246
267.070338,-5822.325785,-5255.462188,15988.448347
267.070646,-6894.859482,-7031.956449,17024.736666
267.070954,-6128.763984,-7031.956449,16950.716072
267.071261,-3753.867940,-4219.173869,13619.789333
267.071569,0.000000,-814.226536,9400.615463
267.071877,3294.210641,1924.535449,6069.688724
267.072185,5362.668486,4145.153275,4145.153275
267.072493,7048.078582,6069.688724,3404.947333
267.072801,6894.859482,6217.729913,3182.885551
267.073109,5898.935335,5921.647536,3775.050304
267.073417,3294.210641,3404.947333,6883.915261
267.073725,766.095498,-0.000000,9918.759623
267.074033,-1685.410096,-1776.494261,11325.150913
267.074341,-3370.820191,-3478.967927,13101.645173
267.074648,-4366.744339,-4663.297435,14211.954086
267.074956,-3370.820191,-4589.276840,14508.036463
267.075264,-919.314598,-2442.679609,12509.480420
267.075572,306.438199,-148.041188,10066.800811
267.075880,1991.848295,518.144159,8216.285956
267.076188,2374.896044,2220.617826,6735.874072
267.076496,2757.943793,3108.864956,7328.038826
267.076804,1915.238745,2664.741391,7994.224174
267.077112,919.314598,1850.514855,8956.491898
267.077420,-536.266849,222.061783,10732.986159
267.077728,-1455.581446,-2146.597232,12509.480420
267.078036,-2528.115143,-2812.782580,13249.686362
267.078343,-3370.820191,-2812.782580,13619.789333
267.078651,-2681.334243,-3034.844362,12879.583391
267.078959,-1225.752797,-1628.453072,11473.192101
267.079267,1225.752797,814.226536,8808.450710
267.079575,3447.429741,2738.761985,6365.771101
267.079883,5209.449386,3552.988522,5255.462188
267.080191,5439.278036,4071.132681,4811.338623
267.080499,5439.278036,3627.009116,5477.523971
267.080807,3447.429741,2516.700203,7105.977043
267.081115,2068.457845,592.164754,9326.594869
267.081423,612.876398,-296.082377,10584.944971
267.081730,-306.438199,-1332.370696,11029.068536
267.082038,-1225.752797,-1332.370696,11177.109724
267.082346,-1072.533697,-1110.308913,11843.295072
267.082654,0.000000,-222.061783,11695.253884
267.082962,842.705048,370.102971,10436.903782
267.083270,1532.190996,1628.453072,9252.574275
267.083578,2221.676944,1110.308913,8216.285956
267.083886,1685.410096,1036.288319,8290.306550
267.084194,766.095498,666.185348,9104.533087
267.084502,-153.219100,-666.185348,11325.150913
267.084810,-1608.800546,-1998.556043,12139.377449
267.085118,-1991.848295,-2886.803174,13397.727550
267.085425,-1378.971896,-3478.967927,12805.562797
267.085733,-2757.943793,-2368.659014,11473.192101
267.086041,-536.266849,-1184.329507,10658.965565
267.086349,1072.533697,1332.370696,9104.533087
267.086657,2298.286494,2738.761985,7698.141797
267.086965,4366.744339,3775.050304,6069.688724
267.087273,5822.325785,4959.379811,4219.173869
267.087581,5056.230287,4367.215058,4589.276840
267.087889,4366.744339,2220.617826,6069.688724
267.088197,2451.505594,1332.370696,8142.265362
267.088505,229.828649,-1332.370696,10732.986159
267.088812,-1608.800546,-3404.947333,12287.418637
267.089120,-2451.505594,-3034.844362,12139.377449
267.089428,-2374.896044,-2886.803174,12657.521608
267.089736,-612.876398,-2072.576638,11251.130318
267.090044,536.266849,518.144159,10362.883188
267.090352,1608.800546,1628.453072,9770.718434
267.090660,2834.553343,2664.741391,7698.141797
267.090968,3140.991542,3478.967927,6365.771101
267.091276,2834.553343,2886.803174,7476.080014
267.091584,1838.629195,1702.473667,8216.285956
267.091892,153.219100,370.102971,9992.780217
267.092199,-1378.971896,-2294.638420,12361.439231
267.092507,-3677.258390,-3775.050304,14137.933492
267.092815,-4519.963438,-4663.297435,14137.933492
267.093123,-4443.353888,-4663.297435,14211.954086
267.093431,-3600.648841,-2886.803174,12509.480420
267.093739,-1072.533697,-592.164754,10288.862594
267.094047,1991.848295,2146.597232,8216.285956
267.094355,4060.306139,3849.070898,5625.565159
267.094663,5439.278036,4959.379811,3552.988522
267.094971,6281.983084,5329.482782,3552.988522
267.095279,5286.058936,4663.297435,4293.194464
267.095587,3370.820191,2368.659014,6661.853478
267.095894,1302.362347,222.061783,9770.718434
267.096202,-1225.752797,-2368.659014,11769.274478
267.096510,-3217.601092,-3849.070898,12361.439231
267.096818,-3677.258390,-4737.318029,13545.768739
267.097126,-3524.039291,-4071.132681,13545.768739
267.097434,-1149.143247,-2442.679609,12361.439231
267.097742,76.609550,-444.123565,11325.150913
267.098050,1455.581446,1998.556043,8882.471304
267.098358,3447.429741,2812.782580,6809.894666
267.098666,3983.696590,3849.070898,6439.791695
267.098974,3370.820191,3478.967927,6587.832884
267.099281,2528.115143,2664.741391,7402.059420
267.099589,919.314598,814.226536,9844.739029
267.099897,-842.705048,-1776.494261,12065.356855
267.100205,-2681.334243,-3627.009116,14063.912898
267.100513,-3983.696590,-5107.421000,14582.057057
267.100821,-4366.744339,-4515.256246,13767.830521
267.101129,-2757.943793,-2960.823768,12213.398043
267.101437,-612.876398,-222.061783,10214.842000
267.101745,1685.410096,2146.597232,8142.265362
267.102053,4519.963438,3627.009116,5847.626942
267.102361,5592.497135,4737.318029,3849.070898
267.102669,5745.716235,4811.338623,4071.132681
267.102976,4519.963438,3775.050304,4737.318029
267.103284,3217.601092,2738.761985,7179.997637
267.103592,919.314598,296.082377,9844.739029
267.103900,-1149.143247,-1702.473667,11843.295072
267.104208,-2834.553343,-3627.009116,12805.562797
267.104516,-3447.429741,-4737.318029,13397.727550
267.104824,-2681.334243,-2960.823768,13545.768739
267.105132,-1532.190996,-2072.576638,11991.336260
267.105440,612.876398,-0.000000,10436.903782
267.105748,2068.457845,1628.453072,8142.265362
267.106056,3830.477490,2664.741391,6735.874072
267.106363,4213.525239,3256.906145,6143.709319
267.106671,3830.477490,3034.844362,6587.832884
267.106979,3140.991542,2516.700203,8216.285956
267.107287,1225.752797,222.061783,10288.862594
267.107595,-383.047749,-1924.535449,12361.439231
267.107903,-2911.162892,-3552.988522,13841.851115
267.108211,-3907.087040,-4293.194464,13841.851115
267.108519,-4060.306139,-3478.967927,13323.706956
267.108827,-2145.067394,-1998.556043,11769.274478
267.109135,153.219100,592.164754,9770.718434
267.109443,3677.258390,2590.720797,7254.018232
267.109751,5209.449386,3849.070898,5033.400406
267.110058,6052.154434,4589.276840,3997.112087
267.110366,5822.325785,3923.091493,4737.318029
267.110674,4290.134789,3182.885551,5921.647536
267.110982,2451.505594,2072.576638,8142.265362
267.111290,689.485948,-444.123565,10584.944971
267.111598,-1608.800546,-2294.638420,12065.356855
267.111906,-2834.553343,-3108.864956,13323.706956
267.112214,-2298.286494,-3775.050304,13249.686362
267.112522,-2604.724693,-2294.638420,12805.562797
267.112830,-229.828649,-1184.329507,11843.295072
267.113138,919.314598,666.185348,9992.780217
267.113445,2068.457845,2294.638420,7846.182985
267.113753,3370.820191,3108.864956,6587.832884
267.114061,3370.820191,2442.679609,6513.812290
267.114369,2145.067394,2294.638420,7772.162391
267.114677,1991.848295,1480.411884,9252.574275
267.114985,76.609550,-592.164754,11473.192101
267.115293,-1915.238745,-2368.659014,12065.356855
267.115601,-3294.210641,-3627.009116,13397.727550
267.115909,-3294.210641,-3552.988522,13175.665768
267.116217,-3294.210641,-2220.617826,11843.295072
267.116525,-1149.143247,-592.164754,10732.986159
267.116833,1378.971896,814.226536,9252.574275
267.117140,3217.601092,3182.885551,6291.750507
267.117448,4136.915689,3997.112087,4885.359217
267.117756,4903.011187,3404.947333,4811.338623
267.118064,4366.744339,3182.885551,5773.606348
267.118372,2911.162892,2294.638420,7254.018232
267.118680,1149.143247,370.102971,9548.656652
267.118988,-689.485948,-1406.391290,11251.130318
267.119296,-1991.848295,-2590.720797,13027.624579
267.119604,-3524.039291,-2886.803174,12953.603985
267.119912,-2451.505594,-2590.720797,12657.521608
267.120220,-1225.752797,-1850.514855,12509.480420
267.120527,0.000000,-296.082377,11029.068536
267.120835,1378.971896,1628.453072,9030.512492
267.121143,2451.505594,2516.700203,7105.977043
267.121451,3064.381992,2664.741391,7105.977043
267.121759,2681.334243,2072.576638,7550.100608
267.122067,2451.505594,1480.411884,8364.327145
267.122375,612.876398,-222.061783,9992.780217
267.122683,-1149.143247,-2146.597232,11621.233289
267.122991,-2911.162892,-3034.844362,13101.645173
267.123299,-3600.648841,-3404.947333,13249.686362
267.123607,-2681.334243,-2812.782580,13027.624579
267.123914,-1762.019645,-666.185348,10510.924376
267.124222,612.876398,740.205942,9400.615463
267.124530,2451.505594,2368.659014,7550.100608
267.124838,3830.477490,4367.215058,4737.318029
267.125146,5132.839837,3775.050304,4811.338623
267.125454,4979.620737,3330.926739,5107.421000
267.125762,3983.696590,2516.700203,6587.832884
267.126070,2374.896044,814.226536,8142.265362
267.126378,842.705048,-1110.308913,10584.944971
267.126686,-1378.971896,-3108.864956,12213.398043
267.126994,-3217.601092,-3256.906145,13027.624579
267.127302,-2528.115143,-3404.947333,13249.686362
267.127609,-1378.971896,-1924.535449,11843.295072
267.127917,153.219100,-592.164754,10732.986159
267.128225,1608.800546,1406.391290,8956.491898
267.128533,3064.381992,2738.761985,7179.997637
267.128841,4443.353888,3256.906145,6883.915261
267.129149,3524.039291,3478.967927,6809.894666
267.129457,3370.820191,2220.617826,7994.224174
267.129765,1455.581446,1110.308913,9474.636058
267.130073,0.000000,-592.164754,11473.192101
267.130381,-2374.896044,-2812.782580,13249.686362
267.130689,-3907.087040,-3997.112087,14211.954086
267.130996,-3907.087040,-3701.029710,14211.954086
267.131304,-2681.334243,-2146.597232,12435.459826
267.131612,-306.438199,-296.082377,10510.924376
267.131920,1608.800546,1406.391290,8512.368333
267.132228,4136.915689,3552.988522,6365.771101
267.132536,4596.572988,4367.215058,4959.379811
267.132844,5056.230287,4515.256246,4515.256246
267.133152,4826.401637,4515.256246,4959.379811
267.133460,3370.820191,2960.823768,7105.977043
267.133768,1455.581446,962.267725,9030.512492
267.134076,-1149.143247,-1036.288319,11769.274478
267.134384,-2451.505594,-3034.844362,13027.624579
267.134691,-2987.772442,-3775.050304,13397.727550
267.134999,-3524.039291,-3182.885551,12879.583391
267.135307,-1532.190996,-2220.617826,12583.501014
267.135615,0.000000,-0.000000,10584.944971
267.135923,1378.971896,1702.473667,9178.553681
267.136231,3140.991542,2664.741391,7105.977043
267.136539,3370.820191,2960.823768,6143.709319
267.136847,3677.258390,2220.617826,7105.977043
267.137155,2221.676944,1406.391290,7994.224174
267.137463,306.438199,-0.000000,10362.883188
267.137771,-1608.800546,-2442.679609,12509.480420
267.138078,-3294.210641,-3849.070898,13693.809927
267.138386,-4136.915689,-4589.276840,14211.954086
267.138694,-3677.258390,-3775.050304,13101.645173
267.139002,-2068.457845,-2146.597232,11621.233289
267.139310,383.047749,666.185348,9992.780217
267.139618,2681.334243,2294.638420,7624.121203
267.139926,3983.696590,4219.173869,4663.297435
267.140234,4749.792088,4663.297435,4071.132681
267.140542,5209.449386,4367.215058,4737.318029
267.140850,4366.744339,4071.132681,5181.441594
267.141158,3064.381992,2146.597232,7550.100608
267.141466,383.047749,-222.061783,10288.862594
267.141773,-1915.238745,-1850.514855,12065.356855
267.142081,-3370.820191,-4145.153275,13619.789333
267.142389,-3140.991542,-4219.173869,13841.851115
267.142697,-3064.381992,-3034.844362,12953.603985
267.143005,-1072.533697,-1702.473667,11843.295072
267.143313,689.485948,962.267725,10066.800811
267.143621,2681.334243,2442.679609,7550.100608
267.143929,3907.087040,3775.050304,6439.791695
267.144237,4290.134789,3182.885551,5921.647536
267.144545,3140.991542,2812.782580,7550.100608
267.144853,2068.457845,888.247130,9178.553681
267.145160,76.609550,-740.205942,10881.027347
267.145468,-2145.067394,-2590.720797,12583.501014
267.145776,-3064.381992,-4367.215058,13989.892304
267.146084,-3677.258390,-4071.132681,13619.789333
267.146392,-2757.943793,-2886.803174,12731.542202
267.146700,0.000000,-518.144159,10732.986159
267.147008,2374.896044,1554.432478,8142.265362
267.147316,4366.744339,3330.926739,6291.750507
267.147624,5209.449386,4737.318029,4589.276840
267.147932,5515.887586,4589.276840,4293.194464
267.148240,5056.230287,3923.091493,4737.318029
267.148548,3677.258390,3034.844362,6439.791695
267.148855,2068.457845,592.164754,9474.636058
267.149163,-306.438199,-2294.638420,11991.336260
267.149471,-2528.115143,-3627.009116,13471.748144
267.149779,-3753.867940,-4367.215058,13989.892304
267.150087,-3830.477490,-3552.988522,13767.830521
267.150395,-2528.115143,-2294.638420,12509.480420
267.150703,-383.047749,-0.000000,11103.089130
267.151011,1762.019645,1924.535449,9474.636058
267.151319,3447.429741,3330.926739,7550.100608
267.151627,4213.525239,3997.112087,5773.606348
267.151935,3370.820191,3330.926739,5921.647536
267.152242,2757.943793,1554.432478,8290.306550
267.152550,842.705048,-0.000000,10362.883188
267.152858,-1378.971896,-2072.576638,12213.398043
267.153166,-3064.381992,-3775.050304,13471.748144
267.153474,-4136.915689,-4219.173869,13619.789333
267.153782,-3677.258390,-3627.009116,13545.768739
267.154090,-2145.067394,-1554.432478,11991.336260
267.154398,766.095498,370.102971,9474.636058
267.154706,3064.381992,2368.659014,7105.977043
267.155014,4749.792088,4293.194464,4737.318029
267.155322,5132.839837,4737.318029,3775.050304
267.155629,5056.230287,4663.297435,4737.318029
267.155937,4443.353888,3478.967927,5995.668130
267.156245,2834.553343,2072.576638,8068.244768
267.156553,0.000000,-222.061783,11177.109724
267.156861,-1991.848295,-2960.823768,13027.624579
267.157169,-3907.087040,-4145.153275,13471.748144
267.157477,-4290.134789,-4219.173869,14137.933492
267.157785,-3217.601092,-3256.906145,13693.809927
267.158093,-1685.410096,-814.226536,11917.315666
267.158401,689.485948,370.102971,10362.883188
267.158709,2757.943793,1998.556043,7846.182985
267.159017,4136.915689,3627.009116,5773.606348
267.159324,3753.867940,3701.029710,5921.647536
267.159632,3600.648841,2886.803174,6735.874072
267.159940,2298.286494,1036.288319,9104.533087
267.160248,0.000000,-814.226536,10510.924376
267.160556,-2145.067394,-3108.864956,12731.542202
267.160864,-3217.601092,-4293.194464,13767.830521
267.161172,-3677.258390,-4737.318029,13471.748144
267.161480,-2681.334243,-2812.782580,12509.480420
267.161788,0.000000,-814.226536,10510.924376
267.162096,2068.457845,1850.514855,8290.306550
267.162404,3907.087040,3330.926739,5551.544565
267.162711,5132.839837,4589.276840,3923.091493
267.163019,5209.449386,4515.256246,3997.112087
267.163327,5209.449386,4219.173869,5181.441594
267.163635,3370.820191,2886.803174,6587.832884
267.163943,1838.629195,1036.288319,9178.553681
267.164251,-766.095498,-1702.473667,11917.315666
267.164559,-2681.334243,-3404.947333,12583.501014
267.164867,-3983.696590,-4293.194464,13619.789333
267.165175,-3600.648841,-3849.070898,13767.830521
267.165483,-2221.676944,-1924.535449,12509.480420
267.165791,-229.828649,-370.102971,11177.109724
267.166099,2221.676944,1628.453072,8882.471304
267.166407,3753.867940,2886.803174,6291.750507
267.166714,4443.353888,3404.947333,5773.606348
267.167022,4136.915689,3330.926739,6439.791695
267.167330,2834.553343,1924.535449,8290.306550
267.167638,919.314598,-0.000000,10510.924376
267.167946,-1378.971896,-2368.659014,12509.480420
267.168254,-3217.601092,-3849.070898,13397.727550
267.168562,-3753.867940,-4219.173869,13989.892304
267.168870,-3140.991542,-3478.967927,13619.789333
267.169178,-1378.971896,-1480.411884,11695.253884
267.169486,919.314598,1480.411884,9992.780217
267.169794,3600.648841,2368.659014,7105.977043
267.170102,4519.963438,4145.153275,4071.132681
267.170410,5669.106685,4515.256246,4515.256246
267.170718,4979.620737,4293.194464,4885.359217
267.171026,3983.696590,3775.050304,5847.626942
267.171333,2145.067394,1924.535449,7550.100608
267.171641,536.266849,-444.123565,11029.068536
267.171949,-2681.334243,-2812.782580,11917.315666
267.172257,-3753.867940,-3256.906145,13989.892304
267.172565,-3524.039291,-4071.132681,14359.995275
267.172873,-3677.258390,-2220.617826,12287.418637
267.173181,-1149.143247,-1258.350101,12953.603985
267.173489,995.924147,1480.411884,9918.759623
267.173797,2451.505594,2368.659014,7402.059420
267.174105,4749.792088,2960.823768,6809.894666
267.174413,3907.087040,3775.050304,5625.565159
267.174721,3524.039291,2442.679609,8216.285956
267.175029,2221.676944,444.123565,9696.697840
267.175337,-842.705048,-518.144159,10362.883188
267.175644,-2681.334243,-3330.926739,13471.748144
267.175952,-3677.258390,-3849.070898,13249.686362
267.176260,-4060.306139,-3330.926739,13471.748144
267.176568,-1991.848295,-2368.659014,13471.748144
267.176876,-459.657299,-370.102971,10807.006753
267.177184,2068.457845,2072.576638,8290.306550
267.177492,4290.134789,3330.926739,5403.503377
267.177800,5209.449386,4441.235652,4663.297435
267.178108,5515.887586,4663.297435,5033.400406
267.178416,5209.449386,4441.235652,5477.523971
267.178724,4136.915689,3701.029710,6513.812290
267.179032,1302.362347,148.041188,9400.615463
267.179340,-1302.362347,-1776.494261,12065.356855
267.179648,-3064.381992,-3182.885551,12953.603985
267.179956,-4136.915689,-3997.112087,14063.912898
267.180263,-3907.087040,-3923.091493,13989.892304
267.180571,-2068.457845,-2072.576638,12509.480420
267.180879,229.828649,-148.041188,11251.130318
267.181187,2911.162892,1702.473667,7994.224174
267.181495,4519.963438,3182.885551,6069.688724
267.181803,4596.572988,3330.926739,5699.585753
267.182111,4060.306139,3182.885551,6513.812290
267.182419,2451.505594,1924.535449,8512.368333
267.182727,153.219100,-518.144159,10658.965565
267.183035,-2374.896044,-2960.823768,12287.418637
267.183343,-3983.696590,-3923.091493,13619.789333
267.183651,-3830.477490,-4441.235652,14359.995275
267.183959,-3447.429741,-3182.885551,13619.789333
267.184267,-1225.752797,-1628.453072,11399.171507
267.184574,1455.581446,592.164754,8438.347739
267.184882,3370.820191,2886.803174,6069.688724
267.185190,5209.449386,4145.153275,4515.256246
267.185498,6128.763984,5107.421000,3997.112087
267.185806,5975.544884,4811.338623,4367.215058
267.186114,4366.744339,3923.091493,5329.482782
267.186422,2374.896044,1258.350101,8142.265362
267.186730,-229.828649,-1110.308913,10732.986159
267.187038,-2528.115143,-3034.844362,12879.583391
267.187346,-4060.306139,-4515.256246,14211.954086
267.187654,-4519.963438,-4515.256246,14508.036463
267.187962,-3294.210641,-3404.947333,13471.748144
267.188270,-766.095498,-962.267725,11695.253884
267.188578,536.266849,1184.329507,9104.533087
267.188886,3294.210641,2368.659014,6957.935855
267.189193,4060.306139,4071.132681,5995.668130
267.189501,4060.306139,3256.906145,6661.853478
267.189809,2681.334243,2738.761985,7179.997637
267.190117,689.485948,1036.288319,9844.739029
267.190425,-1302.362347,-1998.556043,12435.459826
267.190733,-3294.210641,-3404.947333,13101.645173
267.191041,-4060.306139,-3627.009116,13915.871710
267.191349,-3447.429741,-4367.215058,13693.809927
267.191657,-2068.457845,-2294.638420,12731.542202
267.191965,-306.438199,-444.123565,10658.965565
267.192273,2145.067394,2220.617826,7994.224174
267.192581,3753.867940,3404.947333,5847.626942
267.192889,5745.716235,3701.029710,4219.173869
267.193197,4903.011187,4959.379811,4219.173869
267.193504,4903.011187,4367.215058,5329.482782
267.193812,3217.601092,2960.823768,6661.853478
267.194120,995.924147,814.226536,9030.512492
267.194428,-842.705048,-1480.411884,11769.274478
267.194736,-2681.334243,-3182.885551,12953.603985
267.195044,-3830.477490,-3849.070898,13619.789333
267.195352,-3447.429741,-3256.906145,13471.748144
267.195660,-2298.286494,-1776.494261,12435.459826
267.195968,229.828649,-0.000000,11399.171507
267.196276,1991.848295,1924.535449,8882.471304
267.196584,3217.601092,3182.885551,6513.812290
267.196892,3753.867940,2960.823768,6587.832884
267.197200,2987.772442,2590.720797,7179.997637
267.197508,2374.896044,1406.391290,8586.388927
267.197816,383.047749,-222.061783,10732.986159
267.198123,-1762.019645,-2812.782580,12213.398043
267.198431,-2604.724693,-4071.132681,13841.851115
267.198739,-3907.087040,-3849.070898,13693.809927
267.199047,-3140.991542,-3034.844362,12879.583391
267.199355,-1149.143247,-1332.370696,11621.233289
267.199663,1149.143247,592.164754,9326.594869
267.199971,3677.258390,2590.720797,6217.729913
267.200279,5209.449386,3997.112087,4367.215058
267.200587,5362.668486,4737.318029,4737.318029
267.200895,5669.106685,4589.276840,4071.132681
267.201203,5209.449386,3849.070898,5255.462188
267.201511,2681.334243,2146.597232,7179.997637
267.201819,459.657299,-666.185348,9622.677246
267.202127,-1302.362347,-2442.679609,11695.253884
267.202434,-3294.210641,-3552.988522,13027.624579
267.202742,-3447.429741,-4515.256246,13619.789333
267.203050,-2374.896044,-2368.659014,12731.542202
267.203358,-612.876398,-592.164754,11695.253884
267.203666,1225.752797,814.226536,9474.636058
267.203974,3370.820191,2812.782580,7031.956449
267.204282,4060.306139,3478.967927,5995.668130
267.204590,4213.525239,3552.988522,6513.812290
267.204898,2987.772442,2442.679609,7105.977043
267.205206,1149.143247,814.226536,9696.697840
267.205514,-995.924147,-1776.494261,11991.336260
267.205822,-3294.210641,-3627.009116,13693.809927
267.206130,-4596.572988,-4737.318029,14285.974681
267.206438,-4826.401637,-4441.235652,13915.871710
267.206746,-3064.381992,-3256.906145,12657.521608
267.207053,-689.485948,-740.205942,11103.089130
267.207361,2145.067394,1628.453072,8142.265362
267.207669,4596.572988,2960.823768,5329.482782
267.207977,5745.716235,4737.318029,3775.050304
267.208285,5898.935335,4367.215058,4071.132681
267.208593,5286.058936,4441.235652,4441.235652
267.208901,3677.258390,3330.926739,6661.853478
267.209209,1225.752797,962.267725,9104.533087
267.209517,-1149.143247,-1110.308913,11325.150913
267.209825,-3294.210641,-2886.803174,12953.603985
267.210133,-4136.915689,-4219.173869,13767.830521
267.210441,-3140.991542,-3330.926739,13767.830521
267.210749,-1838.629195,-2072.576638,12065.356855
267.211057,612.876398,-74.020594,10362.883188
267.211364,2374.896044,1998.556043,8586.388927
267.211672,3217.601092,2590.720797,7105.977043
267.211980,3370.820191,2960.823768,6661.853478
267.212288,2834.553343,2294.638420,7402.059420
267.212596,1455.581446,1036.288319,8956.491898
267.212904,-459.657299,-222.061783,10807.006753
267.213212,-2221.676944,-2368.659014,12287.418637
267.213520,-3983.696590,-3552.988522,13915.871710
267.213828,-3907.087040,-4071.132681,14211.954086
267.214136,-3064.381992,-3034.844362,13249.686362
267.214444,-1302.362347,-1776.494261,12213.398043
267.214752,1532.190996,148.041188,9326.594869
267.215060,3447.429741,2146.597232,6513.812290
267.215368,4903.011187,3997.112087,5625.565159
267.215676,6128.763984,3849.070898,4589.276840
267.215983,5515.887586,4811.338623,4811.338623
267.216291,4749.792088,4145.153275,5551.544565
267.216599,3064.381992,2294.638420,6587.832884
267.216907,306.438199,-148.041188,9992.780217
267.217215,-1378.971896,-2516.700203,12879.583391
267.217523,-3064.381992,-3034.844362,13619.789333
267.217831,-3294.210641,-3108.864956,14137.933492
267.218139,-2451.505594,-2368.659014,12731.542202
267.218447,-459.657299,-592.164754,11103.089130
267.218755,1455.581446,1036.288319,9326.594869
267.219063,2834.553343,2146.597232,7698.141797
267.219371,3524.039291,3108.864956,6661.853478
267.219679,3140.991542,2442.679609,6957.935855
267.219987,2681.334243,1480.411884,7846.182985
267.220294,919.314598,222.061783,9400.615463
267.220602,-1302.362347,-1258.350101,11399.171507
267.220910,-2757.943793,-3108.864956,13101.645173
267.221218,-4060.306139,-4293.194464,14211.954086
267.221526,-3907.087040,-3923.091493,14137.933492
267.221834,-2374.896044,-2590.720797,12509.480420
267.222142,0.000000,-814.226536,10584.944971
267.222450,2451.505594,1702.473667,7402.059420
267.222758,4673.182538,3478.967927,5181.441594
267.223066,5745.716235,4441.235652,4219.173869
267.223374,6358.592633,4737.318029,4071.132681
267.223682,5669.106685,4737.318029,4441.235652
267.223990,3830.477490,3108.864956,6365.771101
267.224298,1378.971896,444.123565,8882.471304
267.224606,-1225.752797,-2220.617826,11621.233289
267.224913,-3600.648841,-4219.173869,13249.686362
267.225221,-4519.963438,-4441.235652,14063.912898
267.225529,-3830.477490,-3627.009116,13767.830521
267.225837,-2451.505594,-1628.453072,12509.480420
267.226145,459.657299,-0.000000,11029.068536
267.226453,2221.676944,2146.597232,7920.203579
267.226761,2987.772442,2960.823768,7179.997637
267.227069,3983.696590,3108.864956,6735.874072
267.227377,3217.601092,2812.782580,6809.894666
267.227685,1838.629195,1628.453072,9252.574275
267.227993,-383.047749,-814.226536,9622.677246
267.228301,-2528.115143,-1406.391290,12287.418637
267.228609,-3294.210641,-4145.153275,14211.954086
267.228917,-4290.134789,-3997.112087,13915.871710
267.229224,-3907.087040,-3552.988522,14434.015869
267.229532,-1225.752797,-2368.659014,12509.480420
267.229840,1072.533697,-0.000000,9918.759623
267.230148,3753.867940,2516.700203,6365.771101
267.230456,5439.278036,3849.070898,5033.400406
267.230764,5975.544884,5033.400406,3923.091493
267.231072,6205.373534,4959.379811,3849.070898
267.231380,5362.668486,4589.276840,5033.400406
267.231688,3524.039291,2738.761985,6883.915261
267.231996,1225.752797,-296.082377,10214.842000
267.232304,-1608.800546,-2072.576638,12287.418637
267.232612,-3140.991542,-2960.823768,13175.665768
267.232920,-3447.429741,-3849.070898,13989.892304
267.233228,-2451.505594,-2072.576638,12879.583391
267.233536,-612.876398,-666.185348,11843.295072
267.233843,1762.019645,740.205942,9770.718434
267.234151,2757.943793,2368.659014,7550.100608
267.234459,3217.601092,2738.761985,7105.977043
267.234767,3907.087040,2812.782580,7254.018232
267.235075,2987.772442,2220.617826,7624.121203
267.235383,1225.752797,962.267725,9770.718434
267.235691,-766.095498,-1184.329507,11473.192101
267.235999,-2834.553343,-3034.844362,13619.789333
267.236307,-4136.915689,-4293.194464,14730.098246
267.236615,-4290.134789,-4589.276840,14285.974681
267.236923,-2834.553343,-3108.864956,13027.624579
267.237231,-153.219100,-962.267725,11251.130318
267.237539,2298.286494,1110.308913,7920.203579
267.237847,4213.525239,3108.864956,5477.523971
267.238154,5592.497135,4589.276840,4071.132681
267.238462,6358.592633,5033.400406,3775.050304
267.238770,6205.373534,4737.318029,4293.194464
267.239078,4366.744339,3997.112087,5181.441594
267.239386,2298.286494,1406.391290,8142.265362
267.239694,459.657299,-592.164754,10955.047942
267.240002,-2451.505594,-2886.803174,12657.521608
267.240310,-3524.039291,-4145.153275,13471.748144
267.240618,-3370.820191,-3478.967927,13175.665768
267.240926,-2221.676944,-2146.597232,12213.398043
267.241234,0.000000,-370.102971,10955.047942
267.241542,2221.676944,1184.329507,8882.471304
267.241850,2834.553343,2664.741391,7105.977043
267.242158,3294.210641,2516.700203,6735.874072
267.242466,2528.115143,2368.659014,7105.977043
267.242773,1072.533697,1406.391290,8586.388927
267.243081,-306.438199,-296.082377,10955.047942
267.243389,-2451.505594,-2294.638420,12509.480420
267.243697,-4060.306139,-3923.091493,14359.995275
267.244005,-5132.839837,-4071.132681,14582.057057
267.244313,-4060.306139,-4145.153275,13619.789333
267.244621,-1991.848295,-2072.576638,12361.439231
267.244929,306.438199,222.061783,9622.677246
267.245237,3064.381992,2368.659014,7031.956449
267.245545,4903.011187,3849.070898,4663.297435
267.245853,5362.668486,4737.318029,3478.967927
267.246161,5439.278036,4515.256246,4589.276840
267.246469,4979.620737,3849.070898,5477.523971
267.246777,2604.724693,2368.659014,7550.100608
267.247084,1149.143247,-0.000000,9844.739029
267.247392,-1685.410096,-1924.535449,12287.418637
267.247700,-3294.210641,-3478.967927,12879.583391
267.248008,-3447.429741,-3330.926739,12879.583391
267.248316,-2451.505594,-2442.679609,13027.624579
267.248624,-995.924147,-592.164754,11473.192101
267.248932,842.705048,666.185348,10066.800811
267.249240,2604.724693,2664.741391,8142.265362
267.249548,2757.943793,2220.617826,7105.977043
267.249856,3140.991542,2960.823768,7179.997637
267.250164,2451.505594,2590.720797,8068.244768
267.250472,919.314598,962.267725,9548.656652
267.250780,-1149.143247,-888.247130,11251.130318
267.251088,-2757.943793,-3034.844362,13693.809927
267.251396,-3983.696590,-4367.215058,14878.139434
267.251703,-3830.477490,-4293.194464,14211.954086
267.252011,-2528.115143,-3701.029710,12953.603985
267.252319,-612.876398,-1110.308913,10955.047942
267.252627,1685.410096,1332.370696,8364.327145
267.252935,4290.134789,3256.906145,5921.647536
267.253243,6052.154434,4737.318029,4145.153275
267.253551,6435.202183,5033.400406,3478.967927
267.253859,6511.811733,4441.235652,4441.235652
267.254167,4749.792088,3701.029710,5403.503377
267.254475,2911.162892,962.267725,8364.327145
267.254783,229.828649,-1702.473667,11473.192101
267.255091,-2604.724693,-2442.679609,12361.439231
267.255399,-3600.648841,-3923.091493,13323.706956
267.255707,-2834.553343,-2442.679609,13101.645173
267.256014,-1225.752797,-1480.411884,11991.336260
267.256322,995.924147,444.123565,10510.924376
267.256630,2451.505594,1628.453072,8660.409521
267.256938,3370.820191,2516.700203,7402.059420
267.257246,3600.648841,2886.803174,7105.977043
267.257554,2911.162892,2220.617826,7328.038826
267.257862,1455.581446,1406.391290,8808.450710
267.258170,-306.438199,-370.102971,10584.944971
267.258478,-2145.067394,-2368.659014,12657.521608
267.258786,-3753.867940,-3997.112087,13693.809927
267.259094,-3677.258390,-4515.256246,14582.057057
267.259402,-3524.039291,-3775.050304,13841.851115
267.259710,-1608.800546,-2516.700203,11695.253884
267.260018,842.705048,-0.000000,8956.491898
267.260326,3830.477490,2812.782580,5847.626942
267.260633,5209.449386,4293.194464,4663.297435
267.260941,6281.983084,4737.318029,3775.050304
267.261249,6511.811733,5181.441594,3256.906145
267.261557,4903.011187,4145.153275,5107.421000
267.261865,3217.601092,1998.556043,7402.059420
267.262173,766.095498,-518.144159,10066.800811
267.262481,-2068.457845,-2590.720797,12583.501014
267.262789,-3753.867940,-3627.009116,13323.706956
267.263097,-3370.820191,-3701.029710,13693.809927
267.263405,-2068.457845,-2368.659014,12805.562797
267.263713,-383.047749,-444.123565,11251.130318
267.264021,1455.581446,888.247130,9326.594869
267.264329,2451.505594,1776.494261,8734.430116
267.264637,2834.553343,2442.679609,6957.935855
267.264944,2604.724693,2590.720797,7105.977043
267.265252,1762.019645,2516.700203,8216.285956
267.265560,306.438199,1406.391290,9326.594869
267.265868,-1991.848295,-592.164754,11695.253884
267.266176,-3447.429741,-3182.885551,14063.912898
267.266484,-4749.792088,-4589.276840,14582.057057
267.266792,-4903.011187,-4367.215058,14804.118840
267.267100,-3294.210641,-3775.050304,13693.809927
267.267408,-1072.533697,-1110.308913,10288.862594
267.267716,1915.238745,1184.329507,8216.285956
267.268024,4290.134789,3627.009116,5625.565159
267.268332,5898.935335,5033.400406,3923.091493
267.268640,6741.640382,5699.585753,3404.947333
267.268948,5975.544884,5699.585753,3701.029710
267.269256,4979.620737,4441.235652,6069.688724
267.269564,1455.581446,1924.535449,8660.409521
267.269872,-1225.752797,-962.267725,11251.130318
267.270180,-3217.601092,-2664.741391,13471.748144
267.270488,-3983.696590,-3997.112087,14508.036463
267.270796,-4060.306139,-3256.906145,14359.995275
267.271104,-2221.676944,-2072.576638,13323.706956
267.271412,-306.438199,-296.082377,11769.274478
267.271720,1685.410096,592.164754,9992.780217
267.272028,2604.724693,1628.453072,7846.182985
267.272336,3217.601092,2664.741391,7254.018232
267.272644,2834.553343,2590.720797,7105.977043
267.272952,2298.286494,2294.638420,8364.327145
267.273260,536.266849,296.082377,9844.739029
267.273567,-1532.190996,-1480.411884,12139.377449
267.273875,-2834.553343,-3701.029710,13841.851115
267.274183,-3677.258390,-4219.173869,13619.789333
267.274491,-3217.601092,-3775.050304,13545.768739
267.274799,-1455.581446,-1998.556043,11177.109724
267.275107,1455.581446,740.205942,8660.409521
267.275415,3830.477490,2664.741391,5995.668130
267.275723,5669.106685,4071.132681,4293.194464
267.276031,6665.030833,4367.215058,4071.132681
267.276339,6205.373534,4811.338623,4293.194464
267.276647,4903.011187,3478.967927,4515.256246
267.276955,3447.429741,1776.494261,6957.935855
267.277263,229.828649,-592.164754,9622.677246
267.277571,-1685.410096,-2590.720797,12509.480420
267.277879,-3140.991542,-3849.070898,13027.624579
267.278187,-3217.601092,-3552.988522,13249.686362
267.278495,-1991.848295,-3108.864956,13249.686362
267.278803,-1072.533697,-1110.308913,11399.171507
267.279111,1072.533697,-0.000000,10066.800811
267.279419,2757.943793,1850.514855,7254.018232
267.279727,3447.429741,2516.700203,6513.812290
267.280035,2911.162892,2590.720797,6809.894666
267.280343,2604.724693,2294.638420,7031.956449
267.280651,1762.019645,1480.411884,9030.512492
267.280959,-1072.533697,-888.247130,10807.006753
267.281267,-2451.505594,-3478.967927,13471.748144
267.281575,-4979.620737,-3627.009116,13471.748144
267.281883,-4366.744339,-3923.091493,14211.954086
267.282191,-2145.067394,-3034.844362,13471.748144
267.282499,-1378.971896,-0.000000,8808.450710
267.282807,2068.457845,1332.370696,8364.327145
267.283115,4366.744339,2590.720797,5773.606348
267.283423,4903.011187,4293.194464,4367.215058
267.283730,4979.620737,4515.256246,5033.400406
267.284038,4903.011187,4737.318029,4737.318029
267.284346,2681.334243,2738.761985,7328.038826
267.284654,919.314598,370.102971,9400.615463
267.284962,-1685.410096,-1480.411884,11695.253884
267.285270,-3677.258390,-2960.823768,13767.830521
267.285578,-4290.134789,-3849.070898,14434.015869
267.285886,-3600.648841,-2812.782580,13249.686362
267.286194,-1608.800546,-1258.350101,12731.542202
267.286502,383.047749,296.082377,10881.027347
267.286810,2145.067394,2146.597232,8364.327145
267.287118,3677.258390,2886.803174,7772.162391
267.287426,3830.477490,3108.864956,6439.791695
267.287734,3217.601092,3108.864956,7105.977043
267.288042,1685.410096,1554.432478,8660.409521
267.288350,0.000000,-444.123565,10362.883188
267.288658,-1838.629195,-2294.638420,12657.521608
267.288966,-3600.648841,-3997.112087,14211.954086
267.289274,-4443.353888,-3997.112087,14582.057057
267.289582,-3830.477490,-3478.967927,13323.706956
267.289890,-1455.581446,-1406.391290,11621.233289
267.290198,919.314598,740.205942,9474.636058
267.290506,3907.087040,2294.638420,7105.977043
267.290814,4826.401637,4219.173869,4959.379811
267.291122,6281.983084,4293.194464,4145.153275
267.291430,5515.887586,4959.379811,4589.276840
267.291738,4673.182538,3775.050304,5477.523971
267.292046,2604.724693,1998.556043,7846.182985
267.292354,-153.219100,-740.205942,10362.883188
267.292662,-2298.286494,-2516.700203,12435.459826
267.292970,-3370.820191,-3923.091493,13841.851115
267.293278,-3677.258390,-3627.009116,14063.912898
267.293586,-2757.943793,-2738.761985,12953.603985
267.293893,-306.438199,-1036.288319,11769.274478
267.294201,2068.457845,592.164754,9474.636058
267.294509,3140.991542,2368.659014,7698.141797
267.294817,4136.915689,3182.885551,6809.894666
267.295125,4290.134789,3404.947333,5921.647536
267.295433,3217.601092,3330.926739,6883.915261
267.295741,2374.896044,1554.432478,9030.512492
267.296049,0.000000,-592.164754,10066.800811
267.296357,-2298.286494,-2220.617826,12509.480420
267.296665,-3370.820191,-3923.091493,13915.871710
267.296973,-3753.867940,-3997.112087,13027.624579
267.297281,-2451.505594,-2590.720797,12435.459826
267.297589,0.000000,-1258.350101,10658.965565
267.297897,2145.067394,1406.391290,7550.100608
267.298205,4213.525239,3034.844362,5699.585753
267.298513,6281.983084,3552.988522,5033.400406
267.298821,5515.887586,3997.112087,4145.153275
267.299129,4903.011187,3552.988522,5329.482782
267.299437,3140.991542,2516.700203,6661.853478
267.299745,842.705048,888.247130,9178.553681
267.300053,-1532.190996,-1850.514855,11695.253884
267.300361,-2757.943793,-3182.885551,13027.624579
267.300669,-3830.477490,-3923.091493,14063.912898
267.300977,-3294.210641,-3404.947333,13693.809927
267.301285,-1608.800546,-1998.556043,12361.439231
267.301593,0.000000,-296.082377,10807.006753
267.301901,1838.629195,1258.350101,8660.409521
267.302209,3140.991542,2442.679609,7179.997637
267.302517,3447.429741,2664.741391,6513.812290
267.302825,2911.162892,2960.823768,6809.894666
267.303133,1225.752797,1998.556043,7624.121203
267.303441,306.438199,370.102971,9918.759623
267.303749,-1915.238745,-2072.576638,11769.274478
267.304056,-3600.648841,-2812.782580,13175.665768
267.304364,-4443.353888,-3627.009116,14211.954086
267.304672,-3983.696590,-3404.947333,13545.768739
267.304980,-1991.848295,-1258.350101,11843.295072
267.305288,842.705048,518.144159,9770.718434
267.305596,2757.943793,1850.514855,7179.997637
267.305904,4519.963438,3256.906145,5551.544565
267.306212,4903.011187,3849.070898,5107.421000
267.306520,4673.182538,3923.091493,4885.359217
267.306828,3294.210641,3330.926739,6143.709319
267.307136,1991.848295,1850.514855,8216.285956
267.307444,-306.438199,-444.123565,10510.924376
267.307752,-2374.896044,-2220.617826,12435.459826
267.308060,-3217.601092,-2886.803174,13249.686362
267.308368,-2987.772442,-2590.720797,13619.789333
267.308676,-1991.848295,-2368.659014,12953.603985
267.308984,0.000000,-888.247130,11473.192101
267.309292,1838.629195,1110.308913,9548.656652
267.309600,3370.820191,2220.617826,7994.224174
267.309908,3830.477490,2960.823768,6513.812290
267.310216,3753.867940,2886.803174,7179.997637
267.310524,3217.601092,2146.597232,7698.141797
267.310832,1455.581446,1406.391290,9178.553681
267.311140,-306.438199,-1258.350101,11029.068536
267.311448,-2911.162892,-2664.741391,12657.521608
267.311756,-3907.087040,-3775.050304,13989.892304
267.312064,-3983.696590,-3923.091493,14137.933492
267.312372,-3064.381992,-2590.720797,12509.480420
267.312680,0.000000,-592.164754,10436.903782
267.312988,3140.991542,1998.556043,8216.285956
267.313296,4979.620737,3182.885551,5699.585753
267.313604,5592.497135,4219.173869,4515.256246
267.313912,5822.325785,4515.256246,4811.338623
267.314219,5056.230287,3923.091493,5033.400406
267.314527,3064.381992,2886.803174,6291.750507
267.314835,1838.629195,592.164754,8882.471304
267.315143,-842.705048,-1332.370696,11325.150913
267.315451,-2911.162892,-2590.720797,13249.686362
267.315759,-2451.505594,-3627.009116,13767.830521
267.316067,-2298.286494,-2960.823768,12583.501014
267.316375,-919.314598,-1924.535449,12139.377449
267.316683,1225.752797,-148.041188,10362.883188
267.316991,2911.162892,1776.494261,8290.306550
267.317299,4213.525239,2738.761985,6587.832884
267.317607,4673.182538,3849.070898,5847.626942
267.317915,4136.915689,3552.988522,6513.812290
267.318223,2681.334243,2294.638420,8364.327145
267.318531,612.876398,-0.000000,10436.903782
267.318839,-2374.896044,-1998.556043,12139.377449
267.319147,-4136.915689,-3849.070898,14137.933492
267.319455,-5132.839837,-4515.256246,14878.139434
267.319763,-4213.525239,-3701.029710,14137.933492
267.320071,-2451.505594,-2220.617826,12435.459826
267.320379,689.485948,518.144159,9770.718434
267.320687,3370.820191,2220.617826,7328.038826
267.320995,4826.401637,3849.070898,5033.400406
267.321303,5132.839837,4515.256246,4219.173869
267.321611,5209.449386,4293.194464,4885.359217
267.321919,3753.867940,4071.132681,5625.565159
267.322227,2221.676944,2368.659014,8142.265362
267.322535,0.000000,-148.041188,9548.656652
267.322843,-2221.676944,-2220.617826,11695.253884
267.323151,-3677.258390,-3627.009116,13619.789333
267.323459,-4060.306139,-3849.070898,14211.954086
267.323767,-3447.429741,-2664.741391,13323.706956
267.324075,-919.314598,-1258.350101,12435.459826
267.324382,995.924147,740.205942,9474.636058
267.324690,2604.724693,2442.679609,7624.121203
267.324998,3983.696590,2812.782580,6809.894666
267.325306,3753.867940,3627.009116,6069.688724
267.325614,3600.648841,2664.741391,7402.059420
267.325922,1608.800546,1110.308913,9030.512492
267.326230,-1072.533697,-1110.308913,11177.109724
267.326538,-3370.820191,-2738.761985,13841.851115
267.326846,-4136.915689,-4293.194464,14508.036463
267.327154,-4596.572988,-4367.215058,13915.871710
267.327462,-2911.162892,-3404.947333,13323.706956
267.327770,-612.876398,-814.226536,10436.903782
267.328078,2451.505594,1480.411884,8068.244768
267.328386,4136.915689,2960.823768,6735.874072
267.328694,5132.839837,3923.091493,4737.318029
267.329002,5056.230287,4441.235652,4293.194464
267.329310,4903.011187,4219.173869,4959.379811
267.329618,4366.744339,3330.926739,6069.688724
267.329926,2298.286494,1110.308913,8586.388927
267.330234,-153.219100,-1258.350101,11177.109724
267.330542,-2834.553343,-2590.720797,12361.439231
267.330850,-3447.429741,-3775.050304,13471.748144
267.331158,-3064.381992,-3775.050304,14063.912898
267.331466,-1915.238745,-2072.576638,12361.439231
267.331774,612.876398,-518.144159,11325.150913
267.332082,2145.067394,1406.391290,8956.491898
267.332390,3983.696590,2516.700203,7105.977043
267.332698,4366.744339,2738.761985,6883.915261
267.333006,3753.867940,2590.720797,6735.874072
267.333314,2757.943793,2072.576638,7772.162391
267.333622,919.314598,296.082377,9770.718434
267.333930,-1225.752797,-2072.576638,11843.295072
267.334237,-2911.162892,-3627.009116,12953.603985
267.334545,-4060.306139,-3701.029710,14285.974681
267.334853,-3600.648841,-3997.112087,13397.727550
267.335161,-1838.629195,-1850.514855,11473.192101
267.335469,919.314598,296.082377,9474.636058
267.335777,3600.648841,2220.617826,6587.832884
267.336085,5286.058936,3997.112087,4885.359217
267.336393,6052.154434,4663.297435,4441.235652
267.336701,5822.325785,4441.235652,4293.194464
267.337009,4596.572988,3849.070898,4589.276840
267.337317,3524.039291,2812.782580,7254.018232
267.337625,536.266849,296.082377,9918.759623
267.337933,-1608.800546,-1776.494261,12583.501014
267.338241,-3370.820191,-3552.988522,14211.954086
267.338549,-4749.792088,-4367.215058,14508.036463
267.338857,-3447.429741,-3330.926739,13915.871710
267.339165,-1915.238745,-1480.411884,12435.459826
267.339473,383.047749,-0.000000,11103.089130
267.339781,2221.676944,1702.473667,8882.471304
267.340089,3370.820191,3108.864956,6957.935855
267.340397,3600.648841,2886.803174,6735.874072
267.340705,2757.943793,2516.700203,7698.141797
267.341013,1532.190996,1406.391290,8882.471304
267.341321,-766.095498,-444.123565,10584.944971
267.341629,-2298.286494,-2886.803174,13027.624579
267.341937,-3830.477490,-3775.050304,13471.748144
267.342245,-4366.744339,-3627.009116,13545.768739
267.342553,-3140.991542,-2738.761985,12657.521608
267.342861,-1072.533697,-518.144159,9474.636058
267.343169,2221.676944,1702.473667,8586.388927
267.343477,3907.087040,3256.906145,5699.585753
267.343785,4903.011187,4367.215058,4515.256246
267.344093,5209.449386,4589.276840,4663.297435
267.344400,4826.401637,4145.153275,4959.379811
267.344708,3064.381992,3330.926739,6735.874072
267.345016,1378.971896,666.185348,8956.491898
267.345324,-1149.143247,-1628.453072,12139.377449
267.345632,-3447.429741,-3330.926739,13693.809927
267.345940,-4290.134789,-4441.235652,14285.974681
267.346248,-3983.696590,-3552.988522,14285.974681
267.346556,-1685.410096,-2368.659014,13027.624579
267.346864,-153.219100,-444.123565,10584.944971
267.347172,1608.800546,1850.514855,9030.512492
267.347480,2987.772442,2294.638420,7179.997637
267.347788,3600.648841,3256.906145,6143.709319
267.348096,3753.867940,2738.761985,6809.894666
267.348404,2221.676944,1924.535449,7920.203579
267.348712,536.266849,-0.000000,9918.759623
267.349020,-1685.410096,-1406.391290,12435.459826
267.349328,-2834.553343,-3478.967927,13471.748144
267.349636,-3600.648841,-4145.153275,14211.954086
267.349944,-2834.553343,-3404.947333,13101.645173
267.350252,-919.314598,-1480.411884,11325.150913
267.350560,1915.238745,1036.288319,8142.265362
267.350868,3983.696590,2738.761985,6735.874072
267.351176,5592.497135,4071.132681,4959.379811
267.351484,6665.030833,4589.276840,3404.947333
267.351792,6052.154434,4515.256246,4589.276840
267.352100,4826.401637,4071.132681,5033.400406
267.352408,2757.943793,2072.576638,7624.121203
267.352716,383.047749,-0.000000,10658.965565
267.353024,-1991.848295,-2368.659014,12435.459826
267.353332,-3753.867940,-4071.132681,13841.851115
267.353640,-3983.696590,-4293.194464,14434.015869
267.353948,-3140.991542,-3256.906145,14063.912898
267.354256,-766.095498,-1480.411884,11843.295072
267.354563,1378.971896,518.144159,9992.780217
267.354871,3217.601092,1776.494261,8290.306550
267.355179,3907.087040,3552.988522,6439.791695
267.355487,3830.477490,3627.009116,6143.709319
267.355795,3524.039291,2960.823768,7105.977043
267.356103,2145.067394,1332.370696,8438.347739
267.356411,76.609550,-444.123565,10732.986159
267.356719,-2145.067394,-2960.823768,12731.542202
267.357027,-3830.477490,-4367.215058,13841.851115
267.357335,-4366.744339,-4589.276840,13915.871710
267.357643,-3294.210641,-3478.967927,13249.686362
267.357951,-766.095498,-962.267725,10658.965565
267.358259,2298.286494,1480.411884,7772.162391
267.358567,4060.306139,3330.926739,6069.688724
267.358875,5286.058936,4293.194464,4811.338623
267.359183,5286.058936,4515.256246,4219.173869
267.359491,4749.792088,4515.256246,5107.421000
267.359799,3064.381992,3108.864956,6513.812290
267.360107,1072.533697,1332.370696,9178.553681
267.360415,-1455.581446,-888.247130,11547.212695
267.360723,-3447.429741,-3404.947333,13175.665768
267.361031,-4903.011187,-4293.194464,14063.912898
267.361339,-4596.572988,-4145.153275,15100.201217
267.361647,-2298.286494,-2368.659014,13323.706956
267.361955,-689.485948,-0.000000,10881.027347
267.362263,2298.286494,1184.329507,9178.553681
267.362571,3294.210641,2812.782580,6661.853478
267.362879,3830.477490,3256.906145,6217.729913
267.363187,3677.258390,2886.803174,6809.894666
267.363495,2528.115143,2146.597232,7402.059420
267.363803,689.485948,-0.000000,10140.821405
267.364111,-2374.896044,-1850.514855,12657.521608
267.364419,-3907.087040,-3478.967927,13915.871710
267.364726,-4136.915689,-3997.112087,14211.954086
267.365034,-3370.820191,-3404.947333,12879.583391
267.365342,-1991.848295,-1776.494261,11325.150913
267.365650,919.314598,666.185348,9474.636058
267.365958,3217.601092,2368.659014,7179.997637
267.366266,4979.620737,3701.029710,5477.523971
267.366574,5056.230287,3923.091493,4441.235652
267.366882,5209.449386,4071.132681,4885.359217
267.367190,4596.572988,3701.029710,5255.462188
267.367498,2451.505594,2368.659014,7254.018232
267.367806,459.657299,-0.000000,10510.924376
267.368114,-2068.457845,-2442.679609,12657.521608
267.368422,-3600.648841,-3997.112087,14137.933492
267.368730,-3753.867940,-4441.235652,14359.995275
267.369038,-2528.115143,-3034.844362,13101.645173
267.369346,-306.438199,-1110.308913,11547.212695
267.369654,2528.115143,1036.288319,9622.677246
267.369962,3524.039291,2442.679609,7698.141797
267.370270,4290.134789,2886.803174,5921.647536
267.370578,4673.182538,3256.906145,5773.606348
267.370886,3370.820191,2664.741391,7105.977043
267.371194,2451.505594,1110.308913,9252.574275
267.371502,-536.266849,-1184.329507,11251.130318
267.371809,-2451.505594,-2664.741391,13027.624579
267.372117,-3830.477490,-4441.235652,14285.974681
267.372425,-3677.258390,-4145.153275,13471.748144
267.372733,-2528.115143,-2812.782580,12509.480420
267.373041,-306.438199,-666.185348,10362.883188
267.373349,3370.820191,1702.473667,7920.203579
267.373657,4826.401637,3182.885551,5921.647536
267.373965,5439.278036,4589.276840,4219.173869
267.374273,5745.716235,4589.276840,3997.112087
267.374581,5515.887586,4663.297435,4145.153275
267.374889,3983.696590,3701.029710,6069.688724
267.375197,1838.629195,1554.432478,8142.265362
267.375505,-842.705048,-888.247130,11325.150913
267.375813,-2911.162892,-3108.864956,13619.789333
267.376121,-3983.696590,-4071.132681,13915.871710
267.376429,-3524.039291,-3182.885551,14211.954086
267.376737,-2604.724693,-2294.638420,12657.521608
267.377045,306.438199,-0.000000,10658.965565
267.377352,2068.457845,2072.576638,8956.491898
267.377660,3217.601092,2664.741391,7328.038826
267.377968,3524.039291,2664.741391,6661.853478
267.378276,2987.772442,2738.761985,6957.935855
267.378584,1455.581446,1184.329507,8586.388927
267.378892,-612.876398,-592.164754,10288.862594
267.379200,-2374.896044,-2294.638420,12583.501014
267.379508,-4060.306139,-4071.132681,13397.727550
267.379816,-4749.792088,-4441.235652,14137.933492
267.380124,-3907.087040,-4071.132681,13545.768739
267.380432,-2298.286494,-2294.638420,11769.274478
267.380740,536.266849,296.082377,9252.574275
267.381048,3217.601092,2220.617826,6809.894666
267.381356,4903.011187,3775.050304,5477.523971
267.381664,5592.497135,4441.235652,4367.215058
267.381972,5592.497135,4811.338623,3478.967927
267.382280,4443.353888,4737.318029,5181.441594
267.382587,2604.724693,2590.720797,7179.997637
267.382895,153.219100,296.082377,9548.656652
267.383203,-2451.505594,-2220.617826,12583.501014
267.383511,-3907.087040,-3775.050304,13915.871710
267.383819,-3907.087040,-3552.988522,13841.851115
267.384127,-2681.334243,-2294.638420,13027.624579
267.384435,-612.876398,-740.205942,11695.253884
267.384743,1532.190996,1110.308913,9770.718434
267.385051,2298.286494,2294.638420,8364.327145
267.385359,2911.162892,2368.659014,7550.100608
267.385667,2834.553343,2368.659014,7254.018232
267.385975,2298.286494,1924.535449,8512.368333
267.386283,383.047749,222.061783,9770.718434
267.386591,-766.095498,-1332.370696,11473.192101
267.386899,-3140.991542,-2960.823768,13323.706956
267.387207,-3907.087040,-3849.070898,14063.912898
267.387515,-3753.867940,-4071.132681,13471.748144
267.387823,-2604.724693,-2812.782580,12287.418637
267.388130,689.485948,-888.247130,10436.903782
267.388438,3294.210641,2146.597232,6883.915261
267.388746,5439.278036,2812.782580,6069.688724
267.389054,6128.763984,4145.153275,3997.112087
267.389362,6205.373534,4589.276840,3701.029710
267.389670,6052.154434,4515.256246,4663.297435
267.389978,4443.353888,3701.029710,5699.585753
267.390286,2374.896044,1406.391290,8364.327145
267.390594,76.609550,-1554.432478,10955.047942
267.390902,-2834.553343,-2960.823768,12731.542202
267.391210,-3064.381992,-3923.091493,13397.727550
267.391518,-2451.505594,-3552.988522,13693.809927
267.391826,-1378.971896,-1776.494261,11843.295072
267.392134,1225.752797,592.164754,9992.780217
267.392442,2681.334243,1998.556043,8512.368333
267.392750,3524.039291,2812.782580,7254.018232
267.393058,4136.915689,2664.741391,6735.874072
267.393366,3524.039291,2738.761985,7328.038826
267.393673,1838.629195,1258.350101,8586.388927
267.393981,536.266849,-370.102971,10658.965565
267.394289,-1991.848295,-2072.576638,12435.459826
267.394597,-3447.429741,-3627.009116,14211.954086
267.394905,-4136.915689,-4293.194464,14211.954086
267.395213,-3370.820191,-3775.050304,13693.809927
267.395521,-995.924147,-1998.556043,12065.356855
267.395829,1225.752797,296.082377,8956.491898
267.396137,4290.134789,1998.556043,6957.935855
267.396445,5132.839837,3256.906145,5107.421000
267.396753,5822.325785,4737.318029,3552.988522
267.397061,5822.325785,5107.421000,4219.173869
267.397369,4979.620737,4589.276840,4737.318029
267.397677,2757.943793,2960.823768,6513.812290
267.397985,689.485948,592.164754,10140.821405
267.398293,-2374.896044,-1924.535449,11917.315666
267.398601,-3983.696590,-3404.947333,14063.912898
267.398909,-4366.744339,-4145.153275,14508.036463
267.399216,-3447.429741,-2960.823768,13989.892304
267.399524,-1302.362347,-888.247130,11843.295072
267.399832,612.876398,666.185348,10362.883188
267.400140,1915.238745,1924.535449,8512.368333
267.400448,2987.772442,2516.700203,6957.935855
267.400756,2911.162892,2442.679609,7624.121203
267.401064,1838.629195,2146.597232,8216.285956
267.401372,766.095498,444.123565,9326.594869
267.401680,-995.924147,-518.144159,11547.212695
267.401988,-2834.553343,-2886.803174,13027.624579
267.402296,-4060.306139,-3552.988522,13767.830521
267.402604,-3907.087040,-3775.050304,13471.748144
267.402912,-2451.505594,-3108.864956,12287.418637
267.403220,76.609550,-1110.308913,10584.944971
267.403528,2604.724693,1406.391290,7772.162391
267.403836,4673.182538,2664.741391,5625.565159
267.404144,5209.449386,4737.318029,4663.297435
267.404452,5669.106685,4367.215058,4219.173869
267.404759,5056.230287,4589.276840,4737.318029
267.405067,3907.087040,3404.947333,5847.626942
267.405375,2374.896044,1406.391290,8512.368333
267.405683,-306.438199,-1480.411884,11177.109724
267.405991,-3217.601092,-3182.885551,13027.624579
267.406299,-3907.087040,-3849.070898,14211.954086
267.406607,-3677.258390,-3552.988522,13841.851115
267.406915,-1915.238745,-1998.556043,12287.418637
267.407223,0.000000,-74.020594,10436.903782
267.407531,1991.848295,1036.288319,9252.574275
267.407839,2068.457845,1776.494261,7846.182985
267.408147,2834.553343,1850.514855,7772.162391
267.408455,2068.457845,1924.535449,7846.182985
267.408763,1532.190996,814.226536,8290.306550
267.409071,459.657299,-0.000000,10510.924376
267.409379,-919.314598,-1776.494261,11547.212695
267.409687,-2604.724693,-2738.761985,12731.542202
267.409995,-2911.162892,-3775.050304,13397.727550
267.410302,-1838.629195,-3034.844362,12657.521608
267.410610,-689.485948,-1628.453072,10807.006753
267.410918,1915.238745,666.185348,8882.471304
267.411226,3677.258390,2812.782580,6587.832884
267.411534,5822.325785,3997.112087,4737.318029
267.411842,6128.763984,4589.276840,3923.091493
267.412150,5975.544884,4737.318029,3997.112087
267.412458,4749.792088,4071.132681,5181.441594
267.412766,3064.381992,2368.659014,7402.059420
267.413074,536.266849,-0.000000,10362.883188
267.413382,-1762.019645,-2812.782580,12509.480420
267.413690,-3907.087040,-3923.091493,14211.954086
267.413998,-4213.525239,-3997.112087,14582.057057
267.414306,-2834.553343,-2664.741391,14063.912898
267.414614,-1225.752797,-962.267725,12287.418637
267.414922,995.924147,814.226536,10510.924376
267.415230,2451.505594,2072.576638,8660.409521
267.415538,2834.553343,2294.638420,7550.100608
267.415845,3064.381992,2664.741391,7254.018232
267.416153,1991.848295,2442.679609,7698.141797
267.416461,1225.752797,1628.453072,9400.615463
267.416769,-612.876398,-370.102971,10732.986159
267.417077,-2145.067394,-1702.473667,12361.439231
267.417385,-3217.601092,-2886.803174,13471.748144
267.417693,-3217.601092,-3404.947333,13619.789333
267.418001,-2068.457845,-1924.535449,11917.315666
267.418309,0.000000,-888.247130,10066.800811
267.418617,2374.896044,1110.308913,7846.182985
267.418925,4213.525239,3108.864956,5995.668130
267.419233,4979.620737,4219.173869,4737.318029
267.419541,4979.620737,4071.132681,4515.256246
267.419849,4673.182538,3701.029710,5181.441594
267.420157,3447.429741,2516.700203,6587.832884
267.420465,1455.581446,592.164754,8808.450710
267.420773,-995.924147,-1332.370696,11843.295072
267.421081,-2757.943793,-3330.926739,13323.706956
267.421388,-4136.915689,-4071.132681,13545.768739
267.421696,-3447.429741,-3552.988522,13619.789333
267.422004,-1762.019645,-1924.535449,12361.439231
267.422312,919.314598,-0.000000,10140.821405
267.422620,2834.553343,1776.494261,8734.430116
267.422928,3447.429741,1998.556043,6957.935855
267.423236,3370.820191,2590.720797,6957.935855
267.423544,2757.943793,2146.597232,7179.997637
267.423852,1608.800546,1628.453072,7846.182985
267.424160,0.000000,-74.020594,9918.759623
267.424468,-2145.067394,-1850.514855,11991.336260
267.424776,-3524.039291,-3478.967927,13841.851115
267.425084,-3907.087040,-3997.112087,14211.954086
267.425392,-3370.820191,-3478.967927,13175.665768
267.425700,-1838.629195,-1850.514855,11843.295072
267.426008,1149.143247,296.082377,9770.718434
267.426316,3524.039291,2664.741391,7031.956449
267.426623,5132.839837,3627.009116,5329.482782
267.426931,5822.325785,4367.215058,4441.235652
267.427239,5898.935335,4367.215058,4367.215058
267.427547,4673.182538,3701.029710,6217.729913
267.427855,2528.115143,2368.659014,7624.121203
267.428163,536.266849,-296.082377,10288.862594
267.428471,-2298.286494,-2072.576638,12361.439231
267.428779,-3447.429741,-3552.988522,13545.768739
267.429087,-3600.648841,-3552.988522,13915.871710
267.429395,-2068.457845,-1924.535449,12287.418637
267.429703,306.438199,-0.000000,11251.130318
267.430011,2604.724693,1924.535449,9326.594869
267.430319,3064.381992,3330.926739,7476.080014
267.430627,4443.353888,3182.885551,7476.080014
267.430935,3600.648841,3330.926739,6513.812290
267.431243,2681.334243,2664.741391,7328.038826
267.431551,1302.362347,1332.370696,9178.553681
267.431859,-459.657299,-814.226536,11621.233289
267.432166,-2681.334243,-2664.741391,12731.542202
267.432474,-3753.867940,-4441.235652,13767.830521
267.432782,-3677.258390,-5181.441594,14063.912898
267.433090,-2757.943793,-4219.173869,12805.562797
267.433398,-536.266849,-1258.350101,10732.986159
267.433706,1991.848295,1110.308913,8364.327145
267.434014,4290.134789,2664.741391,6587.832884
267.434322,5362.668486,3997.112087,4737.318029
267.434630,5822.325785,4441.235652,4293.194464
267.434938,5898.935335,4219.173869,4589.276840
267.435246,3830.477490,3404.947333,6291.750507
267.435554,2145.067394,740.205942,8882.471304
267.435862,-1225.752797,-962.267725,10658.965565
267.436170,-3294.210641,-2960.823768,12953.603985
267.436478,-4136.915689,-4219.173869,13841.851115
267.436786,-3600.648841,-3552.988522,13767.830521
267.437094,-2068.457845,-2220.617826,12361.439231
267.437402,612.876398,-296.082377,10140.821405
267.437709,2298.286494,1554.432478,8142.265362
267.438017,3753.867940,2294.638420,7105.977043
267.438325,3677.258390,2738.761985,6735.874072
267.438633,3294.210641,3256.906145,6291.750507
267.438941,2451.505594,2442.679609,7550.100608
267.439249,612.876398,666.185348,9548.656652
267.439557,-1225.752797,-1258.350101,11991.336260
267.439865,-3294.210641,-3182.885551,14211.954086
267.440173,-4366.744339,-4145.153275,14359.995275
267.440481,-4290.134789,-3701.029710,13989.892304
267.440789,-3064.381992,-2590.720797,12509.480420
267.441097,0.000000,-0.000000,9770.718434
267.441405,2374.896044,2072.576638,7328.038826
267.441713,4060.306139,3404.947333,6291.750507
267.442021,5286.058936,3849.070898,4737.318029
267.442329,5056.230287,3701.029710,4515.256246
267.442637,4903.011187,3256.906145,5477.523971
267.442945,3370.820191,2368.659014,6883.915261
267.443252,536.266849,-0.000000,9548.656652
267.443560,-1455.581446,-2146.597232,11991.336260
267.443868,-3064.381992,-3404.947333,13323.706956
267.444176,-3677.258390,-3849.070898,13545.768739
267.444484,-2298.286494,-2738.761985,13323.706956
267.444792,-459.657299,-1036.288319,11325.150913
267.445100,2681.334243,592.164754,9548.656652
267.445408,3064.381992,2294.638420,7550.100608
267.445716,3447.429741,2664.741391,6735.874072
267.446024,3294.210641,2516.700203,6809.894666
267.446332,2451.505594,2368.659014,7179.997637
267.446640,1225.752797,1258.350101,8734.430116
267.446948,0.000000,-666.185348,10732.986159
267.447256,-1991.848295,-2812.782580,12657.521608
267.447564,-4060.306139,-3775.050304,14434.015869
267.447872,-4136.915689,-4219.173869,13989.892304
267.448180,-2987.772442,-3182.885551,12731.542202
267.448488,-995.924147,-1258.350101,10732.986159
267.448795,1915.238745,1184.329507,8290.306550
267.449103,4366.744339,3182.885551,6365.771101
267.449411,5362.668486,3775.050304,5181.441594
267.449719,5822.325785,4145.153275,3923.091493
267.450027,5362.668486,4219.173869,4811.338623
267.450335,4673.182538,3182.885551,6661.853478
267.450643,2145.067394,1184.329507,8216.285956
267.450951,153.219100,-814.226536,10881.027347
267.451259,-2145.067394,-2738.761985,12583.501014
267.451567,-3064.381992,-3182.885551,13249.686362
267.451875,-2911.162892,-2886.803174,13397.727550
267.452183,-1072.533697,-1776.494261,11991.336260
267.452491,995.924147,592.164754,10140.821405
267.452799,3294.210641,2368.659014,8290.306550
267.453107,3064.381992,2886.803174,7402.059420
267.453415,3140.991542,2886.803174,6661.853478
267.453723,2604.724693,2738.761985,7550.100608
267.454031,1685.410096,1554.432478,8808.450710
267.454338,-153.219100,296.082377,10658.965565
267.454646,-2451.505594,-2590.720797,13471.748144
267.454954,-4060.306139,-4293.194464,14730.098246
267.455262,-4979.620737,-4885.359217,14656.077652
267.455570,-4366.744339,-4367.215058,14211.954086
267.455878,-2451.505594,-2294.638420,12287.418637
267.456186,536.266849,592.164754,9400.615463
267.456494,3753.867940,2812.782580,6883.915261
267.456802,5745.716235,4737.318029,3997.112087
267.457110,6511.811733,4737.318029,3330.926739
267.457418,5745.716235,4663.297435,4293.194464
267.457726,5132.839837,4219.173869,5181.441594
267.458034,2834.553343,2442.679609,6587.832884
267.458342,459.657299,-0.000000,9696.697840
267.458650,-1762.019645,-2220.617826,11917.315666
267.458958,-3370.820191,-3627.009116,13249.686362
267.459266,-3600.648841,-3997.112087,13397.727550
267.459574,-2451.505594,-3034.844362,13175.665768
267.459881,0.000000,-1406.391290,11473.192101
267.460189,2221.676944,814.226536,9400.615463
267.460497,2451.505594,2368.659014,8068.244768
267.460805,3370.820191,2812.782580,6957.935855
267.461113,2604.724693,2960.823768,6661.853478
267.461421,1838.629195,2368.659014,8586.388927
267.461729,612.876398,592.164754,10214.842000
267.462037,-1302.362347,-1406.391290,11547.212695
267.462345,-3140.991542,-3627.009116,13693.809927
267.462653,-4519.963438,-4811.338623,14952.160028
267.462961,-5132.839837,-4811.338623,14508.036463
267.463269,-3600.648841,-3478.967927,13323.706956
267.463577,-612.876398,-444.123565,10288.862594
267.463885,2451.505594,2368.659014,7179.997637
267.464193,4826.401637,4145.153275,5181.441594
267.464501,6665.030833,4515.256246,3849.070898
267.464809,5898.935335,4737.318029,3256.906145
267.465116,5669.106685,3997.112087,4219.173869
267.465424,3600.648841,3478.967927,5847.626942
267.465732,1991.848295,666.185348,8216.285956
267.466040,-612.876398,-1332.370696,11325.150913
267.466348,-2757.943793,-3108.864956,12879.583391
267.466656,-3600.648841,-4293.194464,13545.768739
267.466964,-2834.553343,-3478.967927,13841.851115
267.467272,-1225.752797,-2590.720797,12509.480420
267.467580,766.095498,-0.000000,10584.944971
267.467888,2681.334243,1850.514855,8586.388927
267.468196,3370.820191,2664.741391,6957.935855
267.468504,3524.039291,2886.803174,6661.853478
267.468812,3217.601092,3256.906145,6957.935855
267.469120,2374.896044,1850.514855,7846.182985
267.469428,536.266849,-0.000000,9992.780217
267.469736,-1991.848295,-2368.659014,12287.418637
267.470044,-3907.087040,-3775.050304,14434.015869
267.470352,-4749.792088,-4515.256246,14359.995275
267.470660,-4366.744339,-4367.215058,14285.974681
267.470968,-2145.067394,-1924.535449,11917.315666
267.471276,1149.143247,370.102971,9030.512492
267.471584,4366.744339,2960.823768,6587.832884
267.471892,5592.497135,4589.276840,4811.338623
267.472200,6588.421283,4589.276840,3701.029710
267.472508,5975.544884,4515.256246,4293.194464
267.472816,4903.011187,3923.091493,5181.441594
267.473124,2757.943793,2442.679609,6661.853478
267.473432,76.609550,444.123565,9844.739029
267.473740,-1762.019645,-2442.679609,12805.562797
267.474049,-3677.258390,-3478.967927,13249.686362
267.474357,-3753.867940,-4219.173869,14211.954086
267.474665,-2987.772442,-3256.906145,13323.706956
267.474973,-1378.971896,-814.226536,12139.377449
267.475281,1149.143247,962.267725,10732.986159
267.475589,2221.676944,2294.638420,8216.285956
267.475897,2834.553343,2886.803174,7105.977043
267.476205,3447.429741,2960.823768,6809.894666
267.476513,3294.210641,2664.741391,7328.038826
267.476821,1072.533697,1184.329507,8882.471304
267.477129,-459.657299,-1184.329507,11103.089130
267.477437,-2834.553343,-2368.659014,13619.789333
267.477745,-4519.963438,-4219.173869,14508.036463
267.478053,-4290.134789,-4663.297435,14434.015869
267.478361,-3370.820191,-3256.906145,12435.459826
267.478669,-536.266849,-888.247130,10732.986159
267.478977,3140.991542,1702.473667,8142.265362
267.479285,5592.497135,3701.029710,5477.523971
267.479593,5439.278036,4293.194464,4219.173869
267.479901,5592.497135,4589.276840,3775.050304
267.480209,5209.449386,4589.276840,4811.338623
267.480517,3600.648841,3182.885551,6217.729913
267.480825,1378.971896,1554.432478,8142.265362
267.481133,-612.876398,-1258.350101,11251.130318
267.481441,-2604.724693,-3627.009116,13915.871710
267.481749,-4519.963438,-4515.256246,14211.954086
267.482057,-3524.039291,-4367.215058,14211.954086
267.482365,-2757.943793,-2812.782580,12287.418637
267.482673,153.219100,-518.144159,10807.006753
267.482981,2374.896044,962.267725,9030.512492
267.483289,3064.381992,2072.576638,7624.121203
267.483597,3600.648841,2590.720797,6439.791695
267.483905,3830.477490,2368.659014,6661.853478
267.484213,3064.381992,1998.556043,7846.182985
267.484521,1915.238745,222.061783,9178.553681
267.484829,-459.657299,-1480.411884,11251.130318
267.485137,-2451.505594,-3182.885551,13249.686362
267.485445,-3753.867940,-4071.132681,13323.706956
267.485753,-3600.648841,-3552.988522,13471.748144
267.486061,-1762.019645,-1702.473667,11917.315666
267.486369,1378.971896,1184.329507,9178.553681
267.486677,3600.648841,3108.864956,6735.874072
267.486985,5056.230287,3923.091493,5403.503377
267.487293,5515.887586,4515.256246,4663.297435
267.487601,5362.668486,4515.256246,4663.297435
267.487909,4366.744339,3701.029710,5625.565159
267.488217,2298.286494,1924.535449,7476.080014
267.488525,0.000000,-518.144159,10881.027347
267.488833,-2298.286494,-2812.782580,13397.727550
267.489141,-3294.210641,-4071.132681,14285.974681
267.489449,-4136.915689,-3997.112087,14359.995275
267.489757,-3140.991542,-3034.844362,13989.892304
267.490065,-689.485948,-1184.329507,11843.295072
267.490373,1225.752797,1406.391290,10214.842000
267.490681,2987.772442,1998.556043,8068.244768
267.490989,3753.867940,3108.864956,6291.750507
267.491297,3677.258390,3404.947333,7105.977043
267.491605,3447.429741,2442.679609,6809.894666
267.491913,1685.410096,1998.556043,7994.224174
267.492221,0.000000,-148.041188,10807.006753
267.492529,-2298.286494,-1776.494261,12139.377449
267.492837,-3600.648841,-3404.947333,13693.809927
267.493145,-4290.134789,-3701.029710,13767.830521
267.493453,-3294.210641,-2590.720797,12361.439231
267.493761,-1378.971896,-888.247130,11251.130318
267.494069,1991.848295,1036.288319,8586.388927
267.494377,3677.258390,3182.885551,6365.771101
267.494685,4749.792088,4071.132681,5181.441594
267.494993,5209.449386,3627.009116,4811.338623
267.495301,4136.915689,3701.029710,5329.482782
267.495609,2604.724693,2368.659014,7179.997637
267.495917,842.705048,444.123565,9992.780217
267.496225,-1149.143247,-1406.391290,11769.274478
267.496533,-2604.724693,-3108.864956,13545.768739
267.496841,-3294.210641,-4589.276840,13915.871710
267.497149,-3370.820191,-3404.947333,13915.871710
267.497457,-1915.238745,-2220.617826,12213.398043
267.497765,536.266849,-0.000000,10214.842000
267.498073,2681.334243,1628.453072,8290.306550
267.498381,3677.258390,2590.720797,6809.894666
267.498689,3677.258390,2886.803174,6143.709319
267.498997,3524.039291,3182.885551,6439.791695
267.499305,2451.505594,1406.391290,8142.265362
267.499613,612.876398,740.205942,9178.553681
267.499921,-1149.143247,-1406.391290,11547.212695
267.500229,-2834.553343,-3256.906145,13323.706956
267.500537,-4136.915689,-3849.070898,13545.768739
267.500845,-3753.867940,-3775.050304,13323.706956
267.501153,-2145.067394,-2220.617826,11547.212695
267.501461,229.828649,518.144159,8808.450710
267.501769,3370.820191,2516.700203,7179.997637
267.502077,4826.401637,3923.091493,5995.668130
267.502385,5132.839837,4219.173869,4367.215058
267.502693,4519.963438,3775.050304,4885.359217
267.503001,3830.477490,2960.823768,6513.812290
267.503309,2528.115143,2220.617826,7846.182985
267.503617,0.000000,-0.000000,10288.862594
267.503925,-1378.971896,-2220.617826,12139.377449
267.504233,-2757.943793,-3478.967927,13915.871710
267.504541,-2911.162892,-4071.132681,13767.830521
267.504849,-2298.286494,-2886.803174,13027.624579
267.505157,0.000000,-888.247130,10955.047942
267.505465,2145.067394,1332.370696,8808.450710
267.505773,3983.696590,2664.741391,7254.018232
267.506081,4903.011187,3552.988522,6291.750507
267.506389,4443.353888,3182.885551,6365.771101
267.506697,4366.744339,3108.864956,6735.874072
267.507005,2298.286494,1776.494261,8290.306550
267.507313,-229.828649,-518.144159,11177.109724
267.507621,-2681.334243,-2294.638420,13101.645173
267.507929,-3447.429741,-4293.194464,15322.262999
267.508238,-4903.011187,-3997.112087,13619.789333
267.508546,-3294.210641,-2738.761985,12509.480420
267.508854,-383.047749,-1406.391290,11547.212695
267.509162,1838.629195,2146.597232,8142.265362
267.509470,3753.867940,3034.844362,6587.832884
267.509778,4903.011187,4515.256246,4515.256246
267.510086,5209.449386,3997.112087,4885.359217
267.510394,3600.648841,4071.132681,5181.441594
267.510702,2757.943793,3034.844362,6809.894666
267.511010,1072.533697,518.144159,9696.697840
267.511318,-842.705048,-1036.288319,10955.047942
267.511626,-2681.334243,-2738.761985,13027.624579
267.511934,-3524.039291,-3775.050304,13545.768739
267.512242,-3064.381992,-3330.926739,13471.748144
267.512550,-1532.190996,-2072.576638,11843.295072
267.512858,1072.533697,-0.000000,9918.759623
267.513166,3447.429741,1702.473667,7994.224174
267.513474,3830.477490,2442.679609,7031.956449
267.513782,4749.792088,2590.720797,6513.812290
267.514090,4136.915689,2220.617826,6883.915261
267.514398,2298.286494,1702.473667,8364.327145
267.514706,153.219100,-0.000000,10140.821405
267.515014,-1532.190996,-2072.576638,11991.336260
267.515322,-3600.648841,-3330.926739,13249.686362
267.515630,-3294.210641,-4293.194464,13915.871710
267.515938,-3907.087040,-3256.906145,13693.809927
267.516246,-2145.067394,-2146.597232,11769.274478
267.516554,459.657299,222.061783,9474.636058
267.516862,2987.772442,2442.679609,6957.935855
267.517170,4136.915689,3701.029710,5181.441594
267.517478,4519.963438,4145.153275,4885.359217
267.517786,4366.744339,3849.070898,4959.379811
267.518094,3524.039291,3849.070898,6069.688724
267.518402,2528.115143,2072.576638,7550.100608
267.518710,0.000000,370.102971,10066.800811
267.519018,-1991.848295,-2368.659014,12583.501014
267.519326,-3064.381992,-3627.009116,13471.748144
267.519634,-3830.477490,-3849.070898,13471.748144
267.519942,-2451.505594,-3182.885551,13027.624579
267.520250,-306.438199,-1332.370696,11547.212695
267.520558,1838.629195,740.205942,9178.553681
267.520866,4136.915689,1998.556043,7624.121203
267.521174,4519.963438,3034.844362,6809.894666
267.521482,4213.525239,3182.885551,6143.709319
267.521790,3370.820191,2368.659014,7031.956449
267.522098,1532.190996,1332.370696,8660.409521
267.522406,0.000000,-666.185348,10584.944971
267.522714,-2145.067394,-2442.679609,12731.542202
267.523022,-4060.306139,-3849.070898,13989.892304
267.523330,-4366.744339,-4441.235652,14137.933492
267.523638,-3140.991542,-3034.844362,13323.706956
267.523946,-536.266849,-1036.288319,10584.944971
267.524254,2145.067394,1924.535449,7772.162391
267.524562,4519.963438,3478.967927,6143.709319
267.524870,5439.278036,4293.194464,4885.359217
267.525178,5362.668486,4515.256246,4219.173869
267.525486,4903.011187,3701.029710,5477.523971
267.525794,3140.991542,3034.844362,6809.894666
267.526102,1455.581446,1628.453072,9326.594869
267.526410,-1455.581446,-1258.350101,11695.253884
267.526718,-2451.505594,-2812.782580,13323.706956
267.527026,-3217.601092,-3775.050304,13619.789333
267.527334,-3524.039291,-3552.988522,13767.830521
267.527642,-1685.410096,-2368.659014,12509.480420
267.527950,995.924147,-0.000000,10436.903782
267.528258,3140.991542,1924.535449,8808.450710
267.528566,4136.915689,2886.803174,6735.874072
267.528874,3983.696590,2812.782580,6809.894666
267.529182,3370.820191,2738.761985,7328.038826
267.529490,2298.286494,1924.535449,8068.244768
267.529798,229.828649,-0.000000,10140.821405
267.530106,-2145.067394,-1850.514855,12065.356855
267.530414,-3524.039291,-3849.070898,13915.871710
267.530722,-4519.963438,-4959.379811,14434.015869
267.531030,-4213.525239,-3775.050304,13841.851115
267.531338,-2374.896044,-2072.576638,11769.274478
267.531646,536.266849,592.164754,9770.718434
267.531954,3294.210641,3108.864956,6809.894666
267.532262,4979.620737,4737.318029,4811.338623
267.532570,5669.106685,4737.318029,4441.235652
267.532878,5209.449386,4515.256246,4663.297435
267.533186,3907.087040,4219.173869,5107.421000
267.533494,2221.676944,2664.741391,7402.059420
267.533802,0.000000,-0.000000,10362.883188
267.534110,-2068.457845,-2368.659014,12509.480420
267.534418,-3983.696590,-3552.988522,13545.768739
267.534726,-3983.696590,-4737.318029,13841.851115
267.535034,-3064.381992,-3404.947333,13027.624579
267.535342,-1072.533697,-1406.391290,11769.274478
267.535650,1762.019645,518.144159,9918.759623
267.535958,2987.772442,2146.597232,7624.121203
267.536266,4136.915689,2516.700203,6809.894666
267.536574,3830.477490,3034.844362,6291.750507
267.536882,3140.991542,2590.720797,7031.956449
267.537190,1762.019645,1480.411884,8734.430116
267.537498,0.000000,-148.041188,10732.986159
267.537806,-2221.676944,-2294.638420,12657.521608
267.538114,-3524.039291,-3997.112087,14878.139434
267.538422,-4673.182538,-4293.194464,14063.912898
267.538730,-3370.820191,-3330.926739,13101.645173
267.539038,-536.266849,-1184.329507,10955.047942
267.539346,2298.286494,1332.370696,7328.038826
267.539654,4290.134789,3330.926739,5773.606348
267.539962,5592.497135,4071.132681,5107.421000
267.540270,5898.935335,4589.276840,4071.132681
267.540578,5439.278036,4293.194464,4885.359217
267.540886,4443.353888,2812.782580,6365.771101
267.541194,1991.848295,1554.432478,7846.182985
267.541502,-459.657299,-888.247130,11325.150913
267.541810,-2145.067394,-2590.720797,12953.603985
267.542118,-3830.477490,-3849.070898,13545.768739
267.542427,-3217.601092,-4293.194464,14285.974681
267.542735,-1685.410096,-2516.700203,12805.562797
267.543043,229.828649,148.041188,10510.924376
267.543351,2145.067394,1702.473667,8882.471304
267.543659,3907.087040,2960.823768,6735.874072
267.543967,4290.134789,3182.885551,6365.771101
267.544275,4060.306139,2590.720797,6735.874072
267.544583,2604.724693,2072.576638,7698.141797
267.544891,1149.143247,-0.000000,10288.862594
267.545199,-689.485948,-1702.473667,11843.295072
267.545507,-2911.162892,-3182.885551,13989.892304
267.545815,-3983.696590,-4145.153275,14211.954086
267.546123,-3600.648841,-3923.091493,13693.809927
267.546431,-2068.457845,-2146.597232,11991.336260
267.546739,383.047749,296.082377,9474.636058
267.547047,3140.991542,2368.659014,7179.997637
267.547355,5362.668486,3775.050304,5181.441594
267.547663,5669.106685,4441.235652,4589.276840
267.547971,5132.839837,4219.173869,4441.235652
267.548279,4673.182538,3478.967927,5551.544565
267.548587,2374.896044,2368.659014,7402.059420
267.548895,0.000000,518.144159,9696.697840
267.549203,-2221.676944,-1776.494261,12139.377449
267.549511,-3677.258390,-3923.091493,13915.871710
267.549819,-4060.306139,-3997.112087,13545.768739
267.550127,-3294.210641,-3775.050304,13619.789333
267.550435,-306.438199,-2072.576638,11621.233289
267.550743,1915.238745,444.123565,8956.491898
267.551051,3447.429741,2516.700203,7846.182985
267.551359,3830.477490,2664.741391,6883.915261
267.551667,4060.306139,2812.782580,6883.915261
267.551975,2374.896044,2294.638420,7550.100608
267.552283,689.485948,74.020594,9918.759623
267.552591,-1455.581446,-888.247130,11917.315666
267.552899,-3217.601092,-2368.659014,13693.809927
267.553207,-4903.011187,-3923.091493,14063.912898
267.553515,-4903.011187,-3775.050304,14359.995275
267.553823,-3064.381992,-2812.782580,12879.583391
267.554131,-842.705048,148.041188,9474.636058
267.554439,2374.896044,2442.679609,7402.059420
267.554747,4826.401637,4367.215058,5921.647536
267.555055,5132.839837,5107.421000,4589.276840
267.555363,5056.230287,4515.256246,4737.318029
267.555671,5132.839837,3923.091493,4737.318029
267.555979,3370.820191,2590.720797,6217.729913
267.556287,766.095498,592.164754,8956.491898
267.556595,-1149.143247,-1998.556043,12287.418637
267.556903,-3064.381992,-3552.988522,13767.830521
267.557211,-4136.915689,-4589.276840,14211.954086
267.557519,-3600.648841,-4071.132681,13693.809927
267.557827,-2374.896044,-2294.638420,11769.274478
267.558135,1225.752797,1332.370696,10362.883188
267.558443,3140.991542,2590.720797,7920.203579
267.558751,4596.572988,3552.988522,6513.812290
267.559059,4596.572988,3108.864956,6513.812290
267.559367,3677.258390,2294.638420,7105.977043
267.559675,1991.848295,1332.370696,8364.327145
267.559983,0.000000,-592.164754,10807.006753
267.560291,-2298.286494,-2368.659014,12583.501014
267.560599,-4519.963438,-4441.235652,13619.789333
267.560907,-4596.572988,-4959.379811,14211.954086
267.561215,-3983.696590,-4737.318029,13619.789333
267.561523,-1532.190996,-2590.720797,11621.233289
267.561831,1225.752797,222.061783,8734.430116
267.562139,3983.696590,2738.761985,6513.812290
267.562447,5822.325785,4515.256246,5403.503377
267.562755,5898.935335,4589.276840,3775.050304
267.563063,5439.278036,4959.379811,3849.070898
267.563371,4903.011187,4145.153275,5255.462188
267.563679,3140.991542,2738.761985,7105.977043
267.563987,153.219100,666.185348,9992.780217
267.564295,-1915.238745,-1702.473667,12509.480420
267.564603,-3294.210641,-3552.988522,13915.871710
267.564911,-3830.477490,-3627.009116,14211.954086
267.565219,-2834.553343,-2368.659014,13841.851115
267.565527,-229.828649,-296.082377,11843.295072
267.565835,1915.238745,2220.617826,9178.553681
267.566143,3753.867940,2960.823768,7476.080014
267.566451,4749.792088,3404.947333,6883.915261
267.566759,4366.744339,2442.679609,7031.956449
267.567067,2987.772442,1850.514855,7328.038826
267.567375,1685.410096,518.144159,9548.656652
267.567683,-995.924147,-1776.494261,12435.459826
267.567991,-3140.991542,-3034.844362,13471.748144
267.568299,-4136.915689,-4589.276840,14952.160028
267.568607,-4290.134789,-4737.318029,14582.057057
267.568915,-3064.381992,-3182.885551,13027.624579
267.569223,0.000000,-962.267725,10732.986159
267.569531,2298.286494,2220.617826,7772.162391
267.569839,4443.353888,3404.947333,5921.647536
267.570148,6511.811733,4737.318029,4589.276840
267.570456,5745.716235,5033.400406,4145.153275
267.570764,4903.011187,4811.338623,4737.318029
267.571072,3830.477490,3849.070898,5995.668130
267.571380,1302.362347,2368.659014,8364.327145
267.571688,-1149.143247,-592.164754,11547.212695
267.571996,-2987.772442,-2368.659014,13249.686362
267.572304,-4826.401637,-3923.091493,13841.851115
267.572612,-4213.525239,-3552.988522,13767.830521
267.572920,-2221.676944,-2220.617826,12509.480420
267.573228,0.000000,296.082377,11103.089130
267.573536,2068.457845,1332.370696,9030.512492
267.573844,3677.258390,1850.514855,7624.121203
267.574152,4136.915689,2220.617826,6661.853478
267.574460,2911.162892,1480.411884,7402.059420
267.574768,1378.971896,740.205942,8882.471304
267.575076,0.000000,-444.123565,10658.965565
267.575384,-2374.896044,-2072.576638,11917.315666
267.575692,-3983.696590,-3627.009116,13323.706956
267.576000,-4290.134789,-4071.132681,13989.892304
267.576308,-3677.258390,-3404.947333,13101.645173
267.576616,-1991.848295,-1702.473667,10881.027347
267.576924,689.485948,814.226536,9474.636058
267.577232,4290.134789,3108.864956,6809.894666
267.577541,4979.620737,3701.029710,4219.173869
267.577849,5898.935335,4441.235652,3997.112087
267.578157,5898.935335,4071.132681,3997.112087
267.578465,4366.744339,3256.906145,4737.318029
267.578773,2681.334243,1776.494261,6883.915261
267.579081,995.924147,148.041188,9178.553681
267.579389,-842.705048,-2516.700203,11769.274478
267.579697,-3447.429741,-3923.091493,13175.665768
267.580005,-3677.258390,-4293.194464,13989.892304
267.580313,-3447.429741,-3478.967927,12953.603985
267.580621,-1072.533697,-1110.308913,11917.315666
267.580929,1455.581446,888.247130,9474.636058
267.581237,2604.724693,1998.556043,7994.224174
267.581545,3447.429741,2442.679609,7920.203579
267.581853,3370.820191,1924.535449,6735.874072
267.582161,2374.896044,1554.432478,7402.059420
267.582469,383.047749,-0.000000,9252.574275
267.582777,-919.314598,-1184.329507,11325.150913
267.583085,-2681.334243,-2368.659014,12879.583391
267.583393,-3677.258390,-3552.988522,13545.768739
267.583701,-3600.648841,-3478.967927,13323.706956
267.584009,-2757.943793,-2738.761985,12361.439231
267.584317,0.000000,-592.164754,10214.842000
267.584625,2834.553343,1998.556043,7624.121203
267.584933,5056.230287,3404.947333,5847.626942
267.585242,5209.449386,4515.256246,4737.318029
267.585550,5975.544884,4441.235652,4515.256246
267.585858,4979.620737,4293.194464,4737.318029
267.586166,3447.429741,3256.906145,6069.688724
267.586474,1455.581446,1258.350101,8512.368333
267.586782,-459.657299,-814.226536,11251.130318
267.587090,-2757.943793,-2294.638420,12953.603985
267.587398,-3907.087040,-3552.988522,14211.954086
267.587706,-3907.087040,-2812.782580,13767.830521
267.588014,-2604.724693,-1554.432478,12879.583391
267.588322,383.047749,370.102971,10881.027347
267.588630,2068.457845,2220.617826,8660.409521
267.588938,3677.258390,2442.679609,7698.141797
267.589246,4136.915689,1998.556043,7254.018232
267.589554,2604.724693,1702.473667,7624.121203
267.589862,842.705048,444.123565,9548.656652
267.590170,-459.657299,-814.226536,10658.965565
267.590478,-2451.505594,-1850.514855,12139.377449
267.590786,-3753.867940,-3404.947333,13989.892304
267.591094,-4136.915689,-4145.153275,14508.036463
267.591402,-3524.039291,-3330.926739,13397.727550
267.591710,-1532.190996,-1924.535449,12065.356855
267.592018,383.047749,-444.123565,9400.615463
267.592326,3677.258390,2664.741391,6661.853478
267.592634,5669.106685,4293.194464,4885.359217
267.592943,5669.106685,4737.318029,3923.091493
267.593251,5975.544884,4959.379811,3997.112087
267.593559,4903.011187,3923.091493,5181.441594
267.593867,2911.162892,1998.556043,7031.956449
267.594175,306.438199,-0.000000,9400.615463
267.594483,-2145.067394,-1702.473667,11769.274478
267.594791,-2757.943793,-3330.926739,13841.851115
267.595099,-4060.306139,-3627.009116,13397.727550
267.595407,-2757.943793,-2886.803174,13027.624579
267.595715,-306.438199,-296.082377,11473.192101
267.596023,1991.848295,1406.391290,9030.512492
267.596331,2911.162892,2368.659014,7698.141797
267.596639,3907.087040,2664.741391,7476.080014
267.596947,3217.601092,1776.494261,7698.141797
267.597255,1532.190996,1184.329507,9104.533087
267.597563,689.485948,-370.102971,10362.883188
267.597871,-1378.971896,-1480.411884,11695.253884
267.598179,-2987.772442,-2516.700203,13101.645173
267.598487,-4136.915689,-3775.050304,13693.809927
267.598795,-4136.915689,-3923.091493,14211.954086
267.599103,-2298.286494,-2960.823768,12731.542202
267.599411,-153.219100,-1036.288319,9992.780217
267.599719,2911.162892,1776.494261,7254.018232
267.600027,5132.839837,3552.988522,5107.421000
267.600335,6435.202183,5033.400406,3552.988522
267.600644,6435.202183,4663.297435,3849.070898
267.600952,5745.716235,4219.173869,4293.194464
267.601260,3983.696590,2738.761985,6439.791695
267.601568,1685.410096,814.226536,8438.347739
267.601876,-689.485948,-1258.350101,11251.130318
267.602184,-3217.601092,-2886.803174,12657.521608
267.602492,-4060.306139,-4145.153275,14211.954086
267.602800,-3677.258390,-3552.988522,13619.789333
267.603108,-1991.848295,-1480.411884,12361.439231
267.603416,766.095498,296.082377,10732.986159
267.603724,2451.505594,2294.638420,8438.347739
267.604032,2681.334243,2442.679609,7105.977043
267.604340,3524.039291,2442.679609,7624.121203
267.604648,2604.724693,2072.576638,7550.100608
267.604956,1072.533697,1036.288319,9696.697840
267.605264,-612.876398,-444.123565,11103.089130
267.605572,-2451.505594,-1850.514855,12509.480420
267.605880,-3983.696590,-3256.906145,13989.892304
267.606188,-4366.744339,-3552.988522,14656.077652
267.606496,-3677.258390,-4071.132681,13989.892304
267.606804,-2757.943793,-2072.576638,12361.439231
267.607112,1149.143247,-0.000000,9770.718434
267.607420,3140.991542,3182.885551,6291.750507
267.607728,5132.839837,4589.276840,5107.421000
267.608037,6741.640382,5329.482782,4293.194464
267.608345,6281.983084,5551.544565,3404.947333
267.608653,4903.011187,4145.153275,5181.441594
267.608961,3217.601092,2368.659014,7179.997637
267.609269,1149.143247,296.082377,9918.759623
267.609577,-2451.505594,-1998.556043,12287.418637
267.609885,-3524.039291,-3923.091493,13545.768739
267.610193,-4826.401637,-4071.132681,13545.768739
267.610501,-3447.429741,-3330.926739,13323.706956
267.610809,-612.876398,-666.185348,11991.336260
267.611117,1455.581446,1554.432478,9326.594869
267.611425,3830.477490,1924.535449,7476.080014
267.611733,4366.744339,2442.679609,6291.750507
267.612041,3294.210641,2220.617826,6957.935855
267.612349,2451.505594,1184.329507,8216.285956
267.612657,1072.533697,-0.000000,9474.636058
267.612965,-766.095498,-1036.288319,11103.089130
267.613273,-2451.505594,-3182.885551,12731.542202
267.613581,-4060.306139,-4293.194464,14582.057057
267.613889,-4749.792088,-4737.318029,15174.221811
267.614197,-4060.306139,-3404.947333,13101.645173
267.614505,-1149.143247,-1258.350101,11251.130318
267.614813,2145.067394,1332.370696,7994.224174
267.615121,4903.011187,3849.070898,5403.503377
267.615429,6588.421283,4959.379811,4737.318029
267.615738,7048.078582,5255.462188,3627.009116
267.616046,5822.325785,4441.235652,3849.070898
267.616354,4290.134789,3256.906145,5551.544565
267.616662,2834.553343,1332.370696,7920.203579
267.616970,-306.438199,-518.144159,10214.842000
267.617278,-2451.505594,-2590.720797,12213.398043
267.617586,-3370.820191,-3552.988522,13397.727550
267.617894,-3447.429741,-3701.029710,13471.748144
267.618202,-1915.238745,-2072.576638,12657.521608
267.618510,689.485948,-148.041188,9992.780217
267.618818,2834.553343,1998.556043,8216.285956
267.619126,3370.820191,2664.741391,7254.018232
267.619434,3677.258390,2368.659014,6883.915261
267.619742,2757.943793,1554.432478,8068.244768
267.620050,1225.752797,1184.329507,8512.368333
267.620358,-153.219100,-296.082377,10510.924376
267.620666,-2068.457845,-2368.659014,12287.418637
267.620974,-3370.820191,-3034.844362,14211.954086
267.621282,-4443.353888,-4219.173869,14656.077652
267.621590,-3677.258390,-4219.173869,13989.892304
267.621898,-2757.943793,-2294.638420,12139.377449
267.622206,153.219100,-148.041188,10362.883188
267.622514,2987.772442,2590.720797,7105.977043
267.622822,4979.620737,4441.235652,5255.462188
267.623130,5898.935335,5107.421000,4293.194464
267.623439,5745.716235,4737.318029,3849.070898
267.623747,4749.792088,3552.988522,5033.400406
267.624055,2298.286494,2590.720797,7179.997637
267.624363,689.485948,370.102971,9252.574275
267.624671,-1685.410096,-1702.473667,11473.192101
267.624979,-3294.210641,-3108.864956,12805.562797
267.625287,-3830.477490,-3775.050304,13989.892304
267.625595,-3064.381992,-3108.864956,13989.892304
267.625903,-842.705048,-888.247130,11843.295072
267.626211,1225.752797,1332.370696,9548.656652
267.626519,3370.820191,2738.761985,7846.182985
267.626827,3524.039291,3256.906145,6735.874072
267.627135,2604.724693,2664.741391,7179.997637
267.627443,1762.019645,1628.453072,8290.306550
267.627751,229.828649,222.061783,9622.677246
267.628059,-1762.019645,-1036.288319,11843.295072
267.628367,-2987.772442,-2886.803174,14285.974681
267.628675,-4290.134789,-4145.153275,14508.036463
267.628983,-4749.792088,-4737.318029,14508.036463
267.629291,-2911.162892,-3404.947333,13323.706956
267.629599,-766.095498,-888.247130,10584.944971
267.629907,2451.505594,1776.494261,7846.182985
267.630215,5209.449386,4145.153275,5699.585753
267.630523,6358.592633,5329.482782,4219.173869
267.630831,6818.249932,4589.276840,3701.029710
267.631140,5898.935335,4367.215058,4515.256246
267.631448,3983.696590,2368.659014,5995.668130
267.631756,2068.457845,814.226536,8512.368333
267.632064,-536.266849,-1110.308913,10658.965565
267.632372,-2604.724693,-3108.864956,12731.542202
267.632680,-3524.039291,-4071.132681,13989.892304
267.632988,-3064.381992,-3627.009116,13841.851115
267.633296,-1225.752797,-1776.494261,11991.336260
267.633604,1532.190996,518.144159,9474.636058
267.633912,2987.772442,2738.761985,8068.244768
267.634220,4136.915689,3108.864956,7105.977043
267.634528,3983.696590,3108.864956,6587.832884
267.634836,2528.115143,1924.535449,7624.121203
267.635144,995.924147,666.185348,8956.491898
267.635452,-459.657299,-888.247130,10807.006753
267.635760,-2221.676944,-2516.700203,12879.583391
267.636068,-3524.039291,-3775.050304,13619.789333
267.636376,-4290.134789,-4811.338623,14211.954086
267.636684,-3983.696590,-3997.112087,13915.871710
267.636992,-1685.410096,-2590.720797,11769.274478
267.637300,919.314598,666.185348,8734.430116
267.637608,4366.744339,3182.885551,6217.729913
267.637916,6435.202183,5329.482782,4441.235652
267.638224,7354.516781,5773.606348,3182.885551
267.638533,6358.592633,5255.462188,3627.009116
267.638841,5745.716235,4219.173869,4441.235652
267.639149,3370.820191,2442.679609,7402.059420
267.639457,612.876398,-222.061783,9548.656652
267.639765,-2068.457845,-2368.659014,11843.295072
267.640073,-4136.915689,-4293.194464,13545.768739
267.640381,-4673.182538,-4811.338623,14508.036463
267.640689,-2911.162892,-4071.132681,13841.851115
267.640997,-842.705048,-1036.288319,11621.233289
267.641305,919.314598,1628.453072,9474.636058
267.641613,3064.381992,2886.803174,7402.059420
267.641921,4060.306139,3552.988522,6809.894666
267.642229,2911.162892,3182.885551,7105.977043
267.642537,1838.629195,2294.638420,8216.285956
267.642845,842.705048,592.164754,9770.718434
267.643153,-1608.800546,-1554.432478,11547.212695
267.643461,-3217.601092,-3034.844362,13841.851115
267.643769,-4749.792088,-4145.153275,14582.057057
267.644077,-5209.449386,-4885.359217,14952.160028
267.644385,-4596.572988,-3775.050304,13471.748144
267.644693,-1685.410096,-1036.288319,10732.986159
267.645001,2298.286494,2146.597232,8068.244768
267.645309,4290.134789,4145.153275,5403.503377
267.645617,6665.030833,5921.647536,4145.153275
267.645925,6358.592633,5107.421000,3552.988522
267.646234,5286.058936,4737.318029,4441.235652
267.646542,3753.867940,3256.906145,5699.585753
267.646850,1991.848295,1554.432478,8586.388927
267.647158,-1072.533697,-962.267725,10955.047942
267.647466,-2374.896044,-3108.864956,13249.686362
267.647774,-3830.477490,-4219.173869,14285.974681
267.648082,-4136.915689,-4219.173869,14285.974681
267.648390,-1685.410096,-2516.700203,13397.727550
267.648698,612.876398,370.102971,10658.965565
267.649006,2374.896044,1998.556043,8882.471304
267.649314,3370.820191,2960.823768,7105.977043
267.649622,3600.648841,3330.926739,6883.915261
267.649930,2451.505594,2368.659014,7994.224174
267.650238,1762.019645,1258.350101,8290.306550
267.650546,459.657299,-0.000000,10362.883188
267.650854,-1762.019645,-2368.659014,11473.192101
267.651162,-3370.820191,-3478.967927,13619.789333
267.651470,-4290.134789,-4589.276840,14508.036463
267.651778,-3830.477490,-4515.256246,14137.933492
267.652086,-2374.896044,-2442.679609,11769.274478
267.652394,536.266849,148.041188,8586.388927
267.652702,4366.744339,2960.823768,7105.977043
267.653010,6205.373534,4959.379811,4219.173869
267.653318,6741.640382,5107.421000,3849.070898
267.653626,6205.373534,4441.235652,3849.070898
267.653935,4826.401637,3775.050304,5033.400406
267.654243,2604.724693,1998.556043,7254.018232
267.654551,1225.752797,-74.020594,9548.656652
267.654859,-1225.752797,-1776.494261,11769.274478
267.655167,-2757.943793,-3775.050304,12731.542202
267.655475,-2911.162892,-4663.297435,14285.974681
267.655783,-2298.286494,-2812.782580,13175.665768
267.656091,-229.828649,-888.247130,11251.130318
267.656399,2145.067394,1702.473667,9252.574275
267.656707,3907.087040,2738.761985,7179.997637
267.657015,4060.306139,3404.947333,6513.812290
267.657323,3600.648841,2886.803174,7105.977043
267.657631,2911.162892,2072.576638,8364.327145
267.657939,1149.143247,592.164754,9474.636058
267.658247,-689.485948,-1702.473667,11325.150913
267.658555,-2987.772442,-3182.885551,12953.603985
267.658863,-4290.134789,-4441.235652,14582.057057
267.659171,-4673.182538,-4515.256246,14582.057057
267.659479,-3524.039291,-3256.906145,13027.624579
267.659787,-842.705048,-962.267725,11177.109724
267.660095,2451.505594,1924.535449,8216.285956
267.660403,4673.182538,4293.194464,5477.523971
267.660711,5822.325785,5477.523971,4367.215058
267.661019,5822.325785,5107.421000,4219.173869
267.661327,4596.572988,4515.256246,4737.318029
267.661636,2681.334243,2590.720797,6661.853478
267.661944,689.485948,814.226536,8808.450710
267.662252,-1685.410096,-1406.391290,10732.986159
267.662560,-3524.039291,-3330.926739,13101.645173
267.662868,-4290.134789,-4145.153275,14730.098246
267.663176,-3753.867940,-4515.256246,13989.892304
267.663484,-2221.676944,-2442.679609,12953.603985
267.663792,229.828649,-0.000000,10510.924376
267.664100,2528.115143,2294.638420,8512.368333
267.664408,3677.258390,3108.864956,7105.977043
267.664716,3753.867940,3330.926739,6587.832884
267.665024,3140.991542,2516.700203,7179.997637
267.665332,1838.629195,1850.514855,8438.347739
267.665640,0.000000,-0.000000,10066.800811
267.665948,-1991.848295,-1924.535449,11991.336260
267.666256,-3753.867940,-3849.070898,13989.892304
267.666564,-4826.401637,-4885.359217,14730.098246
267.666872,-4443.353888,-4367.215058,13841.851115
267.667180,-2068.457845,-2590.720797,12065.356855
267.667488,383.047749,592.164754,9548.656652
267.667796,3524.039291,2738.761985,6661.853478
267.668104,5439.278036,4737.318029,5107.421000
267.668412,5975.544884,5255.462188,3923.091493
267.668720,5439.278036,4737.318029,4589.276840
267.669029,4443.353888,3404.947333,5403.503377
267.669337,2221.676944,1850.514855,7846.182985
267.669645,0.000000,-814.226536,10584.944971
267.669953,-2528.115143,-2812.782580,11991.336260
267.670261,-3217.601092,-3849.070898,13915.871710
267.670569,-3447.429741,-4293.194464,14952.160028
267.670877,-2757.943793,-2960.823768,13693.809927
267.671185,-229.828649,-740.205942,11695.253884
267.671493,2451.505594,1850.514855,8882.471304
267.671801,4290.134789,3256.906145,7031.956449
267.672109,4673.182538,3923.091493,6587.832884
267.672418,4519.963438,3330.926739,6365.771101
267.672726,3524.039291,2072.576638,7550.100608
267.673034,1685.410096,666.185348,9178.553681
267.673342,-306.438199,-1110.308913,10807.006753
267.673650,-2757.943793,-3108.864956,12657.521608
267.673958,-4136.915689,-4441.235652,14211.954086
267.674266,-4060.306139,-4959.379811,14582.057057
267.674574,-2911.162892,-3256.906145,12953.603985
267.674882,-612.876398,-1036.288319,11325.150913
267.675190,3064.381992,1924.535449,8068.244768
267.675499,5362.668486,4441.235652,5181.441594
267.675807,6435.202183,5625.565159,4071.132681
267.676115,6741.640382,4959.379811,3552.988522
267.676423,5362.668486,4663.297435,4589.276840
267.676731,3524.039291,2664.741391,6291.750507
267.677039,1685.410096,666.185348,8734.430116
267.677347,-689.485948,-1554.432478,11103.089130
267.677655,-3370.820191,-3552.988522,13101.645173
267.677963,-3907.087040,-4737.318029,14285.974681
267.678271,-3370.820191,-4145.153275,14434.015869
267.678580,-2298.286494,-2368.659014,12583.501014
267.678888,383.047749,-0.000000,10510.924376
267.679196,2834.553343,2072.576638,8512.368333
267.679504,4060.306139,2664.741391,6661.853478
267.679812,4366.744339,3330.926739,7105.977043
267.680120,3370.820191,2516.700203,7179.997637
267.680428,1762.019645,1776.494261,8068.244768
267.680736,-153.219100,-0.000000,9918.759623
267.681044,-1915.238745,-2146.597232,11991.336260
267.681353,-4060.306139,-3627.009116,13545.768739
267.681661,-5362.668486,-4737.318029,14434.015869
267.681969,-4290.134789,-4515.256246,14434.015869
267.682277,-2834.553343,-2442.679609,12361.439231
267.682585,-383.047749,296.082377,9548.656652
267.682893,3370.820191,2590.720797,7328.038826
267.683201,5362.668486,4885.359217,4663.297435
267.683509,6205.373534,5329.482782,3923.091493
267.683817,5286.058936,4885.359217,4367.215058
267.684125,4290.134789,3627.009116,5329.482782
267.684434,2374.896044,1924.535449,7772.162391
267.684742,-153.219100,-148.041188,9696.697840
267.685050,-2298.286494,-2442.679609,12509.480420
267.685358,-3983.696590,-3997.112087,13915.871710
267.685666,-4519.963438,-4441.235652,14434.015869
267.685974,-3447.429741,-3849.070898,13989.892304
267.686282,-995.924147,-1110.308913,11843.295072
267.686590,1302.362347,1332.370696,9474.636058
267.686898,2834.553343,2516.700203,7846.182985
267.687207,4443.353888,3330.926739,7254.018232
267.687515,3907.087040,3182.885551,6661.853478
267.687823,2604.724693,2368.659014,7698.141797
267.688131,1532.190996,1184.329507,9104.533087
267.688439,-612.876398,-814.226536,10214.842000
267.688747,-2681.334243,-2368.659014,12361.439231
267.689055,-3524.039291,-4145.153275,13915.871710
267.689363,-4366.744339,-4663.297435,14137.933492
267.689671,-2911.162892,-3627.009116,13249.686362
267.689979,-1302.362347,-1628.453072,11103.089130
267.690288,2068.457845,1850.514855,8586.388927
267.690596,4596.572988,3849.070898,6069.688724
267.690904,5975.544884,4663.297435,4071.132681
267.691212,5822.325785,5033.400406,4145.153275
267.691520,5209.449386,4293.194464,5033.400406
267.691828,3753.867940,2960.823768,6365.771101
267.692136,2528.115143,1554.432478,8586.388927
267.692444,-459.657299,-518.144159,10732.986159
267.692752,-1685.410096,-2664.741391,12509.480420
267.693061,-2681.334243,-3701.029710,14211.954086
267.693369,-3217.601092,-4145.153275,14063.912898
267.693677,-1838.629195,-2590.720797,12879.583391
267.693985,766.095498,-370.102971,10807.006753
267.694293,2681.334243,1702.473667,8512.368333
267.694601,3600.648841,2886.803174,7254.018232
267.694909,5132.839837,3701.029710,6957.935855
267.695217,3830.477490,2960.823768,6809.894666
267.695525,2757.943793,1850.514855,8068.244768
267.695833,919.314598,666.185348,9474.636058
267.696142,-689.485948,-1628.453072,11843.295072
267.696450,-2757.943793,-2886.803174,13027.624579
267.696758,-3830.477490,-4219.173869,14137.933492
267.697066,-3524.039291,-4441.235652,14211.954086
267.697374,-2451.505594,-2886.803174,12287.418637
267.697682,0.000000,-0.000000,9918.759623
267.697990,2987.772442,2664.741391,7254.018232
267.698298,4903.011187,4589.276840,4885.359217
267.698606,5286.058936,4737.318029,4367.215058
267.698914,5439.278036,4219.173869,4885.359217
267.699223,3677.258390,3256.906145,5699.585753
267.699531,2221.676944,1554.432478,7698.141797
267.699839,306.438199,-0.000000,9474.636058
267.700147,-1762.019645,-1702.473667,11843.295072
267.700455,-3447.429741,-3701.029710,13471.748144
267.700763,-3983.696590,-4219.173869,14211.954086
267.701071,-3370.820191,-3849.070898,13767.830521
267.701379,-1455.581446,-1554.432478,11917.315666
267.701687,1225.752797,814.226536,9696.697840
267.701996,2987.772442,2738.761985,7550.100608
267.702304,4366.744339,3627.009116,6217.729913
267.702612,3677.258390,3404.947333,5921.647536
267.702920,2604.724693,2442.679609,7550.100608
267.703228,1149.143247,962.267725,8882.471304
267.703536,-1149.143247,-888.247130,10584.944971
267.703844,-2834.553343,-2812.782580,13323.706956
267.704152,-4673.182538,-4219.173869,14211.954086
267.704460,-4443.353888,-4737.318029,15026.180623
267.704768,-3370.820191,-3775.050304,13545.768739
267.705077,-1072.533697,-1480.411884,11103.089130
267.705385,1762.019645,1850.514855,7846.182985
267.705693,4290.134789,3552.988522,6291.750507
267.706001,5669.106685,4737.318029,4737.318029
267.706309,5515.887586,4811.338623,4293.194464
267.706617,5056.230287,4367.215058,5255.462188
267.706925,3983.696590,2886.803174,6439.791695
267.707233,1532.190996,1554.432478,8512.368333
267.707541,-536.266849,-740.205942,10584.944971
267.707850,-2221.676944,-2516.700203,12805.562797
267.708158,-3677.258390,-3701.029710,13619.789333
267.708466,-3370.820191,-4219.173869,13989.892304
267.708774,-1762.019645,-2960.823768,13101.645173
267.709082,229.828649,-222.061783,10732.986159
267.709390,2604.724693,2072.576638,9178.553681
267.709698,3983.696590,3108.864956,7105.977043
267.710006,4366.744339,3552.988522,6587.832884
267.710314,3217.601092,2664.741391,7402.059420
267.710622,2298.286494,1480.411884,8512.368333
267.710931,383.047749,-148.041188,9918.759623
267.711239,-1685.410096,-1628.453072,11843.295072
267.711547,-3140.991542,-3552.988522,13397.727550
267.711855,-4443.353888,-4737.318029,13989.892304
267.712163,-3907.087040,-4441.235652,14063.912898
267.712471,-2221.676944,-2220.617826,11843.295072
267.712779,766.095498,-0.000000,9474.636058
267.713087,3677.258390,3108.864956,6809.894666
267.713395,6128.763984,4663.297435,4293.194464
267.713703,5975.544884,5329.482782,3627.009116
267.714012,6588.421283,4885.359217,3997.112087
267.714320,5286.058936,4219.173869,4959.379811
267.714628,2987.772442,2294.638420,7105.977043
267.714936,1149.143247,370.102971,9178.553681
267.715244,-1455.581446,-1850.514855,11769.274478
267.715552,-3217.601092,-3775.050304,13841.851115
267.715860,-3907.087040,-4737.318029,14508.036463
267.716168,-4366.744339,-4441.235652,14063.912898
267.716476,-1455.581446,-2220.617826,13027.624579
267.716785,1225.752797,518.144159,9918.759623
267.717093,2451.505594,2590.720797,8586.388927
267.717401,3600.648841,3627.009116,6809.894666
267.717709,3677.258390,3330.926739,6809.894666
267.718017,2757.943793,2368.659014,7920.203579
267.718325,919.314598,1850.514855,8808.450710
267.718633,-229.828649,-444.123565,10732.986159
267.718941,-2374.896044,-1850.514855,12657.521608
267.719249,-4213.525239,-3627.009116,14063.912898
267.719557,-4673.182538,-4885.359217,14508.036463
267.719866,-4213.525239,-3775.050304,13545.768739
267.720174,-2451.505594,-1554.432478,11177.109724
267.720482,1455.581446,1184.329507,8734.430116
267.720790,4443.353888,3997.112087,5773.606348
267.721098,5515.887586,4737.318029,3775.050304
267.721406,6894.859482,4737.318029,3701.029710
267.721714,6052.154434,4441.235652,4367.215058
267.722022,4366.744339,3404.947333,5551.544565
267.722330,2068.457845,1702.473667,7550.100608
267.722639,0.000000,-518.144159,10288.862594
267.722947,-2374.896044,-2812.782580,12509.480420
267.723255,-4060.306139,-4145.153275,13989.892304
267.723563,-4060.306139,-4589.276840,15322.262999
267.723871,-2757.943793,-3552.988522,13545.768739
267.724179,-536.266849,-888.247130,11029.068536
267.724487,1915.238745,1258.350101,9474.636058
267.724795,3677.258390,2442.679609,7772.162391
267.725103,4060.306139,3108.864956,6217.729913
267.725411,3524.039291,2368.659014,6809.894666
267.725720,2681.334243,1480.411884,8512.368333
267.726028,612.876398,-0.000000,9622.677246
267.726336,-919.314598,-1628.453072,12435.459826
267.726644,-3294.210641,-3552.988522,13249.686362
267.726952,-4366.744339,-4219.173869,14063.912898
267.727260,-4366.744339,-4219.173869,14211.954086
267.727568,-2757.943793,-2664.741391,12435.459826
267.727876,306.438199,444.123565,9474.636058
267.728184,3600.648841,3256.906145,6957.935855
267.728492,5822.325785,5107.421000,5255.462188
267.728801,6205.373534,5329.482782,3849.070898
267.729109,5975.544884,5107.421000,4367.215058
267.729417,5209.449386,4219.173869,4885.359217
267.729725,3447.429741,2886.803174,6513.812290
267.730033,1608.800546,518.144159,9104.533087
267.730341,-919.314598,-1480.411884,11177.109724
267.730649,-2604.724693,-3552.988522,13027.624579
267.730957,-3983.696590,-4811.338623,13915.871710
267.731265,-2987.772442,-3701.029710,13767.830521
267.731574,-1685.410096,-1776.494261,12139.377449
267.731882,1378.971896,-0.000000,10584.944971
267.732190,3064.381992,2220.617826,7994.224174
267.732498,4290.134789,3034.844362,6883.915261
267.732806,4519.963438,2738.761985,6809.894666
267.733114,2834.553343,2294.638420,7624.121203
267.733422,1072.533697,666.185348,9622.677246
267.733730,-766.095498,-1184.329507,11251.130318
267.734038,-1762.019645,-2442.679609,12287.418637
267.734346,-4060.306139,-3701.029710,13841.851115
267.734655,-4366.744339,-4145.153275,14359.995275
267.734963,-3447.429741,-3256.906145,13249.686362
267.735271,-1532.190996,-1258.350101,11325.150913
267.735579,2221.676944,1110.308913,8512.368333
267.735887,4060.306139,3923.091493,5773.606348
267.736195,5515.887586,4811.338623,5107.421000
267.736503,5286.058936,5329.482782,4589.276840
267.736811,4673.182538,4885.359217,4589.276840
267.737119,3524.039291,3849.070898,6069.688724
267.737428,1838.629195,1924.535449,8660.409521
267.737736,-1532.190996,-148.041188,9992.780217
267.738044,-2987.772442,-2368.659014,12435.459826
267.738352,-4443.353888,-3849.070898,14730.098246
267.738660,-4826.401637,-4441.235652,14211.954086
267.738968,-2757.943793,-3034.844362,13915.871710
267.739276,-383.047749,-666.185348,10881.027347
267.739584,1838.629195,1776.494261,8512.368333
267.739892,3524.039291,2960.823768,7105.977043
267.740200,4213.525239,2664.741391,7031.956449
267.740509,3294.210641,2146.597232,7031.956449
267.740817,2451.505594,1258.350101,8068.244768
267.741125,459.657299,-74.020594,9770.718434
267.741433,-1378.971896,-2146.597232,11843.295072
267.741741,-3294.210641,-3256.906145,12805.562797
267.742049,-4060.306139,-4145.153275,13693.809927
267.742357,-3830.477490,-3701.029710,13323.706956
267.742665,-2145.067394,-2368.659014,11547.212695
267.742973,919.314598,222.061783,9400.615463
267.743281,3140.991542,2368.659014,6809.894666
267.743590,4749.792088,4145.153275,4959.379811
267.743898,5975.544884,4515.256246,4663.297435
267.744206,5898.935335,3849.070898,4589.276840
267.744514,4290.134789,3478.967927,5107.421000
267.744822,2528.115143,1998.556043,7105.977043
267.745130,229.828649,-444.123565,9622.677246
267.745438,-1838.629195,-2812.782580,11843.295072
267.745746,-2987.772442,-4145.153275,13915.871710
267.746054,-4443.353888,-5107.421000,13767.830521
267.746363,-3907.087040,-4145.153275,13767.830521
267.746671,-1149.143247,-1776.494261,11917.315666
267.746979,1608.800546,1036.288319,9326.594869
267.747287,3524.039291,2886.803174,6957.935855
267.747595,4903.011187,3552.988522,6069.688724
267.747903,4979.620737,3108.864956,6217.729913
267.748211,3983.696590,2146.597232,7105.977043
267.748519,1532.190996,1036.288319,8882.471304
267.748827,-536.266849,-1406.391290,11177.109724
267.749135,-2451.505594,-2368.659014,13027.624579
267.749444,-3983.696590,-3701.029710,13989.892304
267.749752,-3907.087040,-3775.050304,14285.974681
267.750060,-2681.334243,-3182.885551,12879.583391
267.750368,0.000000,-888.247130,10288.862594
267.750676,2681.334243,2368.659014,7550.100608
267.750984,5975.544884,3701.029710,5477.523971
267.751292,6588.421283,5699.585753,3849.070898
267.751600,7048.078582,5255.462188,3923.091493
267.751908,5669.106685,4885.359217,4589.276840
267.752217,4596.572988,3552.988522,7105.977043
267.752525,1302.362347,1924.535449,8290.306550
267.752833,-1302.362347,-888.247130,11547.212695
267.753141,-2451.505594,-3404.947333,14730.098246
267.753449,-4826.401637,-3849.070898,13693.809927
267.753757,-4136.915689,-4663.297435,15544.324782
267.754065,-3370.820191,-2886.803174,13545.768739
267.754373,-383.047749,-74.020594,11547.212695
267.754681,2298.286494,1850.514855,9178.553681
267.754989,3524.039291,3404.947333,6735.874072
267.755298,4213.525239,2590.720797,7179.997637
267.755606,2834.553343,2368.659014,7105.977043
267.755914,1762.019645,1702.473667,9178.553681
267.756222,0.000000,-148.041188,9548.656652
267.756530,-1991.848295,-1924.535449,11769.274478
267.756838,-3907.087040,-3404.947333,13545.768739
267.757146,-4749.792088,-4441.235652,13915.871710
267.757454,-4519.963438,-4145.153275,14359.995275
267.757762,-2604.724693,-2516.700203,11547.212695
267.758070,1149.143247,-148.041188,8956.491898
267.758379,3677.258390,2886.803174,6069.688724
267.758687,5515.887586,3849.070898,4811.338623
267.758995,6205.373534,5107.421000,3404.947333
267.759303,5898.935335,4811.338623,4071.132681
267.759611,5056.230287,3997.112087,5107.421000
267.759919,2451.505594,2738.761985,6587.832884
267.760227,536.266849,-148.041188,10066.800811
267.760535,-2298.286494,-2368.659014,11769.274478
267.760843,-3447.429741,-4145.153275,14434.015869
267.761152,-4826.401637,-4293.194464,14804.118840
267.761460,-4136.915689,-3775.050304,13545.768739
267.761768,-1608.800546,-1406.391290,12065.356855
267.762076,919.314598,888.247130,9548.656652
267.762384,2834.553343,2368.659014,8142.265362
267.762692,3677.258390,2960.823768,6957.935855
267.763000,3677.258390,2294.638420,7550.100608
267.763308,2298.286494,1184.329507,7920.203579
267.763616,842.705048,222.061783,8956.491898
267.763924,-1455.581446,-888.247130,11325.150913
267.764233,-2834.553343,-2516.700203,12509.480420
267.764541,-3830.477490,-3701.029710,13397.727550
267.764849,-4060.306139,-4367.215058,13693.809927
267.765157,-2757.943793,-3108.864956,12731.542202
267.765465,0.000000,-1406.391290,10658.965565
267.765773,2068.457845,1554.432478,7772.162391
267.766081,4826.401637,3330.926739,5625.565159
267.766389,6435.202183,4663.297435,4367.215058
267.766697,6971.469032,4885.359217,3627.009116
267.767006,5745.716235,4737.318029,4071.132681
267.767314,4443.353888,3404.947333,5921.647536
267.767622,2911.162892,1480.411884,7994.224174
267.767930,-153.219100,-962.267725,10584.944971
267.768238,-2451.505594,-2738.761985,12731.542202
267.768546,-3447.429741,-4293.194464,14211.954086
267.768854,-3447.429741,-4145.153275,14434.015869
