#time,accel_x,accel_y,accel_z
655.187162,-95.712904,1110.269686,-11217.552349
655.189324,-19.142581,-5340.780043,-8135.596840
655.191485,-248.853550,-9571.290400,-8327.022648
655.193647,19.142581,-10796.415571,-12212.966550
655.195808,191.425808,-5379.065205,-9207.581365
655.197969,-1741.974853,1148.554848,-8059.026517
655.200131,153.140646,-1052.841944,-10011.569758
655.202292,95.712904,-1052.841944,-10643.274925
655.204453,19.142581,-1359.123237,-7465.606512
655.206615,76.570323,-2890.529701,-11466.405899
655.209046,-708.275490,-4364.508422,-8212.167163
655.211478,-19.142581,-7676.174901,-8671.589102
655.213909,-76.570323,-10451.849117,-10432.706536
655.216341,-746.560651,-5953.342629,-11045.269122
655.218772,76.570323,-1531.406464,-8748.159426
655.221204,-19.142581,3388.236802,-8997.012976
655.223635,-19.142581,6776.473603,-10413.563955
655.226066,19.142581,6412.764568,-8939.585234
655.228498,-363.709035,2354.537438,-9188.438784
655.230929,344.566454,-4843.072942,-9494.720077
655.233361,-440.279358,-6144.768437,-9877.571693
655.235792,38.285162,-8384.450390,-10317.851051
655.238224,-535.992262,-4402.793584,-9284.151688
655.240655,-114.855485,-2143.969050,-10049.854920
655.243087,248.853550,3866.801322,-9877.571693
655.245518,-229.710970,6259.623922,-8882.157491
655.247950,287.138712,2967.100024,-10030.712339
655.250381,-535.992262,-248.853550,-9284.151688
655.252812,248.853550,-5130.211654,-9954.142016
655.255244,-382.851616,-4728.217458,-8690.731683
655.257675,-57.427742,-6297.909083,-10853.843314
655.260107,-153.140646,-3483.949706,-9839.286531
655.262538,382.851616,153.140646,-9552.147819
655.264970,421.136778,2737.389054,-9399.007173
655.267401,-1244.267752,5608.776174,-11255.837510
655.269833,669.990328,4039.084549,-8078.169098
655.272264,-689.132909,1454.836141,-8518.448456
655.274696,325.423874,-5187.639397,-10872.985894
655.277127,-421.136778,-6355.336826,-8556.733618
655.279558,95.712904,-6527.620053,-11255.837510
655.281990,-133.998066,-4019.941968,-9207.581365
655.284421,-210.568389,191.425808,-9839.286531
655.286853,191.425808,3330.809059,-10949.556218
655.289284,-210.568389,6259.623922,-7618.747158
655.291716,344.566454,3062.812928,-9571.290400
655.294147,-401.994197,191.425808,-10777.272990
655.296579,-19.142581,-3866.801322,-8135.596840
655.299010,-38.285162,-5283.352301,-9092.725880
655.301441,-421.136778,-7178.467800,-11830.114934
655.303873,133.998066,-4173.082614,-8843.872330
655.306409,-727.418070,1301.695494,-10202.995566
655.308945,746.560651,2737.389054,-9590.432981
655.311481,-689.132909,4479.363907,-8805.587168
655.314018,669.990328,1435.693560,-10834.700733
655.316554,-497.707101,-267.996131,-8193.024582
655.319090,-19.142581,-4996.213589,-9858.429112
655.321626,-401.994197,-5666.203917,-10241.280728
655.324162,-133.998066,-4575.076811,-9839.286531
655.326699,172.283227,-2335.394858,-8958.727814
655.329235,-593.420005,1225.125171,-11045.269122
655.331771,306.281293,2622.533570,-9705.288466
655.334307,-114.855485,4019.941968,-7714.460062
655.336843,19.142581,382.851616,-11179.267187
655.339379,-478.564520,-1205.982590,-9073.583299
655.341916,325.423874,-4000.799387,-9245.866526
655.344452,-344.566454,-3445.664544,-9571.290400
655.346988,-172.283227,-4230.510357,-10030.712339
655.349524,-57.427742,-2029.113565,-10145.567824
655.352060,172.283227,1607.976787,-8939.585234
655.354597,-229.710970,1703.689691,-10030.712339
655.357133,-114.855485,1607.976787,-9533.005238
655.359669,19.142581,-19.142581,-9303.294269
655.362205,-76.570323,-803.988394,-8863.014910
655.364741,114.855485,-3905.086483,-10470.991698
655.367277,-401.994197,-3273.381317,-9533.005238
655.369814,57.427742,-2641.676150,-9552.147819
655.372350,459.421939,-2603.390989,-9628.718142
655.374886,-1071.984525,765.703232,-9954.142016
655.377422,-95.712904,1990.828403,-10815.558152
655.379958,133.998066,2737.389054,-6853.043926
655.382494,-0.000000,-229.710970,-11523.833642
655.385031,-516.849682,-803.988394,-9513.862658
655.387385,-76.570323,-2220.539373,-9111.868461
655.389740,382.851616,-4077.369710,-10202.995566
655.392094,-535.992262,-2986.242605,-9284.151688
655.394449,-76.570323,-1875.972918,-10777.272990
655.396803,153.140646,976.271621,-9150.153622
655.399158,-459.421939,1397.408398,-8843.872330
655.401512,172.283227,1627.119368,-10624.132344
655.403867,-76.570323,784.845813,-9131.011042
655.406221,-95.712904,-669.990328,-8193.024582
655.408576,-76.570323,-3962.514226,-11102.696864
655.410930,-114.855485,-4134.797453,-9839.286531
655.413284,-478.564520,-1665.404530,-9245.866526
655.415639,440.279358,-1512.263883,-10030.712339
655.417993,-708.275490,976.271621,-9628.718142
655.420348,516.849682,631.705166,-9724.431046
655.422702,-440.279358,1282.552914,-8824.729749
655.425057,191.425808,-1454.836141,-10011.569758
655.427411,-363.709035,-1895.115499,-9973.284597
655.429766,-19.142581,-2277.967115,-9456.434915
655.432120,-57.427742,-3005.385186,-9552.147819
655.434475,-650.847747,-1493.121302,-10470.991698
655.436829,325.423874,-976.271621,-9954.142016
655.439184,-210.568389,1799.402595,-8403.592971
655.441538,76.570323,172.283227,-10719.845248
655.443893,-191.425808,325.423874,-9322.436850
655.446247,-0.000000,-899.701298,-9188.438784
655.448602,-57.427742,-1569.691626,-9360.722011
655.450956,-287.138712,-2967.100024,-10049.854920
655.453311,-95.712904,-2699.103893,-10068.997501
655.455665,-38.285162,-133.998066,-9647.860723
655.458020,153.140646,-306.281293,-10126.425243
655.460374,-248.853550,248.853550,-9724.431046
655.462729,-114.855485,-210.568389,-9609.575562
655.465083,191.425808,-593.420005,-8882.157491
655.467438,-210.568389,-1837.687757,-10509.276859
655.469792,-153.140646,-1665.404530,-9399.007173
655.472147,76.570323,-191.425808,-9437.292334
655.474501,-191.425808,-957.129040,-9475.577496
655.476856,-172.283227,-1244.267752,-10241.280728
655.479210,-19.142581,-1741.974853,-9628.718142
655.481680,-248.853550,19.142581,-8805.587168
655.484150,191.425808,-1684.547110,-10413.563955
655.486620,-401.994197,38.285162,-9399.007173
655.489090,344.566454,-133.998066,-9743.573627
655.491560,153.140646,-708.275490,-9456.434915
655.494030,-497.707101,-1359.123237,-10509.276859
655.496500,459.421939,-2603.390989,-9743.573627
655.498969,-574.277424,-478.564520,-8518.448456
655.501439,19.142581,-2603.390989,-10336.993632
655.503909,-727.418070,-535.992262,-9131.011042
655.506379,306.281293,38.285162,-10030.712339
655.508849,421.136778,-229.710970,-9399.007173
655.511319,-1052.841944,-57.427742,-10164.710405
655.513789,95.712904,-823.130974,-9801.001370
655.516259,765.703232,-727.418070,-9073.583299
655.518729,-306.281293,-1033.699363,-8901.300072
655.521199,-612.562586,-976.271621,-11064.411702
655.523669,631.705166,-2277.967115,-9609.575562
655.526139,-669.990328,172.283227,-7618.747158
655.528609,95.712904,-1875.972918,-11523.833642
655.531078,-229.710970,-1282.552914,-9399.007173
655.533548,76.570323,210.568389,-8422.735552
655.536018,95.712904,-880.558717,-10796.415571
655.538488,-344.566454,-306.281293,-9590.432981
655.540958,-19.142581,-1665.404530,-9016.155557
655.543428,-19.142581,-918.843878,-9743.573627
655.545898,459.421939,-2411.965181,-9781.858789
655.548368,-803.988394,-727.418070,-9781.858789
655.550838,-306.281293,0.000000,-10624.132344
655.553308,153.140646,114.855485,-7676.174901
655.555778,38.285162,-574.277424,-10547.562021
655.558248,-1167.697429,440.279358,-11198.409768
655.560718,382.851616,382.851616,-8518.448456
655.563187,57.427742,-1761.117434,-7982.456194
655.565657,-76.570323,-2660.818731,-11466.405899
655.568127,114.855485,-3713.660675,-8767.302006
655.570597,-306.281293,-1665.404530,-8078.169098
655.573067,535.992262,-1627.119368,-12844.671717
655.575537,-401.994197,1071.984525,-8116.454259
655.578007,172.283227,2526.820666,-8499.305875
655.580540,38.285162,287.138712,-11485.548480
655.583073,-669.990328,-459.421939,-8480.163294
655.585605,516.849682,-2622.533570,-9456.434915
655.588138,-497.707101,-1416.550979,-10164.710405
655.590671,19.142581,-3579.662610,-9456.434915
655.593204,-363.709035,-1588.834206,-9188.438784
655.595737,-114.855485,-153.140646,-11236.694930
655.598269,229.710970,153.140646,-7637.889739
655.600802,-153.140646,248.853550,-9954.142016
655.603335,172.283227,-880.558717,-10662.417506
655.605868,-0.000000,114.855485,-7752.745224
655.608400,-191.425808,-2258.824534,-10375.278794
655.610933,-76.570323,-1971.685822,-9973.284597
655.613466,-267.996131,-1761.117434,-9188.438784
655.615999,38.285162,-1148.554848,-9245.866526
655.618532,-114.855485,-1110.269686,-10604.989763
655.621064,-401.994197,-497.707101,-9188.438784
655.623597,248.853550,325.423874,-9207.581365
655.626130,38.285162,-248.853550,-10049.854920
655.628663,-401.994197,114.855485,-9016.155557
655.631196,19.142581,-1186.840010,-10490.134278
655.633728,-267.996131,-153.140646,-8671.589102
655.636261,306.281293,-3101.098090,-9705.288466
655.638794,-497.707101,-2316.252277,-10585.847182
655.641327,-19.142581,-823.130974,-9035.298138
655.643859,478.564520,-1225.125171,-8939.585234
655.646392,-555.134843,133.998066,-10834.700733
655.648925,-172.283227,-401.994197,-9724.431046
655.651458,459.421939,478.564520,-7561.319416
655.653991,-267.996131,-823.130974,-11447.263318
655.656523,-631.705166,-593.420005,-10088.140082
655.659056,210.568389,-1512.263883,-8288.737486
655.661589,-76.570323,-1339.980656,-9820.143950
655.664122,-861.416136,-1033.699363,-11638.689126
655.666654,-95.712904,-650.847747,-7944.171032
655.669187,287.138712,287.138712,-8537.591037
655.671720,-421.136778,-1033.699363,-11696.116869
655.674253,-0.000000,-1148.554848,-8231.309744
655.676786,-325.423874,-3005.385186,-9609.575562
655.679318,-727.418070,-1914.258080,-10375.278794
655.681889,535.992262,-1225.125171,-9016.155557
655.684461,-57.427742,38.285162,-11045.269122
655.687032,-861.416136,2048.256146,-10164.710405
655.689603,440.279358,-344.566454,-8403.592971
655.692174,191.425808,-57.427742,-10145.567824
655.694745,57.427742,-1129.412267,-9686.145885
655.697316,-516.849682,-612.562586,-8116.454259
655.699887,382.851616,-3560.520029,-10681.560086
655.702458,-574.277424,-1971.685822,-10126.425243
655.705029,-114.855485,-746.560651,-9743.573627
655.707600,535.992262,-976.271621,-8154.739421
655.710171,-650.847747,38.285162,-10968.698798
655.712742,344.566454,-382.851616,-10356.136213
655.715313,-421.136778,823.130974,-7523.034254
655.717884,-38.285162,-1531.406464,-10968.698798
655.720455,-0.000000,-1359.123237,-9973.284597
655.723026,-306.281293,-1091.127106,-8958.727814
655.725597,248.853550,-1837.687757,-9513.862658
655.728168,-133.998066,-2048.256146,-10356.136213
655.730739,-267.996131,-1052.841944,-9456.434915
655.733310,267.996131,95.712904,-9226.723946
655.735881,-421.136778,-229.710970,-10107.282662
655.738452,-76.570323,-57.427742,-9131.011042
655.741023,133.998066,-880.558717,-10375.278794
655.743594,-229.710970,0.000000,-8671.589102
655.746166,-57.427742,-2545.963246,-10011.569758
655.748737,-210.568389,-2182.254211,-10164.710405
655.751308,-306.281293,-976.271621,-8958.727814
655.753879,574.277424,-1665.404530,-9207.581365
655.756450,-516.849682,-267.996131,-10068.997501
655.759021,344.566454,-957.129040,-10317.851051
655.761592,-0.000000,937.986459,-7905.885870
655.764163,-650.847747,-497.707101,-10968.698798
655.766734,-76.570323,-708.275490,-9839.286531
655.769305,-421.136778,-842.273555,-9341.579430
655.771876,306.281293,-1167.697429,-9647.860723
655.774447,-401.994197,-1397.408398,-9647.860723
655.777018,-76.570323,-1799.402595,-9839.286531
655.779589,-248.853550,-459.421939,-9245.866526
655.782160,248.853550,-2431.107762,-9954.142016
655.784750,-229.710970,-1378.265818,-9092.725880
655.787339,-612.562586,-612.562586,-10700.702667
655.789929,1225.125171,-344.566454,-8939.585234
655.792518,-401.994197,210.568389,-9609.575562
655.795108,-689.132909,-306.281293,-10738.987829
655.797697,2603.390989,-708.275490,-9839.286531
655.800287,-1588.834206,267.996131,-8193.024582
655.802876,-918.843878,-325.423874,-10336.993632
655.805466,1263.410333,-4173.082614,-10796.415571
655.808055,-1493.121302,-1033.699363,-6948.756830
655.810645,746.560651,-4192.225195,-10356.136213
655.813234,-593.420005,-937.986459,-9016.155557
655.815824,-631.705166,1569.691626,-11389.835576
655.818413,497.707101,516.849682,-8135.596840
655.821003,-803.988394,440.279358,-10375.278794
655.823592,306.281293,-1320.838075,-10719.845248
655.826182,-248.853550,-248.853550,-8231.309744
655.828771,38.285162,-2794.816797,-10681.560086
655.831361,-344.566454,-1856.830338,-9494.720077
655.833950,-57.427742,-784.845813,-9820.143950
655.836540,172.283227,-937.986459,-8901.300072
655.839129,-363.709035,-133.998066,-10566.704602
655.841719,267.996131,-689.132909,-9647.860723
655.844308,-363.709035,746.560651,-8805.587168
655.846898,191.425808,-1588.834206,-10375.278794
655.849487,-421.136778,-746.560651,-9188.438784
655.852077,38.285162,-1741.974853,-10260.423309
655.854666,-114.855485,-287.138712,-8614.161360
655.857256,-95.712904,-1761.117434,-10164.710405
655.859845,-363.709035,-1225.125171,-9973.284597
655.862435,114.855485,-1129.412267,-9533.005238
655.865024,-401.994197,-306.281293,-9399.007173
655.867614,-38.285162,-823.130974,-9131.011042
655.870203,-19.142581,-1627.119368,-10451.849117
655.872793,57.427742,-382.851616,-8250.452325
655.875382,-19.142581,-1646.261949,-10585.847182
655.877972,-727.418070,95.712904,-10413.563955
655.880561,-57.427742,-76.570323,-8958.727814
655.883151,-229.710970,-899.701298,-9054.440718
655.885740,-76.570323,-1588.834206,-10987.841379
655.888337,-76.570323,-1301.695494,-8958.727814
655.890934,-57.427742,516.849682,-9188.438784
655.893531,-0.000000,-1703.689691,-10681.560086
655.896128,-459.421939,-612.562586,-8633.303941
655.898725,153.140646,-1741.974853,-10451.849117
655.901322,57.427742,-516.849682,-9265.009107
655.903919,-803.988394,-421.136778,-9686.145885
655.906516,899.701298,-1780.260014,-9743.573627
655.909113,-497.707101,497.707101,-9360.722011
655.911710,497.707101,-2048.256146,-10068.997501
655.914307,-76.570323,-995.414202,-9628.718142
655.916904,-842.273555,-1301.695494,-9609.575562
655.919501,880.558717,-1129.412267,-9073.583299
655.922098,-1148.554848,-1473.978722,-10088.140082
655.924695,535.992262,-1493.121302,-8901.300072
655.927292,-440.279358,842.273555,-10681.560086
655.929888,19.142581,229.710970,-8920.442653
655.932485,133.998066,-727.418070,-10336.993632
655.935082,-478.564520,-976.271621,-9513.862658
655.937679,210.568389,-746.560651,-9226.723946
655.940276,-57.427742,-3005.385186,-10088.140082
655.942873,-76.570323,-1856.830338,-8901.300072
655.945470,114.855485,-593.420005,-10566.704602
655.948067,-325.423874,95.712904,-8633.303941
655.950664,287.138712,-76.570323,-10394.421374
655.953261,-210.568389,0.000000,-9915.856854
655.955858,-95.712904,765.703232,-8441.878133
655.958455,382.851616,-2067.398726,-10604.989763
655.961052,-1071.984525,-1225.125171,-8939.585234
655.963649,899.701298,-4000.799387,-10183.852986
655.966246,-918.843878,-516.849682,-9092.725880
655.968843,57.427742,-1875.972918,-10700.702667
655.971440,-248.853550,708.275490,-9207.581365
655.974037,574.277424,1052.841944,-9494.720077
655.976633,-459.421939,574.277424,-9456.434915
655.979230,210.568389,-1359.123237,-9915.856854
655.981827,-191.425808,-3005.385186,-10107.282662
655.984424,344.566454,-2297.109696,-8307.880067
655.987021,-612.562586,-1895.115499,-11313.265253
655.989618,95.712904,-133.998066,-9284.151688
655.992221,-746.560651,1263.410333,-9265.009107
655.994821,497.707101,76.570323,-9762.716208
655.997422,-555.134843,287.138712,-9590.432981
656.000023,153.140646,-1531.406464,-9762.716208
656.002623,-153.140646,-746.560651,-9092.725880
656.005224,-57.427742,-3349.951640,-9820.143950
656.007825,-516.849682,-1818.545176,-9647.860723
656.010425,19.142581,-1512.263883,-11006.983960
656.013026,57.427742,1167.697429,-8154.739421
656.015626,19.142581,421.136778,-10183.852986
656.018227,-114.855485,-593.420005,-10643.274925
656.020828,-0.000000,-861.416136,-7752.745224
656.023428,-0.000000,-3503.092286,-10394.421374
656.026029,-306.281293,-1914.258080,-9743.573627
656.028630,-57.427742,-2143.969050,-9016.155557
656.031230,-363.709035,114.855485,-9973.284597
656.033831,229.710970,-535.992262,-10470.991698
656.036431,-325.423874,803.988394,-8595.018779
656.039032,-95.712904,1091.127106,-11006.983960
656.041633,210.568389,-555.134843,-8422.735552
656.044233,-287.138712,-1512.263883,-9456.434915
656.046834,-95.712904,-3196.810994,-10490.134278
656.049435,-133.998066,-1703.689691,-8365.307810
656.052035,-19.142581,-3139.383251,-10298.708470
656.054636,-382.851616,-287.138712,-9609.575562
656.057236,-287.138712,1454.836141,-9590.432981
656.059837,-114.855485,95.712904,-9245.866526
656.062438,-133.998066,-784.845813,-10164.710405
656.065038,133.998066,-1225.125171,-9724.431046
656.067639,-133.998066,-19.142581,-9226.723946
656.070240,-401.994197,-1646.261949,-9877.571693
656.072840,631.705166,-1550.549045,-9016.155557
656.075441,-650.847747,-1033.699363,-10662.417506
656.078041,344.566454,-899.701298,-8307.880067
656.080642,-459.421939,-1722.832272,-10260.423309
656.083243,95.712904,-957.129040,-9781.858789
656.085843,-153.140646,95.712904,-9437.292334
656.088444,76.570323,-1071.984525,-9303.294269
656.091044,-19.142581,-1091.127106,-9877.571693
656.093645,306.281293,-1588.834206,-9858.429112
656.096244,19.142581,421.136778,-8729.016845
656.098844,-306.281293,-459.421939,-11542.976222
656.101443,-153.140646,-95.712904,-8537.591037
656.104042,-478.564520,-153.140646,-9456.434915
656.106641,593.420005,-2373.680019,-10796.415571
656.109241,-746.560651,-1703.689691,-8250.452325
656.111840,459.421939,-3024.527766,-10585.847182
656.114439,-478.564520,-172.283227,-9437.292334
656.117039,-133.998066,-1129.412267,-9456.434915
656.119638,-478.564520,612.562586,-10432.706536
656.122237,421.136778,727.418070,-9265.009107
656.124836,-459.421939,650.847747,-8709.874264
656.127436,210.568389,-2890.529701,-11236.694930
656.130035,-172.283227,-2852.244539,-8595.018779
656.132634,650.847747,-1933.400661,-10107.282662
656.135233,-689.132909,-1569.691626,-9801.001370
656.137833,-57.427742,-440.279358,-8614.161360
656.140432,-191.425808,-325.423874,-11274.980091
656.143031,19.142581,1205.982590,-8078.169098
656.145630,153.140646,-516.849682,-9533.005238
656.148230,-746.560651,-57.427742,-10930.413637
656.150829,267.996131,-765.703232,-9073.583299
656.153428,38.285162,-2239.681954,-8384.450390
656.156028,-497.707101,-2163.111630,-11542.976222
656.158627,287.138712,-3081.955509,-8786.444587
656.161226,-727.418070,172.283227,-8614.161360
656.163825,248.853550,-1263.410333,-11657.831707
656.166425,306.281293,765.703232,-8307.880067
656.169024,-229.710970,1320.838075,-11140.982026
656.171623,535.992262,76.570323,-8824.729749
656.174222,-306.281293,-1722.832272,-9322.436850
656.176822,95.712904,-3101.098090,-10336.993632
656.179421,-440.279358,-1071.984525,-8920.442653
656.182020,191.425808,-3196.810994,-9667.003304
656.184620,-114.855485,-555.134843,-10222.138147
656.187219,-267.996131,172.283227,-10241.280728
656.189818,459.421939,516.849682,-7637.889739
656.192417,-574.277424,-248.853550,-11523.833642
656.195017,172.283227,-746.560651,-9073.583299
656.197616,-287.138712,-267.996131,-8843.872330
656.200213,-38.285162,-2029.113565,-10451.849117
656.202810,-57.427742,-1799.402595,-9169.296203
656.205407,-114.855485,-2124.826469,-10030.712339
656.208004,-76.570323,-248.853550,-9131.011042
656.210602,-287.138712,-1493.121302,-10126.425243
656.213199,-95.712904,-363.709035,-9667.003304
656.215796,-114.855485,650.847747,-9513.862658
656.218393,-19.142581,0.000000,-9245.866526
656.220990,-172.283227,-325.423874,-9858.429112
656.223587,-114.855485,-1378.265818,-10183.852986
656.226184,-306.281293,535.992262,-8327.022648
656.228782,76.570323,-2086.541307,-10547.562021
656.231379,-478.564520,-918.843878,-9609.575562
656.233976,-0.000000,-2737.389054,-9533.005238
656.236573,-95.712904,-1493.121302,-9111.868461
656.239170,-133.998066,-2871.387120,-10183.852986
656.241767,669.990328,-1799.402595,-9762.716208
656.244364,-918.843878,2182.254211,-9265.009107
656.246962,344.566454,287.138712,-9016.155557
656.249559,-669.990328,401.994197,-9973.284597
656.252156,-38.285162,-1301.695494,-9647.860723
656.254753,363.709035,-1033.699363,-8269.594906
656.257350,-631.705166,-2163.111630,-11064.411702
656.259947,-95.712904,-1971.685822,-9360.722011
656.262544,-229.710970,-803.988394,-9111.868461
656.265142,-0.000000,-2143.969050,-9820.143950
656.267739,-382.851616,-612.562586,-9858.429112
656.270336,248.853550,-612.562586,-10509.276859
656.272933,-306.281293,1531.406464,-8384.450390
656.275530,593.420005,-1014.556782,-10068.997501
656.278127,-478.564520,-440.279358,-8958.727814
656.280724,535.992262,-1646.261949,-10624.132344
656.283322,-689.132909,-344.566454,-9245.866526
656.285919,19.142581,-1263.410333,-9513.862658
656.288516,-57.427742,-2220.539373,-10432.706536
656.291113,19.142581,-689.132909,-8958.727814
656.293710,-38.285162,-2182.254211,-9705.288466
656.296307,-172.283227,-650.847747,-9762.716208
656.298904,-172.283227,-440.279358,-10432.706536
656.301501,287.138712,-248.853550,-7542.176835
656.304094,-516.849682,-803.988394,-11294.122672
656.306687,382.851616,-1454.836141,-9513.862658
656.309279,-765.703232,-76.570323,-8882.157491
656.311872,708.275490,-2048.256146,-10470.991698
656.314464,-746.560651,-287.138712,-9552.147819
656.317057,459.421939,-1607.976787,-9992.427178
656.319649,-535.992262,669.990328,-8595.018779
656.322242,248.853550,-1454.836141,-10719.845248
656.324834,-153.140646,-1014.556782,-9494.720077
656.327427,-19.142581,-516.849682,-9437.292334
656.330019,267.996131,-1914.258080,-9379.864592
656.332612,-612.562586,-421.136778,-10030.712339
656.335204,440.279358,-1607.976787,-10356.136213
656.337797,-516.849682,401.994197,-7618.747158
656.340389,19.142581,-2048.256146,-11313.265253
656.342982,-344.566454,-1071.984525,-9590.432981
656.345575,-0.000000,-1359.123237,-9494.720077
656.348167,-325.423874,-38.285162,-9628.718142
656.350760,153.140646,-401.994197,-9609.575562
656.353352,-95.712904,-669.990328,-9379.864592
656.355945,-19.142581,-76.570323,-9915.856854
656.358537,-38.285162,-1933.400661,-9341.579430
656.361130,-191.425808,-1531.406464,-9552.147819
656.363722,-440.279358,-2718.246474,-10585.847182
656.366315,363.709035,-995.414202,-8078.169098
656.368907,-363.709035,-669.990328,-11466.405899
656.371500,-210.568389,803.988394,-9628.718142
656.374092,497.707101,2048.256146,-8537.591037
656.376685,-57.427742,19.142581,-9284.151688
656.379277,-612.562586,-1320.838075,-10662.417506
656.381870,478.564520,-3771.088418,-9667.003304
656.384463,-593.420005,-1933.400661,-8173.882002
656.387055,440.279358,-4479.363907,-11179.267187
656.389648,-19.142581,-1129.412267,-8958.727814
656.392240,-650.847747,1684.547110,-10375.278794
656.394833,229.710970,1914.258080,-9035.298138
656.397425,-669.990328,1378.265818,-9092.725880
656.400018,957.129040,-1320.838075,-10892.128475
656.402610,-937.986459,-363.709035,-8461.020714
656.405203,784.845813,-4498.506488,-9628.718142
656.407790,-957.129040,-2239.681954,-10509.276859
656.410378,287.138712,-2029.113565,-9341.579430
656.412965,57.427742,-382.851616,-8422.735552
656.415553,-765.703232,459.421939,-11217.552349
656.418141,478.564520,76.570323,-8939.585234
656.420728,-440.279358,1550.549045,-8824.729749
656.423316,229.710970,-937.986459,-10738.987829
656.425903,-153.140646,-1148.554848,-9207.581365
656.428491,-76.570323,-2354.537438,-9418.149754
656.431078,-95.712904,-1282.552914,-9552.147819
656.433666,38.285162,-2794.816797,-10011.569758
656.436254,-440.279358,-1129.412267,-9188.438784
656.438841,114.855485,-918.843878,-11064.411702
656.441429,-0.000000,-306.281293,-8767.302006
656.444016,-191.425808,133.998066,-10011.569758
656.446604,76.570323,-478.564520,-10624.132344
656.449191,-76.570323,650.847747,-7140.182638
656.451779,267.996131,-1971.685822,-11466.405899
656.454366,-842.273555,-727.418070,-10107.282662
656.456954,-19.142581,-555.134843,-9265.009107
656.459542,-19.142581,1607.976787,-9188.438784
656.462129,-133.998066,3330.809059,-10604.989763
656.464717,-57.427742,3522.234867,-9475.577496
656.467304,76.570323,3215.953574,-8997.012976
656.469892,-459.421939,-459.421939,-9954.142016
656.472479,-363.709035,-995.414202,-10183.852986
656.475067,-267.996131,-478.564520,-10088.140082
656.477654,-153.140646,-344.566454,-9571.290400
656.480242,191.425808,650.847747,-10222.138147
656.482830,210.568389,5053.641331,-9934.999435
656.485417,421.136778,6623.332957,-8288.737486
656.488005,-172.283227,8422.735552,-11619.546546
656.490592,-19.142581,2909.672282,-6336.194245
656.493180,-191.425808,-2143.969050,-10911.271056
656.495767,-191.425808,-7312.465866,-10968.698798
656.498355,-287.138712,-8920.442653,-7791.030386
656.500942,-0.000000,-7369.893608,-10298.708470
656.503530,-267.996131,-2316.252277,-11428.120738
656.506118,-76.570323,2986.242605,-8690.731683
656.508705,306.281293,4747.360038,-8633.303941
656.511287,-210.568389,6757.331022,-11102.696864
656.513869,191.425808,2048.256146,-8480.163294
656.516451,114.855485,-2258.824534,-8327.022648
656.519033,-95.712904,-6183.053598,-10968.698798
656.521615,-593.420005,-7810.172966,-9341.579430
656.524197,-287.138712,-4804.787781,-10566.704602
656.526779,363.709035,-1320.838075,-8805.587168
656.529361,-478.564520,3349.951640,-10202.995566
656.531943,363.709035,3101.098090,-10107.282662
656.534524,-459.421939,5034.498750,-8939.585234
656.537106,574.277424,765.703232,-9150.153622
656.539688,-650.847747,-2124.826469,-9226.723946
656.542270,95.712904,-4938.785846,-11160.124606
656.544852,-95.712904,-4957.928427,-8039.883936
656.547434,-382.851616,-4651.647134,-10279.565890
656.550016,325.423874,-3273.381317,-11121.839445
656.552598,-497.707101,1263.410333,-8997.012976
656.555180,306.281293,2679.961312,-10222.138147
656.557762,-440.279358,4402.793584,-9379.864592
656.560344,401.994197,1665.404530,-9226.723946
656.562926,-153.140646,612.562586,-8786.444587
656.565508,-382.851616,-3139.383251,-10509.276859
656.568090,133.998066,-6967.899411,-9513.862658
656.570672,-363.709035,-5819.344563,-9169.296203
656.573253,-76.570323,-3598.805190,-11121.839445
656.575835,-0.000000,-191.425808,-9131.011042
656.578417,-172.283227,1837.687757,-9571.290400
656.580999,440.279358,5245.067139,-10279.565890
656.583581,-153.140646,3158.525832,-8786.444587
656.586163,-76.570323,899.701298,-8480.163294
656.588745,-210.568389,-2507.678085,-11696.116869
656.591327,-57.427742,-4632.504554,-8116.454259
656.593909,-574.277424,-4977.071008,-9226.723946
656.596491,-95.712904,-4709.074877,-11791.829773
656.599073,-344.566454,-306.281293,-8384.450390
656.601655,76.570323,1033.699363,-9705.288466
656.604237,-172.283227,3254.238736,-9781.858789
656.606819,-76.570323,2545.963246,-9647.860723
656.609401,363.709035,1263.410333,-8786.444587
656.611982,-287.138712,-918.843878,-10126.425243
656.614560,-172.283227,-4575.076811,-9494.720077
656.617138,-0.000000,-4345.365842,-9896.714274
656.619716,-248.853550,-3847.658741,-9647.860723
656.622294,-153.140646,-1684.547110,-9475.577496
656.624872,-191.425808,-459.421939,-10872.985894
656.627450,172.283227,2354.537438,-8059.026517
656.630028,-229.710970,2737.389054,-9437.292334
656.632606,-57.427742,401.994197,-9954.142016
656.635184,-57.427742,-57.427742,-9686.145885
656.637762,-114.855485,-3120.240670,-8977.870395
656.640340,-95.712904,-4000.799387,-10030.712339
656.642918,-248.853550,-4383.651003,-10872.985894
656.645496,-114.855485,-1703.689691,-8135.596840
656.648074,-0.000000,-708.275490,-10547.562021
656.650652,-95.712904,1761.117434,-9418.149754
656.653230,19.142581,1895.115499,-9743.573627
656.655808,-803.988394,2182.254211,-9188.438784
656.658386,401.994197,-535.992262,-9667.003304
656.660964,-76.570323,-3713.660675,-10815.558152
656.663542,-19.142581,-3215.953574,-8269.594906
656.666120,-0.000000,-3139.383251,-10222.138147
656.668698,-401.994197,-803.988394,-9934.999435
656.671276,-172.283227,114.855485,-9245.866526
656.673854,172.283227,1588.834206,-9609.575562
656.676432,-191.425808,1320.838075,-9341.579430
656.679010,344.566454,-1378.265818,-9552.147819
656.681588,-555.134843,-823.130974,-9571.290400
656.684166,363.709035,-2928.814862,-9954.142016
656.686744,-440.279358,-2297.109696,-8767.302006
656.689322,-153.140646,-2431.107762,-11466.405899
656.691900,-0.000000,172.283227,-9284.151688
656.694478,38.285162,-76.570323,-8633.303941
656.697056,-95.712904,-38.285162,-9858.429112
656.699634,-574.277424,555.134843,-10394.421374
656.702212,287.138712,-478.564520,-8173.882002
656.704790,-421.136778,-1588.834206,-9609.575562
656.707368,593.420005,-3617.947771,-11313.265253
656.709946,-842.273555,325.423874,-8327.022648
656.712524,899.701298,-1282.552914,-9743.573627
656.715102,-593.420005,-191.425808,-10049.854920
656.717675,-172.283227,-306.281293,-9341.579430
656.720248,-38.285162,-1225.125171,-9513.862658
656.722821,-191.425808,-1320.838075,-9762.716208
656.725394,-95.712904,-2086.541307,-9016.155557
656.727967,-133.998066,153.140646,-10451.849117
656.730540,191.425808,-440.279358,-9265.009107
656.733113,-229.710970,76.570323,-8824.729749
656.735686,-57.427742,-1761.117434,-11696.116869
656.738259,-114.855485,-803.988394,-8518.448456
656.740832,133.998066,-1780.260014,-9360.722011
656.743405,-210.568389,-1990.828403,-11064.411702
656.745978,-172.283227,19.142581,-8958.727814
656.748551,248.853550,-708.275490,-8805.587168
656.751124,-267.996131,95.712904,-10317.851051
656.753697,-172.283227,-1263.410333,-10356.136213
656.756270,-57.427742,-421.136778,-8059.026517
656.758843,-114.855485,-1320.838075,-11026.126541
656.761416,-95.712904,-1818.545176,-9073.583299
656.763990,-0.000000,-1627.119368,-9762.716208
656.766563,-401.994197,-153.140646,-9705.288466
656.769136,210.568389,-76.570323,-9265.009107
656.771709,-153.140646,-1435.693560,-9705.288466
656.774282,-0.000000,-153.140646,-10049.854920
656.776855,19.142581,-823.130974,-9035.298138
656.779428,-382.851616,-1129.412267,-9092.725880
656.782001,-229.710970,-1684.547110,-11121.839445
656.784574,172.283227,-689.132909,-7350.751027
656.787147,-153.140646,-76.570323,-10375.278794
656.789720,-440.279358,-937.986459,-10719.845248
656.792293,153.140646,-267.996131,-7963.313613
656.794866,-38.285162,-1129.412267,-10490.134278
656.797439,-535.992262,-535.992262,-9686.145885
656.800012,-76.570323,-1799.402595,-10126.425243
656.802585,114.855485,-555.134843,-8767.302006
656.805158,-95.712904,-937.986459,-9724.431046
656.807731,-172.283227,-995.414202,-9322.436850
656.810304,-363.709035,-210.568389,-10336.993632
656.812877,-0.000000,-1186.840010,-8614.161360
656.815450,631.705166,-2354.537438,-9801.001370
656.818023,-172.283227,-2029.113565,-11006.983960
656.820591,-76.570323,1167.697429,-8518.448456
656.823159,401.994197,-306.281293,-9590.432981
656.825728,-172.283227,-861.416136,-9073.583299
656.828296,-765.703232,-1493.121302,-10911.271056
656.830864,287.138712,-1875.972918,-9858.429112
656.833432,-478.564520,-1416.550979,-7427.321350
656.836000,19.142581,-2048.256146,-11638.689126
656.838569,-267.996131,880.558717,-10049.854920
656.841137,593.420005,-57.427742,-7580.461997
656.843705,-1225.125171,1148.554848,-10432.706536
656.846273,574.277424,-2105.683888,-11274.980091
656.848842,-803.988394,-1646.261949,-7599.604578
656.851410,861.416136,-3235.096155,-10222.138147
656.853978,-401.994197,-1588.834206,-10068.997501
656.856546,-114.855485,344.566454,-8958.727814
656.859114,76.570323,650.847747,-9877.571693
656.861683,-440.279358,1225.125171,-9207.581365
656.864251,344.566454,-1665.404530,-10777.272990
656.866819,-382.851616,-1167.697429,-8499.305875
656.869387,114.855485,-2718.246474,-9973.284597
656.871955,-210.568389,-2660.818731,-9820.143950
656.874524,-153.140646,-1052.841944,-10011.569758
656.877092,-38.285162,0.000000,-8901.300072
656.879660,-76.570323,497.707101,-9686.145885
656.882228,-172.283227,-880.558717,-10490.134278
656.884796,133.998066,459.421939,-9207.581365
656.887365,-248.853550,-746.560651,-9054.440718
656.889933,114.855485,-1971.685822,-9820.143950
656.892501,-95.712904,-2813.959378,-10872.985894
656.895069,133.998066,-1244.267752,-8920.442653
656.897638,38.285162,-823.130974,-10107.282662
656.900206,-612.562586,-1129.412267,-9973.284597
656.902774,497.707101,-38.285162,-9245.866526
656.905342,-267.996131,-133.998066,-9494.720077
656.907910,-95.712904,133.998066,-9533.005238
656.910479,95.712904,-1435.693560,-10413.563955
656.913047,-478.564520,382.851616,-9092.725880
656.915615,76.570323,-1359.123237,-9934.999435
656.918183,191.425808,-2928.814862,-9169.296203
656.920751,-535.992262,-1493.121302,-9858.429112
656.923252,38.285162,-1263.410333,-9839.286531
656.925752,-172.283227,-57.427742,-9035.298138
656.928252,-114.855485,-803.988394,-10049.854920
656.930752,612.562586,287.138712,-10126.425243
656.933253,-497.707101,-229.710970,-8307.880067
656.935753,-57.427742,-2488.535504,-9762.716208
656.938253,-803.988394,-1205.982590,-12404.392358
656.940753,765.703232,-1531.406464,-6393.621987
656.943254,-593.420005,-842.273555,-9934.999435
656.945754,-210.568389,-1607.976787,-12653.245909
656.948254,172.283227,459.421939,-6814.758765
656.950754,-746.560651,-191.425808,-8939.585234
656.953255,382.851616,-976.271621,-12059.825904
656.955755,-535.992262,-1397.408398,-9628.718142
656.958255,516.849682,-1339.980656,-7408.178770
656.960755,-344.566454,-1033.699363,-11619.546546
656.963255,210.568389,-784.845813,-8958.727814
656.965756,-516.849682,76.570323,-9322.436850
656.968256,401.994197,-976.271621,-9954.142016
656.970756,-440.279358,-478.564520,-8461.020714
656.973256,-95.712904,-1646.261949,-11428.120738
656.975757,-229.710970,-784.845813,-8518.448456
656.978257,210.568389,-1799.402595,-9092.725880
656.980757,-114.855485,-1435.693560,-10413.563955
656.983257,-363.709035,95.712904,-10222.138147
656.985758,382.851616,-191.425808,-7886.743290
656.988258,-267.996131,57.427742,-10356.136213
656.990758,-133.998066,-1703.689691,-10853.843314
656.993258,363.709035,-708.275490,-7886.743290
656.995759,-497.707101,-1512.263883,-10088.140082
656.998259,57.427742,-1665.404530,-10088.140082
657.000759,-114.855485,-1665.404530,-9494.720077
657.003259,-76.570323,76.570323,-8997.012976
657.005759,-172.283227,-267.996131,-10107.282662
657.008260,-344.566454,-1225.125171,-9131.011042
657.010760,133.998066,-344.566454,-10183.852986
657.013260,-191.425808,-746.560651,-10011.569758
657.015760,-612.562586,-401.994197,-8843.872330
657.018261,248.853550,-1933.400661,-10853.843314
657.020761,-382.851616,-401.994197,-8556.733618
657.023275,38.285162,-1493.121302,-8977.870395
657.025788,-210.568389,-2009.970984,-10585.847182
657.028301,-95.712904,-1091.127106,-9552.147819
657.030814,612.562586,-1646.261949,-9073.583299
657.033328,-535.992262,248.853550,-10375.278794
657.035841,172.283227,-401.994197,-9705.288466
657.038354,-0.000000,957.129040,-8767.302006
657.040868,-19.142581,-1531.406464,-9552.147819
657.043381,-899.701298,-2507.678085,-10298.708470
657.045894,-19.142581,-1646.261949,-9226.723946
657.048407,382.851616,-1110.269686,-9437.292334
657.050921,-1033.699363,382.851616,-9743.573627
657.053434,689.132909,-1339.980656,-9820.143950
657.055947,-784.845813,363.709035,-8958.727814
657.058461,248.853550,-1895.115499,-10107.282662
657.060974,153.140646,-1895.115499,-9858.429112
657.063487,-497.707101,-1071.984525,-10011.569758
657.066000,421.136778,-440.279358,-8690.731683
657.068514,-497.707101,191.425808,-10202.995566
657.071027,114.855485,-708.275490,-9552.147819
657.073540,-421.136778,267.996131,-9743.573627
657.076054,267.996131,-861.416136,-9341.579430
657.078567,-153.140646,-1263.410333,-8920.442653
657.081080,-803.988394,-1952.543242,-11274.980091
657.083594,421.136778,-1550.549045,-8039.883936
657.086107,133.998066,-1607.976787,-9628.718142
657.088620,-746.560651,-421.136778,-11064.411702
657.091133,401.994197,248.853550,-9303.294269
657.093647,19.142581,172.283227,-8231.309744
657.096160,-363.709035,133.998066,-10528.419440
657.098673,-19.142581,-2163.111630,-10681.560086
657.101187,-19.142581,-1665.404530,-7714.460062
657.103700,-153.140646,-2182.254211,-10145.567824
657.106213,-153.140646,-1148.554848,-10432.706536
657.108726,-114.855485,-746.560651,-9322.436850
657.111240,-76.570323,995.414202,-9207.581365
657.113753,-57.427742,363.709035,-9877.571693
657.116266,-76.570323,-1282.552914,-9303.294269
657.118780,-76.570323,-1033.699363,-9590.432981
657.121293,-229.710970,-1454.836141,-9858.429112
657.123817,-287.138712,-1397.408398,-9169.296203
657.126342,-38.285162,-1493.121302,-10815.558152
657.128866,-593.420005,19.142581,-9571.290400
657.131390,2450.250342,-2488.535504,-5627.918755
657.133915,-918.843878,-2450.250342,-9016.155557
657.136439,-1569.691626,-574.277424,-14088.939469
657.138963,1799.402595,-2354.537438,-6814.758765
657.141488,-880.558717,842.273555,-9513.862658
657.144012,-95.712904,191.425808,-13093.525267
657.146536,823.130974,1339.980656,-8652.446522
657.149061,-976.271621,133.998066,-8518.448456
657.151585,612.562586,-2105.683888,-10738.987829
657.154109,-1225.125171,-650.847747,-9877.571693
657.156633,976.271621,-2220.539373,-8997.012976
657.159158,-1741.974853,-1378.265818,-10375.278794
657.161682,363.709035,-3790.230998,-9647.860723
657.164206,-229.710970,-650.847747,-10011.569758
657.166731,-76.570323,-38.285162,-9590.432981
657.169255,612.562586,459.421939,-8595.018779
657.171779,-535.992262,1110.269686,-11351.550414
657.174304,76.570323,880.558717,-8748.159426
657.176828,248.853550,-957.129040,-8805.587168
657.179352,-784.845813,-2545.963246,-11064.411702
657.181877,421.136778,-2316.252277,-9437.292334
657.184401,-114.855485,-2335.394858,-8671.589102
657.186925,-287.138712,-1186.840010,-9973.284597
657.189450,248.853550,-1799.402595,-11179.267187
657.191974,-191.425808,1244.267752,-7944.171032
657.194498,133.998066,-57.427742,-10643.274925
657.197023,-382.851616,-401.994197,-9379.864592
657.199547,248.853550,-306.281293,-9150.153622
657.202071,19.142581,-1454.836141,-10241.280728
657.204596,-382.851616,-1110.269686,-8575.876198
657.207120,133.998066,-2775.674216,-11045.269122
657.209644,-574.277424,-918.843878,-8690.731683
657.212169,478.564520,-1761.117434,-9877.571693
657.214693,-153.140646,-612.562586,-9686.145885
657.217217,-440.279358,57.427742,-10088.140082
657.219742,401.994197,593.420005,-8939.585234
657.222266,-440.279358,382.851616,-9418.149754
657.224798,-95.712904,-2239.681954,-10796.415571
657.227330,-57.427742,-1359.123237,-8537.591037
657.229861,-38.285162,-2373.680019,-10145.567824
657.232393,-210.568389,-1722.832272,-10145.567824
657.234925,-210.568389,-669.990328,-9399.007173
657.237457,210.568389,669.990328,-9111.868461
657.239989,-133.998066,363.709035,-9915.856854
657.242521,267.996131,-1684.547110,-9322.436850
657.245052,-95.712904,-1397.408398,-9245.866526
657.247584,-363.709035,-1856.830338,-10566.704602
657.250116,-38.285162,-861.416136,-8690.731683
657.252648,57.427742,-1875.972918,-10968.698798
657.255180,-401.994197,650.847747,-9667.003304
657.257712,248.853550,-57.427742,-8729.016845
657.260243,-95.712904,95.712904,-9743.573627
657.262775,-669.990328,-57.427742,-10796.415571
657.265307,344.566454,-1301.695494,-7255.038123
657.267839,-823.130974,-3254.238736,-9647.860723
657.270371,248.853550,-5398.207786,-12653.245909
657.272902,-306.281293,-861.416136,-6967.899411
657.275434,363.709035,-210.568389,-9934.999435
657.277966,-363.709035,2947.957443,-10911.271056
657.280498,-38.285162,2354.537438,-8614.161360
657.283030,95.712904,1454.836141,-9360.722011
657.285562,-593.420005,-401.994197,-10624.132344
657.288093,287.138712,-4173.082614,-8365.307810
657.290625,-689.132909,-3407.379382,-10222.138147
657.293157,382.851616,-4326.223261,-10317.851051
657.295689,-191.425808,-1205.982590,-7905.885870
657.298221,-95.712904,-689.132909,-11753.544611
657.300753,-287.138712,2373.680019,-8863.014910
657.303284,287.138712,1301.695494,-8786.444587
657.305816,38.285162,-535.992262,-11006.983960
657.308348,-382.851616,-267.996131,-9379.864592
657.310880,459.421939,-3388.236802,-8441.878133
657.313412,-689.132909,-2775.674216,-10049.854920
657.315943,-95.712904,-3445.664544,-11255.837510
657.318475,-114.855485,-880.558717,-7542.176835
657.321007,19.142581,-497.707101,-11332.407834
657.323539,-267.996131,1493.121302,-9131.011042
657.326076,-57.427742,612.562586,-9379.864592
657.328613,-76.570323,918.843878,-10030.712339
657.331150,-401.994197,-95.712904,-8537.591037
657.333686,401.994197,-3694.518094,-10375.278794
657.336223,-842.273555,-2335.394858,-9743.573627
657.338760,555.134843,-3426.521963,-9801.001370
657.341297,-765.703232,-995.414202,-8939.585234
657.343834,555.134843,-1091.127106,-10030.712339
657.346371,-153.140646,1512.263883,-8633.303941
657.348908,-344.566454,1627.119368,-9992.427178
657.351445,363.709035,-880.558717,-10011.569758
657.353981,-114.855485,-76.570323,-8863.014910
657.356518,-57.427742,-2392.822600,-10796.415571
657.359055,-382.851616,-2086.541307,-8499.305875
657.361592,57.427742,-3215.953574,-10470.991698
657.364129,-95.712904,-19.142581,-9686.145885
657.366666,57.427742,-133.998066,-9265.009107
657.369203,-95.712904,708.275490,-9188.438784
657.371739,363.709035,708.275490,-10758.130410
657.374276,-248.853550,-38.285162,-8039.883936
657.376813,-555.134843,-2603.390989,-9035.298138
657.379350,-210.568389,-5379.065205,-13438.091722
657.381887,-440.279358,-1761.117434,-5934.200048
657.384424,535.992262,-1301.695494,-10968.698798
657.386961,-1263.410333,1588.834206,-10394.421374
657.389498,861.416136,803.988394,-9360.722011
657.392034,-133.998066,2469.392923,-8709.874264
657.394571,-114.855485,1244.267752,-10949.556218
657.397108,229.710970,-2335.394858,-7944.171032
657.399645,-823.130974,-1493.121302,-9781.858789
657.402182,650.847747,-4460.221326,-11428.120738
657.404719,-727.418070,-2660.818731,-7025.327154
657.407256,57.427742,-3330.809059,-12385.249778
657.409793,-153.140646,0.000000,-8977.870395
657.412329,57.427742,861.416136,-8863.014910
657.414866,-95.712904,1761.117434,-10241.280728
657.417403,-593.420005,1933.400661,-9054.440718
657.419940,689.132909,-1627.119368,-8518.448456
657.422477,-650.847747,-1569.691626,-10126.425243
657.425014,-57.427742,-3656.232933,-11255.837510
657.427555,-153.140646,-2220.539373,-7197.610381
657.430097,-95.712904,-2067.398726,-11313.265253
657.432638,-38.285162,-861.416136,-9781.858789
657.435180,-229.710970,574.277424,-9111.868461
657.437721,-38.285162,1244.267752,-9533.005238
657.440263,-172.283227,1186.840010,-9705.288466
657.442804,114.855485,-1780.260014,-9552.147819
657.445346,-440.279358,-1320.838075,-9686.145885
657.447887,267.996131,-3483.949706,-9839.286531
657.450429,-459.421939,-2392.822600,-8939.585234
657.452970,95.712904,-2833.101958,-11715.259450
657.455512,-76.570323,1205.982590,-8824.729749
657.458053,-57.427742,1416.550979,-9054.440718
657.460595,172.283227,-229.710970,-10394.421374
657.463136,-535.992262,918.843878,-9092.725880
657.465678,803.988394,-2852.244539,-9781.858789
657.468219,-478.564520,-2603.390989,-8671.589102
657.470761,-401.994197,-3177.668413,-11562.118803
657.473302,38.285162,-535.992262,-8748.159426
657.475844,38.285162,-497.707101,-9762.716208
657.478385,-76.570323,267.996131,-9915.856854
657.480927,-440.279358,1033.699363,-9724.431046
657.483468,57.427742,19.142581,-8958.727814
657.486010,-172.283227,-631.705166,-9437.292334
657.488551,-0.000000,-3503.092286,-9494.720077
657.491093,-689.132909,-1397.408398,-9801.001370
657.493634,497.707101,-1971.685822,-8901.300072
657.496176,-382.851616,-918.843878,-8958.727814
657.498717,191.425808,-267.996131,-12155.538808
657.501259,-172.283227,1186.840010,-7848.458128
657.503800,-172.283227,937.986459,-8997.012976
657.506342,-19.142581,-1799.402595,-12021.540742
657.508885,-267.996131,-95.712904,-7599.604578
657.511429,57.427742,-2297.109696,-9954.142016
657.513972,-421.136778,-2239.681954,-9858.429112
657.516516,114.855485,-3369.094221,-9839.286531
657.519059,-229.710970,-899.701298,-8977.870395
657.521603,-172.283227,-248.853550,-10643.274925
657.524146,-0.000000,401.994197,-8441.878133
657.526690,-325.423874,1320.838075,-10968.698798
657.529233,-57.427742,-267.996131,-8461.020714
657.531777,-19.142581,-1416.550979,-8824.729749
657.534320,-287.138712,-3445.664544,-12270.394293
657.536864,-133.998066,-2239.681954,-7044.469734
657.539407,95.712904,-2124.826469,-10375.278794
657.541950,-229.710970,-976.271621,-10853.843314
657.544494,-172.283227,631.705166,-8805.587168
657.547037,248.853550,1205.982590,-8977.870395
657.549581,-229.710970,1071.984525,-10700.702667
657.552124,-133.998066,-1971.685822,-9322.436850
657.554668,-0.000000,-1397.408398,-9073.583299
657.557211,-210.568389,-2622.533570,-10719.845248
657.559755,57.427742,-2411.965181,-8384.450390
657.562298,-114.855485,-2565.105827,-11045.269122
657.564842,-76.570323,650.847747,-9494.720077
657.567385,-191.425808,497.707101,-8958.727814
657.569929,-287.138712,-535.992262,-10892.128475
657.572472,114.855485,229.710970,-8652.446522
657.575015,-76.570323,-1339.980656,-9265.009107
657.577559,-57.427742,-1818.545176,-9877.571693
657.580102,-210.568389,-2909.672282,-10336.993632
657.582646,-133.998066,-669.990328,-9016.155557
657.585189,-76.570323,-1052.841944,-10260.423309
657.587733,-0.000000,-1033.699363,-9169.296203
657.590276,-363.709035,555.134843,-9801.001370
657.592820,-0.000000,153.140646,-9820.143950
657.595363,-114.855485,-19.142581,-8614.161360
657.597907,191.425808,-2890.529701,-9934.999435
657.600450,-191.425808,-957.129040,-10758.130410
657.602994,114.855485,-2105.683888,-8307.880067
657.605537,-172.283227,-1856.830338,-10451.849117
657.608080,-287.138712,-593.420005,-10643.274925
657.610624,172.283227,-153.140646,-7905.885870
657.613167,-555.134843,401.994197,-10222.138147
657.615711,401.994197,-1799.402595,-10317.851051
657.618254,-593.420005,1167.697429,-8250.452325
657.620798,440.279358,-1435.693560,-10336.993632
657.623341,-459.421939,-784.845813,-9054.440718
657.625885,-133.998066,-2297.109696,-10547.562021
657.628428,19.142581,-1665.404530,-9245.866526
657.630923,-478.564520,-1186.840010,-9743.573627
657.633418,401.994197,-1607.976787,-9399.007173
657.635914,-708.275490,669.990328,-10279.565890
657.638409,555.134843,153.140646,-8767.302006
657.640904,-593.420005,957.129040,-8958.727814
657.643399,-76.570323,-2392.822600,-11657.831707
657.645894,-95.712904,-1703.689691,-7791.030386
657.648389,57.427742,-2258.824534,-10183.852986
657.650885,-363.709035,-1569.691626,-10413.563955
657.653380,-172.283227,19.142581,-8997.012976
657.655875,210.568389,153.140646,-9571.290400
657.658370,-153.140646,1110.269686,-9590.432981
657.660865,76.570323,-1282.552914,-9896.714274
657.663360,-0.000000,-229.710970,-8997.012976
657.665856,-210.568389,-2124.826469,-10394.421374
657.668351,-248.853550,-3215.953574,-8135.596840
657.670846,-229.710970,-3349.951640,-12078.968485
657.673341,114.855485,-382.851616,-8748.159426
657.675836,-287.138712,669.990328,-9035.298138
657.678331,401.994197,210.568389,-10719.845248
657.680827,-574.277424,1780.260014,-8250.452325
657.683322,325.423874,-765.703232,-10298.708470
657.685817,-669.990328,-1378.265818,-9705.288466
657.688312,-38.285162,-3292.523898,-8977.870395
657.690807,-76.570323,-1990.828403,-9303.294269
657.693302,-784.845813,-1799.402595,-10930.413637
657.695798,497.707101,-2067.398726,-8595.018779
657.698293,-133.998066,287.138712,-9571.290400
657.700788,363.709035,574.277424,-11140.982026
657.703283,-0.000000,1244.267752,-7886.743290
657.705778,-114.855485,-1014.556782,-9686.145885
657.708273,-248.853550,95.712904,-10872.985894
