#time,accel_x,accel_y,accel_z
125.037212,2681.334243,-740.205942,9992.780217
125.037520,2451.505594,-740.205942,9992.780217
125.037829,2451.505594,-518.144159,9992.780217
125.038137,2451.505594,-74.020594,9844.739029
125.038445,2757.943793,-0.000000,9548.656652
125.038754,2911.162892,296.082377,9548.656652
125.039062,2834.553343,222.061783,9622.677246
125.039370,2987.772442,-74.020594,9474.636058
125.039679,2681.334243,-0.000000,9696.697840
125.039987,3140.991542,-0.000000,9622.677246
125.040295,2451.505594,518.144159,9696.697840
125.040603,1838.629195,740.205942,9400.615463
125.040912,2374.896044,962.267725,9178.553681
125.041220,2221.676944,666.185348,9252.574275
125.041528,2068.457845,740.205942,9474.636058
125.041837,1762.019645,-0.000000,9918.759623
125.042145,842.705048,-148.041188,10362.883188
125.042453,1072.533697,370.102971,10732.986159
125.042762,612.876398,-444.123565,10881.027347
125.043070,1225.752797,-0.000000,10510.924376
125.043378,1455.581446,518.144159,9918.759623
125.043687,1532.190996,592.164754,9474.636058
125.043995,1532.190996,518.144159,9474.636058
125.044303,1608.800546,-0.000000,9844.739029
125.044611,1149.143247,-148.041188,9844.739029
125.044920,612.876398,-518.144159,9918.759623
125.045228,919.314598,-592.164754,9770.718434
125.045536,842.705048,-666.185348,9548.656652
125.045845,1149.143247,-518.144159,9548.656652
125.046153,1608.800546,-222.061783,9400.615463
125.046461,1685.410096,-296.082377,9474.636058
125.046770,1915.238745,-222.061783,9252.574275
125.047078,2068.457845,-0.000000,9326.594869
125.047386,2451.505594,296.082377,9104.533087
125.047695,2911.162892,-0.000000,8364.327145
125.048003,2834.553343,518.144159,8956.491898
125.048311,3140.991542,592.164754,8512.368333
125.048620,2911.162892,666.185348,8734.430116
125.048928,2757.943793,370.102971,9030.512492
125.049236,2604.724693,296.082377,9030.512492
125.049544,2528.115143,-0.000000,9178.553681
125.049853,2451.505594,-0.000000,9030.512492
125.050161,2145.067394,148.041188,9400.615463
125.050469,2374.896044,222.061783,9918.759623
125.050778,2221.676944,222.061783,10140.821405
125.051086,1838.629195,370.102971,9918.759623
125.051394,1915.238745,296.082377,9844.739029
125.051703,2068.457845,740.205942,9992.780217
125.052011,1838.629195,370.102971,9844.739029
125.052319,1991.848295,296.082377,10140.821405
125.052628,1685.410096,888.247130,10362.883188
125.052936,1991.848295,592.164754,9992.780217
125.053244,1991.848295,518.144159,9992.780217
125.053552,1915.238745,666.185348,9770.718434
125.053861,2145.067394,814.226536,9696.697840
125.054169,2068.457845,888.247130,9622.677246
125.054477,2298.286494,666.185348,9252.574275
125.054786,1532.190996,1036.288319,9696.697840
125.055094,2145.067394,888.247130,9696.697840
125.055402,1762.019645,962.267725,9326.594869
125.055711,1838.629195,1184.329507,9178.553681
125.056019,1685.410096,1184.329507,9252.574275
125.056327,1225.752797,888.247130,9326.594869
125.056636,1149.143247,740.205942,9474.636058
125.056944,1149.143247,370.102971,9696.697840
125.057252,766.095498,-0.000000,9622.677246
125.057560,459.657299,-222.061783,9844.739029
125.057869,0.000000,-222.061783,10288.862594
125.058177,0.000000,-370.102971,10214.842000
125.058485,0.000000,-666.185348,10288.862594
125.058794,76.609550,-666.185348,10362.883188
125.059102,-383.047749,-814.226536,9992.780217
125.059410,0.000000,-666.185348,9918.759623
125.059719,0.000000,-814.226536,9918.759623
125.060027,0.000000,-518.144159,9548.656652
125.060335,0.000000,-296.082377,9474.636058
125.060644,383.047749,-0.000000,9326.594869
125.060952,229.828649,-0.000000,9252.574275
125.061260,306.438199,148.041188,9030.512492
125.061569,306.438199,-0.000000,9178.553681
125.061877,306.438199,-74.020594,9252.574275
125.062185,842.705048,-0.000000,9326.594869
125.062493,842.705048,-296.082377,9326.594869
125.062802,229.828649,-222.061783,9474.636058
125.063110,306.438199,-74.020594,9474.636058
125.063418,76.609550,-74.020594,9770.718434
125.063727,153.219100,-222.061783,9622.677246
125.064035,383.047749,-148.041188,9696.697840
125.064343,459.657299,-0.000000,9696.697840
125.064652,536.266849,370.102971,9326.594869
125.064960,612.876398,296.082377,9696.697840
125.065268,459.657299,-0.000000,9548.656652
125.065577,229.828649,-0.000000,9770.718434
125.065885,459.657299,-0.000000,9918.759623
125.066193,383.047749,-0.000000,9844.739029
125.066501,459.657299,-0.000000,9992.780217
125.066810,306.438199,-0.000000,9770.718434
125.067118,383.047749,148.041188,9622.677246
125.067426,383.047749,370.102971,9770.718434
125.067735,612.876398,370.102971,9474.636058
125.068043,919.314598,592.164754,9474.636058
125.068351,612.876398,518.144159,9474.636058
125.068660,459.657299,666.185348,9326.594869
125.068968,766.095498,296.082377,9178.553681
125.069276,766.095498,666.185348,9548.656652
125.069583,766.095498,296.082377,9474.636058
125.069891,536.266849,222.061783,9622.677246
125.070199,766.095498,222.061783,9474.636058
125.070507,536.266849,-0.000000,9622.677246
125.070815,459.657299,148.041188,9252.574275
125.071123,689.485948,296.082377,9548.656652
125.071431,1072.533697,296.082377,9548.656652
125.071739,842.705048,518.144159,9474.636058
125.072047,612.876398,148.041188,9548.656652
125.072355,1378.971896,518.144159,9252.574275
125.072663,1149.143247,518.144159,9326.594869
125.072971,919.314598,370.102971,9400.615463
125.073279,689.485948,518.144159,9622.677246
125.073587,995.924147,296.082377,9622.677246
125.073895,919.314598,370.102971,10140.821405
125.074203,766.095498,-0.000000,10214.842000
125.074511,306.438199,-0.000000,10066.800811
125.074819,689.485948,222.061783,10288.862594
125.075127,0.000000,-74.020594,9918.759623
125.075435,-306.438199,-0.000000,10066.800811
125.075742,-229.828649,-0.000000,9918.759623
125.076050,0.000000,-0.000000,9770.718434
125.076358,0.000000,-0.000000,9474.636058
125.076666,229.828649,148.041188,9696.697840
125.076974,0.000000,-0.000000,9622.677246
125.077282,536.266849,-0.000000,9622.677246
125.077590,-383.047749,148.041188,9622.677246
125.077898,-383.047749,-0.000000,9548.656652
125.078206,-459.657299,-0.000000,9844.739029
125.078514,-612.876398,-74.020594,9770.718434
125.078822,0.000000,-444.123565,9770.718434
125.079130,0.000000,-518.144159,9474.636058
125.079438,-229.828649,-222.061783,9622.677246
125.079746,0.000000,-148.041188,9696.697840
125.080054,153.219100,-518.144159,9030.512492
125.080362,536.266849,-222.061783,8956.491898
125.080670,689.485948,148.041188,8882.471304
125.080978,766.095498,-0.000000,8956.491898
125.081286,1302.362347,-148.041188,8882.471304
125.081593,689.485948,-74.020594,8956.491898
125.081901,995.924147,-0.000000,9548.656652
125.082209,1072.533697,-0.000000,9474.636058
125.082517,995.924147,-0.000000,9474.636058
125.082825,1378.971896,-0.000000,9548.656652
125.083133,1455.581446,-0.000000,9696.697840
125.083441,1455.581446,-0.000000,9918.759623
125.083749,1532.190996,-222.061783,10066.800811
125.084057,1532.190996,-370.102971,10066.800811
125.084365,1302.362347,518.144159,9992.780217
125.084673,1455.581446,-148.041188,9844.739029
125.084981,1455.581446,222.061783,9844.739029
125.085289,1532.190996,444.123565,9696.697840
125.085597,1608.800546,444.123565,9770.718434
125.085905,1991.848295,814.226536,9770.718434
125.086213,1608.800546,370.102971,9918.759623
125.086521,1455.581446,814.226536,9696.697840
125.086829,1838.629195,888.247130,9696.697840
125.087137,2068.457845,1406.391290,9918.759623
125.087444,1685.410096,962.267725,9622.677246
125.087752,1685.410096,814.226536,9622.677246
125.088060,1762.019645,814.226536,9622.677246
125.088368,1685.410096,666.185348,9622.677246
125.088676,1685.410096,592.164754,9326.594869
125.088984,1762.019645,740.205942,9770.718434
125.089292,1225.752797,740.205942,9474.636058
125.089600,1915.238745,444.123565,9474.636058
125.089908,1762.019645,888.247130,9178.553681
125.090216,1762.019645,1110.308913,9104.533087
125.090524,1838.629195,1036.288319,9326.594869
125.090832,1915.238745,962.267725,9400.615463
125.091140,1225.752797,1036.288319,9548.656652
125.091448,1838.629195,444.123565,9474.636058
125.091756,1149.143247,814.226536,9696.697840
125.092064,1149.143247,518.144159,9622.677246
125.092372,842.705048,148.041188,9844.739029
125.092680,229.828649,-0.000000,9918.759623
125.092988,76.609550,-148.041188,10288.862594
125.093296,0.000000,-222.061783,10214.842000
125.093603,0.000000,-592.164754,10214.842000
125.093911,-536.266849,-74.020594,10510.924376
125.094219,0.000000,-666.185348,10140.821405
125.094527,-306.438199,-444.123565,9918.759623
125.094835,-536.266849,-74.020594,9844.739029
125.095143,-612.876398,-222.061783,9918.759623
125.095451,-612.876398,-74.020594,9844.739029
125.095759,-689.485948,-222.061783,9770.718434
125.096067,-842.705048,-148.041188,9474.636058
125.096375,-1072.533697,-148.041188,9548.656652
125.096683,-689.485948,-296.082377,9400.615463
125.096991,-689.485948,-518.144159,9622.677246
125.097299,-919.314598,-370.102971,9400.615463
125.097607,-1149.143247,-222.061783,9474.636058
125.097915,-995.924147,-370.102971,9326.594869
125.098223,-919.314598,-222.061783,9400.615463
125.098531,-919.314598,-0.000000,9400.615463
125.098839,-383.047749,-592.164754,9178.553681
125.099147,-153.219100,-0.000000,9030.512492
125.099454,0.000000,-0.000000,9326.594869
125.099762,-229.828649,-74.020594,9252.574275
125.100070,-153.219100,-0.000000,9400.615463
125.100378,0.000000,-148.041188,9548.656652
125.100686,306.438199,-444.123565,9844.739029
125.100994,76.609550,-74.020594,9770.718434
125.101302,153.219100,-0.000000,9992.780217
125.101610,-229.828649,-370.102971,9992.780217
125.101918,766.095498,-222.061783,9844.739029
125.102226,229.828649,-74.020594,9918.759623
125.102534,612.876398,-74.020594,9696.697840
125.102842,995.924147,222.061783,9696.697840
125.103150,1225.752797,222.061783,9548.656652
125.103458,1532.190996,518.144159,9326.594869
125.103766,1532.190996,370.102971,9326.594869
125.104074,1762.019645,518.144159,9696.697840
125.104382,1532.190996,518.144159,9474.636058
125.104690,1532.190996,666.185348,9474.636058
125.104998,1302.362347,666.185348,9548.656652
125.105305,1225.752797,518.144159,9548.656652
125.105613,1915.238745,370.102971,9992.780217
125.105921,1455.581446,222.061783,9918.759623
125.106229,919.314598,518.144159,10140.821405
125.106537,1532.190996,296.082377,9770.718434
125.106845,1225.752797,518.144159,9918.759623
125.107153,1378.971896,444.123565,9696.697840
125.107461,1685.410096,666.185348,9548.656652
125.107769,1838.629195,592.164754,9548.656652
125.108077,2068.457845,1110.308913,9770.718434
125.108385,1991.848295,666.185348,9326.594869
125.108693,1762.019645,296.082377,9548.656652
125.109001,2528.115143,592.164754,9474.636058
125.109309,1915.238745,740.205942,9252.574275
125.109617,1915.238745,962.267725,9474.636058
125.109925,1838.629195,740.205942,9474.636058
125.110233,1685.410096,962.267725,9474.636058
125.110541,2221.676944,370.102971,9548.656652
125.110849,1762.019645,518.144159,9474.636058
125.111157,1991.848295,222.061783,9326.594869
125.111464,1455.581446,370.102971,9918.759623
125.111772,842.705048,518.144159,9770.718434
125.112080,689.485948,518.144159,9696.697840
125.112388,229.828649,296.082377,9844.739029
125.112696,306.438199,222.061783,9770.718434
125.113004,0.000000,-74.020594,9992.780217
125.113312,-919.314598,-444.123565,9844.739029
125.113620,0.000000,-666.185348,10510.924376
125.113928,-229.828649,-370.102971,9992.780217
125.114236,-536.266849,-518.144159,10140.821405
125.114544,-536.266849,-518.144159,9992.780217
125.114852,-383.047749,-518.144159,9844.739029
125.115160,-229.828649,-444.123565,9992.780217
125.115468,-153.219100,-666.185348,9770.718434
125.115776,-383.047749,-518.144159,9696.697840
125.116084,-306.438199,-296.082377,9252.574275
125.116392,76.609550,-296.082377,9326.594869
125.116700,76.609550,-74.020594,8956.491898
125.117008,229.828649,-0.000000,8882.471304
125.117315,383.047749,296.082377,8882.471304
125.117623,383.047749,-0.000000,9030.512492
125.117931,76.609550,-74.020594,9178.553681
125.118239,459.657299,-222.061783,9326.594869
125.118547,536.266849,-0.000000,9474.636058
125.118855,459.657299,-148.041188,9622.677246
125.119163,383.047749,-0.000000,9548.656652
125.119471,153.219100,-74.020594,9696.697840
125.119779,306.438199,-0.000000,9918.759623
125.120087,383.047749,-0.000000,9844.739029
125.120395,153.219100,-148.041188,10066.800811
125.120703,153.219100,-296.082377,9918.759623
125.121011,766.095498,-74.020594,9918.759623
125.121319,536.266849,-0.000000,9844.739029
125.121627,766.095498,-0.000000,9918.759623
125.121935,842.705048,370.102971,9696.697840
125.122243,842.705048,592.164754,9474.636058
125.122551,919.314598,518.144159,9770.718434
125.122859,536.266849,518.144159,9474.636058
125.123166,1302.362347,592.164754,9548.656652
125.123474,995.924147,1184.329507,9622.677246
125.123782,766.095498,814.226536,9474.636058
125.124090,1532.190996,962.267725,9474.636058
125.124398,1378.971896,962.267725,9474.636058
125.124706,1302.362347,740.205942,9474.636058
125.125014,919.314598,666.185348,9474.636058
125.125322,1455.581446,740.205942,9548.656652
125.125630,995.924147,370.102971,9474.636058
125.125938,1378.971896,740.205942,9548.656652
125.126246,1838.629195,444.123565,9474.636058
125.126554,1225.752797,666.185348,9474.636058
125.126862,1455.581446,518.144159,9400.615463
125.127170,1149.143247,518.144159,9326.594869
125.127478,1455.581446,592.164754,9770.718434
125.127786,766.095498,296.082377,9770.718434
125.128094,1302.362347,444.123565,9770.718434
125.128402,689.485948,444.123565,9622.677246
125.128710,459.657299,814.226536,10362.883188
125.129018,536.266849,296.082377,9696.697840
125.129325,689.485948,222.061783,9992.780217
125.129633,0.000000,-0.000000,9770.718434
125.129941,0.000000,-0.000000,9844.739029
125.130249,-306.438199,-0.000000,9992.780217
125.130557,-306.438199,-0.000000,9918.759623
125.130865,-306.438199,444.123565,9918.759623
125.131173,76.609550,-0.000000,9770.718434
125.131481,-76.609550,-74.020594,9474.636058
125.131789,-383.047749,-0.000000,9696.697840
125.132097,-536.266849,-222.061783,9696.697840
125.132405,-612.876398,-0.000000,9548.656652
125.132713,-383.047749,-296.082377,9400.615463
125.133021,0.000000,-222.061783,9992.780217
125.133329,-459.657299,-296.082377,9548.656652
125.133637,-995.924147,-370.102971,9770.718434
125.133945,-842.705048,-370.102971,9696.697840
125.134253,-689.485948,-518.144159,9696.697840
125.134561,-459.657299,-592.164754,9326.594869
125.134869,-689.485948,-592.164754,9548.656652
125.135176,0.000000,-518.144159,9104.533087
125.135484,689.485948,-0.000000,9326.594869
125.135792,153.219100,-148.041188,8956.491898
125.136100,536.266849,-148.041188,8956.491898
125.136408,612.876398,-0.000000,9252.574275
125.136716,689.485948,-0.000000,9474.636058
125.137024,612.876398,-0.000000,9474.636058
125.137332,919.314598,-74.020594,9400.615463
125.137640,1378.971896,-148.041188,9326.594869
125.137948,1762.019645,-0.000000,9696.697840
125.138256,1225.752797,-148.041188,9770.718434
125.138564,919.314598,-148.041188,9622.677246
125.138872,1455.581446,-0.000000,9548.656652
125.139180,1302.362347,-0.000000,9770.718434
125.139488,1455.581446,222.061783,9548.656652
125.139796,1685.410096,518.144159,9770.718434
125.140104,1532.190996,518.144159,9696.697840
125.140412,1685.410096,666.185348,9622.677246
125.140720,1532.190996,962.267725,9474.636058
125.141027,1302.362347,518.144159,9622.677246
125.141335,1838.629195,814.226536,9844.739029
125.141643,1608.800546,740.205942,9696.697840
125.141951,1532.190996,888.247130,9992.780217
125.142259,1378.971896,740.205942,9992.780217
125.142567,1378.971896,518.144159,9844.739029
125.142875,1991.848295,592.164754,9992.780217
125.143183,1455.581446,962.267725,10140.821405
125.143491,1838.629195,666.185348,9548.656652
125.143799,2145.067394,888.247130,9326.594869
125.144107,2221.676944,814.226536,9326.594869
125.144415,1991.848295,1036.288319,9104.533087
125.144723,2298.286494,814.226536,9104.533087
125.145031,2374.896044,962.267725,9400.615463
125.145339,1608.800546,1110.308913,9030.512492
125.145647,2068.457845,1332.370696,9918.759623
125.145955,1915.238745,1110.308913,9252.574275
125.146263,1532.190996,962.267725,9474.636058
125.146571,995.924147,666.185348,9622.677246
125.146879,919.314598,592.164754,9844.739029
125.147186,766.095498,296.082377,9844.739029
125.147494,842.705048,-0.000000,10140.821405
125.147802,229.828649,-148.041188,9918.759623
125.148110,306.438199,-296.082377,9992.780217
125.148418,76.609550,-74.020594,9918.759623
125.148726,0.000000,-148.041188,9918.759623
125.149034,-153.219100,-296.082377,9918.759623
125.149342,-459.657299,-222.061783,9918.759623
125.149650,-919.314598,-444.123565,9918.759623
125.149958,-459.657299,-518.144159,9696.697840
125.150266,-229.828649,-666.185348,9622.677246
125.150574,-229.828649,-222.061783,10362.883188
125.150882,-995.924147,-370.102971,9918.759623
125.151190,-919.314598,-370.102971,9548.656652
125.151498,-766.095498,-518.144159,9474.636058
125.151806,-842.705048,-370.102971,9326.594869
125.152114,-459.657299,-814.226536,9474.636058
125.152422,-919.314598,-74.020594,9474.636058
125.152730,-459.657299,-370.102971,9104.533087
125.153037,-229.828649,-0.000000,8956.491898
125.153345,-612.876398,-0.000000,8956.491898
125.153653,-306.438199,-0.000000,9178.553681
125.153961,-153.219100,-222.061783,9030.512492
125.154269,-306.438199,-74.020594,9400.615463
125.154577,-229.828649,-0.000000,9622.677246
125.154885,-229.828649,-0.000000,9696.697840
125.155193,-459.657299,-222.061783,9548.656652
125.155501,0.000000,-222.061783,9622.677246
125.155809,306.438199,-0.000000,9696.697840
125.156117,229.828649,-0.000000,9844.739029
125.156425,306.438199,-0.000000,9844.739029
125.156733,153.219100,-0.000000,9844.739029
125.157041,459.657299,-0.000000,9918.759623
125.157349,919.314598,-74.020594,9918.759623
125.157657,1149.143247,-0.000000,9474.636058
125.157965,1225.752797,222.061783,9696.697840
125.158273,995.924147,518.144159,9696.697840
125.158581,1302.362347,518.144159,9474.636058
125.158888,1225.752797,592.164754,9696.697840
125.159196,1072.533697,518.144159,9474.636058
125.159504,1455.581446,-0.000000,9992.780217
125.159812,1762.019645,444.123565,9548.656652
125.160120,1532.190996,444.123565,9918.759623
125.160428,1608.800546,148.041188,9770.718434
125.160736,1225.752797,444.123565,9992.780217
125.161044,1378.971896,370.102971,9918.759623
125.161352,1455.581446,296.082377,9622.677246
125.161660,1685.410096,666.185348,9548.656652
125.161968,1991.848295,592.164754,9326.594869
125.162276,2298.286494,740.205942,9400.615463
125.162584,2068.457845,592.164754,9178.553681
125.162892,2451.505594,888.247130,9252.574275
125.163200,2374.896044,1184.329507,9104.533087
125.163508,2221.676944,1258.350101,8956.491898
125.163816,1915.238745,1184.329507,9326.594869
125.164124,1991.848295,1110.308913,9548.656652
125.164432,1915.238745,592.164754,9622.677246
125.164740,1608.800546,592.164754,9992.780217
125.165047,1302.362347,370.102971,9992.780217
125.165355,1378.971896,370.102971,10362.883188
125.165663,612.876398,-0.000000,10140.821405
125.165971,536.266849,-0.000000,10288.862594
125.166279,229.828649,-148.041188,9992.780217
125.166587,153.219100,-74.020594,10214.842000
125.166895,-383.047749,-0.000000,10584.944971
125.167203,-306.438199,444.123565,10214.842000
125.167511,76.609550,-74.020594,9622.677246
125.167819,0.000000,222.061783,9474.636058
125.168127,0.000000,-0.000000,9474.636058
125.168435,0.000000,-0.000000,9474.636058
125.168743,-229.828649,-74.020594,9548.656652
125.169051,306.438199,-0.000000,9548.656652
125.169359,-153.219100,-222.061783,9622.677246
125.169667,-383.047749,-0.000000,9992.780217
125.169975,-229.828649,-740.205942,9770.718434
125.170283,0.000000,-444.123565,9474.636058
125.170591,-229.828649,-370.102971,9326.594869
125.170898,-229.828649,-370.102971,9252.574275
125.171206,0.000000,-370.102971,9104.533087
125.171514,0.000000,-296.082377,9178.553681
125.171822,229.828649,-444.123565,9030.512492
125.172130,229.828649,-444.123565,9474.636058
125.172438,153.219100,-666.185348,9474.636058
125.172746,0.000000,-444.123565,9622.677246
125.173054,76.609550,-444.123565,9622.677246
125.173362,229.828649,-222.061783,9696.697840
125.173670,306.438199,-148.041188,9696.697840
125.173978,459.657299,-222.061783,9548.656652
125.174287,383.047749,-148.041188,9548.656652
125.174595,689.485948,-148.041188,9548.656652
125.174903,1762.019645,-0.000000,10066.800811
125.175211,995.924147,-148.041188,9696.697840
125.175519,1225.752797,222.061783,9548.656652
125.175827,1225.752797,370.102971,9178.553681
125.176135,1302.362347,592.164754,9474.636058
125.176444,1302.362347,592.164754,9400.615463
125.176752,1302.362347,296.082377,9548.656652
125.177060,1455.581446,888.247130,9696.697840
125.177368,1378.971896,1110.308913,9622.677246
125.177676,1685.410096,814.226536,9770.718434
125.177984,1455.581446,962.267725,9622.677246
125.178292,1762.019645,1036.288319,9622.677246
125.178601,1608.800546,814.226536,9844.739029
125.178909,1378.971896,1110.308913,9770.718434
125.179217,1149.143247,740.205942,9918.759623
125.179525,689.485948,370.102971,10140.821405
125.179833,1378.971896,444.123565,9918.759623
125.180141,1608.800546,666.185348,9326.594869
125.180450,1378.971896,592.164754,9696.697840
125.180758,1532.190996,518.144159,9474.636058
125.181066,1302.362347,740.205942,9474.636058
125.181374,1378.971896,592.164754,9548.656652
125.181682,1762.019645,740.205942,9622.677246
125.181990,1378.971896,666.185348,9474.636058
125.182298,1685.410096,518.144159,9474.636058
125.182607,1455.581446,888.247130,9622.677246
125.182915,1149.143247,814.226536,9474.636058
125.183223,1149.143247,666.185348,9474.636058
125.183531,689.485948,518.144159,9548.656652
125.183839,612.876398,296.082377,9548.656652
125.184147,306.438199,-0.000000,10140.821405
125.184456,76.609550,-0.000000,9992.780217
125.184764,-612.876398,-0.000000,10140.821405
125.185072,-306.438199,-74.020594,9696.697840
125.185380,-229.828649,-222.061783,9992.780217
125.185688,-459.657299,-148.041188,9844.739029
125.185996,-459.657299,-222.061783,9770.718434
125.186304,-612.876398,-296.082377,9844.739029
125.186613,-689.485948,-296.082377,10288.862594
125.186921,-612.876398,-518.144159,9918.759623
125.187229,-1225.752797,-740.205942,9622.677246
125.187537,-689.485948,-740.205942,9844.739029
125.187845,-612.876398,-296.082377,9696.697840
125.188153,-919.314598,-592.164754,9474.636058
125.188462,-919.314598,-222.061783,9474.636058
125.188770,-689.485948,-370.102971,9400.615463
125.189078,-459.657299,-296.082377,9252.574275
125.189386,-612.876398,-222.061783,9252.574275
125.189694,-383.047749,-0.000000,9178.553681
125.190002,-536.266849,-444.123565,8734.430116
125.190310,-153.219100,-148.041188,9252.574275
125.190619,0.000000,-0.000000,9474.636058
125.190927,76.609550,-0.000000,9400.615463
125.191235,153.219100,-0.000000,9400.615463
125.191543,383.047749,-0.000000,9770.718434
125.191851,612.876398,-74.020594,9474.636058
125.192159,766.095498,-0.000000,9622.677246
125.192467,689.485948,444.123565,9622.677246
125.192776,995.924147,296.082377,9400.615463
125.193084,1302.362347,-0.000000,9622.677246
125.193392,1149.143247,-0.000000,9548.656652
125.193700,842.705048,-74.020594,9696.697840
125.194008,842.705048,-370.102971,9918.759623
125.194316,919.314598,-0.000000,9992.780217
125.194625,1455.581446,-0.000000,9918.759623
125.194933,1302.362347,222.061783,9844.739029
125.195241,1225.752797,444.123565,9844.739029
125.195549,1685.410096,518.144159,9770.718434
125.195857,1608.800546,740.205942,9696.697840
125.196165,1608.800546,592.164754,9770.718434
125.196473,2145.067394,296.082377,9548.656652
125.196782,1378.971896,518.144159,9548.656652
125.197090,2221.676944,666.185348,9326.594869
125.197398,1838.629195,888.247130,9252.574275
125.197706,1991.848295,1036.288319,9400.615463
125.198014,2221.676944,962.267725,9622.677246
125.198322,2068.457845,814.226536,9252.574275
125.198631,1762.019645,1110.308913,9326.594869
125.198939,2298.286494,666.185348,9622.677246
125.199247,1838.629195,666.185348,9696.697840
125.199555,1991.848295,1184.329507,9844.739029
125.199863,1685.410096,740.205942,9252.574275
125.200171,1838.629195,962.267725,9474.636058
125.200479,1455.581446,1036.288319,9474.636058
125.200788,1532.190996,1036.288319,9918.759623
125.201096,995.924147,962.267725,9844.739029
125.201404,1149.143247,888.247130,9770.718434
125.201712,842.705048,444.123565,10362.883188
125.202020,766.095498,296.082377,10288.862594
125.202328,612.876398,-0.000000,10066.800811
125.202637,383.047749,-74.020594,10066.800811
125.202945,0.000000,-0.000000,10140.821405
125.203253,0.000000,-0.000000,10066.800811
125.203561,-383.047749,-0.000000,10140.821405
125.203869,-306.438199,-296.082377,9844.739029
125.204177,-153.219100,-0.000000,9770.718434
125.204485,0.000000,-74.020594,9770.718434
125.204794,-306.438199,-0.000000,9622.677246
125.205102,-229.828649,296.082377,9326.594869
125.205410,-536.266849,-0.000000,9104.533087
125.205718,-383.047749,-0.000000,9252.574275
125.206026,-919.314598,-592.164754,9548.656652
125.206334,-995.924147,-592.164754,9548.656652
125.206642,-842.705048,-962.267725,9548.656652
125.206951,-536.266849,-1036.288319,9474.636058
125.207259,-1225.752797,-888.247130,9622.677246
125.207567,-842.705048,-592.164754,9696.697840
125.207875,-689.485948,-740.205942,9474.636058
125.208183,-536.266849,-666.185348,9400.615463
125.208491,-919.314598,-444.123565,9474.636058
125.208800,0.000000,-592.164754,9770.718434
125.209108,-306.438199,-370.102971,9918.759623
125.209416,229.828649,-666.185348,9400.615463
125.209724,229.828649,-370.102971,9104.533087
125.210032,306.438199,-0.000000,9326.594869
125.210340,459.657299,-0.000000,9326.594869
125.210648,689.485948,222.061783,9252.574275
125.210957,766.095498,296.082377,9400.615463
125.211265,919.314598,-0.000000,9696.697840
125.211573,766.095498,148.041188,9770.718434
125.211881,1072.533697,-0.000000,9696.697840
125.212189,1225.752797,-0.000000,9474.636058
125.212497,995.924147,592.164754,9548.656652
125.212806,1302.362347,444.123565,9474.636058
125.213114,1378.971896,740.205942,9474.636058
125.213422,919.314598,666.185348,9548.656652
125.213730,1455.581446,592.164754,9770.718434
125.214038,1378.971896,444.123565,9696.697840
125.214346,1608.800546,814.226536,9622.677246
125.214654,1378.971896,888.247130,9696.697840
125.214963,1378.971896,666.185348,9770.718434
125.215271,1302.362347,370.102971,9770.718434
125.215579,1225.752797,444.123565,10140.821405
125.215887,1685.410096,518.144159,10214.842000
125.216195,1608.800546,370.102971,9844.739029
125.216503,1302.362347,444.123565,9770.718434
125.216812,1838.629195,-0.000000,9548.656652
125.217120,1838.629195,666.185348,9178.553681
125.217428,2068.457845,740.205942,9326.594869
125.217736,2145.067394,962.267725,9326.594869
125.218044,2221.676944,962.267725,9104.533087
125.218352,2145.067394,1036.288319,9030.512492
125.218660,1838.629195,740.205942,9252.574275
125.218969,1762.019645,888.247130,9474.636058
125.219277,2068.457845,814.226536,9400.615463
125.219585,1225.752797,666.185348,9770.718434
125.219893,995.924147,370.102971,9770.718434
125.220201,919.314598,-0.000000,9992.780217
125.220509,459.657299,-148.041188,10140.821405
125.220817,0.000000,-296.082377,10362.883188
125.221126,76.609550,-444.123565,10288.862594
125.221434,-459.657299,-0.000000,10214.842000
125.221742,0.000000,-74.020594,9918.759623
125.222050,0.000000,-74.020594,9770.718434
125.222358,0.000000,222.061783,9548.656652
125.222666,-153.219100,222.061783,9548.656652
125.222975,-306.438199,-0.000000,9844.739029
125.223283,-383.047749,-0.000000,10214.842000
125.223591,-536.266849,444.123565,10066.800811
125.223899,-459.657299,-222.061783,9918.759623
125.224207,-229.828649,-296.082377,9918.759623
125.224515,-766.095498,-370.102971,9844.739029
125.224823,-919.314598,-444.123565,9622.677246
125.225132,-689.485948,-296.082377,9622.677246
125.225440,-383.047749,-370.102971,9400.615463
125.225748,0.000000,-592.164754,9400.615463
125.226056,0.000000,-148.041188,8882.471304
125.226364,306.438199,-0.000000,8956.491898
125.226672,383.047749,-0.000000,8734.430116
125.226981,153.219100,-0.000000,9104.533087
125.227289,0.000000,-148.041188,9400.615463
125.227597,0.000000,-296.082377,9474.636058
125.227905,766.095498,-296.082377,9770.718434
125.228213,-153.219100,-222.061783,9992.780217
125.228521,0.000000,-740.205942,9992.780217
125.228829,383.047749,-666.185348,9992.780217
125.229138,229.828649,-370.102971,9696.697840
125.229446,689.485948,-296.082377,9770.718434
125.229754,459.657299,-370.102971,9622.677246
125.230062,919.314598,-0.000000,9696.697840
125.230370,1455.581446,-148.041188,9622.677246
125.230678,1378.971896,-0.000000,9474.636058
125.230987,1762.019645,-0.000000,9326.594869
125.231295,1532.190996,518.144159,9474.636058
125.231603,1302.362347,666.185348,9252.574275
125.231911,1762.019645,666.185348,9326.594869
125.232219,1608.800546,740.205942,9474.636058
125.232527,1302.362347,740.205942,9400.615463
125.232835,1532.190996,740.205942,9622.677246
125.233144,1915.238745,592.164754,9696.697840
125.233452,1762.019645,814.226536,10066.800811
125.233760,1608.800546,222.061783,9844.739029
125.234068,1608.800546,592.164754,9844.739029
125.234376,1378.971896,888.247130,9548.656652
125.234684,1608.800546,1036.288319,9622.677246
125.234992,1685.410096,1110.308913,9474.636058
125.235301,2374.896044,888.247130,9252.574275
125.235609,2145.067394,1184.329507,9474.636058
125.235917,1915.238745,962.267725,9548.656652
125.236225,1685.410096,666.185348,9474.636058
125.236533,1225.752797,592.164754,9474.636058
125.236841,1225.752797,962.267725,9770.718434
125.237150,1149.143247,962.267725,9622.677246
125.237458,1149.143247,666.185348,9918.759623
125.237766,459.657299,444.123565,9696.697840
125.238074,612.876398,-0.000000,10066.800811
125.238382,842.705048,-74.020594,10066.800811
125.238690,919.314598,-148.041188,9992.780217
125.238998,153.219100,296.082377,9992.780217
125.239307,0.000000,-0.000000,9844.739029
125.239615,0.000000,222.061783,9992.780217
125.239923,0.000000,-0.000000,9696.697840
125.240231,0.000000,-148.041188,9474.636058
125.240539,-306.438199,-444.123565,9696.697840
125.240847,0.000000,-74.020594,9696.697840
125.241156,-153.219100,-0.000000,9548.656652
125.241464,-536.266849,-0.000000,9696.697840
125.241772,-459.657299,-74.020594,9474.636058
125.242080,-612.876398,-296.082377,9548.656652
125.242388,-995.924147,-518.144159,9548.656652
125.242696,-919.314598,-518.144159,9918.759623
125.243004,-766.095498,-666.185348,9918.759623
125.243313,-766.095498,-740.205942,9696.697840
125.243621,-1378.971896,-888.247130,9400.615463
125.243929,-689.485948,-518.144159,9474.636058
125.244237,-459.657299,-296.082377,9030.512492
125.244545,-383.047749,-370.102971,9030.512492
125.244853,-229.828649,-296.082377,9030.512492
125.245162,229.828649,-592.164754,9178.553681
125.245470,229.828649,-814.226536,9326.594869
125.245778,229.828649,-370.102971,9474.636058
125.246086,536.266849,-296.082377,9548.656652
125.246394,153.219100,-592.164754,9474.636058
125.246702,383.047749,-222.061783,9474.636058
125.247010,306.438199,-222.061783,9474.636058
125.247319,766.095498,-0.000000,9622.677246
125.247627,1378.971896,-0.000000,9548.656652
125.247935,1378.971896,-0.000000,9474.636058
125.248243,1532.190996,-148.041188,9548.656652
125.248551,2145.067394,-0.000000,9326.594869
125.248859,1838.629195,370.102971,8882.471304
125.249167,1991.848295,666.185348,9104.533087
125.249476,1838.629195,592.164754,9178.553681
125.249784,1685.410096,740.205942,9326.594869
125.250092,2068.457845,592.164754,9474.636058
125.250400,2145.067394,962.267725,9696.697840
125.250708,1915.238745,814.226536,9844.739029
125.251016,1608.800546,666.185348,10288.862594
125.251325,1685.410096,888.247130,10066.800811
125.251633,1762.019645,962.267725,10140.821405
125.251941,1608.800546,740.205942,9992.780217
125.252249,1762.019645,962.267725,9844.739029
125.252557,2451.505594,740.205942,9696.697840
125.252865,2374.896044,888.247130,10066.800811
125.253173,2451.505594,518.144159,9474.636058
125.253482,2145.067394,1036.288319,9548.656652
125.253790,1991.848295,1036.288319,9548.656652
125.254098,2068.457845,1184.329507,9474.636058
125.254406,1991.848295,962.267725,9622.677246
125.254714,1762.019645,962.267725,9770.718434
125.255022,1762.019645,814.226536,9622.677246
125.255331,1762.019645,1110.308913,9918.759623
125.255639,1532.190996,592.164754,9918.759623
125.255947,1302.362347,1184.329507,10140.821405
125.256255,1072.533697,592.164754,9992.780217
125.256563,766.095498,592.164754,9918.759623
125.256871,536.266849,222.061783,9770.718434
125.257179,153.219100,296.082377,10214.842000
125.257488,229.828649,-0.000000,9918.759623
125.257796,-229.828649,-0.000000,9622.677246
125.258104,-153.219100,-222.061783,9474.636058
125.258412,0.000000,-296.082377,9474.636058
125.258720,-459.657299,-222.061783,9474.636058
125.259028,-536.266849,-148.041188,9696.697840
125.259337,-766.095498,-518.144159,9844.739029
125.259645,-689.485948,-518.144159,9696.697840
125.259953,-919.314598,-518.144159,9844.739029
125.260261,-306.438199,-222.061783,9918.759623
125.260569,-1225.752797,-666.185348,9474.636058
125.260877,-459.657299,-814.226536,9400.615463
125.261185,-766.095498,-370.102971,9696.697840
125.261494,-995.924147,-518.144159,9326.594869
125.261802,-842.705048,-296.082377,9178.553681
125.262110,-842.705048,-444.123565,8882.471304
125.262418,-612.876398,-444.123565,9030.512492
125.262726,-229.828649,-814.226536,9104.533087
125.263034,-383.047749,-518.144159,8808.450710
125.263342,0.000000,-740.205942,9030.512492
125.263651,-306.438199,-518.144159,9104.533087
125.263959,-153.219100,-666.185348,9326.594869
125.264267,-153.219100,-444.123565,9696.697840
125.264575,-306.438199,-666.185348,9548.656652
125.264883,229.828649,-666.185348,9474.636058
125.265191,229.828649,-444.123565,9844.739029
125.265500,153.219100,-370.102971,9770.718434
125.265808,612.876398,-518.144159,9622.677246
125.266116,383.047749,-0.000000,9474.636058
125.266424,919.314598,222.061783,9326.594869
125.266732,689.485948,-0.000000,9326.594869
125.267040,1072.533697,296.082377,9474.636058
125.267348,1455.581446,370.102971,9252.574275
125.267657,1685.410096,814.226536,9400.615463
125.267965,1378.971896,740.205942,9400.615463
125.268273,1685.410096,370.102971,9696.697840
125.268581,1455.581446,814.226536,9696.697840
125.268889,1532.190996,888.247130,9770.718434
125.269197,1608.800546,814.226536,9992.780217
125.269506,1685.410096,740.205942,9992.780217
125.269814,2068.457845,666.185348,9992.780217
125.270122,842.705048,814.226536,10140.821405
125.270430,2068.457845,1036.288319,10214.842000
125.270738,1838.629195,740.205942,9622.677246
125.271046,2145.067394,1480.411884,9474.636058
125.271354,2068.457845,1258.350101,9252.574275
125.271663,2145.067394,1480.411884,9252.574275
125.271971,2221.676944,1332.370696,9474.636058
125.272279,1838.629195,1258.350101,9622.677246
125.272587,1915.238745,1036.288319,9622.677246
125.272895,1532.190996,1480.411884,9844.739029
125.273203,1532.190996,666.185348,10066.800811
125.273511,1302.362347,888.247130,10214.842000
125.273819,1072.533697,814.226536,10214.842000
125.274127,919.314598,370.102971,10140.821405
125.274435,689.485948,666.185348,10436.903782
125.274743,306.438199,370.102971,10584.944971
125.275051,536.266849,-0.000000,10436.903782
125.275359,76.609550,-74.020594,10288.862594
125.275667,306.438199,222.061783,10066.800811
125.275975,76.609550,-0.000000,9696.697840
125.276283,76.609550,-0.000000,9770.718434
125.276591,0.000000,74.020594,9844.739029
125.276899,-383.047749,-0.000000,9770.718434
125.277207,0.000000,-222.061783,9770.718434
125.277515,-536.266849,-0.000000,9844.739029
125.277823,-383.047749,-222.061783,9844.739029
125.278131,-383.047749,-74.020594,9548.656652
125.278439,-536.266849,-296.082377,9474.636058
125.278746,-383.047749,-296.082377,9474.636058
125.279054,-536.266849,-370.102971,9548.656652
125.279362,229.828649,-370.102971,9400.615463
125.279670,-689.485948,-666.185348,9252.574275
125.279978,-536.266849,-592.164754,9474.636058
125.280286,-1072.533697,-518.144159,9252.574275
125.280594,-306.438199,-1406.391290,9400.615463
125.280902,-383.047749,-888.247130,9326.594869
125.281210,-153.219100,-888.247130,9252.574275
125.281518,0.000000,-740.205942,9474.636058
125.281826,153.219100,-518.144159,9400.615463
125.282134,536.266849,-518.144159,9548.656652
125.282442,383.047749,-222.061783,8808.450710
125.282750,766.095498,-296.082377,9326.594869
125.283058,766.095498,-0.000000,9178.553681
125.283366,1378.971896,-74.020594,9104.533087
125.283674,1225.752797,-0.000000,9030.512492
125.283982,1225.752797,-0.000000,9252.574275
125.284290,995.924147,-0.000000,9474.636058
125.284598,995.924147,-0.000000,9474.636058
125.284906,1302.362347,-0.000000,9474.636058
125.285214,1302.362347,222.061783,8882.471304
125.285522,1455.581446,148.041188,9252.574275
125.285830,1608.800546,518.144159,9548.656652
125.286138,1608.800546,592.164754,9474.636058
125.286446,1685.410096,740.205942,9548.656652
125.286754,1455.581446,666.185348,9696.697840
125.287062,1455.581446,962.267725,9844.739029
125.287370,1378.971896,962.267725,9844.739029
125.287678,1455.581446,592.164754,10066.800811
125.287986,919.314598,444.123565,9844.739029
125.288294,1072.533697,592.164754,10140.821405
125.288602,1149.143247,592.164754,9918.759623
125.288910,1072.533697,666.185348,10066.800811
125.289218,1455.581446,370.102971,9770.718434
125.289526,1838.629195,518.144159,9918.759623
125.289834,1991.848295,518.144159,9400.615463
125.290142,2145.067394,962.267725,9474.636058
125.290450,1608.800546,962.267725,9696.697840
125.290758,2068.457845,1036.288319,9474.636058
125.291066,1991.848295,1184.329507,9474.636058
125.291374,1991.848295,1110.308913,9400.615463
125.291682,1838.629195,1406.391290,9770.718434
125.291990,1838.629195,1036.288319,9548.656652
125.292298,1762.019645,1036.288319,9918.759623
125.292606,1378.971896,740.205942,9474.636058
125.292914,919.314598,370.102971,9844.739029
125.293222,612.876398,444.123565,10140.821405
125.293530,0.000000,296.082377,10140.821405
125.293838,0.000000,-0.000000,10214.842000
125.294146,-76.609550,-148.041188,10362.883188
125.294454,-766.095498,-0.000000,10436.903782
125.294762,-919.314598,-0.000000,10140.821405
125.295070,-229.828649,370.102971,10140.821405
125.295378,-536.266849,-0.000000,9992.780217
125.295686,-766.095498,-148.041188,10066.800811
125.295994,-1072.533697,-0.000000,9918.759623
125.296302,-995.924147,-148.041188,9844.739029
125.296610,-1378.971896,-518.144159,9696.697840
125.296918,-612.876398,-296.082377,9622.677246
125.297226,-919.314598,-518.144159,9474.636058
125.297534,-459.657299,-518.144159,9918.759623
125.297842,-766.095498,-370.102971,9104.533087
125.298150,-459.657299,-444.123565,9252.574275
125.298458,-383.047749,-444.123565,8734.430116
125.298766,-459.657299,-296.082377,9030.512492
125.299074,0.000000,-518.144159,8808.450710
125.299382,0.000000,-444.123565,8882.471304
125.299690,459.657299,-962.267725,8808.450710
125.299998,306.438199,-814.226536,9178.553681
125.300306,0.000000,-740.205942,9178.553681
125.300614,153.219100,-592.164754,9178.553681
125.300922,153.219100,-444.123565,9252.574275
125.301230,459.657299,-518.144159,9326.594869
125.301538,536.266849,-444.123565,9474.636058
125.301846,536.266849,-444.123565,9474.636058
125.302154,1072.533697,-740.205942,9548.656652
125.302462,1302.362347,-518.144159,9474.636058
125.302770,1072.533697,-444.123565,9696.697840
125.303078,1149.143247,-0.000000,9474.636058
125.303386,1608.800546,296.082377,9400.615463
125.303694,1762.019645,592.164754,9178.553681
125.304001,1608.800546,296.082377,9400.615463
125.304309,1685.410096,666.185348,9622.677246
125.304617,1608.800546,740.205942,9548.656652
125.304925,1915.238745,444.123565,9474.636058
125.305233,1608.800546,666.185348,9622.677246
125.305541,1838.629195,1184.329507,9622.677246
125.305849,1991.848295,962.267725,9548.656652
125.306157,1991.848295,1110.308913,9548.656652
125.306465,1762.019645,740.205942,9770.718434
125.306773,1838.629195,740.205942,9696.697840
125.307081,1838.629195,666.185348,9548.656652
125.307389,1915.238745,666.185348,9844.739029
125.307697,1991.848295,1406.391290,9696.697840
125.308005,1915.238745,1332.370696,9548.656652
125.308313,1838.629195,1332.370696,9548.656652
125.308621,1762.019645,1332.370696,9696.697840
125.308929,1915.238745,1036.288319,9696.697840
125.309237,1302.362347,1332.370696,9992.780217
125.309545,1072.533697,888.247130,10066.800811
125.309853,1149.143247,592.164754,10214.842000
125.310161,842.705048,740.205942,10362.883188
125.310469,536.266849,592.164754,10436.903782
125.310777,229.828649,518.144159,10362.883188
125.311085,229.828649,296.082377,10584.944971
125.311393,-383.047749,-222.061783,10510.924376
125.311701,-383.047749,-74.020594,10362.883188
125.312009,-459.657299,296.082377,10807.006753
125.312317,0.000000,296.082377,10214.842000
125.312625,0.000000,-0.000000,9770.718434
125.312933,-383.047749,148.041188,9696.697840
125.313241,-306.438199,296.082377,9548.656652
125.313549,-383.047749,296.082377,9474.636058
125.313857,-459.657299,370.102971,9696.697840
125.314165,229.828649,-74.020594,9548.656652
125.314473,-919.314598,-148.041188,9696.697840
125.314781,-689.485948,-666.185348,9474.636058
125.315089,-766.095498,-666.185348,9696.697840
125.315397,-995.924147,-740.205942,9622.677246
125.315705,-995.924147,-444.123565,9696.697840
125.316013,-842.705048,-740.205942,9548.656652
125.316321,-383.047749,-370.102971,9696.697840
125.316629,-459.657299,-518.144159,8882.471304
125.316937,0.000000,-740.205942,9030.512492
125.317245,-229.828649,-222.061783,9474.636058
125.317553,153.219100,-444.123565,8956.491898
125.317861,76.609550,-222.061783,9178.553681
125.318169,306.438199,-444.123565,9252.574275
125.318477,229.828649,-518.144159,9104.533087
125.318785,383.047749,-370.102971,9474.636058
125.319093,536.266849,-444.123565,9252.574275
125.319401,536.266849,-222.061783,9474.636058
125.319709,766.095498,-592.164754,9252.574275
125.320017,1072.533697,-222.061783,9474.636058
125.320325,1225.752797,-148.041188,9326.594869
125.320633,1608.800546,-0.000000,9474.636058
125.320941,1532.190996,-0.000000,9400.615463
125.321249,1762.019645,222.061783,9030.512492
125.321557,2221.676944,592.164754,9326.594869
125.321865,1685.410096,592.164754,9252.574275
125.322173,1915.238745,1036.288319,9400.615463
125.322481,1915.238745,962.267725,9252.574275
125.322789,1685.410096,888.247130,9400.615463
125.323097,1685.410096,740.205942,9548.656652
125.323405,1378.971896,518.144159,9622.677246
125.323713,1149.143247,814.226536,9696.697840
125.324021,766.095498,444.123565,9992.780217
125.324329,1302.362347,148.041188,10214.842000
125.324637,1225.752797,518.144159,9622.677246
125.324945,1608.800546,666.185348,9918.759623
125.325253,1532.190996,740.205942,9992.780217
125.325561,1762.019645,962.267725,9992.780217
125.325869,1991.848295,666.185348,9548.656652
125.326177,2221.676944,814.226536,9474.636058
125.326485,2145.067394,1036.288319,10066.800811
125.326793,2068.457845,1184.329507,10214.842000
125.327101,1685.410096,962.267725,9622.677246
125.327409,1532.190996,962.267725,9622.677246
125.327717,1455.581446,1110.308913,9696.697840
125.328025,1225.752797,962.267725,9474.636058
125.328333,1608.800546,740.205942,9548.656652
125.328641,1455.581446,814.226536,9696.697840
125.328949,612.876398,518.144159,9770.718434
125.329256,919.314598,296.082377,10140.821405
125.329564,459.657299,592.164754,10288.862594
125.329872,229.828649,592.164754,9992.780217
125.330180,76.609550,518.144159,9992.780217
125.330488,-153.219100,444.123565,10066.800811
125.330796,-383.047749,-0.000000,10214.842000
125.331104,-842.705048,296.082377,10288.862594
125.331412,-459.657299,-0.000000,10066.800811
125.331720,-612.876398,-0.000000,10214.842000
125.332028,-919.314598,-370.102971,10288.862594
125.332336,-1149.143247,-370.102971,9992.780217
125.332644,-1302.362347,-444.123565,9844.739029
125.332952,-1302.362347,-370.102971,9770.718434
125.333260,-1072.533697,-962.267725,9770.718434
125.333568,-766.095498,-592.164754,9696.697840
125.333876,-689.485948,-592.164754,9178.553681
125.334184,-766.095498,-518.144159,9474.636058
125.334492,-383.047749,-296.082377,9178.553681
125.334800,-229.828649,-444.123565,8882.471304
125.335108,-153.219100,-296.082377,8956.491898
125.335416,0.000000,-518.144159,8660.409521
125.335724,229.828649,-296.082377,8512.368333
125.336032,0.000000,-740.205942,8956.491898
125.336340,229.828649,-888.247130,8808.450710
125.336648,536.266849,-592.164754,9178.553681
125.336956,229.828649,-666.185348,9400.615463
125.337264,612.876398,-518.144159,9474.636058
125.337572,612.876398,-296.082377,9252.574275
125.337880,842.705048,-296.082377,9326.594869
125.338188,1838.629195,-148.041188,9474.636058
125.338496,919.314598,-370.102971,9474.636058
125.338804,1378.971896,-296.082377,9696.697840
125.339112,1302.362347,-0.000000,9770.718434
125.339420,1072.533697,-0.000000,9474.636058
125.339728,1149.143247,296.082377,9474.636058
125.340036,1378.971896,666.185348,9474.636058
125.340344,1532.190996,814.226536,9178.553681
125.340652,1762.019645,962.267725,9326.594869
125.340960,1762.019645,740.205942,9400.615463
125.341268,2068.457845,1036.288319,9622.677246
125.341576,1762.019645,814.226536,9696.697840
125.341884,1838.629195,1036.288319,9696.697840
125.342192,1608.800546,1036.288319,9696.697840
125.342500,1762.019645,1036.288319,10066.800811
125.342808,1685.410096,962.267725,10140.821405
125.343116,1991.848295,518.144159,9622.677246
125.343424,2221.676944,740.205942,9770.718434
125.343732,2145.067394,814.226536,9770.718434
125.344040,1762.019645,1258.350101,9770.718434
125.344348,1915.238745,1406.391290,9474.636058
125.344656,1608.800546,1332.370696,9252.574275
125.344964,1838.629195,1258.350101,9252.574275
125.345272,1838.629195,1258.350101,9474.636058
125.345580,1455.581446,1036.288319,9844.739029
125.345888,766.095498,1036.288319,9918.759623
125.346196,612.876398,666.185348,9770.718434
125.346504,383.047749,296.082377,10436.903782
125.346812,459.657299,518.144159,10362.883188
125.347120,229.828649,592.164754,10510.924376
125.347428,76.609550,296.082377,10510.924376
125.347736,0.000000,222.061783,10436.903782
125.348044,76.609550,-0.000000,10510.924376
125.348352,-229.828649,-74.020594,10066.800811
125.348660,0.000000,-222.061783,9696.697840
125.348968,-612.876398,-0.000000,9622.677246
125.349276,-383.047749,222.061783,9622.677246
125.349584,-536.266849,-0.000000,9622.677246
125.349892,-689.485948,-0.000000,9474.636058
125.350200,-766.095498,-0.000000,9548.656652
125.350508,-1072.533697,-370.102971,10140.821405
125.350816,-689.485948,-296.082377,9770.718434
125.351124,-1302.362347,-814.226536,9696.697840
125.351432,-1072.533697,-666.185348,9770.718434
125.351740,-919.314598,-592.164754,9548.656652
125.352048,-995.924147,-814.226536,9474.636058
125.352356,-689.485948,-814.226536,9474.636058
125.352664,-766.095498,-740.205942,9326.594869
125.352972,-536.266849,-814.226536,9030.512492
125.353280,76.609550,-370.102971,8956.491898
125.353588,-383.047749,-814.226536,8882.471304
125.353896,459.657299,-518.144159,8734.430116
125.354203,383.047749,-518.144159,8956.491898
125.354511,306.438199,-518.144159,8660.409521
125.354819,536.266849,-296.082377,8956.491898
125.355127,995.924147,-370.102971,9178.553681
125.355435,1302.362347,-148.041188,9474.636058
125.355743,842.705048,-296.082377,9104.533087
125.356051,1378.971896,-370.102971,9104.533087
125.356359,1149.143247,-148.041188,9622.677246
125.356667,1149.143247,-148.041188,9474.636058
125.356975,1225.752797,-0.000000,9474.636058
125.357283,1149.143247,-0.000000,9474.636058
125.357591,1302.362347,148.041188,9474.636058
125.357899,1302.362347,296.082377,9474.636058
125.358207,1685.410096,666.185348,9548.656652
125.358515,2068.457845,592.164754,9474.636058
125.358823,1838.629195,888.247130,9252.574275
125.359131,1838.629195,814.226536,9474.636058
125.359439,1762.019645,962.267725,9548.656652
125.359747,1915.238745,962.267725,9696.697840
125.360055,1991.848295,814.226536,9622.677246
125.360363,1838.629195,814.226536,9696.697840
125.360671,1302.362347,888.247130,10140.821405
125.360979,1685.410096,666.185348,9844.739029
125.361287,1532.190996,740.205942,10288.862594
125.361595,1608.800546,740.205942,9844.739029
125.361903,1685.410096,888.247130,9770.718434
125.362211,1532.190996,740.205942,9548.656652
125.362519,2145.067394,814.226536,9622.677246
125.362827,2068.457845,888.247130,9474.636058
125.363135,2221.676944,1110.308913,9770.718434
125.363443,2068.457845,888.247130,9548.656652
125.363751,1685.410096,1184.329507,9474.636058
125.364059,1608.800546,1110.308913,9696.697840
125.364367,1685.410096,962.267725,9622.677246
125.364675,1225.752797,1110.308913,9770.718434
125.364983,995.924147,888.247130,9770.718434
125.365291,1149.143247,444.123565,9992.780217
125.365599,459.657299,592.164754,10288.862594
125.365907,689.485948,296.082377,10584.944971
125.366215,0.000000,444.123565,10436.903782
125.366523,0.000000,296.082377,10214.842000
125.366831,-689.485948,370.102971,10066.800811
125.367139,-459.657299,148.041188,10066.800811
125.367447,-383.047749,296.082377,9622.677246
125.367755,-459.657299,296.082377,9844.739029
125.368063,-459.657299,-0.000000,9474.636058
125.368371,-842.705048,-370.102971,10140.821405
125.368679,-995.924147,-296.082377,10066.800811
125.368987,-995.924147,-222.061783,9770.718434
125.369295,-1072.533697,-444.123565,9844.739029
125.369603,-919.314598,-592.164754,9770.718434
125.369911,-612.876398,-666.185348,9770.718434
125.370219,-919.314598,-1184.329507,9400.615463
125.370527,-1072.533697,-592.164754,9326.594869
125.370835,-306.438199,-814.226536,8882.471304
125.371143,-306.438199,-518.144159,9030.512492
125.371451,-153.219100,-370.102971,8808.450710
125.371759,0.000000,-222.061783,8512.368333
125.372067,229.828649,-148.041188,8586.388927
125.372375,153.219100,-444.123565,8808.450710
125.372683,0.000000,-814.226536,8882.471304
125.372991,0.000000,-1036.288319,9474.636058
125.373299,383.047749,-518.144159,9844.739029
125.373607,153.219100,-666.185348,9622.677246
125.373915,229.828649,-518.144159,9548.656652
125.374223,229.828649,-518.144159,9622.677246
125.374530,306.438199,-296.082377,9548.656652
125.374838,1225.752797,-518.144159,9844.739029
125.375146,842.705048,-444.123565,9696.697840
125.375454,842.705048,-0.000000,9696.697840
125.375762,1149.143247,-74.020594,9474.636058
125.376070,1225.752797,296.082377,9400.615463
125.376378,1532.190996,592.164754,9474.636058
125.376686,1991.848295,888.247130,9178.553681
125.376994,1838.629195,888.247130,9178.553681
125.377302,1915.238745,814.226536,9400.615463
125.377610,2374.896044,740.205942,9474.636058
125.377918,1991.848295,1036.288319,9548.656652
125.378226,2145.067394,1036.288319,9622.677246
125.378533,1838.629195,666.185348,9770.718434
125.378841,1762.019645,962.267725,9844.739029
125.379149,1762.019645,814.226536,9844.739029
125.379457,1532.190996,962.267725,10066.800811
125.379765,2221.676944,1184.329507,10214.842000
125.380073,1915.238745,1110.308913,9474.636058
125.380381,2145.067394,1110.308913,9770.718434
125.380689,1915.238745,1332.370696,9770.718434
125.380997,2145.067394,1332.370696,9622.677246
125.381305,1685.410096,1258.350101,9548.656652
125.381613,1762.019645,1110.308913,9844.739029
125.381921,1225.752797,1184.329507,10066.800811
125.382228,1685.410096,592.164754,10288.862594
125.382536,1149.143247,518.144159,10658.965565
125.382844,842.705048,518.144159,10288.862594
125.383152,76.609550,592.164754,10288.862594
125.383460,612.876398,518.144159,10288.862594
125.383768,153.219100,444.123565,10140.821405
125.384076,229.828649,518.144159,9992.780217
125.384384,153.219100,592.164754,10066.800811
125.384692,76.609550,-0.000000,9696.697840
125.385000,306.438199,222.061783,9770.718434
125.385308,153.219100,-148.041188,9696.697840
125.385616,-383.047749,-0.000000,9474.636058
125.385924,-383.047749,-0.000000,9474.636058
125.386231,-536.266849,-0.000000,9474.636058
125.386539,-995.924147,-74.020594,9696.697840
125.386847,-766.095498,-296.082377,9696.697840
125.387155,-1455.581446,-444.123565,9696.697840
125.387463,-383.047749,-888.247130,9696.697840
125.387771,-919.314598,-1184.329507,9622.677246
125.388079,-1072.533697,-666.185348,9770.718434
125.388387,-689.485948,-740.205942,9474.636058
125.388695,-689.485948,-814.226536,9474.636058
125.389003,-459.657299,-592.164754,9400.615463
125.389311,-229.828649,-370.102971,8882.471304
125.389619,-306.438199,-962.267725,8734.430116
125.389926,0.000000,-814.226536,9104.533087
125.390234,-153.219100,-74.020594,9178.553681
125.390542,76.609550,-666.185348,9548.656652
125.390850,459.657299,-592.164754,9326.594869
125.391158,0.000000,-592.164754,9030.512492
125.391466,536.266849,-370.102971,9104.533087
125.391774,689.485948,-222.061783,9030.512492
125.392082,1149.143247,148.041188,9178.553681
125.392390,1608.800546,-0.000000,9474.636058
125.392698,1302.362347,-148.041188,9326.594869
125.393006,1072.533697,-148.041188,9474.636058
125.393314,919.314598,-0.000000,9622.677246
125.393622,1225.752797,-0.000000,9548.656652
125.393929,1149.143247,148.041188,9474.636058
125.394237,1225.752797,222.061783,9548.656652
125.394545,1378.971896,666.185348,9696.697840
125.394853,1072.533697,592.164754,9844.739029
125.395161,1455.581446,222.061783,9992.780217
125.395469,1378.971896,370.102971,9696.697840
125.395777,1302.362347,962.267725,9696.697840
125.396085,1455.581446,962.267725,9548.656652
125.396393,1532.190996,1036.288319,9770.718434
125.396701,1915.238745,888.247130,9844.739029
125.397009,1302.362347,888.247130,9992.780217
125.397317,1915.238745,888.247130,10140.821405
125.397624,1455.581446,888.247130,9770.718434
125.397932,1915.238745,1184.329507,9770.718434
125.398240,1991.848295,1184.329507,9474.636058
125.398548,1762.019645,888.247130,9326.594869
125.398856,2068.457845,1036.288319,9548.656652
125.399164,1991.848295,740.205942,9474.636058
125.399472,1991.848295,962.267725,9622.677246
125.399780,1915.238745,888.247130,9400.615463
125.400088,1608.800546,888.247130,9474.636058
125.400396,1685.410096,592.164754,9770.718434
125.400704,1455.581446,1110.308913,9696.697840
125.401012,1225.752797,1036.288319,10140.821405
125.401320,1072.533697,962.267725,10066.800811
125.401627,766.095498,888.247130,10140.821405
125.401935,919.314598,444.123565,10362.883188
125.402243,612.876398,444.123565,10732.986159
125.402551,-459.657299,296.082377,10436.903782
125.402859,0.000000,-0.000000,9844.739029
125.403167,-153.219100,-0.000000,10066.800811
125.403475,-383.047749,296.082377,9918.759623
125.403783,-153.219100,370.102971,9918.759623
125.404091,-306.438199,148.041188,9474.636058
125.404399,-383.047749,-0.000000,9622.677246
125.404707,-459.657299,-370.102971,9548.656652
125.405015,-612.876398,-74.020594,9696.697840
125.405322,-689.485948,-0.000000,9770.718434
125.405630,-1378.971896,-296.082377,9696.697840
125.405938,-842.705048,-444.123565,9622.677246
125.406246,-766.095498,-518.144159,9770.718434
125.406554,-919.314598,-1110.308913,9474.636058
125.406862,-689.485948,-1110.308913,9400.615463
125.407170,-383.047749,-814.226536,8956.491898
125.407478,-153.219100,-740.205942,8956.491898
125.407786,-383.047749,-444.123565,8808.450710
125.408094,0.000000,-370.102971,8882.471304
125.408402,76.609550,-370.102971,8882.471304
125.408710,-153.219100,-518.144159,8808.450710
125.409018,0.000000,-296.082377,9474.636058
125.409325,0.000000,-962.267725,9474.636058
125.409633,0.000000,-592.164754,9474.636058
125.409941,612.876398,-814.226536,9474.636058
125.410249,383.047749,-592.164754,9474.636058
125.410557,689.485948,-370.102971,9474.636058
125.410865,612.876398,-444.123565,9474.636058
125.411173,995.924147,-518.144159,9474.636058
125.411481,1302.362347,-666.185348,9474.636058
125.411789,995.924147,-444.123565,9622.677246
125.412097,1455.581446,222.061783,9474.636058
125.412405,1608.800546,-0.000000,9474.636058
125.412713,1455.581446,740.205942,9252.574275
125.413020,1532.190996,814.226536,9178.553681
125.413328,1762.019645,888.247130,9474.636058
125.413636,1685.410096,962.267725,9474.636058
125.413944,1685.410096,518.144159,9622.677246
125.414252,2068.457845,592.164754,9622.677246
125.414560,1915.238745,962.267725,9918.759623
125.414868,1685.410096,740.205942,9918.759623
125.415176,1685.410096,888.247130,9992.780217
125.415484,1685.410096,888.247130,9844.739029
125.415792,1838.629195,962.267725,9770.718434
125.416100,2068.457845,1258.350101,9622.677246
125.416408,2145.067394,1036.288319,9770.718434
125.416716,1915.238745,1480.411884,9548.656652
125.417023,2145.067394,1258.350101,9400.615463
125.417331,2221.676944,1554.432478,9548.656652
125.417639,1838.629195,1406.391290,9696.697840
125.417947,1685.410096,1332.370696,9770.718434
125.418255,1532.190996,1110.308913,9770.718434
125.418563,1378.971896,888.247130,10140.821405
125.418871,842.705048,518.144159,10362.883188
125.419179,995.924147,296.082377,10584.944971
125.419487,766.095498,-0.000000,10214.842000
125.419795,612.876398,444.123565,10362.883188
125.420103,383.047749,-0.000000,10066.800811
125.420411,76.609550,-0.000000,10436.903782
125.420718,76.609550,-0.000000,10140.821405
125.421026,0.000000,296.082377,9992.780217
125.421334,-536.266849,-148.041188,9696.697840
125.421642,-612.876398,-148.041188,9992.780217
125.421950,-229.828649,-0.000000,10066.800811
125.422258,229.828649,-370.102971,9400.615463
125.422566,-229.828649,-74.020594,9252.574275
125.422874,-306.438199,-222.061783,9474.636058
125.423182,-306.438199,-222.061783,9548.656652
125.423490,-536.266849,-222.061783,9474.636058
125.423798,-536.266849,-666.185348,9178.553681
125.424106,-459.657299,-592.164754,9474.636058
125.424413,-459.657299,-148.041188,9622.677246
125.424721,-766.095498,-740.205942,9400.615463
125.425029,-612.876398,-518.144159,9252.574275
125.425337,-459.657299,-518.144159,9474.636058
125.425645,-459.657299,-592.164754,9030.512492
125.425953,-536.266849,-518.144159,9252.574275
125.426261,-306.438199,-814.226536,9104.533087
125.426569,153.219100,-666.185348,9326.594869
125.426877,153.219100,-814.226536,9326.594869
125.427185,306.438199,-666.185348,9178.553681
125.427493,459.657299,-518.144159,9252.574275
125.427801,383.047749,-222.061783,9474.636058
125.428109,842.705048,-74.020594,9474.636058
125.428416,459.657299,-74.020594,9400.615463
125.428724,919.314598,-0.000000,9474.636058
125.429032,1149.143247,-370.102971,9474.636058
125.429340,1149.143247,-0.000000,9474.636058
125.429648,995.924147,-0.000000,9474.636058
125.429956,1302.362347,148.041188,9474.636058
125.430264,1072.533697,222.061783,9326.594869
125.430572,1302.362347,222.061783,9474.636058
125.430880,1455.581446,518.144159,9844.739029
125.431188,1838.629195,296.082377,9400.615463
125.431496,1455.581446,814.226536,9548.656652
125.431804,1685.410096,666.185348,9400.615463
125.432111,1378.971896,518.144159,9696.697840
125.432419,1532.190996,962.267725,9844.739029
125.432727,1532.190996,1036.288319,9622.677246
125.433035,1608.800546,814.226536,9548.656652
125.433343,1455.581446,888.247130,9770.718434
125.433651,1915.238745,740.205942,9770.718434
125.433959,1915.238745,962.267725,9622.677246
125.434267,1915.238745,888.247130,9770.718434
125.434575,1685.410096,592.164754,9696.697840
125.434883,1685.410096,888.247130,9696.697840
125.435191,1838.629195,666.185348,9696.697840
125.435499,1838.629195,814.226536,9622.677246
125.435807,2068.457845,592.164754,9622.677246
125.436114,1915.238745,666.185348,9474.636058
125.436422,1532.190996,814.226536,9696.697840
125.436730,1455.581446,1110.308913,9770.718434
125.437038,1838.629195,1036.288319,9770.718434
125.437346,1455.581446,1110.308913,9548.656652
125.437654,1225.752797,1110.308913,9844.739029
125.437962,1378.971896,814.226536,9770.718434
125.438270,1378.971896,444.123565,9992.780217
125.438578,612.876398,518.144159,10436.903782
125.438886,306.438199,-0.000000,10214.842000
125.439194,229.828649,-0.000000,10140.821405
125.439502,-536.266849,-0.000000,10288.862594
125.439809,-306.438199,-74.020594,9844.739029
125.440117,-459.657299,444.123565,9844.739029
125.440425,-536.266849,222.061783,9770.718434
125.440733,-689.485948,518.144159,10066.800811
125.441041,-459.657299,-444.123565,9844.739029
125.441349,-612.876398,-0.000000,9844.739029
125.441657,-612.876398,-74.020594,9770.718434
125.441965,-689.485948,-296.082377,9548.656652
125.442273,-842.705048,-370.102971,9696.697840
125.442581,-689.485948,-518.144159,9548.656652
125.442889,-766.095498,-296.082377,9326.594869
125.443197,-612.876398,-1184.329507,9252.574275
125.443505,0.000000,-962.267725,9178.553681
125.443812,-306.438199,-814.226536,9104.533087
125.444120,-536.266849,-592.164754,9178.553681
125.444428,0.000000,-666.185348,8808.450710
125.444736,0.000000,-370.102971,8808.450710
125.445044,0.000000,-666.185348,9104.533087
125.445352,0.000000,-740.205942,9178.553681
125.445660,153.219100,-888.247130,9030.512492
125.445968,306.438199,-962.267725,9400.615463
125.446276,383.047749,-518.144159,9548.656652
125.446584,612.876398,-888.247130,9474.636058
125.446892,536.266849,-518.144159,9622.677246
125.447200,612.876398,-296.082377,9622.677246
125.447507,612.876398,-296.082377,9548.656652
125.447815,689.485948,-296.082377,9696.697840
125.448123,1455.581446,222.061783,9918.759623
125.448431,1608.800546,-0.000000,9770.718434
125.448739,1608.800546,592.164754,9548.656652
125.449047,1225.752797,370.102971,9178.553681
125.449355,1838.629195,814.226536,9326.594869
125.449663,1608.800546,1110.308913,9178.553681
125.449971,1915.238745,1258.350101,9400.615463
125.450279,1991.848295,1184.329507,9252.574275
125.450587,1991.848295,666.185348,9696.697840
125.450895,1685.410096,1110.308913,9696.697840
125.451203,1838.629195,666.185348,9992.780217
125.451510,2374.896044,814.226536,10066.800811
125.451818,1608.800546,814.226536,9992.780217
125.452126,1608.800546,962.267725,9918.759623
125.452434,1378.971896,962.267725,9992.780217
125.452742,1455.581446,1036.288319,9918.759623
125.453050,2068.457845,1184.329507,9844.739029
125.453358,1149.143247,1406.391290,9844.739029
125.453666,1455.581446,1702.473667,10214.842000
125.453974,1991.848295,666.185348,9474.636058
125.454282,1915.238745,1554.432478,9622.677246
125.454590,1455.581446,1036.288319,9696.697840
125.454898,1378.971896,1036.288319,9770.718434
125.455205,1149.143247,666.185348,10362.883188
125.455513,995.924147,592.164754,9918.759623
125.455821,536.266849,296.082377,10288.862594
125.456129,536.266849,296.082377,10584.944971
125.456437,383.047749,-74.020594,10362.883188
125.456745,76.609550,-0.000000,10510.924376
125.457053,153.219100,-0.000000,10362.883188
125.457361,229.828649,-0.000000,9770.718434
125.457669,76.609550,222.061783,9474.636058
125.457977,0.000000,-0.000000,9622.677246
125.458285,306.438199,-0.000000,9252.574275
125.458593,0.000000,-148.041188,9622.677246
125.458901,76.609550,296.082377,9770.718434
125.459208,-459.657299,-222.061783,9252.574275
125.459516,-536.266849,-148.041188,9548.656652
125.459824,-766.095498,-370.102971,9548.656652
125.460132,-612.876398,-518.144159,9474.636058
125.460440,-919.314598,-444.123565,9844.739029
125.460748,-459.657299,-962.267725,9474.636058
125.461056,-689.485948,-888.247130,9178.553681
125.461364,-536.266849,-592.164754,9622.677246
125.461672,-459.657299,-592.164754,9326.594869
125.461980,-306.438199,-592.164754,9178.553681
125.462288,-459.657299,-592.164754,9030.512492
125.462596,0.000000,-296.082377,8956.491898
125.462903,0.000000,-518.144159,9252.574275
125.463211,76.609550,-518.144159,9400.615463
125.463519,153.219100,-444.123565,9178.553681
125.463827,306.438199,-296.082377,9104.533087
125.464135,383.047749,-296.082377,9400.615463
125.464443,306.438199,-296.082377,9326.594869
125.464751,842.705048,-0.000000,9326.594869
125.465059,536.266849,-148.041188,9474.636058
125.465367,1149.143247,-0.000000,9696.697840
125.465675,842.705048,-444.123565,9770.718434
125.465983,919.314598,-296.082377,9696.697840
125.466291,1072.533697,-0.000000,9696.697840
125.466599,1149.143247,-0.000000,9622.677246
125.466906,1302.362347,296.082377,9548.656652
125.467214,1455.581446,296.082377,9474.636058
125.467522,1532.190996,518.144159,9474.636058
125.467830,1991.848295,888.247130,9326.594869
125.468138,1915.238745,1110.308913,9548.656652
125.468446,2068.457845,518.144159,8882.471304
125.468754,1838.629195,962.267725,9474.636058
125.469062,1762.019645,1036.288319,9474.636058
125.469370,1455.581446,1036.288319,9844.739029
125.469678,1532.190996,814.226536,9992.780217
125.469986,1532.190996,518.144159,9992.780217
125.470294,1225.752797,296.082377,10140.821405
125.470601,919.314598,666.185348,9474.636058
125.470909,1302.362347,74.020594,10214.842000
125.471217,1455.581446,518.144159,10140.821405
125.471525,1915.238745,666.185348,9696.697840
125.471833,1991.848295,740.205942,9622.677246
125.472141,2221.676944,814.226536,9474.636058
125.472449,1838.629195,962.267725,9622.677246
125.472757,2451.505594,1036.288319,9252.574275
125.473065,1685.410096,1332.370696,9400.615463
125.473373,2068.457845,962.267725,9400.615463
125.473681,1455.581446,962.267725,9696.697840
125.473990,1532.190996,962.267725,9770.718434
125.474298,1378.971896,740.205942,9770.718434
125.474606,919.314598,592.164754,9918.759623
125.474914,919.314598,222.061783,10288.862594
125.475222,383.047749,296.082377,10214.842000
125.475530,383.047749,370.102971,10288.862594
125.475838,0.000000,-148.041188,9992.780217
125.476146,-153.219100,222.061783,9918.759623
125.476454,-229.828649,370.102971,9918.759623
125.476762,-612.876398,370.102971,9548.656652
125.477070,-612.876398,222.061783,9622.677246
125.477378,-536.266849,-222.061783,9474.636058
125.477686,-536.266849,-370.102971,10066.800811
125.477994,-919.314598,-296.082377,10140.821405
125.478303,-919.314598,-296.082377,10214.842000
125.478611,-1225.752797,-666.185348,9770.718434
125.478919,-1072.533697,-518.144159,9918.759623
125.479227,-1072.533697,-592.164754,9696.697840
125.479535,-919.314598,-814.226536,9400.615463
125.479843,-459.657299,-740.205942,9252.574275
125.480151,-459.657299,-222.061783,9030.512492
125.480459,-612.876398,-592.164754,9030.512492
125.480767,76.609550,-296.082377,8660.409521
125.481075,0.000000,-296.082377,8734.430116
125.481383,76.609550,-370.102971,8586.388927
125.481691,153.219100,-666.185348,8956.491898
125.481999,0.000000,-592.164754,9104.533087
125.482308,612.876398,-666.185348,9252.574275
125.482616,459.657299,-740.205942,9178.553681
125.482924,76.609550,-592.164754,9548.656652
125.483232,766.095498,-814.226536,9696.697840
125.483540,766.095498,-296.082377,9770.718434
125.483848,459.657299,-296.082377,9918.759623
125.484156,689.485948,-296.082377,9696.697840
125.484464,689.485948,-444.123565,9696.697840
125.484772,1149.143247,-370.102971,9770.718434
125.485080,1608.800546,-148.041188,9696.697840
125.485388,1685.410096,222.061783,9178.553681
125.485696,1608.800546,444.123565,9474.636058
125.486004,2068.457845,1036.288319,9252.574275
125.486312,1838.629195,1110.308913,9252.574275
125.486621,1838.629195,1258.350101,9474.636058
125.486929,1991.848295,1110.308913,9474.636058
125.487237,1915.238745,1184.329507,9696.697840
125.487545,1991.848295,1332.370696,9696.697840
125.487853,1455.581446,1258.350101,9770.718434
125.488161,1915.238745,1110.308913,9696.697840
125.488469,1685.410096,1332.370696,9696.697840
125.488777,1838.629195,1184.329507,9696.697840
125.489085,1685.410096,1406.391290,9696.697840
125.489393,1685.410096,1258.350101,9844.739029
125.489701,2068.457845,592.164754,9770.718434
125.490009,1838.629195,1184.329507,9918.759623
125.490317,1838.629195,666.185348,9696.697840
125.490626,842.705048,1258.350101,10510.924376
125.490934,1302.362347,740.205942,10140.821405
125.491242,1149.143247,740.205942,10288.862594
125.491550,1149.143247,666.185348,10288.862594
125.491858,995.924147,740.205942,10362.883188
125.492166,612.876398,592.164754,10288.862594
125.492474,1072.533697,370.102971,10066.800811
125.492782,612.876398,296.082377,9918.759623
125.493090,612.876398,296.082377,9844.739029
125.493398,612.876398,666.185348,9770.718434
125.493706,383.047749,296.082377,9474.636058
125.494014,153.219100,296.082377,9474.636058
125.494322,153.219100,222.061783,9474.636058
125.494630,76.609550,-518.144159,9548.656652
125.494939,229.828649,-0.000000,9474.636058
125.495247,-459.657299,-74.020594,9622.677246
125.495555,-306.438199,-444.123565,9622.677246
125.495863,-536.266849,-148.041188,9474.636058
125.496171,-689.485948,-0.000000,9622.677246
125.496479,-766.095498,-222.061783,9696.697840
125.496787,-842.705048,-444.123565,9696.697840
125.497095,-383.047749,-888.247130,9474.636058
125.497403,-1072.533697,-814.226536,9474.636058
125.497711,-383.047749,-740.205942,9474.636058
125.498019,-995.924147,-666.185348,9696.697840
125.498327,-919.314598,-666.185348,9474.636058
125.498635,-459.657299,-444.123565,9178.553681
125.498943,-306.438199,-666.185348,9178.553681
125.499252,-229.828649,-592.164754,9474.636058
125.499560,76.609550,-518.144159,9252.574275
125.499868,153.219100,-740.205942,9030.512492
125.500176,689.485948,-592.164754,9178.553681
125.500484,612.876398,-444.123565,9474.636058
125.500792,459.657299,-148.041188,9252.574275
125.501100,919.314598,-0.000000,9030.512492
125.501408,995.924147,-0.000000,9104.533087
125.501716,1072.533697,-74.020594,9400.615463
125.502024,995.924147,-222.061783,9474.636058
125.502332,689.485948,-148.041188,9696.697840
125.502640,689.485948,-370.102971,9548.656652
125.502948,842.705048,-444.123565,9770.718434
125.503257,995.924147,-0.000000,9474.636058
125.503565,1225.752797,296.082377,9622.677246
125.503873,1455.581446,444.123565,9400.615463
125.504181,1378.971896,666.185348,9400.615463
125.504489,1072.533697,888.247130,9770.718434
125.504797,1838.629195,518.144159,9622.677246
125.505105,1532.190996,888.247130,9770.718434
125.505413,1762.019645,518.144159,9844.739029
125.505721,1149.143247,666.185348,9622.677246
125.506029,1685.410096,740.205942,9844.739029
125.506337,1608.800546,888.247130,9770.718434
125.506645,1608.800546,888.247130,9844.739029
125.506953,1532.190996,666.185348,9548.656652
125.507261,1915.238745,740.205942,9770.718434
125.507570,2221.676944,740.205942,9918.759623
125.507878,1991.848295,666.185348,9696.697840
125.508186,2145.067394,1036.288319,9178.553681
125.508494,2068.457845,1258.350101,9400.615463
125.508802,2145.067394,1184.329507,9474.636058
125.509110,1838.629195,888.247130,9474.636058
125.509418,1149.143247,1036.288319,9770.718434
125.509726,1378.971896,740.205942,10362.883188
125.510034,842.705048,518.144159,10140.821405
125.510342,1532.190996,370.102971,9918.759623
125.510650,1072.533697,666.185348,10140.821405
125.510958,766.095498,518.144159,9992.780217
125.511266,612.876398,296.082377,9992.780217
125.511575,459.657299,444.123565,9992.780217
125.511883,383.047749,296.082377,10214.842000
125.512191,153.219100,666.185348,9770.718434
125.512499,0.000000,444.123565,9844.739029
125.512807,0.000000,370.102971,9548.656652
125.513115,-153.219100,370.102971,9474.636058
125.513423,-459.657299,148.041188,9696.697840
125.513731,-766.095498,-0.000000,9992.780217
125.514039,-766.095498,444.123565,9918.759623
125.514347,-995.924147,-370.102971,10140.821405
125.514655,-842.705048,-592.164754,9770.718434
125.514963,-995.924147,-888.247130,9622.677246
125.515271,-689.485948,-518.144159,9770.718434
125.515579,-842.705048,-740.205942,9474.636058
125.515888,-995.924147,-888.247130,9474.636058
125.516196,-689.485948,-962.267725,9474.636058
125.516504,-919.314598,-592.164754,9030.512492
125.516812,-229.828649,-666.185348,9178.553681
125.517120,-383.047749,-666.185348,8734.430116
125.517428,0.000000,-370.102971,9178.553681
125.517736,-153.219100,-666.185348,9178.553681
125.518044,0.000000,-518.144159,9104.533087
125.518352,0.000000,-518.144159,9326.594869
125.518660,0.000000,-592.164754,9400.615463
125.518968,0.000000,-666.185348,9474.636058
125.519276,306.438199,-370.102971,9178.553681
125.519584,612.876398,-148.041188,9326.594869
125.519893,919.314598,-370.102971,9474.636058
125.520201,1072.533697,-222.061783,9252.574275
125.520509,995.924147,-0.000000,9474.636058
125.520817,995.924147,-0.000000,9548.656652
125.521125,1072.533697,-0.000000,9400.615463
125.521433,1149.143247,222.061783,9326.594869
125.521741,766.095498,518.144159,9548.656652
125.522049,1762.019645,296.082377,9474.636058
125.522357,1455.581446,296.082377,9326.594869
125.522665,1762.019645,592.164754,9770.718434
125.522973,1532.190996,962.267725,9770.718434
125.523281,1608.800546,888.247130,9770.718434
125.523589,1608.800546,1184.329507,9696.697840
125.523897,1532.190996,962.267725,9474.636058
125.524206,1838.629195,962.267725,9696.697840
125.524514,1302.362347,1110.308913,9548.656652
125.524822,1762.019645,962.267725,9770.718434
125.525130,1608.800546,1036.288319,9696.697840
125.525438,1608.800546,888.247130,9770.718434
125.525746,1378.971896,1110.308913,9844.739029
125.526054,1532.190996,962.267725,9992.780217
125.526362,1455.581446,1184.329507,10140.821405
125.526670,1915.238745,740.205942,9696.697840
125.526978,1378.971896,370.102971,9992.780217
125.527286,1532.190996,666.185348,9918.759623
125.527594,1685.410096,888.247130,9696.697840
125.527902,1302.362347,666.185348,9844.739029
125.528211,1302.362347,666.185348,10066.800811
125.528519,995.924147,740.205942,9622.677246
125.528827,536.266849,370.102971,9918.759623
125.529135,842.705048,148.041188,10140.821405
125.529443,536.266849,518.144159,10214.842000
125.529751,842.705048,-0.000000,10214.842000
125.530059,-76.609550,-74.020594,10066.800811
125.530367,-153.219100,-0.000000,9844.739029
125.530675,-383.047749,-0.000000,9992.780217
125.530983,-229.828649,-0.000000,9770.718434
125.531291,-306.438199,592.164754,9770.718434
125.531599,-536.266849,-0.000000,9622.677246
125.531907,-383.047749,-0.000000,9622.677246
125.532215,-306.438199,-0.000000,9548.656652
125.532524,-459.657299,-0.000000,9548.656652
125.532832,-536.266849,-0.000000,9400.615463
125.533140,-766.095498,-0.000000,9622.677246
125.533448,-612.876398,-370.102971,9696.697840
125.533756,-612.876398,-740.205942,9474.636058
125.534064,-612.876398,-814.226536,9696.697840
125.534372,-995.924147,-592.164754,9696.697840
125.534680,-306.438199,-1110.308913,9474.636058
125.534988,-919.314598,-814.226536,9474.636058
125.535296,-153.219100,-518.144159,9400.615463
125.535604,0.000000,-518.144159,9104.533087
125.535912,0.000000,-444.123565,8956.491898
125.536220,229.828649,-444.123565,9178.553681
125.536529,383.047749,-0.000000,9548.656652
125.536837,919.314598,-148.041188,9474.636058
125.537145,76.609550,222.061783,9474.636058
125.537453,766.095498,-0.000000,9178.553681
125.537761,689.485948,-0.000000,9400.615463
125.538069,995.924147,-148.041188,9326.594869
125.538377,842.705048,-74.020594,9548.656652
125.538685,766.095498,-444.123565,9844.739029
125.538993,383.047749,-666.185348,9844.739029
125.539301,689.485948,-0.000000,9918.759623
125.539609,1225.752797,-0.000000,9696.697840
125.539917,1378.971896,222.061783,9474.636058
125.540225,1455.581446,666.185348,9326.594869
125.540533,1378.971896,740.205942,9252.574275
125.540842,1685.410096,888.247130,9178.553681
125.541150,1378.971896,666.185348,9474.636058
125.541458,1378.971896,888.247130,9622.677246
125.541766,1991.848295,518.144159,9326.594869
125.542074,1685.410096,888.247130,9770.718434
125.542382,1455.581446,740.205942,9770.718434
125.542690,1685.410096,888.247130,9770.718434
125.542998,1838.629195,740.205942,9844.739029
125.543306,1455.581446,666.185348,9992.780217
125.543614,1838.629195,518.144159,10214.842000
125.543922,1608.800546,296.082377,9844.739029
125.544230,1991.848295,370.102971,9548.656652
125.544538,2221.676944,518.144159,9696.697840
125.544847,1991.848295,962.267725,9696.697840
125.545155,1991.848295,962.267725,9474.636058
125.545463,2068.457845,1036.288319,9400.615463
125.545771,2145.067394,1110.308913,9474.636058
125.546079,2451.505594,1480.411884,9696.697840
125.546387,1608.800546,962.267725,9770.718434
125.546695,919.314598,962.267725,9918.759623
125.547003,1225.752797,666.185348,10140.821405
125.547311,1149.143247,370.102971,9992.780217
125.547619,612.876398,296.082377,10066.800811
125.547927,459.657299,370.102971,10214.842000
125.548235,76.609550,222.061783,10066.800811
125.548543,0.000000,-74.020594,9992.780217
125.548851,-919.314598,444.123565,9918.759623
125.549160,0.000000,370.102971,9992.780217
125.549468,-383.047749,-148.041188,9696.697840
125.549776,-689.485948,-0.000000,9622.677246
125.550084,-919.314598,-0.000000,9770.718434
125.550392,-842.705048,-222.061783,9770.718434
125.550700,-1378.971896,-518.144159,9918.759623
125.551008,-1149.143247,-370.102971,9992.780217
125.551316,-1072.533697,-592.164754,10140.821405
125.551624,-842.705048,-592.164754,10214.842000
125.551932,-995.924147,-222.061783,9844.739029
125.552240,-612.876398,-518.144159,9326.594869
125.552548,-536.266849,-444.123565,9326.594869
125.552856,-229.828649,-370.102971,9104.533087
125.553165,0.000000,-148.041188,8956.491898
125.553473,-229.828649,-370.102971,8882.471304
125.553781,0.000000,-370.102971,9178.553681
125.554089,153.219100,-444.123565,9104.533087
125.554397,-459.657299,-370.102971,9104.533087
125.554705,0.000000,-592.164754,9474.636058
125.555013,0.000000,-518.144159,9474.636058
125.555321,153.219100,-370.102971,9474.636058
125.555629,153.219100,-296.082377,9622.677246
125.555937,459.657299,-296.082377,9474.636058
125.556245,306.438199,-592.164754,9474.636058
125.556553,536.266849,-0.000000,9474.636058
125.556861,766.095498,-0.000000,9622.677246
125.557169,1072.533697,-74.020594,9696.697840
125.557478,1149.143247,518.144159,9548.656652
125.557786,1072.533697,444.123565,9622.677246
125.558094,1302.362347,666.185348,9252.574275
125.558402,1225.752797,666.185348,9400.615463
125.558710,1685.410096,814.226536,9622.677246
125.559018,1455.581446,814.226536,9548.656652
125.559326,1532.190996,888.247130,9696.697840
125.559634,1685.410096,740.205942,9696.697840
125.559942,1608.800546,962.267725,9548.656652
125.560250,1532.190996,962.267725,9622.677246
125.560558,1455.581446,740.205942,9622.677246
125.560866,1532.190996,666.185348,9548.656652
125.561174,1838.629195,666.185348,9696.697840
125.561483,1532.190996,962.267725,9992.780217
125.561791,1532.190996,962.267725,9548.656652
125.562099,1532.190996,740.205942,9844.739029
125.562407,1608.800546,888.247130,9548.656652
125.562715,1991.848295,1110.308913,9474.636058
125.563023,2298.286494,740.205942,9696.697840
125.563331,1762.019645,888.247130,9918.759623
125.563639,1532.190996,296.082377,9474.636058
125.563947,1608.800546,592.164754,9992.780217
125.564255,1149.143247,518.144159,9918.759623
125.564563,1225.752797,740.205942,9770.718434
125.564871,1149.143247,814.226536,9696.697840
125.565179,995.924147,666.185348,9696.697840
125.565487,919.314598,148.041188,9992.780217
125.565796,383.047749,148.041188,10140.821405
125.566104,153.219100,222.061783,10066.800811
125.566412,76.609550,-74.020594,9696.697840
125.566720,0.000000,-0.000000,9770.718434
125.567028,-229.828649,-0.000000,9844.739029
125.567336,-229.828649,-74.020594,9918.759623
125.567644,-536.266849,-0.000000,9918.759623
125.567952,0.000000,-222.061783,9696.697840
125.568260,-459.657299,-222.061783,9918.759623
125.568568,-459.657299,-296.082377,9474.636058
125.568876,-229.828649,-148.041188,9474.636058
125.569184,-536.266849,-0.000000,9474.636058
125.569492,-689.485948,-0.000000,9252.574275
125.569800,-689.485948,-148.041188,9252.574275
125.570109,-536.266849,-296.082377,9474.636058
125.570417,-306.438199,-370.102971,9696.697840
125.570725,-1149.143247,-666.185348,9474.636058
125.571033,-153.219100,-814.226536,9474.636058
125.571341,-612.876398,-814.226536,9696.697840
125.571649,-306.438199,-592.164754,9326.594869
125.571957,-153.219100,-592.164754,9252.574275
125.572265,0.000000,-370.102971,9326.594869
125.572573,153.219100,-370.102971,9178.553681
125.572881,842.705048,-444.123565,9326.594869
125.573189,383.047749,-296.082377,8956.491898
125.573497,536.266849,-370.102971,9252.574275
125.573805,459.657299,-296.082377,9548.656652
125.574114,842.705048,-74.020594,9474.636058
125.574422,536.266849,-74.020594,9696.697840
125.574730,536.266849,-148.041188,9696.697840
125.575038,536.266849,-148.041188,9696.697840
125.575346,612.876398,-74.020594,9992.780217
125.575654,1072.533697,-296.082377,9622.677246
125.575962,995.924147,-148.041188,9326.594869
125.576270,1149.143247,-0.000000,9844.739029
125.576578,1149.143247,296.082377,9548.656652
125.576886,1302.362347,518.144159,9474.636058
125.577195,1532.190996,888.247130,9474.636058
125.577503,1225.752797,1184.329507,9400.615463
125.577811,1991.848295,1184.329507,9474.636058
125.578119,1685.410096,962.267725,9548.656652
125.578427,1378.971896,296.082377,9622.677246
125.578735,1608.800546,814.226536,9696.697840
125.579043,1455.581446,592.164754,9992.780217
125.579351,1225.752797,666.185348,9770.718434
125.579659,1378.971896,814.226536,9844.739029
125.579967,1532.190996,740.205942,9696.697840
125.580275,1915.238745,592.164754,9548.656652
125.580584,2451.505594,444.123565,9696.697840
125.580892,2068.457845,444.123565,9400.615463
125.581200,1991.848295,814.226536,9770.718434
125.581508,1991.848295,666.185348,9622.677246
125.581816,1915.238745,962.267725,9696.697840
125.582124,1991.848295,1036.288319,9548.656652
125.582432,1838.629195,888.247130,9474.636058
125.582740,2145.067394,1036.288319,9474.636058
125.583048,1378.971896,888.247130,9770.718434
125.583356,1532.190996,592.164754,10066.800811
125.583665,995.924147,148.041188,9844.739029
125.583973,919.314598,296.082377,9992.780217
125.584281,459.657299,296.082377,9992.780217
125.584589,383.047749,222.061783,9770.718434
125.584897,76.609550,148.041188,9770.718434
125.585205,383.047749,296.082377,10214.842000
125.585513,-612.876398,-0.000000,9770.718434
125.585821,0.000000,-0.000000,10066.800811
125.586129,-689.485948,-0.000000,9696.697840
125.586437,-766.095498,148.041188,9918.759623
125.586746,-919.314598,-0.000000,9918.759623
125.587054,-1072.533697,-296.082377,9844.739029
125.587362,-1072.533697,-222.061783,9770.718434
125.587670,-1455.581446,-518.144159,10066.800811
125.587978,-1762.019645,-1110.308913,10140.821405
125.588286,-766.095498,-1036.288319,9622.677246
125.588594,-1532.190996,-814.226536,9548.656652
125.588902,-1072.533697,-444.123565,9474.636058
125.589210,-612.876398,-518.144159,9474.636058
125.589518,-383.047749,-518.144159,9178.553681
125.589826,0.000000,-518.144159,8808.450710
125.590135,-383.047749,-74.020594,8956.491898
125.590443,0.000000,-0.000000,9178.553681
125.590751,459.657299,-518.144159,9252.574275
125.591059,-229.828649,-222.061783,9400.615463
125.591367,229.828649,-444.123565,9400.615463
125.591675,383.047749,-370.102971,9474.636058
125.591983,689.485948,-222.061783,9548.656652
125.592291,689.485948,-296.082377,9622.677246
125.592599,536.266849,-444.123565,9622.677246
125.592907,842.705048,74.020594,9918.759623
125.593216,919.314598,-0.000000,9622.677246
125.593524,842.705048,-0.000000,9696.697840
125.593832,995.924147,-0.000000,9696.697840
125.594140,1225.752797,296.082377,9548.656652
125.594448,1225.752797,592.164754,9696.697840
125.594756,1149.143247,592.164754,9548.656652
125.595064,1149.143247,666.185348,9548.656652
125.595372,1608.800546,814.226536,9770.718434
125.595680,1225.752797,666.185348,9474.636058
125.595988,1455.581446,666.185348,9770.718434
125.596297,1455.581446,1184.329507,9770.718434
125.596605,1532.190996,814.226536,9844.739029
125.596913,1455.581446,1036.288319,9844.739029
125.597221,1762.019645,1036.288319,9770.718434
125.597529,1532.190996,814.226536,9474.636058
125.597837,1838.629195,1332.370696,9918.759623
125.598145,1225.752797,1184.329507,9918.759623
125.598453,1991.848295,1184.329507,9252.574275
125.598761,1991.848295,1332.370696,9178.553681
125.599069,1838.629195,1184.329507,9252.574275
125.599377,2145.067394,1184.329507,9326.594869
125.599686,1608.800546,1036.288319,9400.615463
125.599994,1915.238745,740.205942,9696.697840
125.600302,1225.752797,444.123565,9400.615463
125.600610,995.924147,740.205942,9918.759623
125.600918,1072.533697,148.041188,10140.821405
125.601226,842.705048,370.102971,10066.800811
125.601534,766.095498,222.061783,10214.842000
125.601842,459.657299,-0.000000,10288.862594
125.602150,153.219100,-0.000000,10362.883188
125.602458,229.828649,-0.000000,10510.924376
125.602767,229.828649,-222.061783,10288.862594
125.603075,0.000000,-74.020594,9770.718434
125.603383,0.000000,-222.061783,9474.636058
125.603691,0.000000,-0.000000,9844.739029
125.603999,-536.266849,-0.000000,9696.697840
125.604307,0.000000,-0.000000,9474.636058
125.604615,-766.095498,-74.020594,9474.636058
125.604923,-536.266849,-148.041188,9548.656652
125.605231,-306.438199,-0.000000,9548.656652
125.605539,0.000000,-0.000000,9326.594869
125.605848,-459.657299,-148.041188,9400.615463
125.606156,-689.485948,-0.000000,9326.594869
125.606464,-459.657299,-296.082377,9326.594869
125.606772,-612.876398,-148.041188,9400.615463
125.607080,-536.266849,-296.082377,9326.594869
125.607388,-459.657299,-444.123565,9252.574275
125.607696,-536.266849,-444.123565,9400.615463
125.608004,-766.095498,-296.082377,9548.656652
125.608312,-306.438199,-222.061783,9548.656652
125.608620,0.000000,-666.185348,9400.615463
125.608928,0.000000,-592.164754,9474.636058
125.609237,76.609550,-518.144159,9696.697840
125.609545,612.876398,-666.185348,9548.656652
125.609853,306.438199,-296.082377,9622.677246
125.610161,766.095498,-296.082377,9326.594869
125.610469,1149.143247,-0.000000,9622.677246
125.610777,689.485948,148.041188,9548.656652
125.611085,1225.752797,-0.000000,9400.615463
125.611393,995.924147,-0.000000,9252.574275
125.611701,919.314598,-0.000000,9400.615463
125.612009,1149.143247,444.123565,9696.697840
125.612318,1149.143247,222.061783,9400.615463
125.612626,1225.752797,518.144159,9400.615463
125.612934,995.924147,222.061783,9474.636058
125.613242,1378.971896,518.144159,9474.636058
125.613550,1225.752797,666.185348,9622.677246
125.613858,919.314598,518.144159,9696.697840
125.614166,1302.362347,740.205942,9696.697840
125.614474,1072.533697,296.082377,9770.718434
125.614782,1225.752797,444.123565,9696.697840
125.615090,1685.410096,666.185348,9992.780217
125.615399,1915.238745,814.226536,10140.821405
125.615707,1532.190996,370.102971,9548.656652
125.616015,1532.190996,888.247130,9548.656652
125.616323,1762.019645,1036.288319,9548.656652
125.616631,1991.848295,888.247130,9696.697840
125.616939,2221.676944,444.123565,9326.594869
125.617247,1838.629195,814.226536,9178.553681
125.617555,2145.067394,740.205942,9104.533087
125.617863,2221.676944,666.185348,9474.636058
125.618171,1991.848295,814.226536,9622.677246
125.618479,1838.629195,740.205942,9400.615463
125.618788,1915.238745,888.247130,9474.636058
125.619096,1762.019645,1036.288319,9474.636058
125.619404,1915.238745,1036.288319,9770.718434
125.619712,1225.752797,592.164754,9474.636058
125.620020,1532.190996,370.102971,9844.739029
125.620328,919.314598,148.041188,9844.739029
125.620636,306.438199,222.061783,9770.718434
125.620944,0.000000,296.082377,9992.780217
125.621252,153.219100,-0.000000,10066.800811
125.621560,-383.047749,-0.000000,9992.780217
125.621869,-153.219100,-444.123565,9992.780217
125.622177,-536.266849,-296.082377,9918.759623
125.622485,-766.095498,-222.061783,9844.739029
125.622793,-1149.143247,-148.041188,9696.697840
125.623101,-842.705048,-74.020594,10140.821405
125.623409,-995.924147,-370.102971,9696.697840
125.623717,-689.485948,-222.061783,9474.636058
125.624025,-995.924147,-0.000000,9474.636058
125.624333,-995.924147,-222.061783,9696.697840
125.624641,-612.876398,222.061783,9918.759623
125.624950,-459.657299,-518.144159,9400.615463
125.625258,-383.047749,-518.144159,9400.615463
125.625566,-919.314598,-592.164754,9178.553681
125.625874,-536.266849,-370.102971,9104.533087
125.626182,-459.657299,-370.102971,9030.512492
125.626490,-383.047749,-444.123565,9252.574275
125.626798,0.000000,-814.226536,8882.471304
125.627106,0.000000,-444.123565,9252.574275
125.627414,0.000000,-518.144159,9252.574275
125.627722,612.876398,-592.164754,9474.636058
125.628030,536.266849,-0.000000,9474.636058
125.628339,689.485948,-0.000000,9474.636058
125.628647,536.266849,-0.000000,9474.636058
125.628955,689.485948,-0.000000,9548.656652
125.629263,612.876398,-0.000000,9770.718434
125.629571,842.705048,-296.082377,9622.677246
125.629879,1302.362347,-222.061783,9326.594869
125.630187,919.314598,-0.000000,9548.656652
125.630495,995.924147,-0.000000,9770.718434
125.630803,1225.752797,-0.000000,9770.718434
125.631111,1302.362347,148.041188,9696.697840
125.631420,1302.362347,370.102971,9696.697840
125.631728,1762.019645,740.205942,9844.739029
125.632036,1991.848295,962.267725,9326.594869
125.632344,1838.629195,1036.288319,9326.594869
125.632652,2221.676944,962.267725,9400.615463
125.632960,1838.629195,1332.370696,9474.636058
125.633268,1685.410096,1184.329507,9474.636058
125.633576,1608.800546,1036.288319,9474.636058
125.633884,1302.362347,1110.308913,9326.594869
125.634192,1685.410096,888.247130,9770.718434
125.634501,1608.800546,740.205942,9696.697840
125.634809,1455.581446,518.144159,9548.656652
125.635117,1608.800546,666.185348,9548.656652
125.635425,1608.800546,666.185348,9548.656652
125.635733,1608.800546,962.267725,9622.677246
125.636041,1685.410096,740.205942,9474.636058
125.636349,2374.896044,592.164754,9696.697840
125.636657,1378.971896,888.247130,9844.739029
125.636965,1608.800546,592.164754,9770.718434
125.637273,1532.190996,740.205942,9622.677246
125.637581,1302.362347,518.144159,9696.697840
125.637890,919.314598,444.123565,9918.759623
125.638198,536.266849,370.102971,9918.759623
125.638506,306.438199,-0.000000,9992.780217
125.638814,229.828649,-0.000000,10066.800811
125.639122,0.000000,-222.061783,10214.842000
125.639430,-153.219100,-444.123565,10140.821405
125.639738,76.609550,-0.000000,9844.739029
125.640046,-229.828649,-74.020594,9992.780217
125.640354,0.000000,-0.000000,9548.656652
125.640662,-306.438199,-0.000000,9474.636058
125.640971,-306.438199,-74.020594,9622.677246
125.641279,0.000000,222.061783,9548.656652
125.641587,-383.047749,-0.000000,9770.718434
125.641895,-153.219100,-0.000000,9474.636058
125.642203,-995.924147,-222.061783,9548.656652
125.642511,-536.266849,-74.020594,9548.656652
125.642819,-766.095498,-296.082377,9548.656652
125.643127,-536.266849,-592.164754,9474.636058
125.643435,-766.095498,-518.144159,9474.636058
125.643743,0.000000,-666.185348,9178.553681
125.644052,-306.438199,-592.164754,9400.615463
125.644360,-383.047749,-370.102971,9474.636058
125.644668,0.000000,-444.123565,9400.615463
125.644976,0.000000,-0.000000,9400.615463
125.645284,0.000000,-74.020594,9548.656652
125.645592,0.000000,-74.020594,9252.574275
125.645900,306.438199,-0.000000,9474.636058
125.646208,306.438199,-74.020594,9696.697840
125.646516,229.828649,-74.020594,9474.636058
125.646824,766.095498,-0.000000,9918.759623
125.647132,612.876398,-222.061783,9918.759623
125.647441,612.876398,-148.041188,9548.656652
125.647749,536.266849,-74.020594,9770.718434
125.648057,689.485948,-0.000000,9992.780217
125.648365,612.876398,-222.061783,9844.739029
125.648673,919.314598,-148.041188,9474.636058
125.648981,229.828649,222.061783,10066.800811
125.649289,995.924147,-0.000000,9400.615463
125.649597,1302.362347,444.123565,9474.636058
125.649905,1378.971896,740.205942,9622.677246
125.650213,1302.362347,814.226536,9474.636058
125.650522,1532.190996,888.247130,9474.636058
125.650830,2068.457845,888.247130,9548.656652
125.651138,1991.848295,592.164754,9622.677246
125.651446,1991.848295,444.123565,9474.636058
125.651754,1532.190996,1258.350101,9770.718434
125.652062,1608.800546,444.123565,9696.697840
125.652370,1532.190996,666.185348,9622.677246
125.652678,1685.410096,518.144159,9548.656652
125.652986,1838.629195,666.185348,9696.697840
125.653294,1685.410096,518.144159,9474.636058
125.653603,2068.457845,740.205942,9548.656652
125.653911,2145.067394,666.185348,9474.636058
125.654219,2145.067394,962.267725,9696.697840
125.654527,2145.067394,888.247130,9178.553681
125.654835,1915.238745,962.267725,9400.615463
125.655143,1838.629195,1258.350101,9474.636058
125.655451,1838.629195,962.267725,9400.615463
125.655759,1762.019645,962.267725,9548.656652
125.656067,1608.800546,370.102971,10066.800811
125.656375,536.266849,592.164754,10436.903782
125.656683,0.000000,518.144159,10362.883188
125.656992,689.485948,-0.000000,10436.903782
125.657300,-229.828649,148.041188,9622.677246
125.657608,0.000000,-0.000000,10140.821405
125.657916,-153.219100,-0.000000,9992.780217
125.658224,-383.047749,296.082377,9696.697840
125.658532,-229.828649,-222.061783,9622.677246
125.658840,-229.828649,-222.061783,9400.615463
125.659148,-995.924147,-0.000000,9696.697840
125.659456,-153.219100,-370.102971,9178.553681
125.659764,-459.657299,-0.000000,9474.636058
125.660073,-689.485948,-222.061783,9548.656652
125.660381,-995.924147,-444.123565,9696.697840
125.660689,-1072.533697,-444.123565,9622.677246
125.660997,-1149.143247,-1036.288319,9474.636058
125.661305,-919.314598,-888.247130,9696.697840
125.661613,-842.705048,-888.247130,9400.615463
125.661921,-689.485948,-962.267725,9474.636058
125.662229,-536.266849,-740.205942,9104.533087
125.662537,0.000000,-296.082377,9104.533087
125.662845,0.000000,-592.164754,9400.615463
125.663154,0.000000,-444.123565,9030.512492
125.663462,0.000000,-518.144159,9252.574275
125.663770,383.047749,-74.020594,9326.594869
125.664078,383.047749,-222.061783,9474.636058
125.664386,383.047749,-222.061783,9474.636058
125.664694,612.876398,-0.000000,9326.594869
125.665002,689.485948,-74.020594,9474.636058
125.665310,459.657299,-148.041188,9622.677246
125.665618,536.266849,-222.061783,9696.697840
125.665926,383.047749,-148.041188,9696.697840
125.666234,689.485948,-0.000000,10214.842000
125.666543,842.705048,370.102971,10214.842000
125.666851,995.924147,74.020594,9770.718434
125.667159,1378.971896,592.164754,9400.615463
125.667467,1685.410096,962.267725,9548.656652
125.667775,1915.238745,962.267725,9474.636058
125.668083,1685.410096,740.205942,9252.574275
125.668391,1915.238745,1110.308913,9326.594869
125.668699,2145.067394,1332.370696,9622.677246
125.669007,1532.190996,1332.370696,9844.739029
125.669315,1455.581446,1110.308913,9696.697840
125.669624,1608.800546,888.247130,9918.759623
125.669932,1225.752797,666.185348,9844.739029
125.670240,1378.971896,592.164754,9992.780217
125.670548,1302.362347,518.144159,9918.759623
125.670856,1608.800546,592.164754,9918.759623
125.671164,2145.067394,518.144159,9770.718434
125.671472,1685.410096,814.226536,9474.636058
125.671780,1838.629195,814.226536,9474.636058
125.672088,1838.629195,1036.288319,9400.615463
125.672396,1838.629195,740.205942,9548.656652
125.672705,1685.410096,814.226536,9474.636058
125.673013,1072.533697,666.185348,9548.656652
125.673321,1302.362347,370.102971,10066.800811
125.673629,1302.362347,-0.000000,9918.759623
125.673937,689.485948,666.185348,10066.800811
125.674245,689.485948,-0.000000,10066.800811
125.674553,306.438199,-74.020594,9992.780217
125.674861,306.438199,-222.061783,10214.842000
125.675169,153.219100,-0.000000,9770.718434
125.675477,612.876398,-0.000000,9696.697840
125.675785,689.485948,-0.000000,9474.636058
125.676093,229.828649,-0.000000,9622.677246
125.676402,229.828649,-0.000000,9252.574275
125.676710,76.609550,-0.000000,9326.594869
125.677018,0.000000,-0.000000,9400.615463
125.677326,-229.828649,-0.000000,9474.636058
125.677634,-306.438199,-0.000000,9474.636058
125.677942,0.000000,-370.102971,9474.636058
125.678250,-689.485948,-222.061783,9474.636058
125.678558,-766.095498,-148.041188,9548.656652
125.678866,-689.485948,-296.082377,9770.718434
125.679174,-612.876398,-666.185348,9474.636058
125.679482,-689.485948,-370.102971,9474.636058
125.679790,-689.485948,-370.102971,9474.636058
125.680098,-689.485948,-148.041188,9548.656652
125.680406,-459.657299,-74.020594,9474.636058
125.680714,-689.485948,-296.082377,9474.636058
125.681022,-153.219100,-222.061783,9400.615463
125.681330,-689.485948,-518.144159,9844.739029
125.681638,0.000000,-592.164754,9400.615463
125.681946,0.000000,-74.020594,9474.636058
125.682254,0.000000,-296.082377,9474.636058
125.682562,229.828649,-222.061783,9622.677246
125.682870,536.266849,-74.020594,9622.677246
125.683178,459.657299,-296.082377,9474.636058
125.683486,689.485948,-444.123565,9770.718434
125.683795,919.314598,-74.020594,9918.759623
125.684103,153.219100,-222.061783,9992.780217
125.684411,689.485948,296.082377,9622.677246
125.684719,919.314598,-0.000000,9548.656652
125.685027,995.924147,296.082377,9474.636058
125.685335,842.705048,370.102971,9474.636058
125.685643,1532.190996,592.164754,9326.594869
125.685951,1685.410096,888.247130,9622.677246
125.686259,1838.629195,592.164754,9252.574275
125.686567,1302.362347,740.205942,9770.718434
125.686875,1455.581446,740.205942,9622.677246
125.687183,1149.143247,740.205942,9770.718434
125.687491,1225.752797,518.144159,10140.821405
125.687799,1149.143247,444.123565,10288.862594
125.688107,1685.410096,740.205942,10362.883188
125.688415,1532.190996,666.185348,9770.718434
125.688723,2145.067394,962.267725,9844.739029
125.689031,1915.238745,962.267725,9104.533087
125.689339,2298.286494,1184.329507,9474.636058
125.689647,2451.505594,1184.329507,9474.636058
125.689955,2451.505594,962.267725,9178.553681
125.690263,2068.457845,1258.350101,9400.615463
125.690571,1991.848295,814.226536,9474.636058
125.690880,2145.067394,666.185348,9474.636058
125.691188,1378.971896,666.185348,9622.677246
125.691496,1608.800546,814.226536,9696.697840
125.691804,1302.362347,518.144159,9918.759623
125.692112,1149.143247,518.144159,9992.780217
125.692420,766.095498,666.185348,9548.656652
125.692728,1455.581446,148.041188,10066.800811
125.693036,995.924147,518.144159,9918.759623
125.693344,995.924147,148.041188,9770.718434
125.693652,1072.533697,-0.000000,9474.636058
125.693960,76.609550,444.123565,9696.697840
125.694268,0.000000,-0.000000,9622.677246
125.694576,-306.438199,-0.000000,9548.656652
125.694884,-153.219100,-148.041188,9992.780217
125.695192,-689.485948,-296.082377,9696.697840
125.695500,-842.705048,-444.123565,9696.697840
125.695808,-842.705048,-148.041188,9622.677246
125.696116,-306.438199,-666.185348,9770.718434
125.696424,-766.095498,-666.185348,9622.677246
125.696732,-842.705048,-592.164754,9474.636058
125.697040,-612.876398,-592.164754,9474.636058
125.697348,-842.705048,-518.144159,9104.533087
125.697656,-459.657299,-592.164754,9252.574275
125.697964,-689.485948,-666.185348,9474.636058
125.698273,-689.485948,-592.164754,9474.636058
125.698581,0.000000,-370.102971,9104.533087
125.698889,-229.828649,-592.164754,8882.471304
125.699197,-383.047749,-444.123565,9104.533087
125.699505,0.000000,-518.144159,9326.594869
125.699813,0.000000,-518.144159,9400.615463
125.700121,0.000000,-592.164754,9400.615463
125.700429,-153.219100,-592.164754,9770.718434
125.700737,76.609550,-222.061783,9770.718434
125.701045,383.047749,-222.061783,9548.656652
125.701353,536.266849,-0.000000,9400.615463
125.701661,919.314598,222.061783,9474.636058
125.701969,919.314598,-0.000000,9474.636058
125.702277,919.314598,222.061783,9696.697840
125.702585,1072.533697,-0.000000,9622.677246
125.702893,995.924147,296.082377,9844.739029
125.703201,1532.190996,518.144159,9622.677246
125.703509,842.705048,962.267725,9252.574275
125.703817,1608.800546,1110.308913,9252.574275
125.704125,1685.410096,1184.329507,9474.636058
125.704433,1838.629195,1184.329507,9548.656652
125.704741,1608.800546,1332.370696,9622.677246
125.705049,1455.581446,1332.370696,10066.800811
125.705358,1685.410096,888.247130,9696.697840
125.705666,1608.800546,1036.288319,10288.862594
125.705974,1532.190996,666.185348,10288.862594
125.706282,1225.752797,666.185348,10140.821405
125.706590,1225.752797,740.205942,10288.862594
125.706898,1302.362347,444.123565,10140.821405
125.707206,1302.362347,666.185348,10140.821405
125.707514,1149.143247,444.123565,9992.780217
125.707822,1378.971896,592.164754,9622.677246
125.708130,1838.629195,518.144159,9696.697840
125.708438,1608.800546,666.185348,9474.636058
125.708746,1762.019645,814.226536,9474.636058
125.709054,1685.410096,888.247130,9474.636058
125.709362,1532.190996,888.247130,9622.677246
125.709670,1455.581446,592.164754,9400.615463
125.709978,1225.752797,444.123565,9474.636058
125.710286,995.924147,518.144159,9844.739029
125.710594,1455.581446,222.061783,9770.718434
125.710902,842.705048,-148.041188,9622.677246
125.711210,536.266849,-0.000000,9918.759623
125.711518,306.438199,-148.041188,9844.739029
125.711826,229.828649,-296.082377,9696.697840
125.712134,0.000000,-222.061783,9622.677246
125.712443,0.000000,-518.144159,9548.656652
125.712751,0.000000,-148.041188,9622.677246
125.713059,-612.876398,-148.041188,9474.636058
125.713367,0.000000,-0.000000,9696.697840
125.713675,-306.438199,296.082377,9548.656652
125.713983,-383.047749,-0.000000,9622.677246
125.714291,-612.876398,-0.000000,9696.697840
125.714599,-306.438199,-296.082377,9696.697840
125.714907,0.000000,-370.102971,9474.636058
125.715215,0.000000,-444.123565,9696.697840
125.715523,-536.266849,-370.102971,9548.656652
125.715831,-612.876398,-444.123565,9474.636058
125.716139,-612.876398,-222.061783,9474.636058
125.716447,-229.828649,-222.061783,9104.533087
125.716755,0.000000,-222.061783,9104.533087
125.717063,0.000000,-74.020594,9030.512492
125.717371,76.609550,-296.082377,9104.533087
125.717679,-153.219100,-518.144159,8808.450710
125.717987,76.609550,-148.041188,9696.697840
125.718295,76.609550,-518.144159,9400.615463
125.718603,0.000000,-148.041188,9548.656652
125.718911,229.828649,-296.082377,9696.697840
125.719219,306.438199,-222.061783,9548.656652
125.719527,459.657299,-148.041188,9770.718434
125.719836,383.047749,-296.082377,9696.697840
125.720144,689.485948,-0.000000,9844.739029
125.720452,612.876398,-148.041188,9696.697840
125.720760,689.485948,-370.102971,9548.656652
125.721068,1225.752797,-0.000000,9622.677246
125.721376,842.705048,222.061783,9474.636058
125.721684,1302.362347,518.144159,9548.656652
125.721992,1302.362347,814.226536,9326.594869
125.722300,1532.190996,740.205942,9252.574275
125.722608,1685.410096,962.267725,9474.636058
125.722916,1608.800546,592.164754,9474.636058
125.723224,1915.238745,888.247130,9400.615463
125.723532,1762.019645,962.267725,9548.656652
125.723840,1455.581446,1184.329507,9548.656652
125.724148,1455.581446,888.247130,9844.739029
125.724456,1302.362347,740.205942,10214.842000
125.724764,1149.143247,444.123565,9918.759623
125.725072,1455.581446,370.102971,9992.780217
125.725380,1378.971896,222.061783,9992.780217
125.725688,1455.581446,740.205942,9844.739029
125.725996,1838.629195,740.205942,9622.677246
125.726304,1838.629195,888.247130,9696.697840
125.726612,2145.067394,814.226536,9400.615463
125.726921,1685.410096,888.247130,9400.615463
125.727229,2145.067394,518.144159,9622.677246
125.727537,1991.848295,888.247130,9548.656652
125.727845,1302.362347,740.205942,9696.697840
125.728153,1685.410096,1110.308913,9844.739029
125.728461,1302.362347,962.267725,9474.636058
125.728769,1225.752797,592.164754,9696.697840
125.729077,689.485948,444.123565,9918.759623
125.729385,536.266849,296.082377,10066.800811
125.729693,689.485948,-0.000000,10140.821405
125.730001,76.609550,-370.102971,9918.759623
125.730309,0.000000,-74.020594,9918.759623
125.730617,-229.828649,-74.020594,9696.697840
125.730925,-229.828649,-74.020594,9548.656652
125.731233,-459.657299,-0.000000,9474.636058
125.731541,-229.828649,-74.020594,9474.636058
125.731849,-229.828649,-148.041188,9696.697840
125.732157,-995.924147,-592.164754,9918.759623
125.732465,-995.924147,-518.144159,9992.780217
125.732773,-842.705048,-592.164754,9918.759623
125.733081,-1072.533697,-370.102971,9696.697840
125.733389,-1072.533697,-592.164754,9622.677246
125.733697,-1072.533697,-666.185348,9474.636058
125.734005,-766.095498,-814.226536,9474.636058
125.734314,-459.657299,-1036.288319,9400.615463
125.734622,-842.705048,-444.123565,9400.615463
125.734930,-229.828649,-296.082377,9326.594869
125.735238,0.000000,-370.102971,8734.430116
125.735546,76.609550,-222.061783,8882.471304
125.735854,0.000000,-148.041188,8956.491898
125.736162,229.828649,-222.061783,9178.553681
125.736470,0.000000,-296.082377,9474.636058
125.736778,153.219100,-592.164754,9548.656652
125.737086,536.266849,-666.185348,9474.636058
125.737394,459.657299,-592.164754,9474.636058
125.737702,536.266849,-370.102971,9696.697840
125.738010,612.876398,-148.041188,9622.677246
125.738318,689.485948,-0.000000,9844.739029
125.738626,842.705048,148.041188,9844.739029
125.738934,1072.533697,148.041188,9770.718434
125.739242,1378.971896,370.102971,9474.636058
125.739550,1302.362347,222.061783,9548.656652
125.739858,1149.143247,666.185348,9474.636058
125.740166,919.314598,1036.288319,9992.780217
125.740474,1455.581446,962.267725,9474.636058
125.740782,1608.800546,1110.308913,9548.656652
125.741090,1685.410096,1184.329507,9844.739029
125.741399,1455.581446,1036.288319,9992.780217
125.741707,1378.971896,1332.370696,10362.883188
125.742015,1455.581446,740.205942,9992.780217
125.742323,1532.190996,666.185348,10288.862594
125.742631,1072.533697,666.185348,9992.780217
125.742939,1225.752797,740.205942,10066.800811
125.743247,1378.971896,962.267725,9844.739029
125.743555,1455.581446,888.247130,9770.718434
125.743863,1685.410096,962.267725,9548.656652
125.744171,1915.238745,888.247130,9770.718434
125.744479,1838.629195,740.205942,9548.656652
125.744787,1838.629195,666.185348,9030.512492
125.745095,1685.410096,666.185348,9400.615463
125.745403,1608.800546,814.226536,9474.636058
125.745711,1608.800546,740.205942,9474.636058
125.746019,1532.190996,740.205942,9696.697840
125.746327,1685.410096,592.164754,9770.718434
125.746635,1225.752797,666.185348,9918.759623
125.746943,1302.362347,-0.000000,9918.759623
125.747251,1072.533697,-0.000000,9918.759623
125.747559,842.705048,-0.000000,9844.739029
125.747867,536.266849,-0.000000,9622.677246
125.748175,459.657299,-0.000000,9622.677246
125.748484,153.219100,-0.000000,9622.677246
125.748792,229.828649,-0.000000,9622.677246
125.749100,383.047749,-0.000000,9918.759623
125.749408,-153.219100,-0.000000,9326.594869
125.749716,-229.828649,-370.102971,9474.636058
125.750024,-306.438199,-74.020594,9696.697840
125.750332,-459.657299,-74.020594,9474.636058
125.750640,-536.266849,-148.041188,9696.697840
125.750948,-459.657299,-74.020594,9400.615463
125.751256,-383.047749,-370.102971,9622.677246
125.751564,-306.438199,-296.082377,9622.677246
125.751872,-1072.533697,-518.144159,9400.615463
125.752180,-459.657299,-740.205942,9548.656652
125.752488,-919.314598,-444.123565,9474.636058
125.752796,-689.485948,-518.144159,9326.594869
125.753104,-766.095498,-592.164754,9326.594869
125.753412,-383.047749,-518.144159,9400.615463
125.753720,0.000000,-740.205942,9104.533087
125.754028,306.438199,-666.185348,9252.574275
125.754336,383.047749,-814.226536,9474.636058
125.754644,153.219100,-296.082377,9400.615463
125.754952,306.438199,-222.061783,9548.656652
125.755260,459.657299,-0.000000,9474.636058
125.755568,689.485948,-148.041188,9178.553681
125.755877,612.876398,-148.041188,9400.615463
125.756185,612.876398,-592.164754,9548.656652
125.756493,1072.533697,-370.102971,9844.739029
125.756801,689.485948,-444.123565,9548.656652
125.757109,1149.143247,-148.041188,9400.615463
125.757417,1302.362347,-0.000000,9622.677246
125.757725,1532.190996,296.082377,9696.697840
125.758033,1378.971896,592.164754,9474.636058
125.758341,1762.019645,888.247130,9326.594869
125.758649,2145.067394,814.226536,9474.636058
125.758957,2068.457845,666.185348,9400.615463
125.759265,1838.629195,444.123565,9622.677246
125.759573,1915.238745,888.247130,9548.656652
125.759881,1302.362347,962.267725,9770.718434
125.760189,1302.362347,1036.288319,9918.759623
125.760497,1378.971896,814.226536,10066.800811
125.760805,1149.143247,740.205942,9992.780217
125.761113,1378.971896,888.247130,9992.780217
125.761421,1608.800546,666.185348,10066.800811
125.761729,1378.971896,1110.308913,9992.780217
125.762037,1455.581446,888.247130,9844.739029
125.762345,1991.848295,814.226536,9548.656652
125.762653,2145.067394,888.247130,9400.615463
125.762962,2068.457845,1184.329507,9326.594869
125.763270,2221.676944,888.247130,9400.615463
125.763578,2221.676944,1110.308913,9474.636058
125.763886,2145.067394,666.185348,9474.636058
125.764194,1685.410096,888.247130,9474.636058
125.764502,1378.971896,592.164754,9548.656652
125.764810,1225.752797,962.267725,9548.656652
125.765118,1225.752797,666.185348,9622.677246
125.765426,995.924147,296.082377,9770.718434
125.765734,536.266849,-0.000000,9770.718434
125.766042,842.705048,-0.000000,10436.903782
125.766350,459.657299,-592.164754,9844.739029
125.766658,-459.657299,-0.000000,9548.656652
125.766966,153.219100,-666.185348,10140.821405
125.767274,-306.438199,-74.020594,9548.656652
125.767582,-459.657299,-0.000000,9622.677246
125.767890,-459.657299,-296.082377,9474.636058
125.768198,-536.266849,-0.000000,9474.636058
125.768506,-842.705048,-444.123565,9844.739029
125.768814,-612.876398,-666.185348,9622.677246
125.769122,-306.438199,-370.102971,9770.718434
125.769430,-689.485948,-370.102971,9992.780217
125.769738,-995.924147,-814.226536,9474.636058
125.770046,-766.095498,-740.205942,9474.636058
125.770355,-995.924147,-666.185348,9696.697840
125.770663,-842.705048,-740.205942,9400.615463
125.770971,76.609550,-592.164754,8956.491898
125.771279,0.000000,-518.144159,9030.512492
125.771587,-153.219100,-148.041188,8512.368333
125.771895,-306.438199,-222.061783,8882.471304
125.772203,0.000000,-222.061783,9252.574275
125.772511,0.000000,-296.082377,9104.533087
125.772819,153.219100,-444.123565,9400.615463
125.773127,76.609550,-222.061783,9474.636058
125.773435,459.657299,-740.205942,9622.677246
125.773743,536.266849,-518.144159,9696.697840
125.774051,689.485948,-148.041188,9844.739029
125.774359,995.924147,-296.082377,9326.594869
125.774667,919.314598,-0.000000,9696.697840
125.774975,1149.143247,148.041188,9622.677246
125.775283,995.924147,222.061783,9770.718434
125.775592,1532.190996,518.144159,9548.656652
125.775900,1608.800546,296.082377,9474.636058
125.776208,1149.143247,518.144159,9696.697840
125.776516,1838.629195,592.164754,9622.677246
125.776824,1378.971896,740.205942,9696.697840
125.777132,1378.971896,814.226536,9696.697840
125.777440,1302.362347,888.247130,9844.739029
125.777748,1532.190996,1036.288319,10214.842000
125.778056,1149.143247,888.247130,9992.780217
125.778364,1378.971896,444.123565,9918.759623
125.778672,1532.190996,518.144159,10214.842000
125.778980,1608.800546,592.164754,10140.821405
125.779289,1302.362347,444.123565,9696.697840
125.779597,1455.581446,888.247130,10066.800811
125.779905,1532.190996,962.267725,9992.780217
125.780213,1762.019645,1036.288319,9622.677246
125.780521,1915.238745,1110.308913,9474.636058
125.780829,2298.286494,1184.329507,9030.512492
125.781137,1991.848295,962.267725,9252.574275
125.781445,2145.067394,888.247130,9474.636058
125.781753,2298.286494,1184.329507,9696.697840
125.782061,1608.800546,296.082377,9326.594869
125.782369,1455.581446,592.164754,9770.718434
125.782677,1225.752797,444.123565,9770.718434
125.782986,1149.143247,518.144159,9918.759623
125.783294,842.705048,-0.000000,9918.759623
125.783602,459.657299,-0.000000,10066.800811
125.783910,689.485948,-0.000000,10140.821405
125.784218,919.314598,-370.102971,9918.759623
125.784526,306.438199,-74.020594,9696.697840
125.784834,0.000000,-148.041188,9474.636058
125.785142,76.609550,-0.000000,9474.636058
125.785450,0.000000,148.041188,9474.636058
125.785758,0.000000,-444.123565,9474.636058
125.786066,-459.657299,-222.061783,9400.615463
125.786374,-229.828649,-222.061783,9548.656652
125.786683,-919.314598,-0.000000,9696.697840
125.786991,-689.485948,-370.102971,9844.739029
125.787299,-919.314598,-444.123565,9696.697840
125.787607,-995.924147,-518.144159,9474.636058
125.787915,-842.705048,-518.144159,9474.636058
125.788223,-919.314598,-518.144159,9770.718434
125.788531,-1532.190996,-666.185348,9474.636058
125.788839,-766.095498,-296.082377,9622.677246
125.789147,-153.219100,-444.123565,9400.615463
125.789455,-536.266849,-518.144159,9400.615463
125.789763,-612.876398,-370.102971,9252.574275
125.790072,-306.438199,-222.061783,9400.615463
125.790380,0.000000,-0.000000,9104.533087
125.790688,0.000000,-222.061783,9326.594869
125.790996,-153.219100,-370.102971,9326.594869
125.791304,0.000000,-222.061783,9622.677246
125.791612,-229.828649,-148.041188,9474.636058
125.791920,383.047749,-0.000000,9548.656652
125.792228,229.828649,-0.000000,9622.677246
125.792536,612.876398,-148.041188,9696.697840
125.792844,536.266849,-0.000000,9770.718434
125.793152,1072.533697,-74.020594,9992.780217
125.793460,76.609550,-222.061783,9770.718434
125.793769,459.657299,148.041188,9992.780217
125.794077,1149.143247,296.082377,9696.697840
125.794385,1378.971896,444.123565,9474.636058
125.794693,1532.190996,444.123565,9400.615463
125.795001,1762.019645,592.164754,9326.594869
125.795309,1608.800546,888.247130,9474.636058
125.795617,1302.362347,666.185348,9696.697840
125.795925,2145.067394,666.185348,9770.718434
125.796233,1915.238745,666.185348,9622.677246
125.796541,1302.362347,1036.288319,10066.800811
125.796849,1838.629195,740.205942,9918.759623
125.797157,1608.800546,814.226536,10140.821405
125.797466,1532.190996,740.205942,9918.759623
125.797774,1455.581446,592.164754,9696.697840
125.798082,1685.410096,666.185348,9844.739029
125.798390,1915.238745,592.164754,9548.656652
125.798698,2145.067394,888.247130,9326.594869
125.799006,2221.676944,962.267725,9104.533087
125.799314,2221.676944,1258.350101,9326.594869
125.799622,2298.286494,1110.308913,9326.594869
125.799930,1991.848295,1036.288319,9104.533087
125.800238,2221.676944,888.247130,9474.636058
125.800546,2145.067394,592.164754,9474.636058
125.800854,1762.019645,888.247130,9622.677246
125.801163,1762.019645,518.144159,9400.615463
125.801471,1302.362347,666.185348,9844.739029
125.801779,919.314598,296.082377,9918.759623
125.802087,536.266849,148.041188,9992.780217
125.802395,229.828649,-222.061783,9918.759623
125.802703,0.000000,-592.164754,9548.656652
125.803011,-383.047749,-370.102971,9918.759623
125.803319,-229.828649,-444.123565,9844.739029
125.803627,-306.438199,-222.061783,9844.739029
125.803935,-383.047749,-370.102971,9844.739029
125.804243,-536.266849,-0.000000,9622.677246
125.804551,-536.266849,-370.102971,9474.636058
125.804860,-842.705048,-148.041188,9474.636058
125.805168,-995.924147,-222.061783,9548.656652
125.805476,-383.047749,-592.164754,9548.656652
125.805784,-842.705048,-518.144159,9770.718434
125.806092,-536.266849,-518.144159,9474.636058
125.806400,-1072.533697,-592.164754,9400.615463
125.806708,-995.924147,-370.102971,9326.594869
125.807016,-919.314598,-666.185348,9326.594869
125.807324,-536.266849,-518.144159,9252.574275
125.807632,-153.219100,-296.082377,9400.615463
125.807940,-383.047749,-370.102971,9252.574275
125.808248,0.000000,-740.205942,8956.491898
125.808557,-306.438199,-666.185348,9474.636058
125.808865,0.000000,-222.061783,9474.636058
125.809173,-306.438199,-148.041188,9474.636058
125.809481,76.609550,-148.041188,9622.677246
125.809789,153.219100,-148.041188,9622.677246
125.810097,459.657299,-0.000000,9400.615463
125.810405,612.876398,-222.061783,9918.759623
125.810713,536.266849,-0.000000,9918.759623
125.811021,229.828649,-74.020594,9918.759623
125.811329,919.314598,-0.000000,9918.759623
125.811637,1072.533697,222.061783,9918.759623
125.811945,1149.143247,592.164754,9622.677246
125.812254,1302.362347,814.226536,9622.677246
125.812562,1378.971896,1258.350101,9844.739029
125.812870,1455.581446,962.267725,9696.697840
125.813178,1378.971896,592.164754,9548.656652
125.813486,1532.190996,740.205942,9844.739029
125.813794,1455.581446,962.267725,9918.759623
125.814102,1072.533697,962.267725,9918.759623
125.814410,1149.143247,1036.288319,10214.842000
125.814718,1149.143247,1110.308913,10288.862594
125.815026,1915.238745,888.247130,10066.800811
125.815334,1608.800546,888.247130,9992.780217
125.815642,1072.533697,518.144159,10362.883188
125.815951,1532.190996,518.144159,9770.718434
125.816259,1532.190996,814.226536,9696.697840
125.816567,1608.800546,740.205942,9770.718434
125.816875,1991.848295,814.226536,9474.636058
125.817183,1532.190996,1036.288319,9400.615463
125.817491,2068.457845,370.102971,9770.718434
125.817799,1838.629195,888.247130,9474.636058
125.818107,1378.971896,814.226536,9548.656652
125.818415,1838.629195,444.123565,9400.615463
125.818723,1532.190996,518.144159,9622.677246
125.819031,1455.581446,518.144159,9622.677246
125.819339,1302.362347,444.123565,9622.677246
125.819648,1225.752797,370.102971,9770.718434
125.819956,766.095498,-0.000000,9770.718434
125.820264,612.876398,-444.123565,9474.636058
125.820572,766.095498,-222.061783,9622.677246
125.820880,76.609550,-0.000000,9918.759623
125.821188,0.000000,-0.000000,9696.697840
125.821496,0.000000,-74.020594,9622.677246
125.821804,-153.219100,-148.041188,9548.656652
125.822112,-306.438199,222.061783,9696.697840
125.822420,-459.657299,-0.000000,9622.677246
125.822728,-153.219100,-296.082377,9696.697840
125.823036,0.000000,-370.102971,9622.677246
125.823345,-536.266849,-666.185348,9252.574275
125.823653,-689.485948,-222.061783,9548.656652
125.823961,-459.657299,-518.144159,9474.636058
125.824269,-536.266849,-148.041188,9474.636058
125.824577,-612.876398,-444.123565,9548.656652
125.824885,-536.266849,-296.082377,9104.533087
125.825193,-612.876398,-592.164754,9030.512492
125.825501,-383.047749,-444.123565,9178.553681
125.825809,-306.438199,-296.082377,9178.553681
125.826117,-153.219100,-148.041188,8956.491898
125.826425,0.000000,-222.061783,9326.594869
125.826733,0.000000,-296.082377,9178.553681
125.827042,0.000000,-518.144159,9400.615463
125.827350,-153.219100,-666.185348,9474.636058
125.827658,459.657299,-592.164754,9696.697840
125.827966,229.828649,-222.061783,9918.759623
125.828274,689.485948,-444.123565,9474.636058
125.828582,766.095498,222.061783,9622.677246
125.828890,842.705048,-0.000000,9474.636058
125.829198,919.314598,-0.000000,9622.677246
125.829506,919.314598,-0.000000,9770.718434
125.829814,842.705048,-74.020594,9622.677246
125.830122,766.095498,222.061783,9844.739029
125.830430,459.657299,148.041188,9770.718434
125.830739,1072.533697,370.102971,9992.780217
125.831047,1302.362347,592.164754,9548.656652
125.831355,1302.362347,666.185348,9548.656652
125.831663,1302.362347,962.267725,9696.697840
125.831971,1149.143247,740.205942,9770.718434
125.832279,1762.019645,1036.288319,9696.697840
125.832587,1685.410096,814.226536,9844.739029
125.832895,1762.019645,1406.391290,9474.636058
125.833203,1685.410096,962.267725,9696.697840
125.833511,1608.800546,1110.308913,9918.759623
125.833819,1608.800546,814.226536,10066.800811
125.834128,1608.800546,740.205942,9918.759623
125.834436,1685.410096,814.226536,9770.718434
125.834744,2221.676944,666.185348,9548.656652
125.835052,1915.238745,518.144159,9104.533087
125.835360,2374.896044,1110.308913,9474.636058
125.835668,2221.676944,1110.308913,9474.636058
125.835976,2221.676944,1184.329507,9326.594869
125.836284,1838.629195,1184.329507,9252.574275
125.836592,1991.848295,1184.329507,9474.636058
125.836900,1532.190996,962.267725,9548.656652
125.837208,1608.800546,1036.288319,9622.677246
125.837516,1532.190996,370.102971,9770.718434
125.837825,995.924147,-0.000000,10214.842000
125.838133,459.657299,370.102971,9918.759623
125.838441,229.828649,-0.000000,10066.800811
125.838749,76.609550,-0.000000,9992.780217
125.839057,0.000000,-444.123565,9918.759623
125.839365,0.000000,-148.041188,10288.862594
125.839673,0.000000,-444.123565,9844.739029
125.839981,-306.438199,-222.061783,9548.656652
125.840289,-306.438199,-444.123565,9474.636058
125.840597,-459.657299,-148.041188,9548.656652
125.840905,-383.047749,-296.082377,9474.636058
125.841213,-842.705048,-148.041188,9474.636058
125.841522,-612.876398,-74.020594,9474.636058
