#time,accel_x,accel_y,accel_z
153.473144,2451.505594,-222.061783,9474.636058
153.473452,2451.505594,-148.041188,9696.697840
153.473760,2528.115143,-222.061783,9696.697840
153.474068,3064.381992,-444.123565,9474.636058
153.474376,3140.991542,-296.082377,9178.553681
153.474684,3753.867940,-0.000000,9474.636058
153.474992,3907.087040,-0.000000,9178.553681
153.475300,3677.258390,222.061783,9178.553681
153.475608,3524.039291,296.082377,8956.491898
153.475916,3524.039291,666.185348,8734.430116
153.476224,3370.820191,740.205942,9252.574275
153.476532,3294.210641,740.205942,9474.636058
153.476840,2911.162892,666.185348,9474.636058
153.477148,3064.381992,740.205942,9548.656652
153.477456,2451.505594,518.144159,9696.697840
153.477763,2451.505594,-0.000000,10140.821405
153.478071,2221.676944,-74.020594,10510.924376
153.478379,1685.410096,-444.123565,10807.006753
153.478687,1455.581446,-518.144159,10881.027347
153.478995,1762.019645,-962.267725,10955.047942
153.479303,2068.457845,-296.082377,10584.944971
153.479611,2451.505594,-518.144159,10066.800811
153.479919,2681.334243,-148.041188,9548.656652
153.480227,2757.943793,-0.000000,9400.615463
153.480535,3064.381992,444.123565,9400.615463
153.480843,3140.991542,148.041188,9178.553681
153.481151,3294.210641,740.205942,8660.409521
153.481459,3064.381992,444.123565,8586.388927
153.481767,3677.258390,370.102971,8734.430116
153.482075,3370.820191,296.082377,9104.533087
153.482383,2834.553343,-74.020594,9252.574275
153.482691,3217.601092,-0.000000,9326.594869
153.482999,2834.553343,-222.061783,9326.594869
153.483307,2911.162892,-148.041188,9252.574275
153.483615,3140.991542,222.061783,9326.594869
153.483923,3600.648841,296.082377,9178.553681
153.484231,4060.306139,518.144159,8882.471304
153.484539,4290.134789,444.123565,9178.553681
153.484847,3677.258390,296.082377,9104.533087
153.485155,3447.429741,518.144159,9326.594869
153.485463,3217.601092,-0.000000,9474.636058
153.485771,2681.334243,-148.041188,9770.718434
153.486079,2604.724693,-222.061783,9918.759623
153.486387,2298.286494,-444.123565,10214.842000
153.486695,2681.334243,296.082377,10362.883188
153.487003,2451.505594,666.185348,10362.883188
153.487311,2911.162892,-0.000000,10214.842000
153.487619,2834.553343,1036.288319,9844.739029
153.487927,3064.381992,1184.329507,9474.636058
153.488235,2911.162892,1332.370696,9474.636058
153.488543,2834.553343,1258.350101,9326.594869
153.488851,2604.724693,1110.308913,9400.615463
153.489159,2374.896044,1110.308913,9844.739029
153.489467,1915.238745,1036.288319,10066.800811
153.489775,1225.752797,740.205942,10066.800811
153.490083,689.485948,666.185348,9844.739029
153.490390,766.095498,296.082377,10214.842000
153.490698,306.438199,-0.000000,10066.800811
153.491006,76.609550,-0.000000,10510.924376
153.491314,0.000000,-222.061783,10510.924376
153.491622,536.266849,-74.020594,10066.800811
153.491930,76.609550,-222.061783,10066.800811
153.492238,459.657299,-740.205942,10066.800811
153.492546,306.438199,-444.123565,10066.800811
153.492854,0.000000,-444.123565,9918.759623
153.493162,-229.828649,-518.144159,9918.759623
153.493470,-229.828649,-814.226536,9918.759623
153.493778,459.657299,-1110.308913,9844.739029
153.494086,229.828649,-814.226536,9548.656652
153.494394,612.876398,-814.226536,9474.636058
153.494702,1149.143247,-814.226536,9400.615463
153.495010,1225.752797,-740.205942,9326.594869
153.495318,1302.362347,-444.123565,9030.512492
153.495626,1685.410096,-518.144159,8882.471304
153.495934,1915.238745,-74.020594,8660.409521
153.496242,1915.238745,-222.061783,8734.430116
153.496550,2145.067394,148.041188,9104.533087
153.496858,2145.067394,-74.020594,8882.471304
153.497166,1225.752797,-0.000000,9326.594869
153.497474,1378.971896,-0.000000,9252.574275
153.497782,995.924147,-0.000000,9474.636058
153.498090,919.314598,-0.000000,9474.636058
153.498398,919.314598,592.164754,9474.636058
153.498706,1532.190996,592.164754,9326.594869
153.499014,1072.533697,888.247130,9104.533087
153.499322,1915.238745,888.247130,9104.533087
153.499630,1838.629195,1554.432478,8586.388927
153.499938,1915.238745,1998.556043,8734.430116
153.500246,1762.019645,1998.556043,9030.512492
153.500554,1149.143247,1924.535449,9104.533087
153.500862,995.924147,1628.453072,9548.656652
153.501170,1072.533697,1184.329507,9622.677246
153.501478,-229.828649,888.247130,10066.800811
153.501786,0.000000,-0.000000,10362.883188
153.502094,-766.095498,-222.061783,10732.986159
153.502402,-1225.752797,-666.185348,11029.068536
153.502710,-1685.410096,-1036.288319,11251.130318
153.503018,-1685.410096,-1406.391290,11399.171507
153.503325,-1762.019645,-1406.391290,11251.130318
153.503633,-1225.752797,-1258.350101,10732.986159
153.503941,-842.705048,-740.205942,10881.027347
153.504249,-153.219100,-888.247130,9992.780217
153.504557,76.609550,-444.123565,9918.759623
153.504865,153.219100,-0.000000,9178.553681
153.505173,536.266849,-0.000000,8956.491898
153.505481,919.314598,-0.000000,8586.388927
153.505789,1378.971896,-0.000000,8512.368333
153.506097,1762.019645,370.102971,8142.265362
153.506405,1915.238745,444.123565,7994.224174
153.506713,1762.019645,444.123565,7994.224174
153.507021,2221.676944,518.144159,7994.224174
153.507329,1838.629195,592.164754,8068.244768
153.507637,1685.410096,370.102971,8364.327145
153.507945,1532.190996,296.082377,8660.409521
153.508253,1149.143247,370.102971,9474.636058
153.508560,536.266849,-0.000000,9770.718434
153.508868,536.266849,148.041188,10288.862594
153.509176,153.219100,-222.061783,10510.924376
153.509484,-459.657299,-74.020594,10955.047942
153.509792,-536.266849,-0.000000,11103.089130
153.510100,-536.266849,370.102971,11103.089130
153.510408,-536.266849,518.144159,10658.965565
153.510716,306.438199,1110.308913,10510.924376
153.511024,229.828649,962.267725,10584.944971
153.511332,229.828649,962.267725,9918.759623
153.511639,0.000000,1258.350101,9548.656652
153.511947,229.828649,1332.370696,9844.739029
153.512255,0.000000,1110.308913,9548.656652
153.512563,-229.828649,1110.308913,9918.759623
153.512871,-306.438199,888.247130,9844.739029
153.513179,-229.828649,814.226536,9696.697840
153.513487,-383.047749,888.247130,9548.656652
153.513795,-766.095498,148.041188,9548.656652
153.514103,-459.657299,-0.000000,10140.821405
153.514411,-612.876398,-148.041188,9918.759623
153.514718,-842.705048,-222.061783,9918.759623
153.515026,-766.095498,-740.205942,9844.739029
153.515334,-459.657299,-1110.308913,9622.677246
153.515642,-153.219100,-1406.391290,9696.697840
153.515950,689.485948,-1258.350101,9696.697840
153.516258,383.047749,-1110.308913,9918.759623
153.516566,536.266849,-1258.350101,9400.615463
153.516874,842.705048,-1036.288319,9474.636058
153.517182,1302.362347,-888.247130,8956.491898
153.517490,1608.800546,-814.226536,9104.533087
153.517797,2221.676944,-740.205942,9252.574275
153.518105,2221.676944,-666.185348,8956.491898
153.518413,2834.553343,-0.000000,8882.471304
153.518721,2681.334243,-0.000000,8216.285956
153.519029,2451.505594,-0.000000,8956.491898
153.519337,2757.943793,370.102971,8512.368333
153.519645,2451.505594,518.144159,8586.388927
153.519953,2145.067394,814.226536,9400.615463
153.520261,1685.410096,518.144159,9548.656652
153.520569,1762.019645,666.185348,9622.677246
153.520876,1378.971896,1184.329507,9918.759623
153.521184,1915.238745,1406.391290,10140.821405
153.521492,1455.581446,1702.473667,9844.739029
153.521800,1838.629195,2072.576638,9622.677246
153.522108,1915.238745,2368.659014,9474.636058
153.522416,2145.067394,2368.659014,9400.615463
153.522724,2068.457845,2442.679609,9474.636058
153.523032,1762.019645,1850.514855,9326.594869
153.523340,1608.800546,1776.494261,9696.697840
153.523648,1225.752797,1480.411884,10362.883188
153.523955,766.095498,740.205942,10066.800811
153.524263,-153.219100,666.185348,10436.903782
153.524571,-612.876398,-0.000000,10584.944971
153.524879,-842.705048,-148.041188,10658.965565
153.525187,-919.314598,-740.205942,10807.006753
153.525495,-919.314598,-814.226536,11325.150913
153.525803,-995.924147,-1036.288319,10807.006753
153.526111,76.609550,-814.226536,10436.903782
153.526419,153.219100,-1184.329507,9696.697840
153.526727,459.657299,-296.082377,9400.615463
153.527034,919.314598,-740.205942,9104.533087
153.527342,995.924147,-814.226536,8956.491898
153.527650,1302.362347,-888.247130,8956.491898
153.527958,1378.971896,-1480.411884,8290.306550
153.528266,1072.533697,-666.185348,7920.203579
153.528574,1532.190996,-666.185348,7994.224174
153.528882,2068.457845,-666.185348,7994.224174
153.529190,1915.238745,-74.020594,7994.224174
153.529498,1991.848295,-0.000000,8216.285956
153.529806,1838.629195,-74.020594,8216.285956
153.530113,1762.019645,-0.000000,8660.409521
153.530421,1762.019645,-0.000000,9326.594869
153.530729,1378.971896,-0.000000,9844.739029
153.531037,306.438199,-0.000000,9992.780217
153.531345,229.828649,296.082377,10584.944971
153.531653,-229.828649,222.061783,10807.006753
153.531961,-689.485948,518.144159,10807.006753
153.532269,-536.266849,592.164754,10732.986159
153.532577,-536.266849,962.267725,10584.944971
153.532885,-919.314598,1110.308913,10584.944971
153.533192,306.438199,1332.370696,10436.903782
153.533500,153.219100,1332.370696,9918.759623
153.533808,612.876398,2072.576638,9474.636058
153.534116,153.219100,2072.576638,9400.615463
153.534424,0.000000,1850.514855,9622.677246
153.534732,-229.828649,1776.494261,9696.697840
153.535040,-459.657299,1628.453072,9622.677246
153.535348,-766.095498,888.247130,10214.842000
153.535656,-2068.457845,370.102971,10362.883188
153.535963,-1149.143247,-0.000000,10732.986159
153.536271,-1838.629195,-296.082377,10436.903782
153.536579,-1762.019645,-592.164754,10658.965565
153.536887,-1685.410096,-888.247130,10288.862594
153.537195,-1302.362347,-1036.288319,10510.924376
153.537503,-1225.752797,-1184.329507,9918.759623
153.537811,-766.095498,-1332.370696,9696.697840
153.538119,153.219100,-1258.350101,10288.862594
153.538427,0.000000,-1480.411884,9474.636058
153.538735,383.047749,-1924.535449,9252.574275
153.539042,919.314598,-1258.350101,9030.512492
153.539350,1072.533697,-666.185348,8734.430116
153.539658,1838.629195,-592.164754,8734.430116
153.539966,1915.238745,-370.102971,8808.450710
153.540274,2221.676944,-518.144159,8734.430116
153.540582,2145.067394,-222.061783,8438.347739
153.540890,2221.676944,-296.082377,8512.368333
153.541198,1915.238745,-74.020594,8882.471304
153.541506,2221.676944,-0.000000,9030.512492
153.541814,2298.286494,296.082377,9326.594869
153.542121,1685.410096,296.082377,9326.594869
153.542429,1608.800546,592.164754,9400.615463
153.542737,1685.410096,592.164754,9770.718434
153.543045,1149.143247,740.205942,9844.739029
153.543353,1149.143247,1406.391290,9770.718434
153.543661,1149.143247,1924.535449,9918.759623
153.543969,1455.581446,1924.535449,9696.697840
153.544277,1685.410096,2146.597232,9696.697840
153.544585,1608.800546,2220.617826,9696.697840
153.544893,2451.505594,2072.576638,9474.636058
153.545200,1302.362347,2220.617826,9548.656652
153.545508,995.924147,2368.659014,9844.739029
153.545816,919.314598,1554.432478,9844.739029
153.546124,459.657299,1258.350101,10140.821405
153.546432,306.438199,888.247130,10288.862594
153.546740,0.000000,370.102971,10288.862594
153.547048,-689.485948,-0.000000,10510.924376
153.547356,-612.876398,-0.000000,10658.965565
153.547664,-1225.752797,-740.205942,10732.986159
153.547972,-459.657299,-814.226536,10881.027347
153.548279,0.000000,-1258.350101,10140.821405
153.548587,76.609550,-740.205942,10140.821405
153.548895,459.657299,-814.226536,9622.677246
153.549203,766.095498,-888.247130,9400.615463
153.549511,1149.143247,-1184.329507,9104.533087
153.549819,1762.019645,-962.267725,8956.491898
153.550127,1762.019645,-1332.370696,8438.347739
153.550435,2068.457845,-888.247130,8290.306550
153.550743,2145.067394,-740.205942,8216.285956
153.551051,2221.676944,-666.185348,7994.224174
153.551358,2221.676944,-740.205942,8290.306550
153.551666,2068.457845,-518.144159,8364.327145
153.551974,2145.067394,-148.041188,8364.327145
153.552282,1991.848295,-148.041188,8660.409521
153.552590,1838.629195,-0.000000,9178.553681
153.552898,1685.410096,-0.000000,9326.594869
153.553206,1225.752797,370.102971,9548.656652
153.553514,919.314598,296.082377,9844.739029
153.553822,306.438199,666.185348,10140.821405
153.554130,76.609550,518.144159,10584.944971
153.554437,0.000000,888.247130,10584.944971
153.554745,0.000000,888.247130,10214.842000
153.555053,0.000000,962.267725,10362.883188
153.555361,383.047749,1036.288319,10584.944971
153.555669,459.657299,1332.370696,9992.780217
153.555977,306.438199,1702.473667,10066.800811
153.556285,459.657299,2072.576638,9844.739029
153.556593,383.047749,1998.556043,9992.780217
153.556901,229.828649,1924.535449,9844.739029
153.557209,76.609550,1702.473667,10066.800811
153.557516,-153.219100,1036.288319,10362.883188
153.557824,-1149.143247,592.164754,10436.903782
153.558132,-1685.410096,-0.000000,10436.903782
153.558440,-1378.971896,-148.041188,10584.944971
153.558748,-1762.019645,-296.082377,10584.944971
153.559056,-1455.581446,-592.164754,10436.903782
153.559364,-1455.581446,-814.226536,10436.903782
153.559672,-1072.533697,-962.267725,9992.780217
153.559980,-153.219100,-1110.308913,9918.759623
153.560288,-306.438199,-1036.288319,9548.656652
153.560595,0.000000,-1036.288319,9474.636058
153.560903,842.705048,-1184.329507,8956.491898
153.561211,919.314598,-1110.308913,8734.430116
153.561519,1149.143247,-1184.329507,8734.430116
153.561827,1455.581446,-1036.288319,8660.409521
153.562135,1225.752797,-1184.329507,8734.430116
153.562443,2068.457845,-1110.308913,8882.471304
153.562751,1915.238745,-740.205942,8512.368333
153.563059,1532.190996,-592.164754,8660.409521
153.563367,1532.190996,-370.102971,8808.450710
153.563674,1991.848295,-148.041188,9104.533087
153.563982,1608.800546,-0.000000,9104.533087
153.564290,1608.800546,-0.000000,9252.574275
153.564598,1838.629195,296.082377,9474.636058
153.564906,1149.143247,666.185348,9622.677246
153.565214,1762.019645,962.267725,9992.780217
153.565522,1455.581446,1184.329507,9844.739029
153.565830,1302.362347,1776.494261,9696.697840
153.566138,1302.362347,1998.556043,9844.739029
153.566446,1225.752797,1998.556043,9696.697840
153.566753,1302.362347,1924.535449,9696.697840
153.567061,1455.581446,1702.473667,9918.759623
153.567369,1455.581446,1332.370696,9696.697840
153.567677,766.095498,1702.473667,9770.718434
153.567985,383.047749,1554.432478,10140.821405
153.568293,229.828649,1406.391290,10140.821405
153.568601,-153.219100,1036.288319,10510.924376
153.568909,-536.266849,666.185348,10362.883188
153.569217,-612.876398,-0.000000,10436.903782
153.569525,-1302.362347,-74.020594,11103.089130
153.569832,-1149.143247,-222.061783,11103.089130
153.570140,-995.924147,-814.226536,10807.006753
153.570448,0.000000,-1258.350101,10214.842000
153.570756,0.000000,-814.226536,9918.759623
153.571064,383.047749,-814.226536,9474.636058
153.571372,612.876398,-888.247130,9178.553681
153.571680,1378.971896,-888.247130,8660.409521
153.571988,1532.190996,-1258.350101,8512.368333
153.572296,1685.410096,-1258.350101,7920.203579
153.572604,1762.019645,-1036.288319,8734.430116
153.572911,2221.676944,-740.205942,7994.224174
153.573219,1915.238745,-888.247130,7994.224174
153.573527,2145.067394,-518.144159,8438.347739
153.573835,2145.067394,-592.164754,8364.327145
153.574143,1915.238745,-370.102971,8512.368333
153.574451,2298.286494,-370.102971,8586.388927
153.574759,2068.457845,-74.020594,9178.553681
153.575067,1838.629195,-0.000000,9326.594869
153.575375,1685.410096,444.123565,9844.739029
153.575682,1072.533697,444.123565,9622.677246
153.575990,459.657299,740.205942,10362.883188
153.576298,536.266849,888.247130,10510.924376
153.576606,689.485948,1036.288319,10436.903782
153.576914,0.000000,888.247130,10510.924376
153.577222,459.657299,1332.370696,10955.047942
153.577530,229.828649,1480.411884,10732.986159
153.577838,229.828649,1628.453072,10436.903782
153.578146,536.266849,1850.514855,10214.842000
153.578454,306.438199,1776.494261,10140.821405
153.578761,306.438199,1924.535449,10066.800811
153.579069,536.266849,1702.473667,10288.862594
153.579377,0.000000,1702.473667,9992.780217
153.579685,0.000000,1480.411884,10288.862594
153.579993,-153.219100,1110.308913,9918.759623
153.580301,-306.438199,1110.308913,9918.759623
153.580609,-766.095498,518.144159,10066.800811
153.580917,-612.876398,444.123565,9770.718434
153.581225,-612.876398,222.061783,9992.780217
153.581533,-766.095498,-666.185348,9696.697840
153.581840,0.000000,-666.185348,10140.821405
153.582148,-536.266849,-962.267725,10214.842000
153.582456,0.000000,-1480.411884,9622.677246
153.582764,76.609550,-1406.391290,9918.759623
153.583072,76.609550,-1924.535449,9622.677246
153.583380,383.047749,-1702.473667,9622.677246
153.583688,689.485948,-1480.411884,9252.574275
153.583996,1225.752797,-2072.576638,9030.512492
153.584304,1915.238745,-1258.350101,9030.512492
153.584612,2298.286494,-1110.308913,8808.450710
153.584919,1838.629195,-1110.308913,8290.306550
153.585227,1991.848295,-740.205942,8290.306550
153.585535,2068.457845,-222.061783,8364.327145
153.585843,2221.676944,-0.000000,8586.388927
153.586151,2221.676944,370.102971,8882.471304
153.586459,2145.067394,666.185348,8586.388927
153.586767,1685.410096,666.185348,8956.491898
153.587075,1608.800546,962.267725,9474.636058
153.587383,1532.190996,1258.350101,9622.677246
153.587691,842.705048,1258.350101,9474.636058
153.587998,1302.362347,1480.411884,9918.759623
153.588306,842.705048,1554.432478,9696.697840
153.588614,842.705048,1850.514855,9622.677246
153.588922,1532.190996,1998.556043,9548.656652
153.589230,1225.752797,2368.659014,9696.697840
153.589538,689.485948,1998.556043,10214.842000
153.589846,766.095498,1554.432478,9844.739029
153.590154,383.047749,1776.494261,10288.862594
153.590462,0.000000,1480.411884,10066.800811
153.590770,-383.047749,1036.288319,10288.862594
153.591077,-766.095498,592.164754,10584.944971
153.591385,-842.705048,444.123565,10732.986159
153.591693,-1225.752797,-444.123565,11029.068536
153.592001,-1072.533697,-814.226536,11029.068536
153.592309,-842.705048,-962.267725,10658.965565
153.592617,-919.314598,-888.247130,10362.883188
153.592925,-383.047749,-962.267725,9992.780217
153.593233,0.000000,-1110.308913,9474.636058
153.593541,612.876398,-814.226536,8956.491898
153.593849,1378.971896,-888.247130,9178.553681
153.594156,1455.581446,-1332.370696,8290.306550
153.594464,1838.629195,-1258.350101,8290.306550
153.594772,1838.629195,-1036.288319,8512.368333
153.595080,1455.581446,-1184.329507,8142.265362
153.595388,1762.019645,-1036.288319,8290.306550
153.595696,1608.800546,-1036.288319,8142.265362
153.596004,1685.410096,-666.185348,8364.327145
153.596312,1685.410096,-518.144159,8734.430116
153.596620,1915.238745,-74.020594,8882.471304
153.596928,1455.581446,-296.082377,9030.512492
153.597235,1762.019645,-148.041188,9474.636058
153.597543,1072.533697,148.041188,9474.636058
153.597851,919.314598,666.185348,9474.636058
153.598159,612.876398,888.247130,9992.780217
153.598467,459.657299,962.267725,10362.883188
153.598775,306.438199,1332.370696,10732.986159
153.599083,153.219100,1332.370696,10584.944971
153.599391,0.000000,1184.329507,10881.027347
153.599699,306.438199,1776.494261,10881.027347
153.600007,383.047749,1406.391290,10288.862594
153.600314,153.219100,1776.494261,10510.924376
153.600622,306.438199,1702.473667,10288.862594
153.600930,459.657299,1850.514855,10362.883188
153.601238,612.876398,1776.494261,9992.780217
153.601546,76.609550,1850.514855,9992.780217
153.601854,153.219100,1554.432478,9918.759623
153.602162,-229.828649,1628.453072,10066.800811
153.602470,-383.047749,1184.329507,9918.759623
153.602778,-612.876398,666.185348,9992.780217
153.603086,-919.314598,444.123565,10288.862594
153.603393,-995.924147,-148.041188,10362.883188
153.603701,-1532.190996,-888.247130,10584.944971
153.604009,-842.705048,-1406.391290,10807.006753
153.604317,-995.924147,-1776.494261,10510.924376
153.604625,-842.705048,-1998.556043,10140.821405
153.604933,0.000000,-1628.453072,9918.759623
153.605241,459.657299,-1850.514855,9844.739029
153.605550,766.095498,-1850.514855,9622.677246
153.605858,766.095498,-1628.453072,9178.553681
153.606166,1532.190996,-1480.411884,9104.533087
153.606474,2068.457845,-1110.308913,8512.368333
153.606782,1532.190996,-1258.350101,8290.306550
153.607091,1838.629195,-370.102971,8808.450710
153.607399,2451.505594,-148.041188,7772.162391
153.607707,2528.115143,-0.000000,8142.265362
153.608015,2604.724693,296.082377,8216.285956
153.608323,2604.724693,592.164754,8290.306550
153.608631,2374.896044,740.205942,8290.306550
153.608940,2374.896044,740.205942,9030.512492
153.609248,1915.238745,1184.329507,9326.594869
153.609556,1378.971896,962.267725,9474.636058
153.609864,1072.533697,1184.329507,9548.656652
153.610172,1072.533697,1628.453072,9918.759623
153.610481,1072.533697,1998.556043,9992.780217
153.610789,842.705048,1998.556043,9844.739029
153.611097,689.485948,1924.535449,9770.718434
153.611405,842.705048,1480.411884,10362.883188
153.611713,536.266849,1332.370696,10510.924376
153.612022,919.314598,1628.453072,10436.903782
153.612330,229.828649,1480.411884,10436.903782
153.612638,0.000000,1332.370696,10584.944971
153.612946,0.000000,1036.288319,10658.965565
153.613254,-612.876398,518.144159,10436.903782
153.613562,-612.876398,-0.000000,10732.986159
153.613871,-612.876398,-148.041188,10510.924376
153.614179,-842.705048,-74.020594,10436.903782
153.614487,-612.876398,-518.144159,9918.759623
153.614795,-383.047749,-370.102971,9844.739029
153.615103,76.609550,-370.102971,9622.677246
153.615412,306.438199,-666.185348,9326.594869
153.615720,612.876398,-888.247130,8808.450710
153.616028,689.485948,-1184.329507,9104.533087
153.616336,842.705048,-1554.432478,9178.553681
153.616644,995.924147,-1406.391290,8882.471304
153.616952,1455.581446,-1110.308913,8512.368333
153.617261,1455.581446,-1184.329507,8438.347739
153.617569,1455.581446,-888.247130,8438.347739
153.617877,1455.581446,-666.185348,8216.285956
153.618185,1455.581446,-740.205942,8290.306550
153.618493,2068.457845,-518.144159,8586.388927
153.618802,1455.581446,-222.061783,8956.491898
153.619110,1225.752797,-592.164754,9252.574275
153.619418,1302.362347,-370.102971,9326.594869
153.619726,1149.143247,-0.000000,9548.656652
153.620034,842.705048,444.123565,9696.697840
153.620343,459.657299,592.164754,9992.780217
153.620651,229.828649,666.185348,10510.924376
153.620959,76.609550,814.226536,10436.903782
153.621267,0.000000,740.205942,10362.883188
153.621575,536.266849,1332.370696,10362.883188
153.621883,842.705048,1480.411884,10140.821405
153.622192,383.047749,1776.494261,10140.821405
153.622500,919.314598,2368.659014,10066.800811
153.622808,919.314598,2368.659014,9622.677246
153.623116,536.266849,2220.617826,9548.656652
153.623424,1149.143247,2368.659014,9918.759623
153.623733,306.438199,1998.556043,9770.718434
153.624041,0.000000,1406.391290,10214.842000
153.624349,-383.047749,962.267725,10140.821405
153.624657,-689.485948,740.205942,9918.759623
153.624965,-995.924147,444.123565,10584.944971
153.625274,-1149.143247,-148.041188,10436.903782
153.625582,-1455.581446,-444.123565,10288.862594
153.625890,-1149.143247,-814.226536,10955.047942
153.626198,-1532.190996,-1776.494261,10955.047942
153.626506,-1072.533697,-1702.473667,10732.986159
153.626814,-229.828649,-1480.411884,10510.924376
153.627123,0.000000,-1850.514855,10066.800811
153.627431,229.828649,-1776.494261,9770.718434
153.627739,766.095498,-1480.411884,9474.636058
153.628047,1378.971896,-1628.453072,9178.553681
153.628355,1762.019645,-1850.514855,8660.409521
153.628664,1762.019645,-1258.350101,8438.347739
153.628972,2374.896044,-814.226536,8734.430116
153.629280,1915.238745,-370.102971,7846.182985
153.629588,2451.505594,-0.000000,7994.224174
153.629896,2681.334243,518.144159,7846.182985
153.630204,2757.943793,666.185348,7920.203579
153.630513,2528.115143,888.247130,7994.224174
153.630821,1991.848295,1406.391290,8660.409521
153.631129,2221.676944,1184.329507,8734.430116
153.631437,1915.238745,888.247130,9178.553681
153.631745,1378.971896,1184.329507,9844.739029
153.632054,995.924147,1184.329507,9918.759623
153.632362,842.705048,1258.350101,9844.739029
153.632670,612.876398,1332.370696,10436.903782
153.632978,689.485948,1554.432478,10510.924376
153.633286,766.095498,888.247130,10362.883188
153.633595,766.095498,1110.308913,9992.780217
153.633903,689.485948,1258.350101,10436.903782
153.634211,612.876398,1406.391290,10584.944971
153.634519,459.657299,1480.411884,10436.903782
153.634827,306.438199,1332.370696,10066.800811
153.635135,153.219100,1332.370696,9992.780217
153.635444,0.000000,888.247130,10214.842000
153.635752,-536.266849,666.185348,10362.883188
153.636060,-383.047749,-74.020594,10584.944971
153.636368,-1225.752797,-74.020594,10436.903782
153.636676,-459.657299,-888.247130,9918.759623
153.636985,-459.657299,-518.144159,9918.759623
153.637293,-536.266849,-814.226536,9770.718434
153.637601,-153.219100,-962.267725,9622.677246
153.637909,153.219100,-1110.308913,9474.636058
153.638217,153.219100,-1332.370696,9474.636058
153.638526,459.657299,-1184.329507,8882.471304
153.638834,689.485948,-1184.329507,9178.553681
153.639142,612.876398,-1184.329507,8734.430116
153.639450,1302.362347,-1110.308913,8364.327145
153.639758,1378.971896,-740.205942,8364.327145
153.640066,1532.190996,-740.205942,8512.368333
153.640375,1302.362347,-222.061783,8734.430116
153.640683,1838.629195,-592.164754,8808.450710
153.640991,1072.533697,-592.164754,8808.450710
153.641299,995.924147,-222.061783,9178.553681
153.641607,919.314598,-444.123565,9474.636058
153.641916,919.314598,-0.000000,9622.677246
153.642224,536.266849,444.123565,9770.718434
153.642532,306.438199,740.205942,10140.821405
153.642840,536.266849,740.205942,9918.759623
153.643148,689.485948,814.226536,9844.739029
153.643457,919.314598,1480.411884,10436.903782
153.643765,919.314598,1480.411884,9696.697840
153.644073,612.876398,1850.514855,9844.739029
153.644381,919.314598,1998.556043,9622.677246
153.644689,919.314598,2146.597232,9696.697840
153.644997,995.924147,2146.597232,9844.739029
153.645306,995.924147,1924.535449,9844.739029
153.645614,689.485948,1702.473667,9918.759623
153.645922,459.657299,1184.329507,10362.883188
153.646230,-459.657299,1036.288319,10140.821405
153.646538,-1302.362347,814.226536,10732.986159
153.646847,-1302.362347,296.082377,10658.965565
153.647155,-1608.800546,-0.000000,10807.006753
153.647463,-1532.190996,-296.082377,10732.986159
153.647771,-1608.800546,-592.164754,11103.089130
153.648079,-1838.629195,-1036.288319,10732.986159
153.648387,-1378.971896,-1036.288319,10881.027347
153.648696,-995.924147,-962.267725,10732.986159
153.649004,-306.438199,-1924.535449,9770.718434
153.649312,-153.219100,-1258.350101,9844.739029
153.649620,459.657299,-1258.350101,9548.656652
153.649928,1149.143247,-1480.411884,9030.512492
153.650237,1685.410096,-1184.329507,8734.430116
153.650545,1762.019645,-1184.329507,8512.368333
153.650853,2068.457845,-1184.329507,8512.368333
153.651161,1838.629195,-814.226536,7994.224174
153.651469,2451.505594,-74.020594,7994.224174
153.651778,2604.724693,148.041188,7920.203579
153.652086,2681.334243,666.185348,7772.162391
153.652394,3064.381992,888.247130,7624.121203
153.652702,2834.553343,1110.308913,8216.285956
153.653010,2221.676944,962.267725,8438.347739
153.653318,1685.410096,666.185348,8882.471304
153.653627,1838.629195,592.164754,9252.574275
153.653935,1072.533697,592.164754,9844.739029
153.654243,536.266849,444.123565,9992.780217
153.654551,306.438199,814.226536,10362.883188
153.654859,536.266849,888.247130,10584.944971
153.655168,459.657299,592.164754,10584.944971
153.655476,842.705048,1036.288319,10658.965565
153.655784,1302.362347,1406.391290,10510.924376
153.656092,1455.581446,1110.308913,10362.883188
153.656400,919.314598,1480.411884,10436.903782
153.656709,1072.533697,1628.453072,9844.739029
153.657017,689.485948,1480.411884,9992.780217
153.657325,536.266849,1332.370696,9844.739029
153.657633,76.609550,740.205942,9844.739029
153.657941,-153.219100,592.164754,9992.780217
153.658249,76.609550,-0.000000,10066.800811
153.658558,-612.876398,-444.123565,9844.739029
153.658866,-766.095498,-74.020594,10140.821405
153.659174,-689.485948,-370.102971,10510.924376
153.659482,-689.485948,-814.226536,10066.800811
153.659790,-459.657299,-888.247130,9918.759623
153.660099,0.000000,-1036.288319,9474.636058
153.660407,306.438199,-962.267725,9622.677246
153.660715,995.924147,-1036.288319,9178.553681
153.661023,1225.752797,-1184.329507,9400.615463
153.661331,842.705048,-1036.288319,9104.533087
153.661640,1149.143247,-740.205942,8364.327145
153.661948,1378.971896,-740.205942,8438.347739
153.662256,1455.581446,-740.205942,8438.347739
153.662564,1685.410096,-592.164754,8512.368333
153.662872,1762.019645,-592.164754,8660.409521
153.663180,1685.410096,-518.144159,8882.471304
153.663489,1455.581446,-74.020594,9252.574275
153.663797,1302.362347,-0.000000,9252.574275
153.664105,919.314598,370.102971,9474.636058
153.664413,689.485948,740.205942,9622.677246
153.664721,536.266849,740.205942,9844.739029
153.665030,459.657299,888.247130,10288.862594
153.665338,1149.143247,1184.329507,10362.883188
153.665646,76.609550,1332.370696,10214.842000
153.665954,689.485948,1702.473667,10066.800811
153.666262,689.485948,1850.514855,9992.780217
153.666570,689.485948,1850.514855,9918.759623
153.666879,766.095498,1776.494261,9992.780217
153.667187,689.485948,1998.556043,9992.780217
153.667495,689.485948,1184.329507,10362.883188
153.667803,766.095498,1332.370696,10510.924376
153.668111,229.828649,1036.288319,10732.986159
153.668420,-383.047749,740.205942,10510.924376
153.668728,-842.705048,370.102971,10510.924376
153.669036,-919.314598,222.061783,10510.924376
153.669344,-1072.533697,-0.000000,10658.965565
153.669652,-1455.581446,-74.020594,10510.924376
153.669961,-995.924147,-518.144159,10584.944971
153.670269,-1455.581446,-518.144159,10658.965565
153.670577,-536.266849,-1332.370696,10436.903782
153.670885,-612.876398,-1184.329507,10362.883188
153.671193,-153.219100,-1110.308913,9992.780217
153.671501,0.000000,-1332.370696,9918.759623
153.671810,612.876398,-1184.329507,9622.677246
153.672118,842.705048,-1184.329507,9178.553681
153.672426,1225.752797,-1480.411884,8882.471304
153.672734,1302.362347,-1110.308913,8586.388927
153.673042,2451.505594,-1184.329507,8142.265362
153.673351,2298.286494,-962.267725,8142.265362
153.673659,2221.676944,-222.061783,7994.224174
153.673967,2298.286494,-0.000000,7994.224174
153.674275,2451.505594,370.102971,7846.182985
153.674583,2604.724693,666.185348,7994.224174
153.674892,2451.505594,1184.329507,8364.327145
153.675200,2068.457845,592.164754,8512.368333
153.675508,1762.019645,962.267725,8956.491898
153.675816,1225.752797,814.226536,9548.656652
153.676124,1072.533697,888.247130,9770.718434
153.676432,842.705048,814.226536,10288.862594
153.676741,919.314598,1036.288319,10436.903782
153.677049,1225.752797,1184.329507,10584.944971
153.677357,919.314598,1332.370696,10288.862594
153.677665,1378.971896,1628.453072,9696.697840
153.677973,1455.581446,1480.411884,10140.821405
153.678282,1455.581446,1332.370696,9696.697840
153.678590,1302.362347,1628.453072,9548.656652
153.678898,1225.752797,1628.453072,9622.677246
153.679206,995.924147,1554.432478,9696.697840
153.679514,766.095498,1776.494261,10066.800811
153.679823,459.657299,1036.288319,9918.759623
153.680131,0.000000,592.164754,10214.842000
153.680439,-689.485948,-0.000000,10288.862594
153.680747,-1455.581446,-592.164754,10584.944971
153.681055,-1225.752797,-666.185348,10436.903782
153.681363,-1149.143247,-740.205942,10288.862594
153.681672,-995.924147,-888.247130,9992.780217
153.681980,0.000000,-888.247130,9844.739029
153.682288,0.000000,-1184.329507,9548.656652
153.682596,0.000000,-814.226536,9400.615463
153.682904,612.876398,-888.247130,9252.574275
153.683213,919.314598,-1110.308913,8734.430116
153.683521,1378.971896,-962.267725,8660.409521
153.683829,1072.533697,-1110.308913,8438.347739
153.684137,1302.362347,-814.226536,8438.347739
153.684445,1072.533697,-740.205942,8734.430116
153.684753,1532.190996,-962.267725,8660.409521
153.685062,1455.581446,-518.144159,8808.450710
153.685370,1072.533697,-592.164754,9178.553681
153.685678,919.314598,-148.041188,9104.533087
153.685986,1225.752797,222.061783,9104.533087
153.686294,1378.971896,370.102971,9178.553681
153.686603,766.095498,666.185348,9474.636058
153.686911,1072.533697,814.226536,9548.656652
153.687219,459.657299,814.226536,10140.821405
153.687527,612.876398,740.205942,10436.903782
153.687835,536.266849,888.247130,10510.924376
153.688144,536.266849,1628.453072,10140.821405
153.688452,919.314598,1702.473667,10214.842000
153.688760,612.876398,1850.514855,9992.780217
153.689068,842.705048,1850.514855,10140.821405
153.689376,919.314598,1850.514855,10140.821405
153.689684,612.876398,2220.617826,10066.800811
153.689993,306.438199,1406.391290,9992.780217
153.690301,0.000000,1554.432478,10362.883188
153.690609,-153.219100,1036.288319,10214.842000
153.690917,-459.657299,592.164754,10288.862594
153.691225,-1149.143247,370.102971,10881.027347
153.691534,-1685.410096,-74.020594,10807.006753
153.691842,-1225.752797,-74.020594,11251.130318
153.692150,-1685.410096,-518.144159,10658.965565
153.692458,-1378.971896,-1406.391290,10807.006753
153.692766,-689.485948,-1110.308913,10807.006753
153.693075,-842.705048,-1110.308913,10436.903782
153.693383,-306.438199,-1258.350101,10140.821405
153.693691,0.000000,-1184.329507,9474.636058
153.693999,612.876398,-1110.308913,9400.615463
153.694307,1378.971896,-1110.308913,9400.615463
153.694615,1225.752797,-1258.350101,8882.471304
153.694924,1915.238745,-1184.329507,8438.347739
153.695232,1838.629195,-814.226536,8216.285956
153.695540,2068.457845,-666.185348,8142.265362
153.695848,2298.286494,-148.041188,8068.244768
153.696156,2145.067394,-0.000000,7846.182985
153.696465,2451.505594,-0.000000,8068.244768
153.696773,2757.943793,222.061783,8068.244768
153.697081,2298.286494,370.102971,7698.141797
153.697389,2221.676944,296.082377,8734.430116
153.697697,1762.019645,518.144159,9326.594869
153.698006,1072.533697,962.267725,9622.677246
153.698314,919.314598,740.205942,9918.759623
153.698622,766.095498,888.247130,10066.800811
153.698930,689.485948,814.226536,10066.800811
153.699238,995.924147,1184.329507,10140.821405
153.699546,995.924147,1554.432478,10288.862594
153.699855,1455.581446,1702.473667,10362.883188
153.700163,1225.752797,888.247130,10214.842000
153.700471,1378.971896,1554.432478,9622.677246
153.700779,1149.143247,1776.494261,9622.677246
153.701087,842.705048,1850.514855,9548.656652
153.701396,1072.533697,1776.494261,9770.718434
153.701704,689.485948,1480.411884,10140.821405
153.702012,76.609550,592.164754,10066.800811
153.702320,-306.438199,518.144159,10510.924376
153.702628,-536.266849,-296.082377,10658.965565
153.702936,-1225.752797,-222.061783,10510.924376
153.703245,-995.924147,-518.144159,10436.903782
153.703553,-1149.143247,-666.185348,10288.862594
153.703861,-919.314598,-740.205942,10362.883188
153.704169,0.000000,-888.247130,9918.759623
153.704477,0.000000,-1110.308913,9696.697840
153.704786,153.219100,-888.247130,9548.656652
153.705094,766.095498,-888.247130,8882.471304
153.705402,766.095498,-666.185348,8734.430116
153.705710,1225.752797,-1036.288319,8660.409521
153.706018,1225.752797,-888.247130,8512.368333
153.706327,1378.971896,-1036.288319,8586.388927
153.706635,1532.190996,-1036.288319,8808.450710
153.706943,1225.752797,-962.267725,8734.430116
153.707251,1532.190996,-814.226536,8512.368333
153.707559,1608.800546,-962.267725,8808.450710
153.707868,1302.362347,-148.041188,8956.491898
153.708176,1302.362347,-0.000000,9400.615463
153.708484,1149.143247,222.061783,9326.594869
153.708792,842.705048,666.185348,9474.636058
153.709100,919.314598,666.185348,9918.759623
153.709409,612.876398,814.226536,9918.759623
153.709717,536.266849,1184.329507,10214.842000
153.710025,766.095498,1702.473667,10066.800811
153.710333,689.485948,1702.473667,9844.739029
153.710642,919.314598,1702.473667,9918.759623
153.710950,766.095498,1702.473667,10066.800811
153.711258,612.876398,1702.473667,10066.800811
153.711566,459.657299,1036.288319,10214.842000
153.711874,153.219100,1332.370696,10066.800811
153.712183,0.000000,1332.370696,10510.924376
153.712491,0.000000,1258.350101,10362.883188
153.712799,-306.438199,962.267725,10140.821405
153.713107,-536.266849,444.123565,10288.862594
153.713415,-1149.143247,518.144159,10584.944971
153.713724,-1225.752797,-0.000000,10436.903782
153.714032,-1225.752797,-0.000000,10510.924376
153.714340,-1608.800546,-666.185348,10510.924376
153.714648,-1225.752797,-444.123565,10881.027347
153.714956,-1532.190996,-888.247130,10436.903782
153.715265,-1149.143247,-962.267725,10140.821405
153.715573,-383.047749,-1184.329507,9918.759623
153.715881,0.000000,-1406.391290,9992.780217
153.716189,229.828649,-1480.411884,9548.656652
153.716498,995.924147,-1406.391290,9548.656652
153.716806,1378.971896,-1258.350101,9104.533087
153.717114,1991.848295,-1258.350101,8660.409521
153.717422,1532.190996,-592.164754,8586.388927
153.717730,2298.286494,-444.123565,8290.306550
153.718039,2451.505594,-296.082377,7920.203579
153.718347,2528.115143,-0.000000,7994.224174
153.718655,2528.115143,296.082377,7920.203579
153.718963,2451.505594,370.102971,7994.224174
153.719271,2451.505594,1332.370696,8290.306550
153.719580,2298.286494,1110.308913,8512.368333
153.719888,2298.286494,1036.288319,8956.491898
153.720196,1608.800546,1036.288319,9178.553681
153.720504,1225.752797,888.247130,9474.636058
153.720812,919.314598,1184.329507,9918.759623
153.721121,1149.143247,1036.288319,10066.800811
153.721429,689.485948,962.267725,10214.842000
153.721737,1608.800546,1184.329507,10362.883188
153.722045,1378.971896,1258.350101,10362.883188
153.722354,1149.143247,1184.329507,10584.944971
153.722662,919.314598,1184.329507,10510.924376
153.722970,995.924147,1258.350101,10140.821405
153.723278,766.095498,1332.370696,10140.821405
153.723586,612.876398,1332.370696,10066.800811
153.723895,306.438199,1258.350101,10214.842000
153.724203,0.000000,518.144159,9992.780217
153.724511,-536.266849,296.082377,10066.800811
153.724819,-383.047749,-0.000000,10066.800811
153.725127,-689.485948,-148.041188,10288.862594
153.725436,-1225.752797,-370.102971,10214.842000
153.725744,-842.705048,-296.082377,9992.780217
153.726052,-842.705048,-518.144159,9696.697840
153.726360,-306.438199,-518.144159,9992.780217
153.726669,-306.438199,-148.041188,10140.821405
153.726977,383.047749,-1258.350101,9104.533087
153.727285,306.438199,-888.247130,9474.636058
153.727593,766.095498,-814.226536,9104.533087
153.727901,919.314598,-962.267725,8882.471304
153.728210,1072.533697,-888.247130,8660.409521
153.728518,1608.800546,-740.205942,8512.368333
153.728826,1302.362347,-814.226536,8660.409521
153.729134,1302.362347,-888.247130,8956.491898
153.729442,1225.752797,-962.267725,9104.533087
153.729751,1149.143247,-740.205942,8956.491898
153.730059,919.314598,-370.102971,9104.533087
153.730367,919.314598,-0.000000,9474.636058
153.730675,536.266849,-0.000000,9770.718434
153.730983,1072.533697,592.164754,9622.677246
153.731292,919.314598,814.226536,9548.656652
153.731600,995.924147,814.226536,9770.718434
153.731908,689.485948,1258.350101,9696.697840
153.732216,536.266849,1702.473667,9770.718434
153.732525,1302.362347,1998.556043,9548.656652
153.732833,1302.362347,1924.535449,9474.636058
153.733141,1149.143247,1776.494261,9696.697840
153.733449,842.705048,1924.535449,9992.780217
153.733757,842.705048,1776.494261,10066.800811
153.734066,1149.143247,1850.514855,10510.924376
153.734374,689.485948,1628.453072,10732.986159
153.734682,-153.219100,888.247130,10510.924376
153.734990,-383.047749,888.247130,10881.027347
153.735298,-766.095498,592.164754,11029.068536
153.735607,-995.924147,222.061783,10955.047942
153.735915,-1072.533697,-222.061783,10955.047942
153.736223,-919.314598,-74.020594,10658.965565
153.736531,-1532.190996,-0.000000,10510.924376
153.736840,-995.924147,-444.123565,10584.944971
153.737148,-919.314598,-518.144159,10362.883188
153.737456,-689.485948,-814.226536,10214.842000
153.737764,-229.828649,-1036.288319,9770.718434
153.738072,0.000000,-1184.329507,9770.718434
153.738381,0.000000,-1480.411884,9622.677246
153.738689,459.657299,-1480.411884,9400.615463
153.738997,1455.581446,-1258.350101,8808.450710
153.739305,1225.752797,-1184.329507,8882.471304
153.739613,1915.238745,-740.205942,8660.409521
153.739922,2145.067394,-666.185348,8068.244768
153.740230,2451.505594,-370.102971,8142.265362
153.740538,2757.943793,-0.000000,7772.162391
153.740846,2528.115143,296.082377,7920.203579
153.741154,2374.896044,740.205942,7846.182985
153.741463,2757.943793,962.267725,7994.224174
153.741771,2681.334243,1332.370696,8216.285956
153.742079,2298.286494,1036.288319,8586.388927
153.742387,1378.971896,962.267725,9178.553681
153.742696,995.924147,740.205942,9696.697840
153.743004,689.485948,592.164754,10436.903782
153.743312,459.657299,518.144159,10584.944971
153.743620,229.828649,444.123565,10510.924376
153.743928,842.705048,888.247130,11103.089130
153.744237,1225.752797,518.144159,10881.027347
153.744545,766.095498,962.267725,10510.924376
153.744853,842.705048,1258.350101,10140.821405
153.745161,1149.143247,1480.411884,9918.759623
153.745469,995.924147,1702.473667,9844.739029
153.745778,842.705048,1702.473667,9548.656652
153.746086,1149.143247,1184.329507,9326.594869
153.746394,689.485948,962.267725,9696.697840
153.746702,995.924147,814.226536,9918.759623
153.747010,0.000000,666.185348,10066.800811
153.747319,-536.266849,296.082377,9992.780217
153.747627,-842.705048,-0.000000,9918.759623
153.747935,-766.095498,-74.020594,9918.759623
153.748243,0.000000,-1258.350101,9844.739029
153.748552,-766.095498,-740.205942,10140.821405
153.748860,-383.047749,-1184.329507,9918.759623
153.749168,-306.438199,-1258.350101,9474.636058
153.749476,229.828649,-1110.308913,9474.636058
153.749784,153.219100,-1332.370696,9326.594869
153.750093,842.705048,-1258.350101,9178.553681
153.750401,689.485948,-1332.370696,8956.491898
153.750709,689.485948,-1258.350101,9326.594869
153.751017,1302.362347,-1628.453072,9326.594869
153.751325,995.924147,-1702.473667,9326.594869
153.751634,1302.362347,-1258.350101,9104.533087
153.751942,1072.533697,-666.185348,8808.450710
153.752250,1225.752797,-518.144159,8660.409521
153.752558,1455.581446,148.041188,8882.471304
153.752867,1532.190996,740.205942,8808.450710
153.753175,1149.143247,962.267725,9030.512492
153.753483,1532.190996,1036.288319,8882.471304
153.753791,1302.362347,1480.411884,9474.636058
153.754099,919.314598,1628.453072,9326.594869
153.754408,995.924147,1554.432478,9622.677246
153.754716,689.485948,1924.535449,9696.697840
153.755024,919.314598,1702.473667,9918.759623
153.755332,689.485948,1776.494261,10140.821405
153.755640,766.095498,1332.370696,10362.883188
153.755949,919.314598,1110.308913,10288.862594
153.756257,0.000000,814.226536,10658.965565
153.756565,229.828649,814.226536,10732.986159
153.756873,-306.438199,1036.288319,10881.027347
153.757181,-536.266849,666.185348,11029.068536
153.757490,-842.705048,592.164754,11103.089130
153.757798,-1072.533697,444.123565,10807.006753
153.758106,-995.924147,370.102971,10807.006753
153.758414,-2068.457845,-0.000000,10732.986159
153.758723,-1225.752797,-0.000000,11029.068536
153.759031,-842.705048,-370.102971,10658.965565
153.759339,-536.266849,-222.061783,10436.903782
153.759647,-306.438199,-444.123565,10066.800811
153.759955,0.000000,-592.164754,9696.697840
153.760264,229.828649,-1110.308913,9474.636058
153.760572,459.657299,-888.247130,9622.677246
153.760880,1149.143247,-1628.453072,9326.594869
153.761188,1302.362347,-1184.329507,8956.491898
153.761496,1762.019645,-1480.411884,8808.450710
153.761805,2068.457845,-814.226536,8364.327145
153.762113,2374.896044,-592.164754,8068.244768
153.762421,2528.115143,-370.102971,7846.182985
153.762729,2528.115143,-74.020594,7920.203579
153.763038,2451.505594,-0.000000,7920.203579
153.763346,2374.896044,518.144159,8216.285956
153.763654,2451.505594,666.185348,8586.388927
153.763962,2221.676944,888.247130,8660.409521
153.764270,1838.629195,888.247130,8586.388927
153.764579,1532.190996,666.185348,9178.553681
153.764887,842.705048,518.144159,9770.718434
153.765195,459.657299,296.082377,10288.862594
153.765503,612.876398,518.144159,10955.047942
153.765811,76.609550,-0.000000,10584.944971
153.766120,612.876398,444.123565,10362.883188
153.766428,995.924147,888.247130,10658.965565
153.766736,995.924147,1036.288319,10362.883188
153.767044,1225.752797,1258.350101,9992.780217
153.767352,1149.143247,1406.391290,9622.677246
153.767661,1072.533697,1776.494261,9622.677246
153.767969,1302.362347,1850.514855,9400.615463
153.768277,1455.581446,1998.556043,9326.594869
153.768585,1149.143247,1850.514855,9326.594869
153.768894,153.219100,1406.391290,9178.553681
153.769202,0.000000,962.267725,9770.718434
153.769510,-689.485948,518.144159,10214.842000
153.769818,-1072.533697,-0.000000,10362.883188
153.770126,-1225.752797,-444.123565,10510.924376
153.770435,-1072.533697,-444.123565,11103.089130
153.770743,-1225.752797,-962.267725,10436.903782
153.771051,-1149.143247,-1184.329507,10066.800811
153.771359,-536.266849,-1332.370696,9918.759623
153.771667,-229.828649,-1406.391290,9696.697840
153.771976,306.438199,-1406.391290,9548.656652
153.772284,459.657299,-1554.432478,9178.553681
153.772592,842.705048,-1406.391290,9252.574275
153.772900,842.705048,-1332.370696,8956.491898
153.773208,919.314598,-1406.391290,9030.512492
153.773517,1225.752797,-1554.432478,8438.347739
153.773825,1225.752797,-1110.308913,8586.388927
153.774133,1608.800546,-444.123565,8438.347739
153.774441,1762.019645,-0.000000,8438.347739
153.774750,1455.581446,222.061783,8586.388927
153.775058,1685.410096,370.102971,8734.430116
153.775366,1455.581446,814.226536,9030.512492
153.775674,1378.971896,962.267725,8512.368333
153.775982,1378.971896,1258.350101,9104.533087
153.776291,1072.533697,1480.411884,9474.636058
153.776599,995.924147,1554.432478,9622.677246
153.776907,766.095498,1702.473667,9696.697840
153.777215,536.266849,1702.473667,9992.780217
153.777523,306.438199,1332.370696,10362.883188
153.777832,766.095498,740.205942,10436.903782
153.778140,76.609550,1110.308913,10584.944971
153.778448,76.609550,962.267725,11029.068536
153.778756,-383.047749,814.226536,11177.109724
153.779065,-383.047749,666.185348,11251.130318
153.779373,-766.095498,444.123565,10955.047942
153.779681,-766.095498,518.144159,10955.047942
153.779989,-919.314598,-0.000000,10881.027347
153.780297,-919.314598,444.123565,10658.965565
153.780606,-689.485948,296.082377,10658.965565
153.780914,-612.876398,-0.000000,10362.883188
153.781222,-612.876398,444.123565,10140.821405
153.781530,0.000000,-0.000000,9622.677246
153.781838,-229.828649,-222.061783,9844.739029
153.782147,0.000000,-296.082377,9770.718434
153.782455,612.876398,-962.267725,9622.677246
153.782763,1072.533697,-1184.329507,9696.697840
153.783071,1455.581446,-1110.308913,9252.574275
153.783379,1991.848295,-1480.411884,9104.533087
153.783688,1608.800546,-1628.453072,8808.450710
153.783996,1685.410096,-1184.329507,8364.327145
153.784304,2145.067394,-814.226536,8512.368333
153.784612,2451.505594,-444.123565,8364.327145
153.784921,2987.772442,-222.061783,7846.182985
153.785229,2834.553343,148.041188,7994.224174
153.785537,2911.162892,-0.000000,7772.162391
153.785845,2757.943793,518.144159,8142.265362
153.786153,2374.896044,740.205942,8660.409521
153.786462,1685.410096,666.185348,8956.491898
153.786770,1302.362347,518.144159,9326.594869
153.787078,995.924147,370.102971,9548.656652
153.787386,612.876398,-0.000000,10288.862594
153.787694,689.485948,-0.000000,10362.883188
153.788003,919.314598,-0.000000,10955.047942
153.788311,766.095498,222.061783,10436.903782
153.788619,995.924147,962.267725,10288.862594
153.788927,1302.362347,1184.329507,9770.718434
153.789235,1915.238745,1850.514855,9474.636058
153.789544,1915.238745,2072.576638,9178.553681
153.789852,2145.067394,2294.638420,9474.636058
153.790160,1378.971896,2146.597232,9400.615463
153.790468,1149.143247,1850.514855,9474.636058
153.790777,459.657299,1850.514855,9474.636058
153.791085,76.609550,1184.329507,9622.677246
153.791393,-536.266849,592.164754,10140.821405
153.791701,-1149.143247,-0.000000,10732.986159
153.792009,-1455.581446,-296.082377,10955.047942
153.792318,-1762.019645,-518.144159,10658.965565
153.792626,-1762.019645,-1036.288319,10658.965565
153.792934,-1378.971896,-1036.288319,10807.006753
153.793242,-1378.971896,-888.247130,10658.965565
153.793550,-536.266849,-1184.329507,10288.862594
153.793859,-383.047749,-1110.308913,9992.780217
153.794167,0.000000,-1036.288319,9992.780217
153.794475,153.219100,-1184.329507,9548.656652
153.794783,229.828649,-1406.391290,9400.615463
153.795092,842.705048,-1184.329507,9178.553681
153.795400,1685.410096,-1406.391290,8216.285956
153.795708,1072.533697,-888.247130,8512.368333
153.796016,1915.238745,-740.205942,7994.224174
153.796324,2068.457845,-518.144159,8290.306550
153.796633,1915.238745,-222.061783,8068.244768
153.796941,2068.457845,-0.000000,8142.265362
153.797249,1838.629195,-0.000000,8734.430116
153.797557,1455.581446,814.226536,8808.450710
153.797865,1608.800546,888.247130,8882.471304
153.798174,1455.581446,1184.329507,9104.533087
153.798482,766.095498,1184.329507,9474.636058
153.798790,612.876398,1184.329507,9622.677246
153.799098,229.828649,1332.370696,9992.780217
153.799406,229.828649,1332.370696,10214.842000
153.799715,383.047749,1036.288319,10658.965565
153.800023,-229.828649,1036.288319,10732.986159
153.800331,383.047749,1258.350101,10807.006753
153.800639,153.219100,814.226536,11251.130318
153.800948,-612.876398,592.164754,10955.047942
153.801256,-766.095498,370.102971,11325.150913
153.801564,-766.095498,370.102971,11325.150913
153.801872,-995.924147,444.123565,10955.047942
153.802180,-766.095498,444.123565,10510.924376
153.802489,-995.924147,-74.020594,10140.821405
153.802797,-459.657299,592.164754,10362.883188
153.803105,-766.095498,370.102971,10140.821405
153.803413,-229.828649,518.144159,9844.739029
153.803721,0.000000,296.082377,9622.677246
153.804030,0.000000,-0.000000,9622.677246
153.804338,229.828649,-222.061783,9474.636058
153.804646,919.314598,-444.123565,9622.677246
153.804954,842.705048,-962.267725,9326.594869
153.805263,919.314598,-962.267725,9400.615463
153.805571,1378.971896,-1110.308913,9252.574275
153.805879,1378.971896,-1110.308913,8882.471304
153.806187,1608.800546,-1184.329507,8734.430116
153.806495,1685.410096,-814.226536,8512.368333
153.806804,2374.896044,-814.226536,8142.265362
153.807112,2298.286494,-148.041188,8512.368333
153.807420,2604.724693,-0.000000,7994.224174
153.807728,1991.848295,222.061783,8290.306550
153.808036,2068.457845,222.061783,8142.265362
153.808350,1991.848295,148.041188,8734.430116
153.808658,1378.971896,296.082377,9178.553681
153.808966,919.314598,222.061783,9622.677246
153.809274,689.485948,-148.041188,10066.800811
153.809582,459.657299,-0.000000,10214.842000
153.809890,153.219100,-74.020594,10140.821405
153.810198,689.485948,740.205942,10510.924376
153.810506,766.095498,888.247130,10140.821405
153.810814,1455.581446,1332.370696,9696.697840
153.811122,1915.238745,1924.535449,9326.594869
153.811430,2221.676944,2220.617826,8956.491898
153.811738,1838.629195,2146.597232,8956.491898
153.812046,2451.505594,2220.617826,8734.430116
153.812354,2068.457845,2368.659014,9252.574275
153.812662,1685.410096,1998.556043,9178.553681
153.812970,1225.752797,1924.535449,9622.677246
153.813278,0.000000,1258.350101,9770.718434
153.813586,0.000000,518.144159,10214.842000
153.813894,-1072.533697,-74.020594,10510.924376
153.814202,-1302.362347,-222.061783,10732.986159
153.814510,-1455.581446,-888.247130,11251.130318
153.814818,-1302.362347,-1258.350101,11399.171507
153.815126,-1302.362347,-1332.370696,11399.171507
153.815434,-1072.533697,-1332.370696,10436.903782
153.815742,-919.314598,-1480.411884,10436.903782
153.816050,-612.876398,-1702.473667,10140.821405
153.816358,76.609550,-1332.370696,9918.759623
153.816666,919.314598,-1406.391290,9548.656652
153.816974,919.314598,-1332.370696,9326.594869
153.817282,1225.752797,-1332.370696,8586.388927
153.817590,1455.581446,-740.205942,8660.409521
153.817898,1915.238745,-518.144159,8512.368333
153.818206,2145.067394,-222.061783,7846.182985
153.818514,2221.676944,-0.000000,7920.203579
153.818822,2221.676944,222.061783,7920.203579
153.819130,2451.505594,-0.000000,7994.224174
153.819438,1685.410096,444.123565,8216.285956
153.819746,1838.629195,1258.350101,8660.409521
153.820054,1378.971896,592.164754,8956.491898
153.820362,1225.752797,888.247130,9400.615463
153.820670,612.876398,1184.329507,9844.739029
153.820978,383.047749,1332.370696,10140.821405
153.821286,153.219100,1332.370696,10436.903782
153.821594,459.657299,1332.370696,10436.903782
153.821902,306.438199,1036.288319,10881.027347
153.822210,153.219100,962.267725,10584.944971
153.822518,-459.657299,888.247130,11029.068536
153.822826,-153.219100,740.205942,10732.986159
153.823134,-306.438199,888.247130,11177.109724
153.823442,-536.266849,666.185348,11029.068536
153.823750,-459.657299,740.205942,10732.986159
153.824058,-766.095498,888.247130,10362.883188
153.824366,-612.876398,370.102971,10584.944971
153.824674,-612.876398,370.102971,10584.944971
153.824982,-1149.143247,296.082377,10288.862594
153.825290,-689.485948,-0.000000,9696.697840
153.825598,-229.828649,-0.000000,10140.821405
153.825906,-306.438199,-148.041188,9844.739029
153.826214,-306.438199,-74.020594,9918.759623
153.826522,-153.219100,-592.164754,9622.677246
153.826830,306.438199,-740.205942,9474.636058
153.827138,919.314598,-444.123565,9696.697840
153.827446,1455.581446,-1184.329507,9400.615463
153.827754,919.314598,-1110.308913,9252.574275
153.828061,1149.143247,-1110.308913,8882.471304
153.828369,1685.410096,-1184.329507,8808.450710
153.828677,1838.629195,-814.226536,8512.368333
153.828985,2145.067394,-1110.308913,8586.388927
153.829293,2145.067394,-814.226536,8142.265362
153.829601,2068.457845,-444.123565,8364.327145
153.829909,2068.457845,-0.000000,8512.368333
153.830217,1685.410096,-0.000000,8660.409521
153.830525,1762.019645,222.061783,8808.450710
153.830833,1532.190996,-0.000000,9178.553681
153.831141,995.924147,222.061783,9474.636058
153.831449,766.095498,444.123565,9696.697840
153.831757,919.314598,370.102971,10140.821405
153.832065,536.266849,518.144159,10140.821405
153.832373,1378.971896,1184.329507,9770.718434
153.832681,1302.362347,1554.432478,9622.677246
153.832989,1685.410096,1628.453072,9474.636058
153.833297,1608.800546,1850.514855,9400.615463
153.833605,1991.848295,1702.473667,9326.594869
153.833913,1838.629195,1628.453072,9696.697840
153.834221,1991.848295,1850.514855,8956.491898
153.834529,1991.848295,1924.535449,9400.615463
153.834837,1302.362347,1628.453072,9474.636058
153.835145,766.095498,1406.391290,9770.718434
153.835453,-153.219100,740.205942,9770.718434
153.835761,-383.047749,296.082377,10214.842000
153.836069,-842.705048,-148.041188,10807.006753
153.836377,-1302.362347,-518.144159,11251.130318
153.836685,-1762.019645,-888.247130,11547.212695
153.836993,-1532.190996,-888.247130,11177.109724
153.837301,-1072.533697,-1184.329507,10732.986159
153.837609,-612.876398,-888.247130,10510.924376
153.837917,-459.657299,-962.267725,9918.759623
153.838225,153.219100,-1036.288319,9622.677246
153.838533,306.438199,-1110.308913,9326.594869
153.838841,383.047749,-1258.350101,9030.512492
153.839149,1149.143247,-888.247130,8882.471304
153.839457,1685.410096,-1036.288319,8142.265362
153.839765,1608.800546,-814.226536,8438.347739
153.840073,1685.410096,-666.185348,8142.265362
153.840381,1762.019645,-740.205942,8142.265362
153.840689,1378.971896,-148.041188,8512.368333
153.840997,2068.457845,-148.041188,8290.306550
153.841305,1838.629195,296.082377,8586.388927
153.841613,1685.410096,296.082377,8808.450710
153.841921,1072.533697,666.185348,9030.512492
153.842229,1608.800546,888.247130,9178.553681
153.842537,1072.533697,1258.350101,9178.553681
153.842845,766.095498,1036.288319,9770.718434
153.843153,536.266849,1332.370696,9992.780217
153.843461,842.705048,1406.391290,10436.903782
153.843769,459.657299,1702.473667,10288.862594
153.844077,229.828649,1554.432478,10584.944971
153.844385,0.000000,1554.432478,10510.924376
153.844693,536.266849,1332.370696,10362.883188
153.845001,0.000000,1184.329507,10658.965565
153.845309,0.000000,1184.329507,10732.986159
153.845617,0.000000,962.267725,10881.027347
153.845925,-383.047749,962.267725,10955.047942
153.846233,-766.095498,444.123565,10732.986159
153.846541,-536.266849,370.102971,10732.986159
153.846849,-766.095498,666.185348,10807.006753
153.847157,-995.924147,370.102971,10436.903782
153.847465,-689.485948,222.061783,10510.924376
153.847773,-689.485948,-0.000000,10288.862594
153.848081,-612.876398,-222.061783,9992.780217
153.848389,229.828649,-518.144159,10066.800811
153.848697,76.609550,-666.185348,9992.780217
153.849004,306.438199,-1258.350101,9696.697840
153.849312,383.047749,-814.226536,9400.615463
153.849620,689.485948,-814.226536,9474.636058
153.849928,1225.752797,-962.267725,8956.491898
153.850236,1685.410096,-962.267725,8956.491898
153.850544,1762.019645,-888.247130,8438.347739
153.850852,1762.019645,-370.102971,8290.306550
153.851160,1762.019645,-740.205942,8438.347739
153.851468,1838.629195,-592.164754,8734.430116
153.851776,2374.896044,-222.061783,8438.347739
153.852084,1685.410096,-0.000000,8364.327145
153.852392,1532.190996,518.144159,8734.430116
153.852700,1685.410096,148.041188,9178.553681
153.853008,1225.752797,370.102971,9030.512492
153.853316,995.924147,222.061783,9326.594869
153.853624,766.095498,296.082377,9844.739029
153.853932,689.485948,740.205942,10066.800811
153.854240,383.047749,-0.000000,10066.800811
153.854548,536.266849,962.267725,9918.759623
153.854856,919.314598,1184.329507,9844.739029
153.855164,1225.752797,1332.370696,9400.615463
153.855472,1685.410096,1554.432478,9622.677246
153.855780,1685.410096,1776.494261,9548.656652
153.856088,1991.848295,1480.411884,9252.574275
153.856396,1838.629195,1332.370696,9030.512492
153.856704,2145.067394,1776.494261,9326.594869
153.857012,1225.752797,1776.494261,9400.615463
153.857320,919.314598,1628.453072,9474.636058
153.857628,536.266849,962.267725,9918.759623
153.857936,-536.266849,296.082377,9844.739029
153.858244,-689.485948,222.061783,10732.986159
153.858552,-1378.971896,-370.102971,10955.047942
153.858860,-1915.238745,-888.247130,11103.089130
153.859168,-1838.629195,-1036.288319,10807.006753
153.859476,-1685.410096,-1110.308913,10658.965565
153.859784,-1378.971896,-1184.329507,10510.924376
153.860092,-689.485948,-1184.329507,10066.800811
153.860400,-459.657299,-1258.350101,9770.718434
153.860708,153.219100,-1406.391290,9474.636058
153.861016,766.095498,-1628.453072,9474.636058
153.861324,689.485948,-1258.350101,9104.533087
153.861632,1072.533697,-1184.329507,8808.450710
153.861940,1302.362347,-962.267725,8364.327145
153.862248,1149.143247,-814.226536,8364.327145
153.862556,1532.190996,-666.185348,8216.285956
153.862864,1915.238745,-370.102971,8142.265362
153.863172,2221.676944,-148.041188,7994.224174
153.863480,2298.286494,296.082377,8142.265362
153.863788,2298.286494,370.102971,8290.306550
153.864096,1762.019645,666.185348,8586.388927
153.864404,1685.410096,1036.288319,8882.471304
153.864712,1378.971896,1332.370696,8956.491898
153.865020,1225.752797,1110.308913,9326.594869
153.865328,766.095498,1332.370696,9844.739029
153.865636,153.219100,1406.391290,10288.862594
153.865944,153.219100,1480.411884,10362.883188
153.866252,229.828649,1258.350101,10510.924376
153.866560,0.000000,1036.288319,10658.965565
153.866868,153.219100,1184.329507,10881.027347
153.867176,-229.828649,1258.350101,11251.130318
153.867484,-229.828649,1036.288319,11325.150913
153.867792,-153.219100,666.185348,11251.130318
153.868100,-612.876398,592.164754,11399.171507
153.868408,-383.047749,-0.000000,11399.171507
153.868716,-766.095498,518.144159,11029.068536
153.869024,-766.095498,444.123565,10955.047942
153.869332,-612.876398,518.144159,9992.780217
153.869640,0.000000,518.144159,10066.800811
153.869948,0.000000,370.102971,9696.697840
153.870255,153.219100,296.082377,9400.615463
153.870563,459.657299,-0.000000,9918.759623
153.870871,919.314598,-148.041188,9178.553681
153.871179,306.438199,-370.102971,9030.512492
153.871487,842.705048,-962.267725,9178.553681
153.871795,919.314598,-1036.288319,9178.553681
153.872103,842.705048,-1110.308913,9178.553681
153.872411,1149.143247,-1406.391290,9104.533087
153.872719,1149.143247,-1332.370696,8956.491898
153.873027,1685.410096,-1406.391290,8882.471304
153.873335,1302.362347,-1406.391290,9178.553681
153.873643,1455.581446,-1258.350101,8586.388927
153.873951,2298.286494,-518.144159,8734.430116
153.874259,1762.019645,-222.061783,8660.409521
153.874567,1608.800546,222.061783,8882.471304
153.874875,1608.800546,-0.000000,9030.512492
153.875183,1225.752797,444.123565,9400.615463
153.875491,1455.581446,-0.000000,9400.615463
153.875799,919.314598,444.123565,9770.718434
153.876107,995.924147,592.164754,10214.842000
153.876415,1378.971896,888.247130,9918.759623
153.876723,1225.752797,1110.308913,9770.718434
153.877031,1762.019645,1554.432478,9696.697840
153.877339,1991.848295,1850.514855,9548.656652
153.877647,1455.581446,1850.514855,9178.553681
153.877955,2451.505594,2294.638420,9326.594869
153.878263,2145.067394,2294.638420,8808.450710
153.878571,2298.286494,2368.659014,8956.491898
153.878879,1915.238745,1998.556043,9030.512492
153.879187,1225.752797,1924.535449,9474.636058
153.879495,459.657299,1480.411884,9696.697840
153.879803,0.000000,1036.288319,9918.759623
153.880111,-842.705048,370.102971,10362.883188
153.880419,-919.314598,-148.041188,10881.027347
153.880727,-1532.190996,-444.123565,11547.212695
153.881035,-1991.848295,-888.247130,10881.027347
153.881343,-1991.848295,-1036.288319,11399.171507
153.881651,-1915.238745,-1184.329507,11103.089130
153.881959,-1302.362347,-1406.391290,10658.965565
153.882267,-842.705048,-1258.350101,10362.883188
153.882575,-306.438199,-1184.329507,9770.718434
153.882883,536.266849,-1110.308913,9474.636058
153.883191,766.095498,-1258.350101,8882.471304
153.883499,1378.971896,-1184.329507,8956.491898
153.883807,1532.190996,-1258.350101,8438.347739
153.884115,1838.629195,-1110.308913,8068.244768
153.884423,1762.019645,-888.247130,8068.244768
153.884731,1838.629195,-962.267725,8142.265362
153.885039,1838.629195,-888.247130,8216.285956
153.885347,1838.629195,-148.041188,8290.306550
153.885655,2145.067394,-74.020594,8068.244768
153.885963,2298.286494,444.123565,8216.285956
153.886271,1838.629195,962.267725,8660.409521
153.886579,1915.238745,1184.329507,8660.409521
153.886887,1532.190996,1184.329507,8660.409521
153.887195,689.485948,1480.411884,9400.615463
153.887503,689.485948,1184.329507,9844.739029
153.887811,612.876398,1554.432478,10362.883188
153.888119,-153.219100,1258.350101,10214.842000
153.888427,76.609550,1406.391290,10288.862594
153.888735,0.000000,962.267725,10807.006753
153.889043,-229.828649,814.226536,11103.089130
153.889351,-459.657299,518.144159,11251.130318
153.889659,-842.705048,592.164754,11251.130318
153.889967,-689.485948,296.082377,11473.192101
153.890275,-459.657299,666.185348,11473.192101
153.890583,-612.876398,592.164754,10807.006753
153.890891,76.609550,666.185348,10881.027347
153.891198,0.000000,1110.308913,10066.800811
153.891506,0.000000,888.247130,9918.759623
153.891814,229.828649,814.226536,9622.677246
153.892122,229.828649,518.144159,9400.615463
153.892430,536.266849,-0.000000,9326.594869
153.892738,689.485948,-0.000000,9400.615463
153.893046,842.705048,-592.164754,9252.574275
153.893354,612.876398,-296.082377,9474.636058
153.893662,383.047749,-518.144159,9474.636058
153.893970,689.485948,-1036.288319,9474.636058
153.894278,689.485948,-1406.391290,9548.656652
153.894586,612.876398,-1480.411884,9474.636058
153.894894,995.924147,-1480.411884,9326.594869
153.895202,1149.143247,-1258.350101,9326.594869
153.895510,1762.019645,-1332.370696,8882.471304
153.895818,2145.067394,-666.185348,9178.553681
153.896126,1608.800546,-222.061783,8882.471304
153.896434,1838.629195,-222.061783,8660.409521
153.896742,1762.019645,-0.000000,8660.409521
153.897050,1378.971896,148.041188,8956.491898
153.897358,1225.752797,370.102971,9326.594869
153.897666,1378.971896,148.041188,9474.636058
153.897974,1149.143247,370.102971,9622.677246
153.898282,1072.533697,1036.288319,9696.697840
153.898590,1302.362347,1036.288319,9992.780217
153.898898,1302.362347,1258.350101,9548.656652
153.899206,1685.410096,1554.432478,9622.677246
153.899514,1915.238745,1850.514855,9400.615463
153.899822,2221.676944,1554.432478,9696.697840
153.900130,2145.067394,1850.514855,9400.615463
153.900438,2145.067394,2072.576638,9326.594869
153.900746,2221.676944,2368.659014,9252.574275
153.901054,1762.019645,2220.617826,9178.553681
153.901362,1532.190996,1924.535449,9400.615463
153.901670,995.924147,1628.453072,9696.697840
153.901978,306.438199,1184.329507,9696.697840
153.902286,-76.609550,592.164754,10288.862594
153.902594,-842.705048,-296.082377,10658.965565
153.902902,-1455.581446,-518.144159,10955.047942
153.903210,-1532.190996,-740.205942,11473.192101
153.903518,-1915.238745,-1258.350101,11251.130318
153.903826,-1838.629195,-1258.350101,11251.130318
153.904134,-1532.190996,-1406.391290,11103.089130
153.904442,-1149.143247,-1406.391290,10436.903782
153.904750,-306.438199,-1332.370696,9770.718434
153.905058,-306.438199,-1110.308913,9622.677246
153.905366,536.266849,-1554.432478,9178.553681
153.905674,1149.143247,-1110.308913,9252.574275
153.905982,1149.143247,-814.226536,8512.368333
153.906290,1532.190996,-814.226536,8068.244768
153.906598,1762.019645,-592.164754,7994.224174
153.906906,1762.019645,-518.144159,8068.244768
153.907214,1838.629195,-444.123565,8216.285956
153.907522,2221.676944,-74.020594,7846.182985
153.907830,2145.067394,370.102971,8290.306550
153.908138,2145.067394,296.082377,7920.203579
153.908446,1762.019645,888.247130,8364.327145
153.908754,1532.190996,1110.308913,8586.388927
153.909062,1149.143247,1406.391290,8586.388927
153.909370,995.924147,1184.329507,9326.594869
153.909678,689.485948,1258.350101,10066.800811
153.909986,76.609550,962.267725,10214.842000
153.910294,153.219100,1110.308913,10807.006753
153.910602,0.000000,740.205942,10658.965565
153.910910,0.000000,814.226536,10881.027347
153.911217,0.000000,666.185348,11399.171507
153.911525,-459.657299,592.164754,11325.150913
153.911833,-383.047749,296.082377,11473.192101
153.912141,0.000000,444.123565,11399.171507
153.912449,0.000000,444.123565,10807.006753
153.912757,153.219100,296.082377,10955.047942
153.913065,-306.438199,592.164754,10510.924376
153.913373,-536.266849,740.205942,10362.883188
153.913681,-306.438199,740.205942,10140.821405
153.913989,-459.657299,888.247130,9918.759623
153.914297,-842.705048,962.267725,9770.718434
153.914605,-153.219100,666.185348,9622.677246
153.914913,-153.219100,518.144159,9474.636058
153.915221,0.000000,-0.000000,9326.594869
153.915529,0.000000,-0.000000,9918.759623
153.915837,0.000000,-296.082377,9474.636058
153.916145,0.000000,-444.123565,9400.615463
153.916453,459.657299,-962.267725,9400.615463
153.916761,383.047749,-1110.308913,9326.594869
153.917069,919.314598,-1184.329507,9548.656652
153.917377,766.095498,-1702.473667,9030.512492
153.917685,1608.800546,-1406.391290,9104.533087
153.917993,1149.143247,-888.247130,8882.471304
153.918301,1532.190996,-888.247130,8734.430116
153.918609,1532.190996,-666.185348,8734.430116
153.918917,1608.800546,-222.061783,8660.409521
153.919225,2068.457845,-222.061783,8734.430116
153.919533,1762.019645,222.061783,9326.594869
153.919841,1378.971896,-0.000000,9326.594869
153.920149,1149.143247,-0.000000,9622.677246
153.920457,1072.533697,370.102971,10066.800811
153.920765,919.314598,666.185348,9844.739029
153.921073,995.924147,888.247130,9622.677246
153.921380,1225.752797,1258.350101,9548.656652
153.921688,1838.629195,1554.432478,9548.656652
153.921996,1532.190996,1628.453072,9622.677246
153.922304,1838.629195,1554.432478,9548.656652
153.922612,1685.410096,1554.432478,9252.574275
153.922920,1915.238745,1850.514855,9178.553681
153.923228,1915.238745,1998.556043,9178.553681
153.923536,1685.410096,1776.494261,9474.636058
153.923844,1302.362347,1628.453072,9400.615463
153.924152,536.266849,1554.432478,9696.697840
153.924460,383.047749,740.205942,10066.800811
153.924768,306.438199,222.061783,10436.903782
153.925076,-919.314598,-74.020594,10955.047942
153.925384,-1302.362347,-444.123565,10955.047942
153.925692,-1455.581446,-740.205942,10881.027347
153.926000,-1532.190996,-1110.308913,10881.027347
153.926308,-1225.752797,-962.267725,10881.027347
153.926616,-612.876398,-1184.329507,10584.944971
153.926924,0.000000,-1258.350101,10140.821405
153.927232,0.000000,-1184.329507,9918.759623
153.927540,383.047749,-1332.370696,9622.677246
153.927848,306.438199,-1036.288319,9400.615463
153.928156,1149.143247,-888.247130,9030.512492
153.928464,1455.581446,-814.226536,8512.368333
153.928772,1991.848295,-740.205942,7994.224174
153.929080,2451.505594,-296.082377,7920.203579
153.929388,2528.115143,-222.061783,7846.182985
153.929696,2604.724693,222.061783,7920.203579
153.930004,2911.162892,-74.020594,7624.121203
153.930312,2604.724693,814.226536,7698.141797
153.930620,2451.505594,666.185348,7920.203579
153.930928,2145.067394,888.247130,7994.224174
153.931236,1685.410096,1258.350101,8660.409521
153.931543,1378.971896,740.205942,9474.636058
153.931851,1072.533697,814.226536,9918.759623
153.932159,229.828649,740.205942,10436.903782
153.932467,0.000000,740.205942,10658.965565
153.932775,0.000000,962.267725,11029.068536
153.933083,0.000000,888.247130,11103.089130
153.933391,0.000000,518.144159,11177.109724
153.933699,-76.609550,518.144159,11325.150913
153.934007,229.828649,370.102971,11251.130318
153.934315,-229.828649,296.082377,11103.089130
153.934623,-842.705048,296.082377,10881.027347
153.934931,-689.485948,592.164754,10732.986159
153.935239,-306.438199,814.226536,10362.883188
153.935547,-689.485948,888.247130,10436.903782
153.935855,-459.657299,888.247130,10214.842000
153.936163,-689.485948,1036.288319,10066.800811
153.936471,-842.705048,1184.329507,10288.862594
153.936779,-689.485948,888.247130,10362.883188
153.937087,-689.485948,518.144159,10066.800811
153.937395,-306.438199,222.061783,9696.697840
153.937703,0.000000,296.082377,9696.697840
153.938011,-153.219100,-0.000000,9622.677246
153.938319,-229.828649,-222.061783,9400.615463
153.938627,153.219100,-370.102971,9474.636058
153.938935,459.657299,-740.205942,9400.615463
153.939243,766.095498,-1036.288319,9326.594869
153.939551,766.095498,-888.247130,9326.594869
153.939859,1225.752797,-1184.329507,8956.491898
153.940167,1072.533697,-666.185348,8956.491898
153.940475,1225.752797,-740.205942,8808.450710
153.940783,1225.752797,-666.185348,8882.471304
153.941091,1378.971896,-814.226536,8882.471304
153.941399,1455.581446,-444.123565,9104.533087
153.941706,459.657299,-666.185348,8882.471304
153.942014,1378.971896,-592.164754,9326.594869
153.942322,995.924147,-222.061783,9474.636058
153.942630,995.924147,148.041188,9696.697840
153.942938,919.314598,370.102971,9548.656652
153.943246,1149.143247,740.205942,9548.656652
153.943554,1685.410096,888.247130,9474.636058
153.943862,1762.019645,1480.411884,9474.636058
153.944170,1762.019645,1406.391290,9622.677246
153.944478,1455.581446,2072.576638,9474.636058
153.944786,2221.676944,1554.432478,9474.636058
153.945094,1838.629195,1850.514855,9030.512492
153.945402,1685.410096,2072.576638,9178.553681
153.945710,1378.971896,1924.535449,9326.594869
153.946018,995.924147,1332.370696,9548.656652
153.946326,536.266849,592.164754,9992.780217
153.946634,-383.047749,444.123565,10362.883188
153.946942,-153.219100,-0.000000,10510.924376
153.947250,-1225.752797,-444.123565,10658.965565
153.947558,-1762.019645,-518.144159,11103.089130
153.947866,-1455.581446,-518.144159,10732.986159
153.948174,-1225.752797,-518.144159,10658.965565
153.948482,-1149.143247,-814.226536,10658.965565
153.948790,-919.314598,-518.144159,10881.027347
153.949098,0.000000,-1184.329507,10288.862594
153.949406,-229.828649,-740.205942,9918.759623
153.949714,306.438199,-444.123565,9474.636058
153.950022,766.095498,-592.164754,9104.533087
153.950330,1455.581446,-444.123565,8586.388927
153.950638,1762.019645,-370.102971,8438.347739
153.950946,2834.553343,-444.123565,8068.244768
153.951254,2451.505594,-592.164754,7920.203579
153.951562,2681.334243,-518.144159,7698.141797
153.951869,2145.067394,-0.000000,7698.141797
153.952177,2757.943793,-444.123565,7846.182985
153.952485,2681.334243,296.082377,7772.162391
153.952793,2451.505594,370.102971,8142.265362
153.953101,2298.286494,666.185348,8438.347739
153.953409,2145.067394,888.247130,9104.533087
153.953717,1915.238745,814.226536,9474.636058
153.954025,842.705048,1036.288319,9622.677246
153.954333,1149.143247,666.185348,10362.883188
153.954641,229.828649,444.123565,10584.944971
153.954949,229.828649,814.226536,10732.986159
153.955257,76.609550,518.144159,10955.047942
153.955565,153.219100,592.164754,10807.006753
153.955873,0.000000,814.226536,11029.068536
153.956181,0.000000,518.144159,11029.068536
153.956489,306.438199,592.164754,10881.027347
153.956797,689.485948,518.144159,10584.944971
153.957105,0.000000,1036.288319,10732.986159
153.957413,-383.047749,962.267725,10584.944971
153.957721,-383.047749,888.247130,10436.903782
153.958029,-995.924147,962.267725,10436.903782
153.958337,-612.876398,814.226536,10288.862594
153.958645,-612.876398,888.247130,10214.842000
153.958953,-229.828649,296.082377,10140.821405
153.959261,-383.047749,-0.000000,9918.759623
153.959569,-689.485948,296.082377,9918.759623
153.959877,-612.876398,-0.000000,9770.718434
153.960185,-229.828649,-0.000000,9548.656652
153.960493,76.609550,-222.061783,9400.615463
153.960801,612.876398,-74.020594,9474.636058
153.961109,766.095498,-666.185348,9400.615463
153.961417,1072.533697,-370.102971,9326.594869
153.961725,383.047749,-1110.308913,8882.471304
153.962032,612.876398,-1332.370696,9252.574275
153.962340,842.705048,-1110.308913,9252.574275
153.962648,1072.533697,-1110.308913,9104.533087
153.962956,1149.143247,-962.267725,8734.430116
153.963264,1302.362347,-740.205942,8660.409521
153.963572,1225.752797,-592.164754,8956.491898
153.963880,1225.752797,-444.123565,9252.574275
153.964188,1302.362347,-148.041188,8882.471304
153.964496,1455.581446,-296.082377,9474.636058
153.964804,842.705048,-0.000000,9252.574275
153.965112,842.705048,-0.000000,9696.697840
153.965420,919.314598,518.144159,9770.718434
153.965728,1149.143247,296.082377,9622.677246
153.966036,1532.190996,1184.329507,9696.697840
153.966344,1991.848295,1184.329507,9548.656652
153.966652,1532.190996,1924.535449,9326.594869
153.966960,1915.238745,1628.453072,9178.553681
153.967268,2068.457845,1702.473667,8956.491898
153.967576,1991.848295,1776.494261,8956.491898
153.967884,1455.581446,1628.453072,9326.594869
153.968192,1608.800546,1110.308913,9770.718434
153.968500,383.047749,888.247130,9992.780217
153.968808,229.828649,370.102971,10140.821405
153.969116,-919.314598,296.082377,10732.986159
153.969424,-1455.581446,-0.000000,11251.130318
153.969732,-1685.410096,-444.123565,11325.150913
153.970040,-1915.238745,-370.102971,11473.192101
153.970348,-1685.410096,-518.144159,11325.150913
153.970656,-1302.362347,-370.102971,11473.192101
153.970964,-1072.533697,-814.226536,10881.027347
153.971272,-689.485948,-814.226536,10584.944971
153.971580,0.000000,-148.041188,9992.780217
153.971888,76.609550,-296.082377,9622.677246
153.972195,766.095498,-222.061783,9326.594869
153.972503,1225.752797,-296.082377,8808.450710
153.972811,1302.362347,-0.000000,8364.327145
153.973119,2451.505594,-518.144159,8142.265362
153.973427,2604.724693,-666.185348,7994.224174
153.973735,2374.896044,-444.123565,7772.162391
153.974043,2604.724693,-74.020594,7550.100608
153.974351,2834.553343,-222.061783,7698.141797
153.974659,2451.505594,296.082377,7994.224174
153.974967,2451.505594,222.061783,8512.368333
153.975275,2145.067394,592.164754,8882.471304
153.975583,1991.848295,592.164754,8438.347739
153.975891,1762.019645,666.185348,9400.615463
153.976199,1225.752797,740.205942,9844.739029
153.976507,1302.362347,666.185348,10362.883188
153.976815,612.876398,740.205942,10066.800811
153.977123,153.219100,740.205942,10881.027347
153.977431,0.000000,666.185348,11103.089130
153.977739,0.000000,666.185348,11177.109724
153.978047,0.000000,740.205942,11325.150913
153.978355,0.000000,296.082377,11103.089130
153.978663,-383.047749,296.082377,11177.109724
153.978971,-153.219100,-0.000000,11103.089130
153.979279,-612.876398,518.144159,10881.027347
153.979587,-306.438199,592.164754,10362.883188
153.979895,-536.266849,592.164754,10362.883188
153.980203,-383.047749,814.226536,10066.800811
153.980511,-612.876398,814.226536,10288.862594
153.980819,-383.047749,1110.308913,9770.718434
153.981127,-689.485948,814.226536,9474.636058
153.981435,0.000000,1036.288319,9548.656652
153.981743,0.000000,740.205942,9104.533087
153.982051,306.438199,518.144159,8956.491898
153.982358,536.266849,-0.000000,8882.471304
153.982666,383.047749,-0.000000,8956.491898
153.982974,1072.533697,-666.185348,9104.533087
153.983282,1378.971896,-1184.329507,9178.553681
153.983590,612.876398,-1184.329507,9178.553681
153.983898,689.485948,-1406.391290,9474.636058
153.984206,842.705048,-1776.494261,9326.594869
153.984514,995.924147,-1702.473667,9474.636058
153.984822,919.314598,-1850.514855,9548.656652
153.985130,1225.752797,-1406.391290,9474.636058
153.985438,919.314598,-888.247130,9474.636058
153.985746,1149.143247,-592.164754,9326.594869
153.986054,1149.143247,-518.144159,9474.636058
153.986362,1302.362347,-370.102971,9548.656652
153.986670,1302.362347,74.020594,9622.677246
153.986978,1378.971896,148.041188,9474.636058
153.987286,1532.190996,370.102971,9696.697840
153.987594,1762.019645,962.267725,9622.677246
153.987902,1991.848295,888.247130,9474.636058
153.988210,2145.067394,1406.391290,8734.430116
153.988518,2298.286494,2072.576638,9252.574275
153.988826,2068.457845,2294.638420,9326.594869
153.989134,2374.896044,2368.659014,8808.450710
153.989442,2451.505594,2664.741391,8734.430116
153.989750,2221.676944,2442.679609,8660.409521
153.990058,1838.629195,2294.638420,9252.574275
153.990366,1072.533697,1998.556043,10066.800811
153.990674,306.438199,1184.329507,9992.780217
153.990982,0.000000,888.247130,10362.883188
153.991290,-842.705048,740.205942,11177.109724
153.991598,-1762.019645,-148.041188,11473.192101
153.991906,-2145.067394,-740.205942,11843.295072
153.992214,-2298.286494,-888.247130,11473.192101
153.992521,-1762.019645,-1036.288319,11399.171507
153.992829,-995.924147,-1258.350101,10881.027347
153.993137,-689.485948,-1036.288319,11103.089130
153.993445,0.000000,-1036.288319,10140.821405
153.993753,689.485948,-962.267725,9252.574275
153.994061,995.924147,-740.205942,8882.471304
153.994369,1378.971896,-814.226536,8660.409521
153.994677,1915.238745,-666.185348,8438.347739
153.994985,2528.115143,-518.144159,7698.141797
153.995293,2451.505594,-740.205942,7476.080014
153.995601,2987.772442,-592.164754,7476.080014
153.995909,2604.724693,-666.185348,8142.265362
153.996217,2451.505594,-296.082377,7698.141797
153.996525,2221.676944,-444.123565,7698.141797
153.996833,2068.457845,-0.000000,8142.265362
153.997141,1915.238745,296.082377,8512.368333
153.997449,1608.800546,296.082377,8734.430116
153.997757,1378.971896,592.164754,8660.409521
153.998065,842.705048,592.164754,9474.636058
153.998373,689.485948,444.123565,9918.759623
153.998681,0.000000,666.185348,10436.903782
153.998989,-153.219100,370.102971,10658.965565
153.999297,-536.266849,444.123565,10881.027347
153.999605,-536.266849,518.144159,11029.068536
153.999913,-459.657299,592.164754,11325.150913
154.000221,-459.657299,592.164754,11029.068536
154.000529,153.219100,1110.308913,10881.027347
154.000837,-459.657299,1036.288319,10510.924376
154.001145,0.000000,666.185348,10214.842000
154.001453,76.609550,1258.350101,10214.842000
154.001761,0.000000,1480.411884,9918.759623
154.002069,76.609550,1332.370696,9696.697840
154.002377,0.000000,1258.350101,9622.677246
154.002684,-229.828649,1406.391290,9474.636058
154.002992,-306.438199,1406.391290,9770.718434
154.003300,-766.095498,888.247130,9696.697840
154.003608,-306.438199,444.123565,9770.718434
154.003916,-536.266849,-0.000000,9844.739029
154.004224,-612.876398,-518.144159,10362.883188
154.004532,-612.876398,-888.247130,10140.821405
154.004840,-383.047749,-962.267725,9918.759623
154.005148,-383.047749,-1480.411884,10288.862594
154.005456,-689.485948,-1480.411884,10214.842000
154.005764,689.485948,-1776.494261,9696.697840
154.006072,383.047749,-1480.411884,9548.656652
154.006380,536.266849,-1480.411884,9400.615463
154.006688,1149.143247,-1110.308913,9400.615463
154.006996,1149.143247,-888.247130,9104.533087
154.007304,1608.800546,-518.144159,8956.491898
154.007612,1608.800546,-592.164754,9030.512492
154.007920,1838.629195,-74.020594,9030.512492
154.008228,1762.019645,-0.000000,9252.574275
154.008536,1762.019645,370.102971,9030.512492
154.008844,1838.629195,666.185348,8882.471304
154.009152,1991.848295,962.267725,8882.471304
154.009460,1838.629195,1036.288319,9104.533087
154.009768,2298.286494,1332.370696,8956.491898
154.010076,2374.896044,1480.411884,9030.512492
154.010384,2298.286494,1776.494261,9104.533087
154.010692,2528.115143,2294.638420,9326.594869
154.011000,2068.457845,2072.576638,9326.594869
154.011308,2068.457845,2146.597232,9252.574275
154.011616,1762.019645,2220.617826,9474.636058
154.011924,1455.581446,1850.514855,9326.594869
154.012231,842.705048,1776.494261,9696.697840
154.012539,766.095498,1110.308913,10288.862594
154.012847,459.657299,888.247130,10732.986159
154.013155,306.438199,444.123565,10955.047942
154.013463,-612.876398,296.082377,11029.068536
154.013771,-995.924147,-148.041188,11325.150913
154.014079,-1378.971896,-592.164754,11769.274478
154.014387,-1455.581446,-740.205942,11473.192101
154.014695,-1532.190996,-592.164754,11473.192101
154.015003,-842.705048,-1184.329507,10732.986159
154.015311,-383.047749,-888.247130,10732.986159
154.015619,0.000000,-1184.329507,9696.697840
154.015927,689.485948,-814.226536,9252.574275
154.016235,995.924147,-888.247130,8956.491898
154.016543,1608.800546,-888.247130,8660.409521
154.016851,1991.848295,-592.164754,8290.306550
154.017159,1838.629195,-814.226536,8068.244768
154.017467,2298.286494,-888.247130,7624.121203
154.017775,2221.676944,-666.185348,8068.244768
154.018083,2221.676944,-666.185348,7994.224174
154.018390,2145.067394,-74.020594,7698.141797
154.018698,2221.676944,222.061783,7846.182985
154.019006,1762.019645,518.144159,8142.265362
154.019314,1685.410096,592.164754,8586.388927
154.019622,1455.581446,444.123565,8808.450710
154.019930,1225.752797,592.164754,9326.594869
154.020238,383.047749,370.102971,9844.739029
154.020546,153.219100,666.185348,10214.842000
154.020854,0.000000,592.164754,10584.944971
154.021162,-536.266849,444.123565,10658.965565
154.021470,-536.266849,962.267725,10955.047942
154.021778,-612.876398,740.205942,11251.130318
154.022086,-612.876398,222.061783,10955.047942
154.022394,-459.657299,962.267725,10955.047942
154.022702,0.000000,666.185348,11177.109724
154.023010,-153.219100,666.185348,10584.944971
154.023318,-153.219100,1258.350101,10436.903782
154.023626,229.828649,1184.329507,10066.800811
154.023934,76.609550,1480.411884,9770.718434
154.024241,76.609550,1258.350101,9770.718434
154.024549,229.828649,1332.370696,9622.677246
154.024857,0.000000,962.267725,9696.697840
154.025165,0.000000,518.144159,9474.636058
154.025473,0.000000,518.144159,9992.780217
154.025781,-459.657299,-0.000000,9622.677246
154.026089,-842.705048,-370.102971,9992.780217
154.026397,-689.485948,-518.144159,10140.821405
154.026705,-689.485948,-1036.288319,10066.800811
154.027013,-689.485948,-1406.391290,9992.780217
154.027321,0.000000,-1184.329507,9918.759623
154.027629,0.000000,-1850.514855,9622.677246
154.027937,0.000000,-1850.514855,9474.636058
154.028245,459.657299,-1554.432478,9474.636058
154.028553,612.876398,-1554.432478,9326.594869
154.028861,842.705048,-1480.411884,9326.594869
154.029169,1149.143247,-1110.308913,9178.553681
154.029477,1072.533697,-888.247130,9104.533087
154.029785,1762.019645,-74.020594,8956.491898
154.030092,2221.676944,-222.061783,8438.347739
154.030400,2068.457845,-0.000000,8512.368333
154.030708,2068.457845,518.144159,8660.409521
154.031016,2068.457845,814.226536,8512.368333
154.031324,2068.457845,1110.308913,8586.388927
154.031632,1915.238745,1184.329507,8882.471304
154.031940,1762.019645,1184.329507,9400.615463
154.032248,1762.019645,2072.576638,9474.636058
154.032556,2145.067394,1998.556043,9474.636058
154.032864,1915.238745,1554.432478,9474.636058
154.033172,1762.019645,1998.556043,9474.636058
154.033480,1685.410096,1924.535449,9548.656652
154.033788,1685.410096,1776.494261,9474.636058
154.034096,1455.581446,1480.411884,9696.697840
154.034404,919.314598,1628.453072,10066.800811
154.034712,995.924147,1036.288319,10288.862594
154.035020,153.219100,592.164754,10510.924376
154.035328,0.000000,740.205942,10807.006753
154.035636,-842.705048,-0.000000,10881.027347
154.035944,-1072.533697,-148.041188,11325.150913
154.036251,-1149.143247,-592.164754,11177.109724
154.036559,-1225.752797,-518.144159,11103.089130
154.036867,-1149.143247,-666.185348,10807.006753
154.037175,-383.047749,-740.205942,10362.883188
154.037483,-306.438199,-1110.308913,10066.800811
154.037791,459.657299,-592.164754,9696.697840
154.038099,536.266849,-518.144159,9400.615463
154.038407,919.314598,-740.205942,8882.471304
154.038715,1302.362347,-666.185348,8882.471304
154.039023,1455.581446,-962.267725,8512.368333
154.039331,1991.848295,-888.247130,8512.368333
154.039639,2145.067394,-740.205942,8216.285956
154.039947,2451.505594,-1036.288319,7772.162391
154.040255,2374.896044,-296.082377,7550.100608
154.040563,2145.067394,-0.000000,7920.203579
154.040871,2298.286494,296.082377,7846.182985
154.041179,2068.457845,444.123565,8068.244768
154.041487,1685.410096,518.144159,8512.368333
154.041795,1762.019645,740.205942,9252.574275
154.042102,919.314598,370.102971,9548.656652
154.042410,306.438199,518.144159,10140.821405
154.042718,0.000000,518.144159,10436.903782
154.043026,-459.657299,444.123565,10881.027347
154.043334,-459.657299,444.123565,11177.109724
154.043642,-306.438199,666.185348,11177.109724
154.043950,153.219100,740.205942,10881.027347
154.044258,0.000000,888.247130,11103.089130
154.044566,153.219100,962.267725,10362.883188
154.044874,689.485948,1184.329507,10584.944971
154.045182,383.047749,1554.432478,9548.656652
154.045490,842.705048,1702.473667,9696.697840
154.045798,842.705048,1702.473667,9548.656652
154.046106,766.095498,1628.453072,9474.636058
154.046414,306.438199,1628.453072,9622.677246
154.046722,0.000000,1110.308913,9992.780217
154.047030,0.000000,518.144159,9918.759623
154.047338,-1149.143247,-0.000000,10214.842000
154.047646,-689.485948,-0.000000,10436.903782
154.047954,-995.924147,-296.082377,10214.842000
154.048261,-1225.752797,-370.102971,10214.842000
154.048569,-995.924147,-740.205942,10140.821405
154.048877,-1149.143247,-814.226536,9992.780217
154.049185,-306.438199,-1554.432478,9770.718434
154.049493,-612.876398,-1850.514855,9474.636058
154.049801,229.828649,-1406.391290,9992.780217
154.050109,153.219100,-1702.473667,9696.697840
154.050417,383.047749,-1554.432478,9326.594869
154.050725,536.266849,-1554.432478,9178.553681
154.051033,919.314598,-1480.411884,9178.553681
154.051341,1378.971896,-1258.350101,8882.471304
154.051649,1455.581446,-740.205942,8364.327145
154.051957,1532.190996,-370.102971,8808.450710
154.052265,1991.848295,-0.000000,8364.327145
154.052573,2451.505594,518.144159,8068.244768
154.052881,2145.067394,888.247130,8364.327145
154.053189,2298.286494,1184.329507,8290.306550
154.053497,2374.896044,1184.329507,8290.306550
154.053805,1608.800546,1258.350101,8808.450710
154.054112,1762.019645,962.267725,8882.471304
154.054420,1455.581446,1184.329507,9474.636058
154.054728,1838.629195,1332.370696,9696.697840
154.055036,1378.971896,1258.350101,10066.800811
154.055344,919.314598,1554.432478,9992.780217
154.055652,1225.752797,1480.411884,9992.780217
154.055960,919.314598,1406.391290,10140.821405
154.056268,1072.533697,1332.370696,10288.862594
154.056576,689.485948,1332.370696,10140.821405
154.056884,459.657299,1406.391290,10140.821405
154.057192,995.924147,666.185348,10510.924376
154.057500,-229.828649,666.185348,10584.944971
154.057808,-383.047749,444.123565,10584.944971
154.058116,-689.485948,148.041188,10955.047942
154.058424,-1072.533697,-74.020594,10955.047942
154.058732,-766.095498,-222.061783,10881.027347
154.059040,-1302.362347,-444.123565,10807.006753
154.059348,-1149.143247,-444.123565,11103.089130
154.059656,-842.705048,-666.185348,9844.739029
154.059964,383.047749,-222.061783,10066.800811
154.060271,459.657299,-444.123565,9400.615463
154.060579,995.924147,-518.144159,9252.574275
154.060887,1302.362347,-518.144159,8734.430116
154.061195,1838.629195,-592.164754,8660.409521
154.061503,1991.848295,-740.205942,8660.409521
154.061811,2068.457845,-444.123565,8068.244768
154.062119,1532.190996,-592.164754,8290.306550
154.062427,2451.505594,-370.102971,8216.285956
154.062735,2221.676944,-370.102971,7920.203579
154.063043,1915.238745,-0.000000,7994.224174
154.063351,2068.457845,-0.000000,8290.306550
154.063659,1608.800546,-0.000000,8734.430116
154.063967,1302.362347,148.041188,9474.636058
154.064275,1149.143247,-0.000000,9400.615463
154.064583,612.876398,296.082377,9622.677246
154.064891,689.485948,370.102971,9992.780217
154.065199,383.047749,370.102971,10214.842000
154.065507,153.219100,518.144159,10510.924376
154.065815,229.828649,962.267725,10584.944971
154.066122,153.219100,888.247130,10362.883188
154.066430,612.876398,444.123565,10658.965565
154.066738,766.095498,1036.288319,9918.759623
154.067046,766.095498,1628.453072,10288.862594
154.067354,689.485948,1480.411884,9844.739029
154.067662,689.485948,1554.432478,10066.800811
154.067970,612.876398,1406.391290,9844.739029
154.068278,153.219100,1332.370696,9770.718434
154.068586,306.438199,740.205942,9770.718434
154.068894,-306.438199,592.164754,9918.759623
154.069202,-1072.533697,814.226536,10066.800811
154.069510,-689.485948,-0.000000,10140.821405
154.069818,-995.924147,370.102971,9992.780217
154.070126,-995.924147,-74.020594,10066.800811
154.070434,-995.924147,-296.082377,10288.862594
154.070742,-995.924147,-444.123565,10436.903782
154.071050,-689.485948,-1480.411884,10066.800811
154.071358,-536.266849,-1258.350101,9918.759623
154.071666,-383.047749,-1554.432478,9992.780217
154.071974,76.609550,-1628.453072,9622.677246
154.072281,306.438199,-1554.432478,9696.697840
154.072589,689.485948,-1554.432478,9178.553681
154.072897,842.705048,-1332.370696,9104.533087
154.073205,995.924147,-1258.350101,8882.471304
154.073513,1455.581446,-1184.329507,8586.388927
154.073821,1915.238745,-666.185348,8512.368333
154.074129,2068.457845,-0.000000,8142.265362
154.074437,1915.238745,148.041188,8512.368333
154.074745,2068.457845,814.226536,8364.327145
154.075053,2298.286494,740.205942,8512.368333
154.075361,1915.238745,888.247130,8438.347739
154.075669,1838.629195,814.226536,8808.450710
154.075977,1608.800546,666.185348,9474.636058
154.076285,1302.362347,444.123565,9548.656652
154.076593,995.924147,962.267725,9622.677246
154.076901,1149.143247,1406.391290,9992.780217
154.077209,1378.971896,1258.350101,10066.800811
154.077517,1302.362347,1480.411884,10066.800811
154.077825,1302.362347,1702.473667,10066.800811
154.078132,1378.971896,1850.514855,9992.780217
154.078440,1532.190996,1480.411884,9918.759623
154.078748,919.314598,1850.514855,10288.862594
154.079056,1302.362347,1184.329507,10140.821405
154.079364,689.485948,1554.432478,9696.697840
154.079672,0.000000,740.205942,10584.944971
154.079980,-459.657299,592.164754,10436.903782
154.080288,-919.314598,444.123565,10732.986159
154.080596,-1149.143247,-148.041188,10807.006753
154.080904,-1149.143247,-444.123565,10807.006753
154.081212,-1225.752797,-592.164754,10584.944971
154.081520,-1225.752797,-814.226536,10510.924376
154.081828,-1149.143247,-592.164754,10510.924376
154.082136,-383.047749,-814.226536,9918.759623
154.082444,306.438199,-1036.288319,9474.636058
154.082752,459.657299,-1184.329507,9178.553681
154.083060,766.095498,-1036.288319,9030.512492
154.083368,1072.533697,-1110.308913,9178.553681
154.083676,1838.629195,-1110.308913,8512.368333
154.083983,2451.505594,-962.267725,8290.306550
154.084291,1608.800546,-962.267725,7920.203579
154.084599,2145.067394,-740.205942,7846.182985
154.084907,2068.457845,-148.041188,7698.141797
154.085215,2068.457845,-0.000000,7920.203579
154.085523,1991.848295,-74.020594,8142.265362
154.085831,1915.238745,-0.000000,8660.409521
154.086139,1608.800546,-0.000000,8808.450710
154.086447,919.314598,444.123565,9178.553681
154.086755,1149.143247,296.082377,9548.656652
154.087063,536.266849,592.164754,9844.739029
154.087371,536.266849,666.185348,10288.862594
154.087679,229.828649,592.164754,10288.862594
154.087987,76.609550,592.164754,10584.944971
154.088295,306.438199,592.164754,10584.944971
154.088603,0.000000,1554.432478,10658.965565
154.088911,383.047749,814.226536,10658.965565
154.089219,0.000000,1184.329507,10140.821405
154.089527,766.095498,1406.391290,10214.842000
154.089835,689.485948,1850.514855,9918.759623
154.090142,612.876398,1332.370696,9696.697840
154.090450,383.047749,1776.494261,9918.759623
154.090758,153.219100,1406.391290,9622.677246
154.091066,-383.047749,962.267725,9918.759623
154.091374,-689.485948,740.205942,10362.883188
154.091682,-919.314598,222.061783,10140.821405
154.091990,-919.314598,-0.000000,10436.903782
154.092298,-1302.362347,-74.020594,10436.903782
154.092606,-1302.362347,-370.102971,10510.924376
154.092914,-995.924147,-740.205942,10510.924376
154.093222,-766.095498,-888.247130,10510.924376
154.093530,0.000000,-1184.329507,10362.883188
154.093838,-229.828649,-1406.391290,10214.842000
154.094146,153.219100,-1036.288319,9696.697840
154.094454,842.705048,-962.267725,9474.636058
154.094762,1378.971896,-1258.350101,9030.512492
154.095070,1378.971896,-888.247130,8956.491898
154.095378,2068.457845,-1110.308913,8734.430116
154.095686,1838.629195,-888.247130,8882.471304
154.095993,1608.800546,-444.123565,8586.388927
154.096301,2145.067394,-222.061783,8734.430116
154.096609,2145.067394,-0.000000,8290.306550
154.096917,2145.067394,296.082377,8364.327145
154.097225,1608.800546,444.123565,8808.450710
154.097533,1608.800546,370.102971,9104.533087
154.097841,1838.629195,592.164754,9104.533087
154.098149,1302.362347,518.144159,9474.636058
154.098457,1762.019645,962.267725,9696.697840
154.098765,1072.533697,1406.391290,9622.677246
154.099073,1455.581446,1776.494261,9844.739029
154.099381,1608.800546,1924.535449,9474.636058
154.099689,1762.019645,1776.494261,9252.574275
154.099997,1838.629195,1924.535449,9400.615463
154.100305,2604.724693,1702.473667,9474.636058
154.100613,1915.238745,1924.535449,9622.677246
154.100921,1532.190996,1332.370696,9252.574275
154.101229,919.314598,1332.370696,9992.780217
154.101537,459.657299,1036.288319,10362.883188
154.101845,0.000000,740.205942,10436.903782
154.102152,-689.485948,592.164754,10658.965565
154.102460,-842.705048,-0.000000,10658.965565
154.102768,-995.924147,-296.082377,10955.047942
154.103076,-1072.533697,-296.082377,11029.068536
154.103384,-1378.971896,-1184.329507,11177.109724
154.103692,-1072.533697,-1110.308913,10510.924376
154.104000,-459.657299,-1036.288319,10436.903782
154.104308,-536.266849,-1036.288319,10066.800811
154.104616,153.219100,-1258.350101,9548.656652
154.104924,383.047749,-1184.329507,9252.574275
154.105232,766.095498,-1554.432478,8956.491898
154.105540,1378.971896,-1554.432478,8734.430116
154.105848,1378.971896,-1258.350101,8438.347739
154.106156,1685.410096,-888.247130,8142.265362
154.106464,2145.067394,-592.164754,7698.141797
154.106772,2145.067394,-370.102971,7624.121203
154.107080,2145.067394,-74.020594,7772.162391
154.107388,1915.238745,-222.061783,7846.182985
154.107696,2145.067394,296.082377,8512.368333
154.108003,1762.019645,-0.000000,8290.306550
154.108311,1532.190996,370.102971,9178.553681
154.108619,1072.533697,-0.000000,9474.636058
154.108927,612.876398,518.144159,9696.697840
154.109235,0.000000,444.123565,9918.759623
154.109543,0.000000,592.164754,10436.903782
154.109851,0.000000,592.164754,10658.965565
154.110159,306.438199,296.082377,10658.965565
154.110467,0.000000,1258.350101,10510.924376
154.110775,459.657299,1184.329507,10510.924376
154.111083,153.219100,814.226536,10510.924376
154.111391,612.876398,1480.411884,10362.883188
154.111699,766.095498,1776.494261,10288.862594
154.112007,383.047749,1776.494261,9770.718434
154.112315,689.485948,1628.453072,9992.780217
154.112623,306.438199,1480.411884,10066.800811
154.112931,229.828649,1258.350101,10510.924376
154.113239,0.000000,1480.411884,10288.862594
154.113546,-459.657299,592.164754,10066.800811
154.113854,-919.314598,370.102971,10288.862594
154.114162,-1072.533697,-0.000000,10510.924376
154.114470,-1149.143247,-148.041188,10288.862594
154.114778,-995.924147,-296.082377,10362.883188
154.115086,-459.657299,-740.205942,10140.821405
154.115394,-766.095498,-814.226536,10362.883188
154.115702,-459.657299,-962.267725,9992.780217
154.116010,76.609550,-1480.411884,10214.842000
154.116318,306.438199,-1406.391290,9770.718434
154.116626,612.876398,-1480.411884,9474.636058
154.116934,766.095498,-1406.391290,9400.615463
154.117242,1072.533697,-1184.329507,9030.512492
154.117550,1915.238745,-888.247130,9104.533087
154.117858,1762.019645,-888.247130,8808.450710
154.118166,2145.067394,-740.205942,8660.409521
154.118474,2681.334243,-592.164754,8438.347739
154.118781,2221.676944,-0.000000,8438.347739
154.119089,1915.238745,370.102971,8364.327145
154.119397,1991.848295,666.185348,8364.327145
154.119705,1915.238745,888.247130,8808.450710
154.120013,1608.800546,888.247130,9178.553681
154.120321,1762.019645,814.226536,9030.512492
154.120629,2145.067394,740.205942,9400.615463
154.120937,1838.629195,1036.288319,9326.594869
154.121245,1991.848295,1628.453072,9474.636058
154.121553,1838.629195,1702.473667,9474.636058
154.121861,1838.629195,1628.453072,9474.636058
154.122169,1762.019645,1850.514855,9474.636058
154.122477,1915.238745,1776.494261,9770.718434
154.122785,2298.286494,1480.411884,9918.759623
154.123093,1225.752797,1554.432478,9548.656652
154.123401,1455.581446,1480.411884,9770.718434
154.123709,459.657299,1036.288319,9992.780217
154.124016,153.219100,740.205942,10288.862594
154.124324,-612.876398,222.061783,10732.986159
154.124632,-995.924147,-0.000000,10881.027347
154.124940,-919.314598,-518.144159,10955.047942
154.125248,-1608.800546,-888.247130,11177.109724
154.125556,-1225.752797,-1110.308913,10881.027347
154.125864,-1302.362347,-1406.391290,10362.883188
154.126172,-689.485948,-962.267725,10214.842000
154.126480,-306.438199,-1036.288319,9770.718434
154.126788,306.438199,-962.267725,9400.615463
154.127096,459.657299,-1036.288319,9030.512492
154.127404,995.924147,-740.205942,9104.533087
154.127712,995.924147,-814.226536,8512.368333
154.128020,1378.971896,-888.247130,8142.265362
154.128328,1915.238745,-1036.288319,7698.141797
154.128636,1838.629195,-518.144159,7846.182985
154.128944,1838.629195,-666.185348,8142.265362
154.129251,1532.190996,-370.102971,7994.224174
154.129559,1455.581446,-74.020594,8438.347739
154.129867,1225.752797,-148.041188,8290.306550
154.130175,1225.752797,222.061783,8882.471304
154.130483,612.876398,148.041188,8882.471304
154.130791,766.095498,-0.000000,9474.636058
154.131099,229.828649,666.185348,9474.636058
154.131407,0.000000,666.185348,9918.759623
154.131715,76.609550,666.185348,10288.862594
154.132023,0.000000,740.205942,10584.944971
154.132331,76.609550,592.164754,10732.986159
154.132639,383.047749,1332.370696,10658.965565
154.132947,306.438199,740.205942,10140.821405
154.133255,306.438199,962.267725,10510.924376
154.133563,229.828649,1258.350101,10362.883188
154.133871,383.047749,1406.391290,10288.862594
154.134179,536.266849,1776.494261,10288.862594
154.134486,536.266849,1628.453072,10214.842000
154.134794,919.314598,1628.453072,10288.862594
154.135102,153.219100,1554.432478,10214.842000
154.135410,0.000000,1406.391290,9918.759623
154.135718,-306.438199,888.247130,9844.739029
154.136026,-459.657299,814.226536,10362.883188
154.136334,-1149.143247,444.123565,10362.883188
154.136642,-1149.143247,-222.061783,10288.862594
154.136950,-1072.533697,-222.061783,10510.924376
154.137258,-1378.971896,-888.247130,10362.883188
154.137566,-612.876398,-888.247130,10510.924376
154.137874,-612.876398,-888.247130,10584.944971
154.138182,-153.219100,-1406.391290,9918.759623
154.138490,76.609550,-1480.411884,9770.718434
154.138798,459.657299,-1554.432478,9696.697840
154.139106,689.485948,-1554.432478,9326.594869
154.139414,536.266849,-1554.432478,9178.553681
154.139721,1378.971896,-1184.329507,9252.574275
154.140029,1685.410096,-1258.350101,8734.430116
154.140337,2068.457845,-962.267725,8364.327145
154.140645,2298.286494,-74.020594,8290.306550
154.140953,2451.505594,-0.000000,8068.244768
154.141261,2451.505594,518.144159,8142.265362
154.141569,2681.334243,814.226536,8290.306550
154.141877,2451.505594,1110.308913,8290.306550
154.142185,2145.067394,370.102971,8438.347739
154.142493,2221.676944,1258.350101,8660.409521
154.142801,2068.457845,814.226536,8808.450710
154.143109,1685.410096,814.226536,9474.636058
154.143417,1455.581446,1258.350101,9474.636058
154.143725,1225.752797,1406.391290,9696.697840
154.144033,1149.143247,1184.329507,9770.718434
154.144341,1149.143247,1628.453072,9918.759623
154.144649,1532.190996,1406.391290,9918.759623
154.144956,1302.362347,1258.350101,10362.883188
154.145264,1532.190996,1554.432478,10140.821405
154.145572,766.095498,1332.370696,10066.800811
154.145880,229.828649,1110.308913,10288.862594
154.146188,153.219100,888.247130,10362.883188
154.146496,-229.828649,592.164754,10510.924376
154.146804,-459.657299,148.041188,10658.965565
154.147112,-689.485948,-222.061783,10732.986159
154.147420,-536.266849,-444.123565,10584.944971
154.147728,-689.485948,-592.164754,10510.924376
154.148036,-459.657299,-740.205942,10510.924376
154.148344,-383.047749,-740.205942,9918.759623
154.148652,0.000000,-814.226536,10066.800811
154.148960,153.219100,-740.205942,9252.574275
154.149268,766.095498,-888.247130,9252.574275
154.149576,1149.143247,-962.267725,8586.388927
154.149884,1072.533697,-814.226536,8734.430116
154.150191,1225.752797,-814.226536,9104.533087
154.150499,1378.971896,-814.226536,8660.409521
154.150807,1455.581446,-814.226536,8586.388927
154.151115,1532.190996,-740.205942,8364.327145
154.151423,1378.971896,-518.144159,8512.368333
154.151731,1455.581446,-444.123565,8586.388927
154.152039,1302.362347,-0.000000,8438.347739
154.152347,1455.581446,370.102971,8512.368333
154.152655,1532.190996,518.144159,8956.491898
154.152963,842.705048,444.123565,9400.615463
154.153271,689.485948,518.144159,9326.594869
154.153579,612.876398,814.226536,9696.697840
154.153887,306.438199,888.247130,9918.759623
154.154195,383.047749,1406.391290,10881.027347
154.154503,689.485948,962.267725,10288.862594
154.154811,383.047749,592.164754,10436.903782
154.155119,383.047749,962.267725,9918.759623
154.155427,306.438199,1332.370696,10584.944971
154.155734,459.657299,1184.329507,10436.903782
154.156042,536.266849,1554.432478,10288.862594
154.156350,459.657299,1554.432478,10066.800811
154.156658,766.095498,1406.391290,10288.862594
154.156966,612.876398,1924.535449,10288.862594
154.157274,153.219100,1110.308913,9696.697840
154.157582,229.828649,1332.370696,9844.739029
154.157890,-459.657299,1110.308913,10436.903782
154.158198,-995.924147,740.205942,10362.883188
154.158506,-1072.533697,296.082377,10436.903782
154.158814,-1149.143247,-222.061783,10510.924376
154.159122,-1302.362347,-0.000000,10732.986159
154.159430,-995.924147,-1036.288319,10881.027347
154.159738,-766.095498,-1184.329507,10584.944971
154.160046,-536.266849,-1184.329507,10658.965565
154.160354,-383.047749,-1702.473667,9918.759623
154.160662,-229.828649,-1554.432478,9918.759623
154.160969,383.047749,-1702.473667,9696.697840
154.161277,689.485948,-1554.432478,9400.615463
154.161585,1302.362347,-1332.370696,8882.471304
154.161893,1838.629195,-1554.432478,8438.347739
154.162201,2145.067394,-962.267725,8438.347739
154.162509,2374.896044,-592.164754,8216.285956
154.162817,2145.067394,-74.020594,7994.224174
154.163125,2451.505594,-0.000000,7994.224174
154.163433,2451.505594,666.185348,7846.182985
154.163741,2528.115143,666.185348,7994.224174
154.164049,2145.067394,740.205942,8290.306550
154.164357,2298.286494,888.247130,8734.430116
154.164665,2298.286494,1036.288319,9030.512492
154.164973,1762.019645,666.185348,9326.594869
154.165281,1302.362347,962.267725,9622.677246
154.165589,689.485948,1184.329507,9622.677246
154.165897,995.924147,1258.350101,9918.759623
154.166204,766.095498,1332.370696,10214.842000
154.166512,459.657299,962.267725,10288.862594
154.166820,919.314598,962.267725,10066.800811
154.167128,536.266849,740.205942,10436.903782
154.167436,1149.143247,962.267725,10214.842000
154.167744,459.657299,1258.350101,10510.924376
154.168052,383.047749,1258.350101,10362.883188
154.168360,229.828649,962.267725,10140.821405
154.168668,229.828649,1110.308913,10214.842000
154.168976,153.219100,370.102971,10066.800811
154.169284,76.609550,370.102971,10140.821405
154.169592,-459.657299,222.061783,10584.944971
154.169900,-459.657299,-222.061783,10584.944971
154.170208,-766.095498,-222.061783,10214.842000
154.170516,-612.876398,-592.164754,9992.780217
154.170824,-459.657299,-592.164754,10140.821405
154.171132,0.000000,-962.267725,9622.677246
154.171439,536.266849,-814.226536,9696.697840
154.171747,0.000000,-962.267725,9326.594869
154.172055,1072.533697,-1110.308913,9252.574275
154.172363,1225.752797,-962.267725,9400.615463
154.172671,1378.971896,-814.226536,8808.450710
154.172979,1225.752797,-1036.288319,8586.388927
154.173287,1532.190996,-592.164754,8660.409521
154.173595,1149.143247,-666.185348,8734.430116
154.173903,1072.533697,-592.164754,8734.430116
154.174211,995.924147,-74.020594,9104.533087
154.174519,1532.190996,-0.000000,8808.450710
154.174827,1072.533697,-0.000000,8956.491898
154.175135,1532.190996,666.185348,8882.471304
154.175443,1149.143247,888.247130,9104.533087
154.175751,1302.362347,888.247130,9326.594869
154.176059,1072.533697,1036.288319,9474.636058
154.176367,536.266849,1110.308913,9622.677246
154.176674,689.485948,1184.329507,9992.780217
154.176982,842.705048,1184.329507,10140.821405
154.177290,383.047749,1184.329507,9918.759623
154.177598,383.047749,1110.308913,10510.924376
154.177906,306.438199,1258.350101,10510.924376
154.178214,383.047749,1184.329507,10362.883188
154.178522,689.485948,1480.411884,10288.862594
154.178830,612.876398,1258.350101,10066.800811
154.179138,766.095498,1110.308913,9474.636058
154.179446,229.828649,1184.329507,9770.718434
154.179754,153.219100,1036.288319,9992.780217
154.180062,0.000000,962.267725,10066.800811
154.180370,-383.047749,592.164754,10140.821405
154.180678,-995.924147,370.102971,10288.862594
154.180986,-1225.752797,-0.000000,10362.883188
154.181294,-995.924147,-444.123565,10510.924376
154.181602,-1455.581446,-814.226536,10658.965565
154.181909,-1302.362347,-1110.308913,10510.924376
154.182217,-995.924147,-1110.308913,10732.986159
154.182525,-306.438199,-1332.370696,10288.862594
154.182833,0.000000,-1554.432478,9918.759623
154.183141,229.828649,-1628.453072,9474.636058
154.183449,1072.533697,-1258.350101,9252.574275
154.183757,1455.581446,-1628.453072,8882.471304
154.184065,1532.190996,-888.247130,8660.409521
154.184373,1608.800546,-592.164754,8586.388927
154.184681,2221.676944,-222.061783,7994.224174
154.184989,2451.505594,-0.000000,7772.162391
154.185297,2451.505594,296.082377,7772.162391
154.185605,2221.676944,518.144159,7476.080014
154.185913,2374.896044,814.226536,7920.203579
154.186221,2374.896044,814.226536,8216.285956
154.186529,2298.286494,1184.329507,8438.347739
154.186837,1685.410096,962.267725,8734.430116
154.187144,1455.581446,814.226536,9474.636058
154.187452,1072.533697,814.226536,9548.656652
154.187760,536.266849,962.267725,10214.842000
154.188068,612.876398,814.226536,10214.842000
154.188376,536.266849,888.247130,10362.883188
154.188684,919.314598,888.247130,10881.027347
154.188992,306.438199,1184.329507,10658.965565
154.189300,1149.143247,888.247130,9992.780217
154.189608,536.266849,1036.288319,10140.821405
154.189916,612.876398,1258.350101,10362.883188
154.190224,459.657299,1332.370696,10288.862594
154.190532,229.828649,1332.370696,10140.821405
154.190840,383.047749,1036.288319,9622.677246
154.191148,229.828649,814.226536,9918.759623
154.191456,0.000000,148.041188,10214.842000
154.191764,0.000000,222.061783,10288.862594
154.192072,-536.266849,-74.020594,10140.821405
154.192379,-842.705048,-444.123565,10140.821405
154.192687,-995.924147,-444.123565,10214.842000
154.192995,-612.876398,-814.226536,10362.883188
154.193303,-229.828649,-962.267725,9992.780217
154.193611,0.000000,-1184.329507,9696.697840
154.193919,536.266849,-1110.308913,9696.697840
154.194227,459.657299,-1480.411884,9326.594869
154.194535,612.876398,-1036.288319,9252.574275
154.194843,1149.143247,-740.205942,8882.471304
154.195151,1378.971896,-666.185348,8512.368333
154.195459,1455.581446,-666.185348,8438.347739
154.195767,1762.019645,-296.082377,8364.327145
154.196075,1378.971896,-296.082377,8216.285956
154.196383,1685.410096,-222.061783,8216.285956
154.196691,1762.019645,-0.000000,8734.430116
154.196999,1455.581446,296.082377,8808.450710
154.197307,919.314598,222.061783,8956.491898
154.197614,1225.752797,444.123565,9252.574275
154.197922,919.314598,740.205942,9474.636058
154.198230,995.924147,666.185348,9770.718434
154.198538,689.485948,592.164754,10140.821405
154.198846,766.095498,666.185348,9918.759623
154.199154,1378.971896,962.267725,10288.862594
154.199462,612.876398,962.267725,10362.883188
154.199770,842.705048,1110.308913,10436.903782
154.200078,842.705048,1258.350101,9992.780217
154.200386,919.314598,1480.411884,10066.800811
154.200694,1455.581446,888.247130,9474.636058
154.201002,842.705048,1480.411884,9696.697840
154.201310,842.705048,1332.370696,10140.821405
154.201618,383.047749,1258.350101,10362.883188
154.201926,76.609550,1184.329507,9918.759623
154.202234,-383.047749,888.247130,10066.800811
154.202542,-689.485948,592.164754,10362.883188
154.202849,-1072.533697,222.061783,10510.924376
154.203157,-1302.362347,-74.020594,11029.068536
154.203465,-1225.752797,-222.061783,10807.006753
154.203773,-766.095498,-666.185348,11029.068536
154.204081,-1149.143247,-962.267725,11103.089130
154.204389,-1149.143247,-1110.308913,10362.883188
154.204697,-536.266849,-1258.350101,10214.842000
154.205005,76.609550,-1332.370696,9622.677246
154.205313,612.876398,-1406.391290,9252.574275
154.205621,1302.362347,-1406.391290,9474.636058
154.205929,1225.752797,-1332.370696,8734.430116
154.206237,1685.410096,-1184.329507,8364.327145
154.206545,1838.629195,-740.205942,8438.347739
154.206853,2221.676944,-740.205942,8068.244768
154.207161,2374.896044,-0.000000,7920.203579
154.207469,2528.115143,444.123565,7772.162391
154.207777,2374.896044,592.164754,7846.182985
154.208084,2068.457845,1184.329507,8068.244768
154.208392,2604.724693,962.267725,8734.430116
154.208700,2298.286494,740.205942,8734.430116
154.209008,1149.143247,1332.370696,8956.491898
154.209316,1378.971896,814.226536,9918.759623
154.209624,842.705048,962.267725,9770.718434
154.209932,306.438199,740.205942,10362.883188
154.210240,536.266849,740.205942,10362.883188
154.210548,689.485948,666.185348,10732.986159
154.210856,229.828649,370.102971,10955.047942
154.211164,842.705048,814.226536,10362.883188
154.211472,229.828649,1036.288319,10510.924376
154.211780,1072.533697,1036.288319,9992.780217
154.212088,919.314598,1406.391290,9844.739029
154.212396,1149.143247,1776.494261,9696.697840
154.212704,919.314598,1850.514855,9696.697840
154.213012,536.266849,1702.473667,9474.636058
154.213320,229.828649,666.185348,9696.697840
154.213628,0.000000,740.205942,10436.903782
154.213936,-383.047749,-0.000000,9770.718434
154.214244,-995.924147,-222.061783,10510.924376
154.214553,-1455.581446,-444.123565,10510.924376
154.214861,-1532.190996,-666.185348,10584.944971
154.215169,-1072.533697,-962.267725,10732.986159
154.215477,-383.047749,-1628.453072,10584.944971
154.215785,-689.485948,-1184.329507,9770.718434
154.216093,306.438199,-1480.411884,9770.718434
154.216401,-76.609550,-888.247130,9548.656652
154.216709,842.705048,-1036.288319,9178.553681
154.217017,1225.752797,-888.247130,8956.491898
154.217325,1225.752797,-740.205942,8290.306550
154.217633,1762.019645,-444.123565,8364.327145
154.217941,1532.190996,-296.082377,8438.347739
154.218249,1378.971896,-222.061783,8290.306550
154.218557,1455.581446,-296.082377,8364.327145
154.218866,995.924147,-0.000000,8808.450710
154.219174,1149.143247,148.041188,8882.471304
154.219482,919.314598,296.082377,8808.450710
154.219790,1378.971896,666.185348,8882.471304
154.220098,842.705048,814.226536,9474.636058
154.220406,1149.143247,1110.308913,9696.697840
154.220714,1302.362347,666.185348,9400.615463
154.221022,842.705048,1332.370696,9844.739029
154.221330,919.314598,1184.329507,9992.780217
154.221638,612.876398,1036.288319,9992.780217
154.221946,536.266849,1184.329507,10362.883188
154.222254,536.266849,1036.288319,10140.821405
154.222562,1072.533697,1258.350101,9992.780217
154.222871,383.047749,1110.308913,10288.862594
154.223179,842.705048,962.267725,10214.842000
154.223487,306.438199,1036.288319,9770.718434
154.223795,229.828649,1110.308913,10140.821405
154.224103,0.000000,962.267725,10140.821405
154.224411,-229.828649,740.205942,10288.862594
154.224719,-536.266849,592.164754,10362.883188
154.225027,-536.266849,222.061783,10140.821405
154.225335,-689.485948,222.061783,10584.944971
154.225643,-1915.238745,-592.164754,10362.883188
154.225951,-995.924147,-444.123565,10807.006753
154.226259,-842.705048,-1036.288319,10288.862594
154.226567,-459.657299,-814.226536,10288.862594
154.226875,0.000000,-1258.350101,9918.759623
154.227184,306.438199,-1480.411884,9696.697840
154.227492,766.095498,-1332.370696,9474.636058
154.227800,842.705048,-1628.453072,9030.512492
154.228108,1072.533697,-1184.329507,9178.553681
154.228416,1149.143247,-1258.350101,8512.368333
154.228724,2068.457845,-888.247130,7994.224174
154.229032,2068.457845,-148.041188,8216.285956
154.229340,2374.896044,222.061783,7772.162391
154.229648,2528.115143,518.144159,7772.162391
154.229956,2528.115143,666.185348,7698.141797
154.230264,2528.115143,888.247130,8290.306550
154.230572,2068.457845,666.185348,8586.388927
154.230880,1608.800546,814.226536,9104.533087
154.231188,1302.362347,592.164754,9400.615463
154.231497,1225.752797,592.164754,9622.677246
154.231805,919.314598,370.102971,10214.842000
154.232113,766.095498,444.123565,10362.883188
154.232421,995.924147,592.164754,10510.924376
154.232729,842.705048,814.226536,10510.924376
154.233037,536.266849,1036.288319,10510.924376
154.233345,1302.362347,1702.473667,10066.800811
154.233653,1225.752797,1850.514855,9696.697840
154.233961,1378.971896,2072.576638,9474.636058
154.234269,1532.190996,2146.597232,9400.615463
154.234577,1225.752797,1998.556043,9474.636058
154.234885,1225.752797,2072.576638,9696.697840
154.235193,229.828649,1110.308913,9696.697840
154.235501,0.000000,1110.308913,10066.800811
154.235810,-459.657299,-0.000000,10510.924376
154.236118,-1225.752797,-0.000000,11029.068536
154.236426,-1455.581446,-444.123565,10955.047942
154.236734,-1378.971896,-740.205942,10732.986159
154.237042,-1225.752797,-814.226536,10658.965565
154.237350,-766.095498,-1406.391290,10066.800811
154.237658,-766.095498,-1332.370696,10288.862594
154.237966,0.000000,-1110.308913,9696.697840
154.238274,536.266849,-962.267725,9474.636058
154.238582,459.657299,-1406.391290,8956.491898
154.238890,842.705048,-1036.288319,8882.471304
154.239198,1149.143247,-962.267725,8660.409521
154.239506,1378.971896,-814.226536,8290.306550
154.239814,1685.410096,-1036.288319,8512.368333
154.240123,1838.629195,-814.226536,8438.347739
154.240431,1455.581446,-814.226536,8364.327145
154.240739,1762.019645,-592.164754,8512.368333
154.241047,1378.971896,-0.000000,8512.368333
154.241355,1455.581446,370.102971,8586.388927
154.241663,1072.533697,296.082377,8808.450710
154.241971,919.314598,592.164754,8882.471304
154.242279,766.095498,740.205942,9474.636058
154.242587,612.876398,666.185348,9474.636058
154.242895,1072.533697,1110.308913,9844.739029
154.243203,689.485948,888.247130,9992.780217
154.243511,766.095498,1184.329507,10066.800811
154.243819,536.266849,1554.432478,10140.821405
154.244127,766.095498,1110.308913,10288.862594
154.244436,459.657299,1332.370696,10140.821405
154.244744,766.095498,1258.350101,10288.862594
154.245052,995.924147,1184.329507,10510.924376
154.245360,612.876398,1332.370696,10362.883188
154.245668,306.438199,1332.370696,10732.986159
154.245976,76.609550,1036.288319,10214.842000
154.246284,0.000000,1184.329507,10362.883188
154.246592,-306.438199,740.205942,10436.903782
154.246900,-919.314598,592.164754,10658.965565
154.247208,-1149.143247,-0.000000,10807.006753
154.247516,-842.705048,-0.000000,10881.027347
154.247824,-1225.752797,-222.061783,10584.944971
154.248132,-229.828649,-740.205942,10510.924376
154.248440,-536.266849,-518.144159,10510.924376
154.248749,-306.438199,-666.185348,10140.821405
154.249057,76.609550,-888.247130,9770.718434
154.249365,459.657299,-1184.329507,9548.656652
154.249673,306.438199,-1332.370696,9844.739029
154.249981,1302.362347,-1258.350101,9548.656652
154.250289,1378.971896,-1406.391290,9030.512492
154.250597,1838.629195,-1110.308913,8586.388927
154.250905,1762.019645,-740.205942,8216.285956
154.251213,2298.286494,-296.082377,8216.285956
154.251521,2451.505594,-0.000000,8068.244768
154.251829,2451.505594,222.061783,7772.162391
154.252137,2528.115143,222.061783,7994.224174
154.252445,2145.067394,518.144159,8438.347739
154.252753,2298.286494,740.205942,8734.430116
154.253062,2221.676944,518.144159,9178.553681
154.253370,1685.410096,666.185348,9030.512492
154.253678,1149.143247,592.164754,9252.574275
154.253986,766.095498,444.123565,9844.739029
154.254294,919.314598,444.123565,9992.780217
154.254602,842.705048,296.082377,10140.821405
154.254910,689.485948,296.082377,9918.759623
154.255218,689.485948,1036.288319,10510.924376
154.255526,1072.533697,1480.411884,10066.800811
154.255834,1225.752797,1628.453072,9622.677246
154.256142,1455.581446,1924.535449,9474.636058
154.256450,1378.971896,1998.556043,9622.677246
154.256758,1072.533697,1924.535449,9548.656652
154.257066,766.095498,1702.473667,9548.656652
154.257375,383.047749,1480.411884,9770.718434
154.257683,76.609550,1036.288319,10510.924376
154.257991,-383.047749,444.123565,10510.924376
154.258299,-995.924147,-148.041188,10881.027347
154.258607,-1455.581446,-296.082377,10732.986159
154.258915,-1378.971896,-814.226536,10658.965565
154.259223,-1532.190996,-1480.411884,10436.903782
154.259531,-919.314598,-1258.350101,10362.883188
154.259839,-383.047749,-1036.288319,10214.842000
154.260147,76.609550,-1110.308913,10066.800811
154.260455,153.219100,-1036.288319,9030.512492
154.260763,689.485948,-1036.288319,9030.512492
154.261071,995.924147,-962.267725,8956.491898
154.261380,1149.143247,-962.267725,8808.450710
154.261688,1455.581446,-888.247130,8512.368333
154.261996,1378.971896,-740.205942,8290.306550
154.262304,1532.190996,-740.205942,8438.347739
154.262612,1378.971896,-444.123565,8808.450710
154.262920,1302.362347,-370.102971,7920.203579
154.263228,1455.581446,-74.020594,8438.347739
154.263536,1302.362347,-0.000000,8512.368333
154.263844,1072.533697,222.061783,9104.533087
154.264152,1149.143247,444.123565,9400.615463
154.264460,689.485948,666.185348,9400.615463
