#time,accel_x,accel_y,accel_z
120.439509,2374.896044,296.082377,9844.739029
120.439817,2528.115143,-0.000000,10140.821405
120.440125,1532.190996,-370.102971,10066.800811
120.440433,1685.410096,-370.102971,10066.800811
120.440741,2221.676944,-444.123565,10140.821405
120.441049,2221.676944,-592.164754,10066.800811
120.441357,2451.505594,-0.000000,10214.842000
120.441665,2221.676944,-222.061783,9844.739029
120.441973,2604.724693,-370.102971,10288.862594
120.442281,2604.724693,-0.000000,10214.842000
120.442589,2757.943793,-0.000000,9474.636058
120.442897,2604.724693,444.123565,9178.553681
120.443206,2374.896044,296.082377,9252.574275
120.443514,2221.676944,-0.000000,9548.656652
120.443822,2298.286494,444.123565,9770.718434
120.444130,2145.067394,296.082377,9474.636058
120.444438,1991.848295,444.123565,9104.533087
120.444746,2298.286494,740.205942,8882.471304
120.445054,2451.505594,1258.350101,9104.533087
120.445362,2145.067394,1036.288319,9178.553681
120.445670,1915.238745,370.102971,9474.636058
120.445978,1225.752797,-0.000000,10066.800811
120.446286,459.657299,-518.144159,10807.006753
120.446594,76.609550,-1036.288319,10807.006753
120.446902,229.828649,-1110.308913,10288.862594
120.447210,306.438199,-1258.350101,10732.986159
120.447518,76.609550,-1036.288319,10658.965565
120.447826,536.266849,-814.226536,10436.903782
120.448134,995.924147,-370.102971,9844.739029
120.448442,1838.629195,222.061783,9326.594869
120.448751,2757.943793,444.123565,8660.409521
120.449059,3140.991542,518.144159,8364.327145
120.449367,2681.334243,296.082377,7920.203579
120.449675,3064.381992,296.082377,8512.368333
120.449983,2681.334243,444.123565,8512.368333
120.450291,2298.286494,-0.000000,8956.491898
120.450599,2298.286494,148.041188,9104.533087
120.450907,2145.067394,-0.000000,9030.512492
120.451215,2374.896044,148.041188,8956.491898
120.451523,1991.848295,222.061783,9104.533087
120.451831,2145.067394,-222.061783,9030.512492
120.452139,1838.629195,444.123565,9178.553681
120.452447,2298.286494,370.102971,9474.636058
120.452755,2068.457845,370.102971,9696.697840
120.453063,1838.629195,444.123565,9696.697840
120.453371,1838.629195,444.123565,9992.780217
120.453679,1225.752797,148.041188,10140.821405
120.453988,1378.971896,-74.020594,10140.821405
120.454296,1302.362347,-0.000000,10881.027347
120.454604,995.924147,-518.144159,10362.883188
120.454912,1149.143247,-444.123565,10510.924376
120.455220,1532.190996,-222.061783,10436.903782
120.455528,1762.019645,-0.000000,10140.821405
120.455836,1838.629195,222.061783,9770.718434
120.456144,2221.676944,814.226536,9474.636058
120.456452,2528.115143,1258.350101,9474.636058
120.456760,2451.505594,1258.350101,9178.553681
120.457068,2451.505594,1480.411884,9104.533087
120.457376,2451.505594,1554.432478,8882.471304
120.457684,2374.896044,1702.473667,8882.471304
120.457992,2145.067394,1406.391290,8956.491898
120.458300,1915.238745,1480.411884,9252.574275
120.458608,1685.410096,1036.288319,9326.594869
120.458916,1302.362347,518.144159,9548.656652
120.459224,995.924147,-0.000000,10140.821405
120.459533,383.047749,-0.000000,10140.821405
120.459841,76.609550,-222.061783,10436.903782
120.460149,153.219100,-222.061783,10436.903782
120.460457,0.000000,-148.041188,10584.944971
120.460765,0.000000,-444.123565,10362.883188
120.461073,0.000000,-222.061783,10214.842000
120.461381,306.438199,-74.020594,10066.800811
120.461689,383.047749,-0.000000,9696.697840
120.461997,153.219100,370.102971,9696.697840
120.462305,76.609550,444.123565,9474.636058
120.462613,306.438199,222.061783,9474.636058
120.462921,76.609550,-0.000000,9326.594869
120.463229,229.828649,-148.041188,9400.615463
120.463537,-536.266849,-222.061783,9770.718434
120.463845,-689.485948,-296.082377,9844.739029
120.464153,-459.657299,-370.102971,9992.780217
120.464461,0.000000,-592.164754,9548.656652
120.464770,76.609550,-444.123565,9548.656652
120.465078,0.000000,-148.041188,9252.574275
120.465386,0.000000,-0.000000,9400.615463
120.465694,153.219100,-0.000000,9252.574275
120.466002,0.000000,-0.000000,9178.553681
120.466310,153.219100,-296.082377,9030.512492
120.466618,-689.485948,296.082377,9474.636058
120.466926,0.000000,-0.000000,9474.636058
120.467234,0.000000,-370.102971,9548.656652
120.467542,0.000000,-592.164754,9770.718434
120.467850,0.000000,-518.144159,9992.780217
120.468158,76.609550,-296.082377,9992.780217
120.468466,0.000000,-370.102971,10436.903782
120.468774,76.609550,-222.061783,9696.697840
120.469082,459.657299,-148.041188,9474.636058
120.469390,612.876398,-74.020594,9178.553681
120.469698,842.705048,370.102971,9400.615463
120.470006,842.705048,370.102971,9400.615463
120.470315,995.924147,518.144159,9326.594869
120.470623,1072.533697,296.082377,9474.636058
120.470931,995.924147,-0.000000,8956.491898
120.471239,1532.190996,370.102971,9326.594869
120.471547,842.705048,370.102971,9474.636058
120.471855,919.314598,592.164754,9474.636058
120.472163,995.924147,666.185348,9474.636058
120.472471,995.924147,296.082377,9548.656652
120.472779,766.095498,370.102971,9474.636058
120.473087,919.314598,592.164754,9474.636058
120.473395,689.485948,-0.000000,9548.656652
120.473703,536.266849,592.164754,9992.780217
120.474011,842.705048,370.102971,9992.780217
120.474319,842.705048,222.061783,9548.656652
120.474627,612.876398,518.144159,9696.697840
120.474935,689.485948,296.082377,9622.677246
120.475243,842.705048,296.082377,9696.697840
120.475552,1225.752797,444.123565,9474.636058
120.475860,1685.410096,-0.000000,9474.636058
120.476168,919.314598,1110.308913,9178.553681
120.476476,1302.362347,518.144159,9548.656652
120.476784,1378.971896,666.185348,9548.656652
120.477092,1225.752797,518.144159,9252.574275
120.477400,1378.971896,666.185348,9252.574275
120.477708,1378.971896,740.205942,9474.636058
120.478017,1991.848295,592.164754,9474.636058
120.478325,842.705048,592.164754,9696.697840
120.478633,1072.533697,370.102971,9548.656652
120.478941,1072.533697,370.102971,9548.656652
120.479249,919.314598,296.082377,9474.636058
120.479557,459.657299,148.041188,9992.780217
120.479865,459.657299,-0.000000,9844.739029
120.480173,0.000000,-0.000000,10140.821405
120.480482,-306.438199,-222.061783,10288.862594
120.480790,-383.047749,-370.102971,10436.903782
120.481098,-536.266849,-0.000000,10140.821405
120.481406,0.000000,-296.082377,10288.862594
120.481714,-383.047749,-0.000000,9844.739029
120.482022,-306.438199,-0.000000,9918.759623
120.482330,0.000000,-0.000000,9844.739029
120.482638,0.000000,-148.041188,9474.636058
120.482947,-229.828649,-0.000000,9474.636058
120.483255,-153.219100,-0.000000,9548.656652
120.483563,0.000000,-74.020594,9474.636058
120.483871,-229.828649,-148.041188,9474.636058
120.484179,0.000000,-444.123565,9252.574275
120.484487,76.609550,-0.000000,9178.553681
120.484795,229.828649,-0.000000,9252.574275
120.485103,153.219100,-0.000000,9178.553681
120.485412,306.438199,-222.061783,9104.533087
120.485720,229.828649,-370.102971,9104.533087
120.486028,766.095498,-0.000000,9548.656652
120.486336,919.314598,-148.041188,9326.594869
120.486644,612.876398,-222.061783,9474.636058
120.486952,689.485948,-74.020594,9474.636058
120.487260,536.266849,-148.041188,9696.697840
120.487568,612.876398,-74.020594,9770.718434
120.487877,766.095498,-222.061783,9622.677246
120.488185,689.485948,-0.000000,9992.780217
120.488493,1149.143247,-222.061783,9696.697840
120.488801,1225.752797,-74.020594,9918.759623
120.489109,766.095498,-74.020594,9844.739029
120.489417,1072.533697,-0.000000,9992.780217
120.489725,1072.533697,74.020594,9992.780217
120.490033,1149.143247,222.061783,9770.718434
120.490342,1225.752797,370.102971,9844.739029
120.490650,1838.629195,740.205942,9992.780217
120.490958,1915.238745,518.144159,9400.615463
120.491266,1991.848295,888.247130,9400.615463
120.491574,1608.800546,1036.288319,9474.636058
120.491882,1915.238745,1036.288319,9252.574275
120.492190,1762.019645,1110.308913,9400.615463
120.492498,1762.019645,888.247130,9474.636058
120.492807,1915.238745,962.267725,9252.574275
120.493115,1915.238745,962.267725,9622.677246
120.493423,1532.190996,962.267725,9622.677246
120.493731,1762.019645,592.164754,9696.697840
120.494039,1302.362347,666.185348,9696.697840
120.494347,1302.362347,518.144159,9622.677246
120.494655,1149.143247,592.164754,9770.718434
120.494963,1225.752797,592.164754,9918.759623
120.495272,1532.190996,444.123565,10066.800811
120.495580,1378.971896,518.144159,9696.697840
120.495888,1149.143247,296.082377,9474.636058
120.496196,1685.410096,-0.000000,9474.636058
120.496504,1149.143247,518.144159,9548.656652
120.496812,919.314598,370.102971,9548.656652
120.497120,1225.752797,296.082377,9474.636058
120.497428,1072.533697,592.164754,9474.636058
120.497737,1378.971896,740.205942,9844.739029
120.498045,1149.143247,814.226536,9474.636058
120.498353,1149.143247,-0.000000,9474.636058
120.498661,689.485948,148.041188,9474.636058
120.498969,766.095498,518.144159,9770.718434
120.499277,229.828649,296.082377,9696.697840
120.499585,0.000000,-0.000000,9918.759623
120.499893,-153.219100,-0.000000,9770.718434
120.500202,-536.266849,-222.061783,9696.697840
120.500510,-689.485948,-222.061783,10066.800811
120.500818,-919.314598,-666.185348,10066.800811
120.501126,-842.705048,-296.082377,9770.718434
120.501434,-919.314598,-222.061783,9844.739029
120.501742,-1225.752797,-444.123565,9696.697840
120.502050,-1225.752797,-296.082377,9548.656652
120.502358,-842.705048,-296.082377,9548.656652
120.502667,-766.095498,-370.102971,9326.594869
120.502975,-1225.752797,-444.123565,9622.677246
120.503283,-919.314598,-592.164754,9400.615463
120.503591,-1149.143247,-370.102971,9400.615463
120.503899,-1302.362347,-222.061783,9400.615463
120.504207,-1072.533697,-370.102971,9474.636058
120.504515,-995.924147,-296.082377,9474.636058
120.504823,-842.705048,-444.123565,9474.636058
120.505132,-689.485948,-740.205942,9326.594869
120.505440,-995.924147,-592.164754,9548.656652
120.505748,-306.438199,-444.123565,9548.656652
120.506056,-153.219100,-148.041188,9770.718434
120.506364,0.000000,-74.020594,9252.574275
120.506672,153.219100,-0.000000,9400.615463
120.506980,306.438199,222.061783,9326.594869
120.507288,612.876398,-0.000000,9474.636058
120.507597,1072.533697,-0.000000,10066.800811
120.507905,689.485948,148.041188,9918.759623
120.508213,1149.143247,148.041188,9844.739029
120.508521,1149.143247,-0.000000,9770.718434
120.508829,1302.362347,-0.000000,9696.697840
120.509137,1378.971896,296.082377,9696.697840
120.509445,1532.190996,296.082377,9844.739029
120.509753,1378.971896,-0.000000,9844.739029
120.510062,1608.800546,-0.000000,9918.759623
120.510370,1838.629195,-296.082377,10140.821405
120.510678,2068.457845,-0.000000,9696.697840
120.510986,1685.410096,222.061783,9696.697840
120.511294,1991.848295,666.185348,9770.718434
120.511602,2298.286494,962.267725,9770.718434
120.511910,2221.676944,1184.329507,9548.656652
120.512218,2451.505594,1036.288319,9548.656652
120.512527,2528.115143,962.267725,9548.656652
120.512835,2987.772442,740.205942,9622.677246
120.513143,2757.943793,1036.288319,9622.677246
120.513451,2068.457845,888.247130,9548.656652
120.513759,2145.067394,1110.308913,9548.656652
120.514067,2145.067394,1036.288319,9770.718434
120.514375,2145.067394,962.267725,9548.656652
120.514683,2068.457845,962.267725,9326.594869
120.514992,1991.848295,1110.308913,9770.718434
120.515300,1762.019645,888.247130,9548.656652
120.515608,2374.896044,888.247130,9326.594869
120.515916,2221.676944,518.144159,9474.636058
120.516224,2068.457845,1036.288319,9474.636058
120.516532,1762.019645,888.247130,9400.615463
120.516840,1608.800546,592.164754,9548.656652
120.517148,1608.800546,666.185348,9474.636058
120.517457,1455.581446,148.041188,9474.636058
120.517765,1225.752797,370.102971,9844.739029
120.518073,1072.533697,592.164754,9844.739029
120.518381,1532.190996,-0.000000,9770.718434
120.518689,1455.581446,370.102971,9474.636058
120.518997,995.924147,296.082377,9474.636058
120.519305,766.095498,-0.000000,9548.656652
120.519613,612.876398,-0.000000,9548.656652
120.519922,306.438199,-370.102971,9770.718434
120.520230,459.657299,-666.185348,9696.697840
120.520538,-459.657299,-518.144159,9992.780217
120.520846,-612.876398,-666.185348,9992.780217
120.521154,-766.095498,-370.102971,9770.718434
120.521462,-612.876398,-296.082377,9696.697840
120.521770,-995.924147,-370.102971,9548.656652
120.522078,-995.924147,-592.164754,9474.636058
120.522387,-1455.581446,-444.123565,9622.677246
120.522695,-1378.971896,-370.102971,9696.697840
120.523003,-1072.533697,-518.144159,9474.636058
120.523311,-842.705048,-370.102971,9400.615463
120.523619,-1302.362347,-74.020594,9548.656652
120.523927,-1225.752797,-296.082377,9622.677246
120.524235,-1225.752797,-370.102971,9400.615463
120.524543,-1455.581446,-518.144159,9326.594869
120.524852,-995.924147,-962.267725,9400.615463
120.525160,-1302.362347,-148.041188,9474.636058
120.525468,-459.657299,-666.185348,9030.512492
120.525776,-766.095498,-296.082377,9400.615463
120.526084,-536.266849,-0.000000,9178.553681
120.526392,-459.657299,-0.000000,9030.512492
120.526700,0.000000,148.041188,9326.594869
120.527008,-229.828649,222.061783,9474.636058
120.527317,-76.609550,-0.000000,9696.697840
120.527625,0.000000,148.041188,9548.656652
120.527933,153.219100,148.041188,9696.697840
120.528241,306.438199,-74.020594,9918.759623
120.528549,153.219100,-0.000000,9918.759623
120.528857,612.876398,518.144159,9992.780217
120.529165,689.485948,-0.000000,10214.842000
120.529473,995.924147,-0.000000,10288.862594
120.529782,842.705048,-0.000000,10288.862594
120.530090,1225.752797,-74.020594,10066.800811
120.530398,919.314598,-0.000000,10510.924376
120.530706,995.924147,888.247130,10362.883188
120.531014,1225.752797,666.185348,9770.718434
120.531322,1762.019645,814.226536,9770.718434
120.531630,1762.019645,1036.288319,9474.636058
120.531938,1915.238745,1258.350101,9548.656652
120.532247,2221.676944,1110.308913,9696.697840
120.532555,1838.629195,1184.329507,9548.656652
120.532863,1838.629195,888.247130,9696.697840
120.533171,1838.629195,814.226536,9770.718434
120.533479,1685.410096,962.267725,9622.677246
120.533787,1838.629195,814.226536,9474.636058
120.534095,1991.848295,740.205942,9770.718434
120.534403,1915.238745,666.185348,9696.697840
120.534712,1915.238745,518.144159,9696.697840
120.535020,1685.410096,666.185348,9844.739029
120.535328,2221.676944,-0.000000,9548.656652
120.535636,1915.238745,-0.000000,9400.615463
120.535944,2145.067394,518.144159,9326.594869
120.536252,2221.676944,814.226536,9178.553681
120.536560,2145.067394,962.267725,9400.615463
120.536868,2298.286494,740.205942,9326.594869
120.537177,1915.238745,592.164754,9252.574275
120.537485,1915.238745,444.123565,9474.636058
120.537793,1838.629195,-0.000000,9326.594869
120.538101,1685.410096,518.144159,9770.718434
120.538409,1378.971896,592.164754,9844.739029
120.538717,1225.752797,592.164754,9770.718434
120.539025,919.314598,370.102971,9622.677246
120.539333,306.438199,-0.000000,9844.739029
120.539642,536.266849,-222.061783,9622.677246
120.539950,0.000000,-148.041188,9696.697840
120.540258,76.609550,-222.061783,9844.739029
120.540566,-153.219100,-518.144159,9622.677246
120.540874,-153.219100,-370.102971,9548.656652
120.541182,-306.438199,-296.082377,9770.718434
120.541490,-842.705048,-592.164754,9622.677246
120.541798,-459.657299,-222.061783,9548.656652
120.542107,0.000000,-222.061783,9622.677246
120.542415,-1225.752797,-592.164754,9548.656652
120.542723,-459.657299,-444.123565,9178.553681
120.543031,-612.876398,-148.041188,9400.615463
120.543339,-919.314598,-370.102971,9030.512492
120.543647,-689.485948,-148.041188,9178.553681
120.543955,-689.485948,-518.144159,9104.533087
120.544263,-153.219100,-666.185348,9104.533087
120.544572,-153.219100,-888.247130,8882.471304
120.544880,-995.924147,-1036.288319,9474.636058
120.545188,-919.314598,-814.226536,9474.636058
120.545496,-689.485948,-666.185348,9474.636058
120.545804,-229.828649,-222.061783,9548.656652
120.546112,-229.828649,-370.102971,9400.615463
120.546420,-229.828649,-444.123565,9474.636058
120.546728,383.047749,-370.102971,9326.594869
120.547037,0.000000,-296.082377,9844.739029
120.547345,229.828649,-74.020594,9844.739029
120.547653,536.266849,-0.000000,9696.697840
120.547961,383.047749,-0.000000,9696.697840
120.548269,536.266849,296.082377,9548.656652
120.548577,766.095498,518.144159,9844.739029
120.548885,1072.533697,740.205942,9548.656652
120.549193,1072.533697,296.082377,9622.677246
120.549502,1302.362347,296.082377,9622.677246
120.549810,1149.143247,592.164754,9844.739029
120.550118,1532.190996,370.102971,9770.718434
120.550426,1378.971896,296.082377,9918.759623
120.550734,1378.971896,666.185348,9992.780217
120.551042,1302.362347,740.205942,10140.821405
120.551350,1455.581446,740.205942,9992.780217
120.551658,1685.410096,814.226536,9844.739029
120.551967,1762.019645,1110.308913,9696.697840
120.552275,1455.581446,1184.329507,9770.718434
120.552583,1838.629195,962.267725,9696.697840
120.552891,1991.848295,1184.329507,9474.636058
120.553199,1915.238745,1110.308913,9474.636058
120.553507,2145.067394,1184.329507,9474.636058
120.553815,2145.067394,1110.308913,9326.594869
120.554123,1838.629195,888.247130,9474.636058
120.554432,2451.505594,740.205942,9548.656652
120.554740,1915.238745,740.205942,9696.697840
120.555048,2068.457845,444.123565,9844.739029
120.555356,1685.410096,296.082377,9770.718434
120.555664,1455.581446,296.082377,9548.656652
120.555972,1455.581446,444.123565,9696.697840
120.556280,1378.971896,444.123565,9474.636058
120.556588,1532.190996,370.102971,9622.677246
120.556897,1225.752797,444.123565,9622.677246
120.557205,1225.752797,222.061783,9474.636058
120.557513,1149.143247,222.061783,9326.594869
120.557821,1149.143247,444.123565,9400.615463
120.558129,1072.533697,444.123565,9696.697840
120.558437,842.705048,148.041188,9474.636058
120.558745,766.095498,222.061783,9474.636058
120.559053,919.314598,-0.000000,9622.677246
120.559362,229.828649,-0.000000,9844.739029
120.559670,153.219100,-518.144159,9474.636058
120.559978,-306.438199,-518.144159,9770.718434
120.560286,-459.657299,-444.123565,9844.739029
120.560594,-689.485948,-444.123565,9622.677246
120.560902,-612.876398,-222.061783,9474.636058
120.561210,-689.485948,-0.000000,9696.697840
120.561518,-689.485948,-518.144159,9770.718434
120.561827,-1225.752797,-74.020594,9696.697840
120.562135,-1225.752797,-74.020594,9326.594869
120.562443,-919.314598,-296.082377,9548.656652
120.562751,-1225.752797,-296.082377,9474.636058
120.563059,-1302.362347,-222.061783,9474.636058
120.563367,-1378.971896,-296.082377,9400.615463
120.563675,-1455.581446,-370.102971,9474.636058
120.563983,-1455.581446,-444.123565,9400.615463
120.564292,-995.924147,-666.185348,9474.636058
120.564600,-1149.143247,-444.123565,9474.636058
120.564908,-995.924147,-592.164754,9400.615463
120.565216,-1072.533697,-592.164754,9400.615463
120.565524,-766.095498,-444.123565,9400.615463
120.565832,-459.657299,-592.164754,9326.594869
120.566140,-153.219100,-0.000000,9400.615463
120.566448,-229.828649,-148.041188,9474.636058
120.566757,0.000000,-74.020594,8956.491898
120.567065,306.438199,-74.020594,9474.636058
120.567373,153.219100,148.041188,9474.636058
120.567681,612.876398,148.041188,9548.656652
120.567989,766.095498,370.102971,9770.718434
120.568297,766.095498,370.102971,9696.697840
120.568605,1455.581446,740.205942,9548.656652
120.568913,1149.143247,370.102971,9622.677246
120.569222,1225.752797,222.061783,10214.842000
120.569530,1685.410096,296.082377,9696.697840
120.569838,766.095498,-0.000000,9918.759623
120.570146,1149.143247,370.102971,10140.821405
120.570454,1225.752797,222.061783,10214.842000
120.570762,1378.971896,370.102971,10214.842000
120.571070,2145.067394,666.185348,10066.800811
120.571378,2298.286494,888.247130,9918.759623
120.571687,2374.896044,888.247130,9622.677246
120.571995,1915.238745,962.267725,9696.697840
120.572303,2221.676944,1184.329507,9474.636058
120.572611,2298.286494,1036.288319,9474.636058
120.572919,2298.286494,1036.288319,9622.677246
120.573227,2298.286494,1184.329507,9622.677246
120.573535,2145.067394,1184.329507,9696.697840
120.573843,2298.286494,962.267725,9918.759623
120.574152,2451.505594,888.247130,9844.739029
120.574460,1915.238745,592.164754,9770.718434
120.574768,1991.848295,740.205942,9770.718434
120.575076,2145.067394,666.185348,9548.656652
120.575384,2298.286494,888.247130,9474.636058
120.575692,2298.286494,814.226536,9326.594869
120.576000,2528.115143,1036.288319,8882.471304
120.576308,2298.286494,888.247130,8956.491898
120.576617,2145.067394,444.123565,9178.553681
120.576925,2298.286494,666.185348,9104.533087
120.577233,1532.190996,740.205942,9252.574275
120.577541,1225.752797,592.164754,9474.636058
120.577849,1225.752797,518.144159,9696.697840
120.578157,842.705048,444.123565,9474.636058
120.578465,1302.362347,444.123565,9992.780217
120.578773,536.266849,-0.000000,9918.759623
120.579081,536.266849,-296.082377,10288.862594
120.579390,153.219100,-296.082377,9844.739029
120.579698,229.828649,-370.102971,9770.718434
120.580006,-383.047749,-296.082377,9696.697840
120.580314,-459.657299,-370.102971,9844.739029
120.580622,-766.095498,-296.082377,9696.697840
120.580930,-536.266849,-370.102971,9622.677246
120.581238,-766.095498,-444.123565,9326.594869
120.581546,-1072.533697,-222.061783,9474.636058
120.581854,-1072.533697,-518.144159,9696.697840
120.582162,-1149.143247,-296.082377,9548.656652
120.582471,-1225.752797,-148.041188,9474.636058
120.582779,-1149.143247,-296.082377,9178.553681
120.583087,-1149.143247,-222.061783,9474.636058
120.583395,-1608.800546,-370.102971,9474.636058
120.583703,-1072.533697,-814.226536,8882.471304
120.584011,-1378.971896,-296.082377,9474.636058
120.584319,-919.314598,-592.164754,9548.656652
120.584627,-1532.190996,-518.144159,9474.636058
120.584935,-1685.410096,-444.123565,9474.636058
120.585244,-1608.800546,-592.164754,9548.656652
120.585552,-1378.971896,-592.164754,9474.636058
120.585860,-842.705048,-740.205942,9474.636058
120.586168,-919.314598,-370.102971,9770.718434
120.586476,-1149.143247,-370.102971,9992.780217
120.586784,-612.876398,-296.082377,10288.862594
120.587092,-459.657299,-222.061783,9696.697840
120.587400,-153.219100,-0.000000,9844.739029
120.587708,0.000000,-74.020594,9770.718434
120.588017,306.438199,148.041188,9770.718434
120.588325,919.314598,-0.000000,9696.697840
120.588633,612.876398,444.123565,9696.697840
120.588941,919.314598,296.082377,9474.636058
120.589249,612.876398,518.144159,9474.636058
120.589557,1072.533697,444.123565,9696.697840
120.589865,1455.581446,296.082377,9770.718434
120.590173,1608.800546,296.082377,9770.718434
120.590481,1608.800546,296.082377,9918.759623
120.590790,1685.410096,370.102971,9918.759623
120.591098,2068.457845,444.123565,9918.759623
120.591406,2604.724693,814.226536,9844.739029
120.591714,2528.115143,592.164754,9548.656652
120.592022,2221.676944,1110.308913,9622.677246
120.592330,2374.896044,1258.350101,9400.615463
120.592638,2528.115143,1184.329507,9326.594869
120.592946,2451.505594,1036.288319,9400.615463
120.593254,2451.505594,296.082377,9770.718434
120.593562,1915.238745,740.205942,9474.636058
120.593871,2145.067394,370.102971,9548.656652
120.594179,2374.896044,222.061783,10140.821405
120.594487,1915.238745,518.144159,9992.780217
120.594795,1608.800546,296.082377,9844.739029
120.595103,1838.629195,370.102971,9696.697840
120.595411,2145.067394,518.144159,9622.677246
120.595719,2374.896044,740.205942,9400.615463
120.596027,2528.115143,518.144159,9474.636058
120.596335,2451.505594,1036.288319,9104.533087
120.596644,2221.676944,1332.370696,8882.471304
120.596952,2451.505594,814.226536,9030.512492
120.597260,1838.629195,814.226536,9400.615463
120.597568,1762.019645,814.226536,9326.594869
120.597876,1608.800546,518.144159,9474.636058
120.598184,1455.581446,296.082377,9548.656652
120.598492,1225.752797,296.082377,9474.636058
120.598800,919.314598,-0.000000,9400.615463
120.599108,842.705048,-0.000000,9622.677246
120.599417,459.657299,-0.000000,9696.697840
120.599725,306.438199,-148.041188,9770.718434
120.600033,229.828649,-74.020594,9696.697840
120.600341,0.000000,-0.000000,9844.739029
120.600649,0.000000,-0.000000,10066.800811
120.600957,-306.438199,-222.061783,9474.636058
120.601265,-383.047749,-592.164754,9548.656652
120.601573,-306.438199,-222.061783,9696.697840
120.601881,-1072.533697,-148.041188,9474.636058
120.602190,-995.924147,-222.061783,9622.677246
120.602498,-1072.533697,-370.102971,9548.656652
120.602806,-1072.533697,-518.144159,9474.636058
120.603114,-1225.752797,-222.061783,9844.739029
120.603422,-1608.800546,-444.123565,9622.677246
120.603730,-919.314598,-518.144159,9474.636058
120.604038,-1532.190996,-592.164754,9326.594869
120.604346,-1302.362347,-518.144159,9400.615463
120.604654,-1149.143247,-444.123565,9326.594869
120.604962,-1225.752797,-444.123565,9474.636058
120.605271,-1685.410096,-518.144159,9622.677246
120.605579,-1225.752797,-370.102971,9474.636058
120.605887,-689.485948,-296.082377,9696.697840
120.606195,-612.876398,-370.102971,9548.656652
120.606503,-919.314598,-222.061783,9326.594869
120.606811,-229.828649,-148.041188,9474.636058
120.607119,-306.438199,-148.041188,9548.656652
120.607427,0.000000,-74.020594,9400.615463
120.607735,0.000000,-0.000000,9474.636058
120.608044,0.000000,296.082377,9696.697840
120.608352,76.609550,370.102971,9844.739029
120.608660,1072.533697,296.082377,9696.697840
120.608968,1149.143247,518.144159,9622.677246
120.609276,536.266849,296.082377,9770.718434
120.609584,766.095498,148.041188,9918.759623
120.609892,766.095498,148.041188,10140.821405
120.610200,1225.752797,-0.000000,10214.842000
120.610508,1225.752797,-74.020594,10436.903782
120.610817,1532.190996,296.082377,9770.718434
120.611125,1915.238745,592.164754,9474.636058
120.611433,1608.800546,518.144159,9474.636058
120.611741,1991.848295,888.247130,9400.615463
120.612049,2221.676944,888.247130,9326.594869
120.612357,2374.896044,888.247130,9252.574275
120.612665,2298.286494,740.205942,9178.553681
120.612973,2451.505594,1036.288319,9326.594869
120.613281,1915.238745,740.205942,9400.615463
120.613590,2374.896044,666.185348,9474.636058
120.613898,2221.676944,962.267725,9622.677246
120.614206,1991.848295,814.226536,9622.677246
120.614514,2068.457845,592.164754,9474.636058
120.614822,2068.457845,370.102971,9770.718434
120.615130,1991.848295,-0.000000,9770.718434
120.615438,1991.848295,296.082377,9770.718434
120.615746,1991.848295,592.164754,9622.677246
120.616054,2145.067394,814.226536,9400.615463
120.616362,2374.896044,888.247130,9326.594869
120.616671,2068.457845,1258.350101,9252.574275
120.616979,2068.457845,962.267725,9104.533087
120.617287,1915.238745,740.205942,9252.574275
120.617595,1532.190996,814.226536,9326.594869
120.617903,1302.362347,518.144159,9622.677246
120.618211,1072.533697,518.144159,9844.739029
120.618519,612.876398,296.082377,9844.739029
120.618827,612.876398,222.061783,9918.759623
120.619135,536.266849,444.123565,9844.739029
120.619444,0.000000,-0.000000,9770.718434
120.619752,0.000000,-0.000000,9844.739029
120.620060,-229.828649,-296.082377,10066.800811
120.620368,0.000000,-444.123565,10214.842000
120.620676,-536.266849,-370.102971,9918.759623
120.620984,-612.876398,-518.144159,9548.656652
120.621292,-612.876398,-0.000000,9696.697840
120.621600,-612.876398,-296.082377,9548.656652
120.621908,-766.095498,-222.061783,9622.677246
120.622217,-995.924147,-148.041188,9474.636058
120.622525,-689.485948,-740.205942,9474.636058
120.622833,-766.095498,-740.205942,9548.656652
120.623141,-919.314598,-888.247130,9474.636058
120.623449,-1685.410096,-740.205942,9326.594869
120.623757,-1302.362347,-370.102971,9400.615463
120.624065,-995.924147,-444.123565,9474.636058
120.624373,-1225.752797,-518.144159,9474.636058
120.624681,-1072.533697,-296.082377,9400.615463
120.624990,-1302.362347,-370.102971,9844.739029
120.625298,-1378.971896,-518.144159,9474.636058
120.625606,-1302.362347,-592.164754,9474.636058
120.625914,-689.485948,-444.123565,9622.677246
120.626222,-459.657299,-74.020594,9696.697840
120.626530,-383.047749,-222.061783,9548.656652
120.626838,-229.828649,-222.061783,9696.697840
120.627146,0.000000,-148.041188,9844.739029
120.627454,0.000000,-518.144159,10066.800811
120.627762,-153.219100,-74.020594,9844.739029
120.628071,459.657299,-370.102971,9622.677246
120.628379,536.266849,-0.000000,9918.759623
120.628687,1072.533697,518.144159,9548.656652
120.628995,1072.533697,592.164754,9474.636058
120.629303,1532.190996,592.164754,9400.615463
120.629611,1762.019645,592.164754,9474.636058
120.629919,1838.629195,370.102971,9474.636058
120.630227,1685.410096,370.102971,9844.739029
120.630535,1915.238745,1036.288319,9918.759623
120.630844,2298.286494,222.061783,9770.718434
120.631152,1915.238745,666.185348,9696.697840
120.631460,2221.676944,666.185348,9474.636058
120.631768,2298.286494,740.205942,9326.594869
120.632076,2374.896044,814.226536,9474.636058
120.632384,2374.896044,592.164754,9326.594869
120.632692,2528.115143,962.267725,9400.615463
120.633000,2528.115143,1110.308913,9696.697840
120.633308,2451.505594,740.205942,9474.636058
120.633617,2145.067394,962.267725,9548.656652
120.633925,2068.457845,518.144159,9844.739029
120.634233,1915.238745,592.164754,9992.780217
120.634541,1838.629195,296.082377,9918.759623
120.634849,1532.190996,518.144159,10140.821405
120.635157,1915.238745,370.102971,9844.739029
120.635465,2068.457845,-0.000000,9770.718434
120.635773,1838.629195,592.164754,9622.677246
120.636081,2221.676944,814.226536,9326.594869
120.636390,2374.896044,888.247130,9178.553681
120.636698,2221.676944,962.267725,9030.512492
120.637006,2145.067394,888.247130,9252.574275
120.637314,1915.238745,888.247130,9104.533087
120.637622,1532.190996,888.247130,9400.615463
120.637930,919.314598,444.123565,9400.615463
120.638238,995.924147,592.164754,9770.718434
120.638546,766.095498,-0.000000,9844.739029
120.638854,383.047749,222.061783,9992.780217
120.639162,229.828649,-74.020594,9918.759623
120.639471,229.828649,-0.000000,9918.759623
120.639779,229.828649,-74.020594,10288.862594
120.640087,0.000000,-370.102971,9622.677246
120.640395,-153.219100,-444.123565,9548.656652
120.640703,-229.828649,-74.020594,9474.636058
120.641011,-459.657299,222.061783,9474.636058
120.641319,-459.657299,-0.000000,9474.636058
120.641627,-612.876398,148.041188,9474.636058
120.641935,-919.314598,-0.000000,9474.636058
120.642244,-1149.143247,-74.020594,9696.697840
120.642552,-1225.752797,-814.226536,9696.697840
120.642860,-1685.410096,-888.247130,9918.759623
120.643168,-1378.971896,-962.267725,9844.739029
120.643476,-1915.238745,-740.205942,9770.718434
120.643784,-1685.410096,-888.247130,9622.677246
120.644092,-1608.800546,-666.185348,9696.697840
120.644400,-1455.581446,-592.164754,9548.656652
120.644708,-842.705048,-444.123565,9178.553681
120.645017,-1302.362347,-296.082377,9178.553681
120.645325,-995.924147,-518.144159,9252.574275
120.645633,-919.314598,-0.000000,9104.533087
120.645941,-842.705048,-74.020594,9326.594869
120.646249,-842.705048,-222.061783,9400.615463
120.646557,-689.485948,-370.102971,9400.615463
120.646865,-459.657299,-592.164754,9474.636058
120.647173,-459.657299,-444.123565,9918.759623
120.647481,0.000000,-444.123565,9844.739029
120.647790,306.438199,-444.123565,9844.739029
120.648098,76.609550,148.041188,9770.718434
120.648406,459.657299,-0.000000,9474.636058
120.648714,842.705048,370.102971,9622.677246
120.649022,1072.533697,592.164754,9474.636058
120.649330,1532.190996,296.082377,9548.656652
120.649638,1838.629195,370.102971,9326.594869
120.649946,1685.410096,444.123565,9770.718434
120.650254,1532.190996,518.144159,9918.759623
120.650562,1378.971896,222.061783,10066.800811
120.650871,1685.410096,148.041188,9622.677246
120.651179,1302.362347,-0.000000,9992.780217
120.651487,2068.457845,370.102971,9770.718434
120.651795,1838.629195,148.041188,9474.636058
120.652103,2528.115143,518.144159,9622.677246
120.652411,2374.896044,740.205942,9696.697840
120.652719,2451.505594,814.226536,9622.677246
120.653027,2528.115143,1258.350101,9252.574275
120.653335,2911.162892,1258.350101,9400.615463
120.653644,2757.943793,1406.391290,9252.574275
120.653952,2528.115143,1184.329507,9252.574275
120.654260,2145.067394,1036.288319,9770.718434
120.654568,2145.067394,444.123565,9400.615463
120.654876,2374.896044,740.205942,9992.780217
120.655184,2145.067394,444.123565,9844.739029
120.655492,1838.629195,666.185348,9992.780217
120.655800,1991.848295,592.164754,9844.739029
120.656108,2221.676944,592.164754,9622.677246
120.656417,2145.067394,962.267725,9696.697840
120.656725,2221.676944,962.267725,9548.656652
120.657033,1685.410096,962.267725,9474.636058
120.657341,1762.019645,1258.350101,9622.677246
120.657649,1685.410096,962.267725,9474.636058
120.657957,1532.190996,1110.308913,9474.636058
120.658265,1225.752797,814.226536,9474.636058
120.658573,919.314598,740.205942,9548.656652
120.658881,536.266849,444.123565,9696.697840
120.659190,0.000000,-222.061783,9992.780217
120.659498,229.828649,-74.020594,9992.780217
120.659806,0.000000,-444.123565,10510.924376
120.660114,-919.314598,-444.123565,10288.862594
120.660422,-612.876398,-444.123565,10066.800811
120.660730,-689.485948,-370.102971,9918.759623
120.661038,-689.485948,-148.041188,9770.718434
120.661346,-766.095498,-0.000000,9696.697840
120.661654,-766.095498,-222.061783,9474.636058
120.661962,-919.314598,-296.082377,9474.636058
120.662271,-1302.362347,-444.123565,9548.656652
120.662579,-766.095498,-370.102971,9474.636058
120.662887,-1225.752797,-370.102971,9252.574275
120.663195,-1302.362347,-592.164754,9474.636058
120.663503,-1455.581446,-518.144159,9474.636058
120.663811,-1302.362347,-518.144159,9548.656652
120.664119,-1455.581446,-740.205942,9844.739029
120.664427,-1762.019645,-814.226536,9252.574275
120.664735,-1532.190996,-740.205942,9622.677246
120.665044,-1149.143247,-666.185348,9770.718434
120.665352,-1072.533697,-666.185348,9548.656652
120.665660,-1149.143247,-518.144159,9252.574275
120.665968,-1072.533697,-222.061783,9474.636058
120.666276,-612.876398,-148.041188,9400.615463
120.666584,-306.438199,-518.144159,9326.594869
120.666892,0.000000,-296.082377,9400.615463
120.667200,153.219100,-592.164754,9474.636058
120.667508,0.000000,222.061783,9918.759623
120.667817,0.000000,-0.000000,9622.677246
120.668125,306.438199,-0.000000,9622.677246
120.668433,689.485948,148.041188,9474.636058
120.668741,1072.533697,296.082377,9474.636058
120.669049,1072.533697,370.102971,9474.636058
120.669357,1225.752797,444.123565,9992.780217
120.669665,1532.190996,518.144159,9844.739029
120.669973,1762.019645,222.061783,9400.615463
120.670281,1608.800546,444.123565,9622.677246
120.670590,1608.800546,370.102971,9696.697840
120.670898,1685.410096,370.102971,9622.677246
120.671206,1915.238745,444.123565,8956.491898
120.671514,2374.896044,518.144159,9844.739029
120.671822,2681.334243,592.164754,9548.656652
120.672130,2374.896044,518.144159,9474.636058
120.672438,2451.505594,740.205942,9474.636058
120.672746,2374.896044,1184.329507,9400.615463
120.673054,2374.896044,1184.329507,9474.636058
120.673362,2221.676944,962.267725,9474.636058
120.673671,2221.676944,1332.370696,9770.718434
120.673979,1991.848295,518.144159,9696.697840
120.674287,2451.505594,666.185348,9622.677246
120.674595,2145.067394,518.144159,9770.718434
120.674903,2145.067394,740.205942,10214.842000
120.675211,1762.019645,518.144159,9844.739029
120.675519,1915.238745,518.144159,9622.677246
120.675827,1915.238745,592.164754,9548.656652
120.676135,2068.457845,740.205942,9696.697840
120.676444,2068.457845,666.185348,9548.656652
120.676752,2221.676944,666.185348,9918.759623
120.677060,1685.410096,666.185348,9252.574275
120.677368,1762.019645,592.164754,9770.718434
120.677676,1302.362347,666.185348,9770.718434
120.677984,1378.971896,666.185348,9400.615463
120.678292,1378.971896,814.226536,9548.656652
120.678600,1532.190996,888.247130,9622.677246
120.678908,1225.752797,740.205942,9474.636058
120.679216,842.705048,370.102971,9548.656652
120.679524,76.609550,222.061783,9696.697840
120.679832,229.828649,-0.000000,9548.656652
120.680140,0.000000,222.061783,9622.677246
120.680448,-459.657299,-74.020594,9696.697840
120.680756,-459.657299,-148.041188,9770.718434
120.681064,-842.705048,-222.061783,9992.780217
120.681372,-919.314598,-0.000000,10140.821405
120.681680,-1072.533697,-222.061783,9696.697840
120.681988,-842.705048,-148.041188,9622.677246
120.682296,-1225.752797,-296.082377,9474.636058
120.682604,-1149.143247,-296.082377,9770.718434
120.682912,-1455.581446,-370.102971,9622.677246
120.683220,-1302.362347,-444.123565,9622.677246
120.683528,-1072.533697,-1036.288319,9622.677246
120.683836,-1072.533697,-888.247130,9474.636058
120.684144,-1762.019645,-888.247130,9696.697840
120.684452,-1072.533697,-814.226536,9844.739029
120.684760,-1455.581446,-740.205942,9252.574275
120.685068,-1378.971896,-592.164754,9474.636058
120.685376,-1149.143247,-666.185348,9326.594869
120.685684,-919.314598,-518.144159,9326.594869
120.685992,-919.314598,-222.061783,9548.656652
120.686300,0.000000,-518.144159,9178.553681
120.686608,-383.047749,-444.123565,9252.574275
120.686916,0.000000,148.041188,9326.594869
120.687224,0.000000,-0.000000,9548.656652
120.687532,-153.219100,-148.041188,9474.636058
120.687840,0.000000,-222.061783,9474.636058
120.688148,383.047749,-222.061783,9622.677246
120.688456,689.485948,-0.000000,9326.594869
120.688764,766.095498,-74.020594,9696.697840
120.689072,1149.143247,-0.000000,9548.656652
120.689379,1149.143247,-74.020594,9474.636058
120.689687,1149.143247,222.061783,9770.718434
120.689995,1685.410096,-0.000000,9844.739029
120.690303,1455.581446,222.061783,9696.697840
120.690611,1838.629195,518.144159,9918.759623
120.690919,2374.896044,296.082377,9548.656652
120.691227,2145.067394,740.205942,9770.718434
120.691535,2451.505594,888.247130,9548.656652
120.691843,1838.629195,1110.308913,9770.718434
120.692151,2604.724693,1332.370696,9474.636058
120.692459,2298.286494,1110.308913,9474.636058
120.692767,2298.286494,1184.329507,9400.615463
120.693075,2451.505594,1110.308913,9548.656652
120.693383,2298.286494,962.267725,9770.718434
120.693691,2145.067394,1406.391290,9770.718434
120.693999,2068.457845,888.247130,9548.656652
120.694307,2298.286494,1554.432478,9992.780217
120.694615,1838.629195,962.267725,9770.718434
120.694923,1762.019645,814.226536,9918.759623
120.695231,1762.019645,740.205942,10066.800811
120.695539,1915.238745,518.144159,10066.800811
120.695847,1685.410096,518.144159,10288.862594
120.696155,1455.581446,888.247130,10288.862594
120.696463,2451.505594,592.164754,10140.821405
120.696771,1532.190996,1036.288319,9474.636058
120.697079,1838.629195,814.226536,9326.594869
120.697387,1608.800546,888.247130,9474.636058
120.697695,1532.190996,888.247130,9400.615463
120.698003,1302.362347,888.247130,9474.636058
120.698311,1072.533697,814.226536,9770.718434
120.698619,919.314598,666.185348,9622.677246
120.698927,919.314598,-0.000000,9918.759623
120.699235,306.438199,-0.000000,9844.739029
120.699543,-229.828649,-74.020594,9844.739029
120.699851,-383.047749,-370.102971,9992.780217
120.700159,-536.266849,-296.082377,10140.821405
120.700467,-995.924147,-814.226536,10214.842000
120.700775,-995.924147,-592.164754,10066.800811
120.701083,-1149.143247,-148.041188,9696.697840
120.701391,-995.924147,222.061783,9992.780217
120.701699,-766.095498,-0.000000,9622.677246
120.702007,-612.876398,-0.000000,9474.636058
120.702314,-995.924147,-0.000000,9326.594869
120.702622,-1072.533697,-370.102971,9104.533087
120.702930,-1072.533697,-444.123565,9400.615463
120.703238,-1378.971896,-592.164754,9474.636058
120.703546,-842.705048,-740.205942,9178.553681
120.703854,-919.314598,-592.164754,9474.636058
120.704162,-1072.533697,-888.247130,9474.636058
120.704470,-1072.533697,-814.226536,9400.615463
120.704778,-1149.143247,-592.164754,9252.574275
120.705086,-1302.362347,-592.164754,9326.594869
120.705394,-1378.971896,-666.185348,9104.533087
120.705702,-612.876398,-518.144159,9252.574275
120.706010,-306.438199,-148.041188,9326.594869
120.706318,0.000000,-518.144159,9178.553681
120.706626,0.000000,-222.061783,9474.636058
120.706934,76.609550,-370.102971,9474.636058
120.707242,76.609550,-370.102971,9474.636058
120.707550,459.657299,-222.061783,9474.636058
120.707858,995.924147,-370.102971,9696.697840
120.708166,995.924147,-296.082377,9474.636058
120.708474,1302.362347,-74.020594,9474.636058
120.708782,1685.410096,-148.041188,9474.636058
120.709090,1685.410096,222.061783,9474.636058
120.709398,2145.067394,444.123565,9474.636058
120.709706,1915.238745,666.185348,9326.594869
120.710014,2068.457845,740.205942,9548.656652
120.710322,2298.286494,518.144159,9178.553681
120.710630,2068.457845,296.082377,9696.697840
120.710938,2221.676944,666.185348,9770.718434
120.711246,2451.505594,666.185348,9548.656652
120.711554,1991.848295,888.247130,9696.697840
120.711862,2298.286494,888.247130,9770.718434
120.712170,2145.067394,1036.288319,9696.697840
120.712478,2221.676944,1258.350101,9622.677246
120.712786,2451.505594,1702.473667,9770.718434
120.713094,2757.943793,1110.308913,9474.636058
120.713402,2911.162892,1110.308913,9844.739029
120.713710,2221.676944,1258.350101,9844.739029
120.714018,1991.848295,1184.329507,9918.759623
120.714326,1838.629195,1184.329507,10140.821405
120.714634,1838.629195,1110.308913,9992.780217
120.714942,1762.019645,666.185348,10066.800811
120.715250,1915.238745,518.144159,9918.759623
120.715557,2068.457845,518.144159,9918.759623
120.715865,2068.457845,222.061783,9992.780217
120.716173,2528.115143,296.082377,9548.656652
120.716481,1991.848295,592.164754,9400.615463
120.716789,2145.067394,740.205942,9474.636058
120.717097,1838.629195,518.144159,9474.636058
120.717405,1762.019645,666.185348,9400.615463
120.717713,1608.800546,444.123565,9400.615463
120.718021,1608.800546,444.123565,9622.677246
120.718329,1225.752797,370.102971,9696.697840
120.718637,766.095498,-0.000000,9548.656652
120.718945,536.266849,-0.000000,9474.636058
120.719253,153.219100,-74.020594,9696.697840
120.719561,0.000000,-0.000000,9770.718434
120.719869,-383.047749,-148.041188,9770.718434
120.720177,-612.876398,-518.144159,9622.677246
120.720485,-689.485948,-222.061783,9844.739029
120.720793,-1072.533697,-518.144159,9992.780217
120.721101,-919.314598,-370.102971,9696.697840
120.721409,-1378.971896,-222.061783,9622.677246
120.721717,-1378.971896,-74.020594,9548.656652
120.722025,-1762.019645,-222.061783,9474.636058
120.722333,-1991.848295,-148.041188,9622.677246
120.722641,-1685.410096,-148.041188,9844.739029
120.722949,-1302.362347,-592.164754,9622.677246
120.723257,-1991.848295,-888.247130,9770.718434
120.723565,-1378.971896,-592.164754,9696.697840
120.723873,-1685.410096,-296.082377,9474.636058
120.724181,-1685.410096,-814.226536,9548.656652
120.724489,-1378.971896,-518.144159,9326.594869
120.724797,-1455.581446,-666.185348,9326.594869
120.725105,-1072.533697,-962.267725,9178.553681
120.725413,-842.705048,-370.102971,9474.636058
120.725721,-536.266849,-296.082377,9178.553681
120.726029,-153.219100,-592.164754,9030.512492
120.726337,-229.828649,-74.020594,9104.533087
120.726645,0.000000,-444.123565,9030.512492
120.726953,0.000000,-518.144159,9474.636058
120.727261,153.219100,-592.164754,9474.636058
120.727569,612.876398,-518.144159,9622.677246
120.727877,995.924147,-370.102971,9548.656652
120.728185,766.095498,-518.144159,9474.636058
120.728492,1072.533697,-148.041188,9622.677246
120.728800,1302.362347,-0.000000,9696.697840
120.729108,1608.800546,148.041188,9474.636058
120.729416,1608.800546,296.082377,9622.677246
120.729724,1762.019645,296.082377,9548.656652
120.730032,2145.067394,370.102971,10140.821405
120.730340,1838.629195,592.164754,9844.739029
120.730648,2068.457845,370.102971,9992.780217
120.730956,1991.848295,666.185348,9918.759623
120.731264,2145.067394,1036.288319,9770.718434
120.731572,2298.286494,1184.329507,9770.718434
120.731880,2298.286494,1258.350101,9474.636058
120.732188,2528.115143,1480.411884,9548.656652
120.732496,2911.162892,1554.432478,9474.636058
120.732804,2757.943793,1332.370696,9844.739029
120.733112,2145.067394,1554.432478,9474.636058
120.733420,2604.724693,1406.391290,9696.697840
120.733728,2298.286494,1554.432478,9622.677246
120.734036,2221.676944,1258.350101,9844.739029
120.734344,2145.067394,1184.329507,9918.759623
120.734652,2068.457845,962.267725,9992.780217
120.734960,1991.848295,666.185348,9918.759623
120.735268,2374.896044,740.205942,10288.862594
120.735576,1991.848295,296.082377,9918.759623
120.735884,1915.238745,518.144159,10214.842000
120.736192,1685.410096,666.185348,9696.697840
120.736500,1762.019645,1036.288319,9770.718434
120.736808,2068.457845,888.247130,9474.636058
120.737116,1915.238745,666.185348,9326.594869
120.737424,1608.800546,814.226536,9400.615463
120.737732,1378.971896,814.226536,9474.636058
120.738040,1149.143247,370.102971,9474.636058
120.738348,1072.533697,148.041188,9252.574275
120.738656,536.266849,370.102971,9548.656652
120.738964,153.219100,370.102971,9844.739029
120.739272,0.000000,-74.020594,9918.759623
120.739580,-612.876398,-370.102971,10066.800811
120.739888,-766.095498,-666.185348,10807.006753
120.740196,-1072.533697,-666.185348,10362.883188
120.740504,-1455.581446,-888.247130,10362.883188
120.740812,-1072.533697,-888.247130,10066.800811
120.741120,-1378.971896,-666.185348,9474.636058
120.741427,-1378.971896,-370.102971,9474.636058
120.741735,-1149.143247,-74.020594,9400.615463
120.742043,-1072.533697,-0.000000,9326.594869
120.742351,-1378.971896,-296.082377,9178.553681
120.742659,-995.924147,-370.102971,9178.553681
120.742967,-1149.143247,-222.061783,9178.553681
120.743275,-1762.019645,-666.185348,9474.636058
120.743583,-1225.752797,-518.144159,9178.553681
120.743891,-1455.581446,-518.144159,9400.615463
120.744199,-1378.971896,-518.144159,9474.636058
120.744507,-1225.752797,-666.185348,9400.615463
120.744815,-1225.752797,-592.164754,9622.677246
120.745123,-1225.752797,-592.164754,9474.636058
120.745431,0.000000,-814.226536,9474.636058
120.745739,-229.828649,-666.185348,9474.636058
120.746047,-306.438199,-666.185348,9400.615463
120.746355,-306.438199,-444.123565,9474.636058
120.746663,-306.438199,-592.164754,9474.636058
120.746971,0.000000,-666.185348,9474.636058
120.747279,689.485948,-740.205942,9696.697840
120.747587,0.000000,-444.123565,9992.780217
120.747895,766.095498,-370.102971,9770.718434
120.748203,766.095498,-222.061783,9696.697840
120.748511,995.924147,518.144159,9770.718434
120.748819,1532.190996,666.185348,9400.615463
120.749127,1991.848295,740.205942,9326.594869
120.749435,2068.457845,740.205942,9178.553681
120.749743,2298.286494,740.205942,9844.739029
120.750051,1991.848295,888.247130,9844.739029
120.750359,1838.629195,666.185348,9918.759623
120.750667,1762.019645,518.144159,9770.718434
120.750975,2068.457845,666.185348,9548.656652
120.751283,1991.848295,962.267725,9770.718434
120.751591,2145.067394,1110.308913,9770.718434
120.751899,2298.286494,1110.308913,9696.697840
120.752207,2221.676944,1184.329507,9622.677246
120.752515,2681.334243,1258.350101,9918.759623
120.752823,1685.410096,1258.350101,9844.739029
120.753131,2374.896044,1184.329507,10140.821405
120.753439,2145.067394,1480.411884,9770.718434
120.753747,2221.676944,1406.391290,9696.697840
120.754055,2145.067394,1184.329507,9770.718434
120.754362,2221.676944,962.267725,9770.718434
120.754670,1915.238745,1110.308913,10288.862594
120.754978,1685.410096,666.185348,9992.780217
120.755286,2145.067394,740.205942,9696.697840
120.755594,2298.286494,296.082377,9770.718434
120.755902,2374.896044,740.205942,9474.636058
120.756210,2068.457845,666.185348,9474.636058
120.756518,2145.067394,444.123565,9400.615463
120.756826,1685.410096,370.102971,9474.636058
120.757134,1608.800546,148.041188,9474.636058
120.757442,1762.019645,-0.000000,9696.697840
120.757750,1455.581446,222.061783,9326.594869
120.758058,1072.533697,740.205942,9400.615463
120.758366,919.314598,370.102971,9474.636058
120.758674,612.876398,222.061783,9400.615463
120.758982,153.219100,148.041188,9770.718434
120.759290,76.609550,-222.061783,9474.636058
120.759598,0.000000,-518.144159,9770.718434
120.759906,-306.438199,-518.144159,9992.780217
120.760214,-612.876398,-814.226536,10140.821405
120.760522,-1225.752797,-518.144159,9992.780217
120.760830,-1225.752797,-370.102971,9918.759623
120.761138,-1072.533697,-296.082377,9622.677246
120.761446,-1149.143247,-296.082377,9474.636058
120.761754,-1225.752797,-370.102971,9252.574275
120.762062,-766.095498,-518.144159,9252.574275
120.762370,-1762.019645,-370.102971,9178.553681
120.762678,-1838.629195,-444.123565,9400.615463
120.762986,-1838.629195,-888.247130,9474.636058
120.763294,-1532.190996,-518.144159,9474.636058
120.763602,-1608.800546,-370.102971,9548.656652
120.763910,-1685.410096,-370.102971,9548.656652
120.764218,-1378.971896,-814.226536,9400.615463
120.764526,-1685.410096,-1036.288319,9622.677246
120.764834,-1225.752797,-518.144159,9844.739029
120.765142,-919.314598,-888.247130,9030.512492
120.765450,-1225.752797,-370.102971,9770.718434
120.765758,-689.485948,-444.123565,9178.553681
120.766066,-459.657299,-296.082377,9326.594869
120.766374,0.000000,-0.000000,9030.512492
120.766682,153.219100,-222.061783,9252.574275
120.766990,0.000000,-222.061783,9548.656652
120.767298,459.657299,-444.123565,9548.656652
120.767605,689.485948,-222.061783,9548.656652
120.767913,76.609550,-74.020594,9622.677246
120.768221,689.485948,-0.000000,9622.677246
120.768529,919.314598,222.061783,9548.656652
120.768837,995.924147,370.102971,9696.697840
120.769145,1455.581446,296.082377,9918.759623
120.769453,1149.143247,444.123565,9696.697840
120.769761,1838.629195,370.102971,9992.780217
120.770069,2068.457845,370.102971,9696.697840
120.770377,2221.676944,518.144159,9918.759623
120.770685,1915.238745,962.267725,9918.759623
120.770993,2298.286494,962.267725,9770.718434
120.771301,2451.505594,1036.288319,9474.636058
120.771609,3217.601092,1184.329507,9622.677246
120.771917,2451.505594,814.226536,9622.677246
120.772225,2604.724693,740.205942,9770.718434
120.772533,2451.505594,1332.370696,9844.739029
120.772841,2604.724693,1406.391290,9696.697840
120.773149,2681.334243,1406.391290,9622.677246
120.773457,2681.334243,1554.432478,9548.656652
120.773765,2757.943793,1628.453072,9622.677246
120.774073,2451.505594,1258.350101,9696.697840
120.774381,2451.505594,1036.288319,9696.697840
120.774689,2451.505594,888.247130,9622.677246
120.774997,2451.505594,666.185348,9918.759623
120.775305,2374.896044,592.164754,9548.656652
120.775613,1991.848295,518.144159,9548.656652
120.775921,1915.238745,666.185348,9622.677246
120.776229,1762.019645,666.185348,9770.718434
120.776537,1378.971896,592.164754,9548.656652
120.776845,1685.410096,444.123565,9400.615463
120.777153,1302.362347,370.102971,9252.574275
120.777457,1225.752797,74.020594,9548.656652
120.777765,995.924147,444.123565,9548.656652
120.778073,689.485948,444.123565,9622.677246
120.778381,459.657299,444.123565,9622.677246
120.778689,76.609550,370.102971,9696.697840
120.778997,0.000000,370.102971,9844.739029
120.779305,0.000000,-222.061783,9770.718434
120.779613,0.000000,-444.123565,10066.800811
120.779921,-306.438199,-814.226536,9622.677246
120.780229,-1149.143247,-592.164754,9400.615463
120.780537,-1149.143247,-888.247130,9622.677246
120.780845,-1225.752797,-592.164754,9696.697840
120.781153,-1072.533697,-592.164754,9474.636058
120.781461,-1685.410096,-444.123565,9252.574275
120.781769,-766.095498,-518.144159,9400.615463
120.782077,-689.485948,-222.061783,9326.594869
120.782385,-1149.143247,-592.164754,9252.574275
120.782693,-1455.581446,-222.061783,9104.533087
120.783001,-1455.581446,-222.061783,9104.533087
120.783309,-1378.971896,-296.082377,9400.615463
120.783617,-1532.190996,-444.123565,9474.636058
120.783925,-1762.019645,-1036.288319,9622.677246
120.784233,-1225.752797,-888.247130,9844.739029
120.784540,-1149.143247,-888.247130,9474.636058
120.784848,-1072.533697,-1110.308913,9622.677246
120.785156,-1149.143247,-444.123565,9918.759623
120.785464,-995.924147,-592.164754,9474.636058
120.785772,-383.047749,-444.123565,9400.615463
120.786080,-306.438199,-222.061783,9252.574275
120.786388,229.828649,-370.102971,9474.636058
120.786696,229.828649,-148.041188,9992.780217
120.787004,306.438199,-148.041188,9474.636058
120.787312,689.485948,-518.144159,9622.677246
120.787620,536.266849,-74.020594,9474.636058
120.787928,842.705048,222.061783,9770.718434
120.788236,1225.752797,222.061783,9548.656652
120.788544,1455.581446,518.144159,9548.656652
120.788852,1225.752797,296.082377,9696.697840
120.789160,1685.410096,444.123565,9474.636058
120.789468,1762.019645,222.061783,9622.677246
120.789776,2374.896044,444.123565,9696.697840
120.790084,1838.629195,740.205942,9622.677246
120.790392,2145.067394,592.164754,9844.739029
120.790700,2068.457845,814.226536,9992.780217
120.791008,2145.067394,740.205942,10066.800811
120.791316,2221.676944,1036.288319,9770.718434
120.791624,2757.943793,740.205942,9696.697840
120.791932,2604.724693,518.144159,9548.656652
120.792240,2604.724693,962.267725,9548.656652
120.792548,2528.115143,1184.329507,9622.677246
120.792856,2451.505594,1184.329507,9548.656652
120.793163,2451.505594,1258.350101,9548.656652
120.793471,2528.115143,1184.329507,9696.697840
120.793779,2604.724693,1110.308913,9844.739029
120.794087,2528.115143,1184.329507,9622.677246
120.794395,2374.896044,666.185348,9918.759623
120.794703,2528.115143,666.185348,9548.656652
120.795011,1991.848295,888.247130,9696.697840
120.795319,2374.896044,592.164754,9770.718434
120.795627,1991.848295,740.205942,9696.697840
120.795935,2145.067394,592.164754,9696.697840
120.796243,2221.676944,-0.000000,9622.677246
120.796551,2145.067394,-0.000000,9326.594869
120.796859,1378.971896,444.123565,9474.636058
120.797167,1302.362347,444.123565,9696.697840
120.797475,1378.971896,518.144159,9252.574275
120.797783,1149.143247,518.144159,9400.615463
120.798091,919.314598,444.123565,9326.594869
120.798399,689.485948,370.102971,9400.615463
120.798707,153.219100,222.061783,9918.759623
120.799015,612.876398,-0.000000,10066.800811
120.799323,76.609550,-148.041188,9622.677246
120.799631,-383.047749,-0.000000,9992.780217
120.799939,-766.095498,-444.123565,9770.718434
120.800247,-612.876398,-370.102971,9770.718434
120.800555,-689.485948,-370.102971,9622.677246
120.800863,-842.705048,-296.082377,9400.615463
120.801171,-919.314598,-592.164754,9400.615463
120.801479,-536.266849,-222.061783,9400.615463
120.801787,-1225.752797,-222.061783,9696.697840
120.802094,-1225.752797,-518.144159,8956.491898
120.802402,-1378.971896,-370.102971,9252.574275
120.802710,-1608.800546,-296.082377,9400.615463
120.803018,-1762.019645,-666.185348,9548.656652
120.803326,-1838.629195,-666.185348,9474.636058
120.803634,-2068.457845,-814.226536,9548.656652
120.803942,-2451.505594,-1258.350101,9548.656652
120.804250,-1915.238745,-888.247130,9548.656652
120.804558,-1378.971896,-740.205942,9770.718434
120.804866,-1532.190996,-814.226536,9548.656652
120.805174,-1302.362347,-666.185348,9548.656652
120.805482,-1072.533697,-370.102971,9474.636058
120.805790,-766.095498,-888.247130,9252.574275
120.806098,0.000000,-74.020594,9326.594869
120.806406,-383.047749,-296.082377,9178.553681
120.806714,-229.828649,-0.000000,9918.759623
120.807022,383.047749,-0.000000,9474.636058
120.807330,0.000000,-74.020594,9548.656652
120.807638,153.219100,-74.020594,9770.718434
120.807946,229.828649,222.061783,9770.718434
120.808254,842.705048,222.061783,9622.677246
120.808562,1302.362347,222.061783,9622.677246
120.808870,1685.410096,296.082377,9696.697840
120.809178,1991.848295,444.123565,9548.656652
120.809486,1532.190996,444.123565,9770.718434
120.809794,1532.190996,666.185348,9918.759623
120.810102,1685.410096,740.205942,9992.780217
120.810410,1762.019645,666.185348,9844.739029
120.810718,2068.457845,592.164754,9844.739029
120.811025,1915.238745,740.205942,9548.656652
120.811333,2757.943793,666.185348,9474.636058
120.811641,3140.991542,1110.308913,9844.739029
120.811949,2681.334243,814.226536,9696.697840
120.812257,2451.505594,962.267725,9474.636058
120.812565,2604.724693,1110.308913,9474.636058
120.812873,2757.943793,1184.329507,9548.656652
120.813181,2987.772442,1258.350101,9548.656652
120.813489,2757.943793,1036.288319,9400.615463
120.813797,2374.896044,740.205942,9696.697840
120.814105,2911.162892,1036.288319,9992.780217
120.814413,2451.505594,888.247130,9844.739029
120.814721,2221.676944,1036.288319,9844.739029
120.815029,2221.676944,888.247130,9696.697840
120.815337,2298.286494,814.226536,9696.697840
120.815645,2451.505594,592.164754,9696.697840
120.815953,2451.505594,740.205942,9400.615463
120.816261,2451.505594,814.226536,9474.636058
120.816569,1838.629195,888.247130,9474.636058
120.816877,1685.410096,740.205942,9548.656652
120.817185,1455.581446,666.185348,9548.656652
120.817493,1072.533697,666.185348,9696.697840
120.817801,919.314598,518.144159,9770.718434
120.818109,536.266849,666.185348,9696.697840
120.818417,536.266849,148.041188,9770.718434
120.818725,153.219100,-296.082377,9992.780217
120.819033,689.485948,-0.000000,9844.739029
120.819341,76.609550,-74.020594,9696.697840
120.819648,-459.657299,-222.061783,9696.697840
120.819956,-459.657299,-296.082377,9622.677246
120.820264,-766.095498,-296.082377,9474.636058
120.820572,-766.095498,-296.082377,9474.636058
120.820880,-1072.533697,-518.144159,9400.615463
120.821188,-1378.971896,-518.144159,9474.636058
120.821496,-919.314598,-740.205942,9400.615463
120.821804,-1608.800546,-518.144159,9474.636058
120.822112,-1302.362347,-518.144159,9622.677246
120.822420,-1225.752797,-666.185348,9548.656652
120.822728,-1608.800546,-740.205942,9474.636058
120.823036,-1532.190996,-814.226536,9622.677246
120.823344,-1532.190996,-814.226536,9474.636058
120.823652,-1685.410096,-518.144159,9474.636058
120.823960,-1072.533697,-518.144159,9474.636058
120.824268,-1072.533697,-518.144159,9326.594869
120.824576,-1149.143247,-518.144159,9474.636058
120.824884,-1532.190996,-592.164754,9548.656652
120.825192,-1302.362347,-814.226536,9696.697840
120.825500,-1608.800546,-1184.329507,9548.656652
120.825808,-766.095498,-666.185348,9992.780217
120.826116,-995.924147,-666.185348,9474.636058
120.826424,0.000000,-296.082377,9474.636058
120.826732,0.000000,-222.061783,9474.636058
120.827040,153.219100,-0.000000,9548.656652
120.827348,459.657299,222.061783,9474.636058
120.827656,766.095498,370.102971,9400.615463
120.827964,1072.533697,222.061783,9474.636058
120.828272,612.876398,296.082377,9474.636058
120.828579,1762.019645,518.144159,9326.594869
120.828887,1072.533697,444.123565,9622.677246
120.829195,1532.190996,666.185348,9770.718434
120.829503,1455.581446,518.144159,9770.718434
120.829811,1532.190996,444.123565,9992.780217
120.830119,1455.581446,222.061783,9844.739029
120.830427,1149.143247,592.164754,10140.821405
120.830735,1608.800546,740.205942,10362.883188
120.831043,1915.238745,592.164754,9918.759623
120.831351,1532.190996,1184.329507,10066.800811
120.831659,2374.896044,888.247130,9622.677246
120.831967,2221.676944,1110.308913,9622.677246
120.832275,2145.067394,1036.288319,9548.656652
120.832583,2451.505594,1258.350101,9918.759623
120.832891,2451.505594,1110.308913,9622.677246
120.833199,2374.896044,1480.411884,9770.718434
120.833507,2604.724693,1110.308913,9696.697840
120.833815,2604.724693,1258.350101,9918.759623
120.834123,2528.115143,888.247130,9992.780217
120.834431,2374.896044,1036.288319,9548.656652
120.834739,2451.505594,814.226536,9474.636058
120.835047,2298.286494,666.185348,9474.636058
120.835355,2451.505594,518.144159,9992.780217
120.835663,2604.724693,518.144159,9696.697840
120.835971,2145.067394,444.123565,9474.636058
120.836279,2145.067394,814.226536,9326.594869
120.836587,2068.457845,518.144159,9326.594869
120.836895,1838.629195,740.205942,9474.636058
120.837202,1532.190996,518.144159,9326.594869
120.837510,1149.143247,444.123565,9178.553681
120.837818,1455.581446,370.102971,9770.718434
120.838126,612.876398,296.082377,9326.594869
120.838434,766.095498,518.144159,9696.697840
120.838742,1149.143247,296.082377,9622.677246
120.839050,306.438199,-0.000000,9474.636058
120.839358,153.219100,-74.020594,9474.636058
120.839666,-229.828649,-148.041188,9622.677246
120.839974,-306.438199,-74.020594,9770.718434
120.840282,-536.266849,-518.144159,9844.739029
120.840590,-995.924147,-740.205942,9474.636058
120.840898,-689.485948,-148.041188,9474.636058
120.841206,-612.876398,-370.102971,9252.574275
120.841514,-842.705048,-0.000000,9474.636058
120.841822,-766.095498,-74.020594,9326.594869
120.842130,-919.314598,-0.000000,9400.615463
120.842438,-995.924147,-296.082377,9252.574275
120.842746,-1455.581446,-296.082377,9104.533087
120.843054,-1302.362347,-666.185348,9844.739029
120.843362,-1685.410096,-518.144159,9770.718434
120.843670,-1608.800546,-888.247130,9474.636058
120.843978,-1608.800546,-962.267725,9844.739029
120.844286,-1915.238745,-740.205942,9770.718434
120.844594,-1685.410096,-888.247130,9548.656652
120.844902,-1378.971896,-814.226536,9844.739029
120.845210,-1608.800546,-888.247130,9400.615463
120.845518,-1149.143247,-592.164754,9696.697840
120.845826,-612.876398,-222.061783,9696.697840
120.846133,-612.876398,-222.061783,9178.553681
120.846441,-229.828649,-222.061783,9252.574275
120.846749,0.000000,-0.000000,9400.615463
120.847057,76.609550,-74.020594,9474.636058
120.847365,-383.047749,-74.020594,9548.656652
120.847673,229.828649,-74.020594,9770.718434
120.847981,459.657299,-222.061783,9844.739029
120.848289,689.485948,-0.000000,9696.697840
120.848597,919.314598,222.061783,9622.677246
120.848905,1149.143247,444.123565,9548.656652
120.849213,1455.581446,592.164754,9622.677246
120.849521,1532.190996,666.185348,9696.697840
120.849829,2298.286494,592.164754,9696.697840
120.850137,1915.238745,444.123565,9622.677246
120.850445,1762.019645,740.205942,9918.759623
120.850753,2221.676944,296.082377,9844.739029
120.851061,1685.410096,666.185348,10140.821405
120.851369,1838.629195,666.185348,10066.800811
120.851677,2145.067394,592.164754,9918.759623
120.851985,2451.505594,740.205942,9844.739029
120.852293,2451.505594,1110.308913,9770.718434
120.852601,2834.553343,888.247130,9622.677246
120.852909,2757.943793,962.267725,9474.636058
120.853217,2451.505594,1628.453072,9474.636058
120.853525,2911.162892,1406.391290,8956.491898
120.853833,2911.162892,1406.391290,9252.574275
120.854141,2681.334243,1184.329507,9400.615463
120.854449,2451.505594,1332.370696,9252.574275
120.854756,2145.067394,666.185348,9474.636058
120.855064,2298.286494,592.164754,9622.677246
120.855372,2145.067394,222.061783,9844.739029
120.855680,1915.238745,518.144159,9918.759623
120.855988,1991.848295,666.185348,9696.697840
120.856296,1838.629195,740.205942,9548.656652
120.856604,1762.019645,666.185348,9622.677246
120.856912,1991.848295,666.185348,9474.636058
120.857220,1608.800546,814.226536,9474.636058
120.857528,1378.971896,814.226536,9400.615463
120.857836,1455.581446,666.185348,9622.677246
120.858144,536.266849,370.102971,9548.656652
120.858452,689.485948,444.123565,9400.615463
120.858760,536.266849,444.123565,9770.718434
120.859068,0.000000,296.082377,9770.718434
120.859376,-229.828649,222.061783,9992.780217
120.859684,-229.828649,-148.041188,10214.842000
120.859992,0.000000,-296.082377,9770.718434
120.860300,-306.438199,-666.185348,9844.739029
120.860608,-919.314598,-370.102971,10214.842000
120.860916,-919.314598,-592.164754,9548.656652
120.861224,-919.314598,-222.061783,9474.636058
120.861532,-1149.143247,-296.082377,9474.636058
120.861840,-1225.752797,-148.041188,9252.574275
120.862148,-1225.752797,-370.102971,9548.656652
120.862456,-995.924147,-296.082377,9474.636058
120.862764,-766.095498,-592.164754,9474.636058
120.863072,-1532.190996,-888.247130,9030.512492
120.863380,-1302.362347,-592.164754,9326.594869
120.863687,-1378.971896,-592.164754,9474.636058
120.863995,-1378.971896,-666.185348,9474.636058
120.864303,-1225.752797,-518.144159,9474.636058
120.864611,-1838.629195,-518.144159,9548.656652
120.864919,-995.924147,-518.144159,9696.697840
120.865227,-1149.143247,-592.164754,9844.739029
120.865535,-995.924147,-222.061783,9844.739029
120.865843,-995.924147,-222.061783,9696.697840
120.866151,-995.924147,-370.102971,9474.636058
120.866459,-459.657299,-370.102971,9548.656652
120.866767,-383.047749,-296.082377,9696.697840
120.867075,-153.219100,-148.041188,9696.697840
120.867383,536.266849,-222.061783,9696.697840
120.867691,842.705048,-148.041188,9622.677246
120.867999,383.047749,-0.000000,9400.615463
120.868307,842.705048,296.082377,9474.636058
120.868615,919.314598,370.102971,9474.636058
120.868923,1149.143247,444.123565,9474.636058
120.869231,1532.190996,444.123565,9548.656652
120.869539,1225.752797,518.144159,9844.739029
120.869847,2221.676944,592.164754,9622.677246
120.870155,1532.190996,888.247130,9992.780217
120.870463,1838.629195,444.123565,9844.739029
120.870771,1762.019645,592.164754,9622.677246
120.871079,1991.848295,592.164754,9696.697840
120.871387,1991.848295,740.205942,9622.677246
120.871695,2145.067394,962.267725,9474.636058
120.872003,2528.115143,1184.329507,9548.656652
120.872310,2911.162892,888.247130,9622.677246
120.872618,2604.724693,1110.308913,9844.739029
120.872926,2374.896044,1036.288319,9252.574275
120.873234,2528.115143,1184.329507,9696.697840
120.873542,2374.896044,1110.308913,9622.677246
120.873850,2374.896044,888.247130,9844.739029
120.874158,2298.286494,666.185348,9770.718434
120.874466,1991.848295,814.226536,9696.697840
120.874774,2298.286494,814.226536,9918.759623
120.875082,2145.067394,888.247130,9696.697840
120.875390,2528.115143,666.185348,9770.718434
120.875698,2451.505594,1036.288319,9622.677246
120.876006,2451.505594,962.267725,9326.594869
120.876314,2451.505594,888.247130,9252.574275
120.876622,2451.505594,518.144159,9474.636058
120.876930,2451.505594,444.123565,9474.636058
120.877238,1608.800546,592.164754,9474.636058
120.877546,1685.410096,296.082377,9474.636058
120.877854,1225.752797,148.041188,9400.615463
120.878162,1072.533697,296.082377,9696.697840
120.878470,995.924147,296.082377,9696.697840
120.878778,689.485948,370.102971,9696.697840
120.879086,229.828649,-0.000000,9696.697840
120.879394,383.047749,-0.000000,9696.697840
120.879702,689.485948,148.041188,9548.656652
120.880010,306.438199,-0.000000,9548.656652
120.880318,153.219100,-74.020594,9844.739029
120.880626,-612.876398,-0.000000,9474.636058
120.880934,-612.876398,370.102971,9474.636058
120.881241,-766.095498,-0.000000,9548.656652
120.881549,-766.095498,-74.020594,9474.636058
120.881857,-1608.800546,-518.144159,9622.677246
120.882165,-1072.533697,-370.102971,9844.739029
120.882473,-1762.019645,-222.061783,9474.636058
120.882781,-1532.190996,-444.123565,9548.656652
120.883090,-1838.629195,-518.144159,9548.656652
120.883398,-1838.629195,-518.144159,9474.636058
120.883706,-1838.629195,-666.185348,9474.636058
120.884014,-1685.410096,-814.226536,9992.780217
120.884322,-1225.752797,-1110.308913,9548.656652
120.884630,-1762.019645,-370.102971,10066.800811
120.884938,-1149.143247,-962.267725,9548.656652
120.885246,-1225.752797,-666.185348,9622.677246
120.885554,-1455.581446,-444.123565,9400.615463
120.885862,-1072.533697,-370.102971,9696.697840
120.886170,-995.924147,-518.144159,9474.636058
120.886478,-612.876398,-666.185348,9400.615463
120.886786,-459.657299,-296.082377,9400.615463
120.887094,229.828649,-370.102971,9696.697840
120.887402,536.266849,-0.000000,9548.656652
120.887710,76.609550,-74.020594,9326.594869
120.888018,229.828649,-0.000000,9474.636058
120.888326,612.876398,-0.000000,9474.636058
120.888634,766.095498,296.082377,9474.636058
120.888942,842.705048,370.102971,9474.636058
120.889250,1225.752797,-0.000000,9474.636058
120.889558,1225.752797,-0.000000,9474.636058
120.889866,1762.019645,-74.020594,9844.739029
120.890174,1455.581446,444.123565,9992.780217
120.890482,1685.410096,370.102971,9696.697840
120.890790,1915.238745,592.164754,9770.718434
120.891098,1838.629195,814.226536,9696.697840
120.891406,2068.457845,888.247130,9696.697840
120.891714,2528.115143,740.205942,9474.636058
120.892022,3140.991542,888.247130,9474.636058
120.892330,3064.381992,962.267725,9400.615463
120.892638,2757.943793,962.267725,9474.636058
120.892946,2604.724693,1036.288319,9400.615463
120.893254,2374.896044,1036.288319,9622.677246
120.893562,2298.286494,1332.370696,9548.656652
120.893870,2834.553343,1184.329507,9548.656652
120.894178,3064.381992,814.226536,9622.677246
120.894486,2298.286494,1184.329507,9622.677246
120.894794,2528.115143,592.164754,9696.697840
120.895102,2451.505594,740.205942,9918.759623
120.895410,2298.286494,740.205942,9844.739029
120.895718,2145.067394,740.205942,9770.718434
120.896026,2374.896044,592.164754,9548.656652
120.896335,1915.238745,740.205942,9474.636058
120.896643,2068.457845,666.185348,9474.636058
120.896951,2528.115143,592.164754,9400.615463
120.897259,1685.410096,592.164754,9548.656652
120.897567,1532.190996,814.226536,9474.636058
120.897875,995.924147,518.144159,9844.739029
120.898183,995.924147,370.102971,9696.697840
120.898491,766.095498,370.102971,9696.697840
120.898799,229.828649,296.082377,10140.821405
120.899107,459.657299,-0.000000,9770.718434
120.899415,306.438199,-148.041188,10066.800811
120.899723,383.047749,-370.102971,9474.636058
120.900031,-306.438199,-222.061783,9696.697840
120.900339,-612.876398,-444.123565,9844.739029
120.900647,-919.314598,-370.102971,9696.697840
120.900955,-689.485948,-518.144159,9474.636058
120.901263,-766.095498,-370.102971,9400.615463
120.901571,-689.485948,-148.041188,9474.636058
120.901879,-919.314598,-296.082377,9178.553681
120.902187,-1149.143247,-444.123565,9326.594869
120.902495,-1072.533697,-518.144159,9548.656652
120.902803,-1149.143247,-444.123565,9474.636058
120.903111,-1608.800546,-666.185348,9252.574275
120.903419,-1532.190996,-666.185348,9622.677246
120.903727,-1608.800546,-962.267725,9474.636058
120.904035,-1302.362347,-1110.308913,9400.615463
120.904343,-1302.362347,-962.267725,9622.677246
120.904651,-1149.143247,-592.164754,9770.718434
120.904959,-1225.752797,-666.185348,9474.636058
120.905267,-1225.752797,-814.226536,9696.697840
120.905575,-995.924147,-296.082377,9622.677246
120.905883,-995.924147,-444.123565,9548.656652
120.906191,-689.485948,-740.205942,9400.615463
120.906499,-229.828649,-222.061783,9548.656652
120.906807,0.000000,-148.041188,9622.677246
120.907115,-383.047749,-0.000000,9770.718434
120.907423,153.219100,-0.000000,9474.636058
120.907731,0.000000,-0.000000,9696.697840
120.908039,459.657299,296.082377,9844.739029
120.908347,459.657299,370.102971,9770.718434
120.908655,1149.143247,148.041188,9474.636058
120.908963,1225.752797,444.123565,9474.636058
120.909272,1608.800546,148.041188,9474.636058
120.909580,1378.971896,296.082377,9400.615463
120.909888,1378.971896,444.123565,9696.697840
120.910196,1608.800546,592.164754,9696.697840
120.910504,1685.410096,740.205942,9844.739029
120.910812,1762.019645,592.164754,9844.739029
120.911120,1762.019645,370.102971,9918.759623
120.911428,1915.238745,740.205942,9770.718434
120.911736,2451.505594,814.226536,9918.759623
120.912044,2221.676944,518.144159,9770.718434
120.912352,2068.457845,814.226536,9696.697840
120.912660,2298.286494,1036.288319,9696.697840
120.912968,2298.286494,1110.308913,9548.656652
120.913276,2528.115143,1110.308913,9474.636058
120.913584,2451.505594,888.247130,9548.656652
120.913892,2528.115143,888.247130,9474.636058
120.914200,2834.553343,666.185348,9844.739029
120.914508,2374.896044,1184.329507,9696.697840
120.914816,2374.896044,888.247130,9474.636058
120.915124,2221.676944,962.267725,9474.636058
120.915432,2298.286494,592.164754,9548.656652
120.915740,2451.505594,814.226536,9622.677246
120.916048,2221.676944,370.102971,9474.636058
120.916356,2298.286494,518.144159,9252.574275
120.916664,2374.896044,370.102971,9474.636058
120.916972,1608.800546,444.123565,9548.656652
120.917280,1838.629195,296.082377,9252.574275
120.917588,1608.800546,666.185348,9622.677246
120.917896,1455.581446,518.144159,9474.636058
120.918204,1455.581446,518.144159,9326.594869
120.918512,919.314598,592.164754,9992.780217
120.918820,995.924147,444.123565,9918.759623
120.919128,1225.752797,-370.102971,9400.615463
120.919436,383.047749,-74.020594,9696.697840
120.919744,306.438199,-148.041188,9548.656652
120.920052,153.219100,-148.041188,9696.697840
120.920360,0.000000,-296.082377,9622.677246
120.920668,0.000000,-148.041188,9474.636058
120.920976,-536.266849,-222.061783,9474.636058
120.921284,-842.705048,666.185348,9918.759623
120.921592,-536.266849,-0.000000,9474.636058
120.921900,-459.657299,-222.061783,9474.636058
120.922208,-1455.581446,-148.041188,9474.636058
120.922517,-1685.410096,-222.061783,9622.677246
120.922825,-1762.019645,-444.123565,9548.656652
120.923133,-1915.238745,-814.226536,9696.697840
120.923441,-1762.019645,-888.247130,9622.677246
120.923749,-2145.067394,-740.205942,10140.821405
120.924057,-1915.238745,-592.164754,10288.862594
120.924365,-1991.848295,-814.226536,9992.780217
120.924673,-1762.019645,-1110.308913,9844.739029
120.924981,-1838.629195,-814.226536,9696.697840
120.925289,-1455.581446,-666.185348,9770.718434
120.925597,-1225.752797,-666.185348,9474.636058
120.925905,-919.314598,-666.185348,9400.615463
120.926213,-612.876398,-444.123565,9326.594869
120.926521,-459.657299,-518.144159,9030.512492
120.926829,0.000000,-0.000000,9474.636058
120.927137,0.000000,-0.000000,9400.615463
120.927445,0.000000,-0.000000,9474.636058
120.927753,229.828649,-0.000000,9548.656652
120.928061,306.438199,-74.020594,9696.697840
120.928369,612.876398,-0.000000,9918.759623
120.928677,995.924147,-0.000000,9844.739029
120.928985,919.314598,-0.000000,9696.697840
120.929293,1225.752797,370.102971,9918.759623
120.929601,1378.971896,518.144159,9770.718434
120.929909,1455.581446,370.102971,9770.718434
120.930217,1685.410096,444.123565,9770.718434
120.930525,2145.067394,740.205942,9918.759623
120.930833,1991.848295,740.205942,9844.739029
120.931141,2145.067394,814.226536,9474.636058
120.931449,2221.676944,666.185348,9844.739029
120.931757,1991.848295,1036.288319,9770.718434
120.932065,2068.457845,1110.308913,9844.739029
120.932373,2451.505594,1110.308913,9696.697840
120.932681,2604.724693,1406.391290,9474.636058
120.932989,2604.724693,1110.308913,9548.656652
120.933297,2451.505594,962.267725,9696.697840
120.933605,2911.162892,1036.288319,9770.718434
120.933913,3140.991542,814.226536,9696.697840
120.934221,2451.505594,1184.329507,9622.677246
120.934529,2451.505594,1332.370696,9696.697840
120.934837,2528.115143,1036.288319,9622.677246
120.935145,2451.505594,1110.308913,9770.718434
120.935453,2757.943793,814.226536,9474.636058
120.935762,2374.896044,962.267725,9696.697840
120.936070,2145.067394,740.205942,9696.697840
120.936378,2221.676944,666.185348,9400.615463
120.936686,1762.019645,740.205942,9622.677246
120.936994,1608.800546,740.205942,9622.677246
120.937302,1532.190996,592.164754,9622.677246
120.937610,1149.143247,370.102971,9474.636058
120.937918,1225.752797,370.102971,9992.780217
120.938226,995.924147,444.123565,9992.780217
120.938534,1072.533697,148.041188,10140.821405
120.938842,766.095498,-296.082377,9622.677246
120.939150,459.657299,-148.041188,9696.697840
120.939458,306.438199,-0.000000,9548.656652
120.939766,76.609550,-0.000000,9622.677246
120.940074,0.000000,-0.000000,9474.636058
120.940382,76.609550,-222.061783,9178.553681
120.940690,-383.047749,-222.061783,9474.636058
120.940998,0.000000,-296.082377,9178.553681
120.941306,0.000000,-74.020594,9548.656652
120.941614,-766.095498,-222.061783,9400.615463
120.941922,-1072.533697,-74.020594,9326.594869
120.942230,-1378.971896,-296.082377,9400.615463
120.942538,-1455.581446,-444.123565,9474.636058
120.942846,-1455.581446,-518.144159,9474.636058
120.943154,-1225.752797,-592.164754,9770.718434
120.943462,-1532.190996,-592.164754,9696.697840
120.943770,-1991.848295,-1036.288319,9474.636058
120.944078,-1915.238745,-740.205942,9696.697840
120.944386,-1838.629195,-666.185348,9844.739029
120.944694,-1685.410096,-814.226536,9622.677246
120.945002,-1608.800546,-592.164754,9474.636058
120.945310,-1072.533697,-814.226536,9474.636058
120.945618,-1149.143247,-518.144159,9992.780217
120.945926,-459.657299,-814.226536,9474.636058
120.946234,-766.095498,-148.041188,9622.677246
120.946542,-612.876398,-444.123565,9474.636058
120.946850,-306.438199,-296.082377,9400.615463
120.947158,0.000000,-148.041188,9474.636058
120.947466,459.657299,-0.000000,9400.615463
120.947774,612.876398,296.082377,10066.800811
120.948082,766.095498,-0.000000,9548.656652
120.948390,536.266849,222.061783,9696.697840
120.948699,1455.581446,222.061783,9696.697840
120.949007,1378.971896,592.164754,9326.594869
120.949315,1149.143247,444.123565,9696.697840
120.949623,1685.410096,444.123565,9696.697840
120.949931,1225.752797,444.123565,9770.718434
120.950239,1149.143247,-0.000000,9918.759623
120.950547,919.314598,222.061783,9696.697840
120.950855,995.924147,666.185348,10362.883188
120.951163,1838.629195,592.164754,9992.780217
120.951471,2068.457845,740.205942,9918.759623
120.951779,2145.067394,740.205942,9844.739029
120.952087,2145.067394,888.247130,9770.718434
120.952395,2374.896044,1036.288319,9622.677246
120.952703,2374.896044,888.247130,9548.656652
120.953011,2528.115143,1110.308913,9622.677246
120.953319,2757.943793,1406.391290,9474.636058
120.953627,2834.553343,1184.329507,9104.533087
120.953935,2834.553343,1332.370696,9548.656652
120.954243,2681.334243,1184.329507,9474.636058
120.954551,2221.676944,740.205942,9548.656652
120.954859,2374.896044,962.267725,9696.697840
120.955167,2604.724693,962.267725,9918.759623
120.955475,2604.724693,444.123565,9548.656652
120.955783,2604.724693,592.164754,9474.636058
120.956091,2374.896044,814.226536,9548.656652
120.956399,2221.676944,814.226536,9474.636058
120.956707,2298.286494,814.226536,9548.656652
120.957015,1838.629195,370.102971,9548.656652
120.957323,1608.800546,518.144159,9844.739029
120.957631,1838.629195,370.102971,9770.718434
120.957939,1838.629195,222.061783,9474.636058
120.958247,995.924147,444.123565,9770.718434
120.958555,1378.971896,148.041188,9622.677246
120.958863,689.485948,444.123565,9696.697840
120.959171,766.095498,-0.000000,9548.656652
120.959479,612.876398,-0.000000,9622.677246
120.959787,76.609550,222.061783,9474.636058
120.960095,0.000000,-0.000000,9844.739029
120.960403,0.000000,-0.000000,9474.636058
120.960711,-383.047749,-148.041188,9252.574275
120.961019,-383.047749,444.123565,9400.615463
120.961327,-612.876398,-0.000000,9400.615463
120.961635,-842.705048,-0.000000,9400.615463
120.961944,-1149.143247,-148.041188,9400.615463
120.962252,-1455.581446,-148.041188,9622.677246
120.962560,-1455.581446,-592.164754,9770.718434
120.962868,-1685.410096,-888.247130,9474.636058
120.963176,-2221.676944,-814.226536,9918.759623
120.963484,-2068.457845,-1110.308913,9474.636058
120.963792,-1838.629195,-888.247130,9992.780217
120.964100,-1991.848295,-1184.329507,9992.780217
120.964408,-1915.238745,-962.267725,9696.697840
120.964716,-1685.410096,-814.226536,9622.677246
120.965024,-1455.581446,-1110.308913,9474.636058
120.965332,-1532.190996,-1184.329507,9844.739029
120.965640,-995.924147,-1110.308913,9400.615463
120.965948,-919.314598,-370.102971,9326.594869
120.966256,-842.705048,-370.102971,9474.636058
120.966564,-459.657299,-222.061783,9400.615463
120.966872,-229.828649,-74.020594,9326.594869
120.967180,-153.219100,-148.041188,9400.615463
120.967488,229.828649,-0.000000,9548.656652
120.967796,306.438199,-518.144159,9622.677246
120.968104,459.657299,-74.020594,9548.656652
120.968412,459.657299,222.061783,9622.677246
120.968720,842.705048,518.144159,9622.677246
120.969028,1225.752797,370.102971,9622.677246
120.969336,1302.362347,666.185348,9696.697840
120.969644,1685.410096,592.164754,9918.759623
120.969952,1532.190996,-0.000000,9696.697840
120.970260,1608.800546,296.082377,9992.780217
120.970568,1838.629195,74.020594,9992.780217
120.970876,1838.629195,888.247130,10066.800811
120.971184,1838.629195,888.247130,9844.739029
120.971492,1838.629195,814.226536,9770.718434
120.971800,2298.286494,888.247130,9770.718434
120.972108,2145.067394,962.267725,10214.842000
120.972416,1762.019645,888.247130,9844.739029
120.972724,2757.943793,1110.308913,9548.656652
120.973032,2834.553343,1110.308913,9622.677246
120.973340,2528.115143,1480.411884,9844.739029
120.973648,2604.724693,1406.391290,9548.656652
120.973956,2681.334243,1184.329507,9474.636058
120.974264,2528.115143,1184.329507,9474.636058
120.974572,2681.334243,888.247130,9844.739029
120.974880,2451.505594,592.164754,9844.739029
120.975189,2298.286494,962.267725,9992.780217
120.975497,2451.505594,444.123565,10066.800811
120.975805,2451.505594,666.185348,9622.677246
120.976113,2298.286494,666.185348,9696.697840
120.976421,2374.896044,888.247130,9474.636058
120.976729,2221.676944,1036.288319,9474.636058
120.977037,1991.848295,888.247130,9474.636058
120.977345,2068.457845,444.123565,9696.697840
120.977653,689.485948,1184.329507,9178.553681
120.977961,1608.800546,666.185348,9548.656652
120.978269,1072.533697,518.144159,9622.677246
120.978577,612.876398,814.226536,9400.615463
120.978885,306.438199,-0.000000,9844.739029
120.979193,306.438199,-0.000000,9622.677246
120.979501,0.000000,-518.144159,9918.759623
120.979809,-612.876398,-74.020594,9844.739029
120.980117,-306.438199,-444.123565,9918.759623
120.980425,-1149.143247,-148.041188,10140.821405
120.980733,-919.314598,-296.082377,9696.697840
120.981041,-689.485948,-222.061783,9474.636058
120.981349,-766.095498,-370.102971,9400.615463
120.981657,-919.314598,-222.061783,9474.636058
120.981965,-995.924147,-222.061783,9474.636058
120.982273,-1532.190996,-222.061783,9474.636058
120.982581,-1302.362347,-814.226536,9326.594869
120.982889,-919.314598,-592.164754,9474.636058
120.983197,-1302.362347,-296.082377,9548.656652
120.983505,-1608.800546,-518.144159,9326.594869
120.983813,-1378.971896,-740.205942,9474.636058
120.984121,-1455.581446,-888.247130,9474.636058
120.984429,-1378.971896,-1110.308913,9770.718434
120.984737,-1838.629195,-814.226536,9548.656652
120.985045,-1532.190996,-740.205942,9770.718434
120.985353,-1532.190996,-1036.288319,9474.636058
120.985661,-1225.752797,-518.144159,9474.636058
120.985969,-1225.752797,-370.102971,9622.677246
120.986277,-919.314598,-444.123565,9326.594869
120.986585,-612.876398,-222.061783,9622.677246
120.986893,-689.485948,-296.082377,9474.636058
120.987201,-153.219100,-296.082377,9696.697840
120.987510,-306.438199,-148.041188,9622.677246
120.987818,-229.828649,-0.000000,9622.677246
120.988126,306.438199,222.061783,9474.636058
120.988434,383.047749,370.102971,9548.656652
120.988742,689.485948,740.205942,9548.656652
120.989050,842.705048,814.226536,9696.697840
120.989358,1762.019645,666.185348,9622.677246
120.989666,1072.533697,814.226536,9770.718434
120.989974,1455.581446,-0.000000,9696.697840
120.990282,1838.629195,518.144159,10214.842000
120.990590,1532.190996,592.164754,9992.780217
120.990898,1532.190996,666.185348,9844.739029
120.991206,1838.629195,888.247130,9770.718434
120.991514,1915.238745,814.226536,9696.697840
120.991822,1838.629195,814.226536,10214.842000
120.992130,1838.629195,666.185348,9918.759623
120.992438,2221.676944,518.144159,9696.697840
120.992746,2451.505594,666.185348,9548.656652
120.993054,2221.676944,888.247130,9474.636058
120.993362,2374.896044,1110.308913,9622.677246
120.993670,2298.286494,962.267725,9696.697840
120.993978,2298.286494,962.267725,9770.718434
120.994286,2681.334243,518.144159,9696.697840
120.994594,2604.724693,592.164754,9696.697840
120.994902,2451.505594,740.205942,9474.636058
120.995210,2298.286494,592.164754,9474.636058
120.995518,2604.724693,370.102971,9474.636058
120.995826,2528.115143,518.144159,9400.615463
120.996134,2604.724693,518.144159,9400.615463
120.996442,2451.505594,592.164754,9252.574275
120.996750,2298.286494,444.123565,9400.615463
120.997058,2604.724693,370.102971,9400.615463
120.997366,2068.457845,518.144159,9178.553681
120.997674,2221.676944,592.164754,9400.615463
120.997982,1762.019645,592.164754,9326.594869
120.998291,1455.581446,814.226536,9474.636058
120.998599,1302.362347,592.164754,9474.636058
120.998907,995.924147,592.164754,9548.656652
120.999215,766.095498,296.082377,9696.697840
120.999523,612.876398,-0.000000,9696.697840
120.999831,383.047749,-0.000000,9844.739029
121.000139,76.609550,-74.020594,9918.759623
121.000447,-459.657299,-74.020594,9918.759623
121.000755,-612.876398,-0.000000,9622.677246
121.001063,-689.485948,-148.041188,9548.656652
121.001371,-766.095498,-0.000000,9548.656652
121.001679,-766.095498,-0.000000,9474.636058
121.001987,-1532.190996,-74.020594,9622.677246
121.002295,-1302.362347,-222.061783,9622.677246
121.002603,-1378.971896,-518.144159,9474.636058
121.002911,-1608.800546,-222.061783,9770.718434
121.003219,-2068.457845,-444.123565,9622.677246
121.003527,-1838.629195,-740.205942,9400.615463
121.003835,-1991.848295,-740.205942,9622.677246
121.004143,-1685.410096,-1036.288319,9474.636058
121.004451,-1685.410096,-814.226536,9622.677246
121.004759,-1302.362347,-962.267725,9770.718434
121.005067,-1685.410096,-1036.288319,9696.697840
121.005375,-1225.752797,-962.267725,9400.615463
121.005683,-995.924147,-814.226536,9326.594869
121.005991,-919.314598,-518.144159,9474.636058
121.006299,-689.485948,-296.082377,9326.594869
121.006607,-842.705048,-666.185348,9548.656652
121.006915,-229.828649,-444.123565,9474.636058
121.007223,0.000000,-296.082377,9474.636058
121.007531,-153.219100,-148.041188,9474.636058
121.007839,0.000000,-0.000000,9770.718434
121.008147,153.219100,-0.000000,9622.677246
121.008455,536.266849,148.041188,9548.656652
121.008763,536.266849,296.082377,9622.677246
121.009071,919.314598,296.082377,9622.677246
121.009380,536.266849,592.164754,10066.800811
121.009688,766.095498,296.082377,9770.718434
121.009996,1225.752797,-0.000000,9844.739029
121.010304,1225.752797,296.082377,9622.677246
121.010612,1302.362347,370.102971,9992.780217
121.010920,1608.800546,814.226536,9844.739029
121.011228,1915.238745,888.247130,9696.697840
121.011536,2221.676944,1110.308913,9918.759623
121.011844,2374.896044,888.247130,9696.697840
121.012152,2145.067394,1554.432478,9844.739029
121.012460,2604.724693,1110.308913,9918.759623
121.012768,2298.286494,1258.350101,9548.656652
121.013076,2451.505594,1110.308913,9548.656652
121.013384,2451.505594,1184.329507,9696.697840
121.013692,2528.115143,1110.308913,9474.636058
121.014000,2681.334243,370.102971,9548.656652
121.014308,2528.115143,740.205942,9770.718434
121.014616,2681.334243,888.247130,9622.677246
121.014924,2451.505594,666.185348,9918.759623
121.015232,2298.286494,740.205942,9770.718434
121.015540,2298.286494,666.185348,9474.636058
121.015848,2604.724693,592.164754,9400.615463
121.016156,2298.286494,740.205942,9252.574275
121.016464,2374.896044,962.267725,9474.636058
121.016772,1915.238745,370.102971,9474.636058
121.017080,1915.238745,296.082377,9326.594869
121.017388,1608.800546,814.226536,9622.677246
121.017696,1532.190996,592.164754,9474.636058
121.018004,1225.752797,444.123565,9474.636058
121.018312,1072.533697,592.164754,9474.636058
121.018620,766.095498,370.102971,9770.718434
121.018928,153.219100,-0.000000,9696.697840
121.019236,383.047749,-0.000000,9992.780217
121.019544,229.828649,-370.102971,9548.656652
121.019852,76.609550,-0.000000,9622.677246
121.020161,0.000000,-0.000000,9696.697840
121.020469,-153.219100,-0.000000,9548.656652
121.020777,-306.438199,-74.020594,9326.594869
121.021085,-306.438199,-148.041188,9474.636058
121.021393,0.000000,-0.000000,9622.677246
121.021701,-919.314598,296.082377,9326.594869
121.022009,-1225.752797,-74.020594,9474.636058
121.022317,-995.924147,-148.041188,9474.636058
121.022625,-995.924147,-222.061783,9400.615463
121.022933,-1149.143247,-296.082377,9326.594869
121.023241,-1225.752797,-444.123565,9400.615463
121.023549,-1762.019645,-518.144159,9474.636058
121.023857,-1455.581446,-1036.288319,9326.594869
121.024165,-1532.190996,-962.267725,9474.636058
121.024473,-1608.800546,-1036.288319,9474.636058
121.024781,-1378.971896,-888.247130,9474.636058
121.025089,-1378.971896,-592.164754,9622.677246
121.025397,-1225.752797,-1036.288319,9622.677246
121.025705,-1149.143247,-592.164754,9474.636058
121.026013,-919.314598,-740.205942,9548.656652
121.026321,-766.095498,-740.205942,9622.677246
121.026629,-306.438199,-814.226536,9474.636058
121.026937,0.000000,-518.144159,9178.553681
121.027245,-536.266849,-0.000000,9844.739029
121.027553,-229.828649,148.041188,9474.636058
121.027861,0.000000,-0.000000,9696.697840
121.028169,153.219100,296.082377,9696.697840
121.028477,459.657299,518.144159,9992.780217
121.028785,536.266849,-0.000000,9622.677246
121.029093,766.095498,222.061783,9548.656652
121.029401,1072.533697,444.123565,9696.697840
121.029709,842.705048,518.144159,9622.677246
121.030017,1072.533697,370.102971,9770.718434
121.030325,1072.533697,518.144159,9992.780217
121.030633,1378.971896,444.123565,9918.759623
121.030941,1378.971896,518.144159,9918.759623
121.031250,1838.629195,518.144159,9770.718434
121.031558,1455.581446,962.267725,9918.759623
121.031866,2221.676944,740.205942,9696.697840
121.032174,2374.896044,962.267725,9696.697840
121.032482,2451.505594,1258.350101,9696.697840
121.032790,2145.067394,888.247130,9474.636058
121.033098,2451.505594,1184.329507,9696.697840
121.033406,2987.772442,888.247130,9844.739029
121.033714,2374.896044,666.185348,10066.800811
121.034022,1991.848295,296.082377,9770.718434
121.034330,2451.505594,370.102971,9696.697840
121.034638,2374.896044,444.123565,9622.677246
121.034946,2528.115143,518.144159,9696.697840
121.035254,2528.115143,814.226536,9474.636058
121.035562,2757.943793,962.267725,9474.636058
121.035870,2604.724693,518.144159,9326.594869
121.036178,3140.991542,888.247130,9252.574275
121.036486,2604.724693,666.185348,9252.574275
121.036794,2221.676944,666.185348,9474.636058
121.037102,2298.286494,740.205942,9548.656652
121.037410,2068.457845,222.061783,9474.636058
121.037718,1991.848295,666.185348,9474.636058
121.038026,1685.410096,518.144159,9474.636058
121.038334,2068.457845,518.144159,9326.594869
121.038642,1378.971896,592.164754,9548.656652
121.038950,1149.143247,666.185348,9400.615463
121.039258,1455.581446,370.102971,9548.656652
121.039566,842.705048,518.144159,9622.677246
121.039874,229.828649,222.061783,9548.656652
121.040182,76.609550,-0.000000,9548.656652
121.040490,-229.828649,-0.000000,9992.780217
121.040798,-536.266849,-296.082377,9992.780217
121.041106,-919.314598,-296.082377,9918.759623
121.041414,-689.485948,-148.041188,9770.718434
121.041722,-842.705048,-370.102971,9474.636058
121.042031,-1302.362347,-74.020594,9622.677246
121.042339,-1302.362347,-444.123565,9474.636058
121.042647,-1532.190996,-444.123565,9622.677246
121.042955,-1685.410096,-518.144159,9474.636058
121.043263,-995.924147,-592.164754,9696.697840
121.043571,-1838.629195,-518.144159,9474.636058
121.043879,-1608.800546,-888.247130,9326.594869
121.044187,-1915.238745,-1036.288319,9474.636058
121.044495,-1608.800546,-592.164754,9548.656652
121.044803,-1608.800546,-666.185348,9400.615463
121.045111,-1608.800546,-962.267725,9400.615463
121.045419,-1532.190996,-666.185348,9548.656652
121.045727,-919.314598,-740.205942,9474.636058
121.046035,-766.095498,-370.102971,9548.656652
121.046343,-919.314598,-666.185348,9400.615463
121.046651,-229.828649,-740.205942,9548.656652
121.046959,-536.266849,-74.020594,9918.759623
121.047267,-459.657299,-370.102971,9622.677246
121.047575,-229.828649,-222.061783,9696.697840
121.047883,-306.438199,-0.000000,9844.739029
121.048191,229.828649,-0.000000,9770.718434
121.048499,612.876398,592.164754,10066.800811
121.048807,459.657299,592.164754,9844.739029
121.049115,0.000000,592.164754,9918.759623
121.049423,1072.533697,518.144159,9696.697840
121.049731,995.924147,518.144159,9696.697840
121.050039,1149.143247,518.144159,9770.718434
121.050347,1302.362347,370.102971,9844.739029
121.050655,1762.019645,222.061783,10066.800811
121.050963,1302.362347,740.205942,10066.800811
121.051271,1455.581446,1036.288319,9770.718434
121.051579,2068.457845,814.226536,9992.780217
121.051887,2068.457845,1036.288319,9622.677246
121.052195,2298.286494,1184.329507,9474.636058
121.052503,2451.505594,1406.391290,9548.656652
121.052811,2298.286494,1036.288319,9622.677246
121.053120,2451.505594,1036.288319,9992.780217
121.053428,2604.724693,740.205942,9696.697840
121.053736,2604.724693,888.247130,9770.718434
121.054044,2451.505594,888.247130,9770.718434
121.054352,2374.896044,814.226536,9548.656652
121.054660,2451.505594,666.185348,9548.656652
121.054968,2374.896044,814.226536,9696.697840
121.055276,2298.286494,518.144159,9474.636058
121.055584,2451.505594,666.185348,9548.656652
121.055892,2451.505594,666.185348,9548.656652
121.056200,2145.067394,518.144159,9844.739029
121.056508,2298.286494,-0.000000,9770.718434
121.056816,1915.238745,740.205942,9400.615463
121.057124,1608.800546,444.123565,9474.636058
121.057432,1685.410096,666.185348,9474.636058
121.057740,1455.581446,592.164754,9474.636058
121.058048,1762.019645,222.061783,9474.636058
121.058356,919.314598,592.164754,9696.697840
121.058664,612.876398,666.185348,9548.656652
121.058972,766.095498,518.144159,9696.697840
121.059280,459.657299,74.020594,9548.656652
121.059588,153.219100,222.061783,9474.636058
121.059896,0.000000,-148.041188,9548.656652
121.060204,0.000000,-74.020594,9696.697840
121.060512,76.609550,-74.020594,9992.780217
121.060820,-153.219100,-148.041188,9696.697840
121.061128,-383.047749,-296.082377,9400.615463
121.061436,-536.266849,-0.000000,9548.656652
121.061744,-459.657299,-74.020594,9474.636058
121.062052,-919.314598,-296.082377,9474.636058
121.062360,-842.705048,-222.061783,9400.615463
121.062668,-919.314598,-592.164754,9400.615463
121.062976,-1149.143247,-518.144159,9474.636058
121.063284,-995.924147,-592.164754,9474.636058
121.063592,-1072.533697,-666.185348,9622.677246
121.063901,-1149.143247,-666.185348,9474.636058
121.064209,-1378.971896,-666.185348,9474.636058
121.064517,-1149.143247,-592.164754,9474.636058
121.064825,-1225.752797,-518.144159,9548.656652
121.065133,-1149.143247,-518.144159,9474.636058
121.065441,-1225.752797,-518.144159,9474.636058
121.065749,-842.705048,-0.000000,9474.636058
121.066057,-383.047749,-592.164754,9400.615463
121.066365,-689.485948,-222.061783,9474.636058
121.066673,-689.485948,-222.061783,9770.718434
121.066981,-612.876398,-148.041188,9622.677246
121.067289,-536.266849,-74.020594,9918.759623
121.067597,-383.047749,-222.061783,9992.780217
121.067905,-459.657299,-222.061783,10140.821405
121.068213,0.000000,370.102971,9844.739029
121.068521,0.000000,-0.000000,9622.677246
121.068829,689.485948,296.082377,9844.739029
121.069137,766.095498,444.123565,9770.718434
121.069445,1149.143247,592.164754,9622.677246
121.069753,995.924147,518.144159,9548.656652
121.070061,766.095498,592.164754,9696.697840
121.070369,1685.410096,444.123565,9770.718434
121.070677,995.924147,444.123565,9548.656652
121.070985,1915.238745,666.185348,9548.656652
121.071293,1915.238745,888.247130,9474.636058
121.071601,1838.629195,740.205942,9696.697840
121.071909,2068.457845,666.185348,9696.697840
121.072217,1915.238745,740.205942,9918.759623
121.072525,2145.067394,740.205942,9474.636058
121.072833,2374.896044,888.247130,9696.697840
121.073141,2374.896044,814.226536,9696.697840
121.073449,2528.115143,370.102971,9622.677246
121.073757,2298.286494,666.185348,9696.697840
121.074065,2145.067394,592.164754,9844.739029
121.074373,2145.067394,518.144159,9696.697840
121.074681,2451.505594,444.123565,9548.656652
121.074990,2374.896044,-0.000000,9622.677246
121.075298,2451.505594,444.123565,9400.615463
121.075606,2528.115143,370.102971,9252.574275
121.075914,2757.943793,518.144159,9326.594869
121.076222,2604.724693,740.205942,9252.574275
121.076530,2681.334243,962.267725,9104.533087
121.076838,2451.505594,888.247130,8882.471304
121.077146,2374.896044,814.226536,9400.615463
121.077454,2145.067394,1036.288319,9548.656652
121.077762,1762.019645,592.164754,9326.594869
121.078070,1685.410096,814.226536,9548.656652
121.078378,1225.752797,444.123565,9474.636058
121.078686,1225.752797,518.144159,9622.677246
121.078994,766.095498,296.082377,9622.677246
121.079302,536.266849,148.041188,9696.697840
121.079610,459.657299,-0.000000,9696.697840
121.079918,0.000000,-0.000000,9918.759623
121.080226,-919.314598,-222.061783,9918.759623
121.080534,153.219100,-0.000000,9992.780217
121.080842,-306.438199,-0.000000,9844.739029
121.081150,-536.266849,-74.020594,9474.636058
121.081458,-459.657299,-0.000000,9622.677246
121.081766,-919.314598,-0.000000,9474.636058
121.082074,-995.924147,-0.000000,9548.656652
121.082382,-612.876398,-148.041188,9474.636058
121.082690,-1225.752797,-296.082377,9548.656652
121.082998,-1532.190996,-592.164754,9770.718434
121.083306,-1608.800546,-666.185348,9474.636058
121.083614,-1225.752797,-666.185348,9622.677246
121.083922,-1685.410096,-740.205942,9474.636058
121.084230,-1302.362347,-962.267725,9622.677246
121.084539,-1532.190996,-814.226536,9548.656652
121.084847,-1225.752797,-666.185348,9474.636058
121.085155,-919.314598,-1036.288319,9400.615463
121.085463,-1378.971896,-1184.329507,9622.677246
121.085771,-1225.752797,-592.164754,9474.636058
121.086079,-995.924147,-518.144159,9474.636058
121.086387,-766.095498,-444.123565,9474.636058
121.086695,-536.266849,-74.020594,9474.636058
121.087003,-229.828649,-74.020594,9622.677246
121.087311,229.828649,-0.000000,9548.656652
121.087619,459.657299,-222.061783,9622.677246
121.087927,0.000000,-0.000000,9844.739029
121.088235,0.000000,-0.000000,9770.718434
121.088543,306.438199,296.082377,9622.677246
121.088851,459.657299,296.082377,9770.718434
121.089159,612.876398,444.123565,9844.739029
121.089467,766.095498,296.082377,9622.677246
121.089775,1225.752797,370.102971,10140.821405
121.090083,1455.581446,-148.041188,9844.739029
121.090391,1378.971896,-0.000000,10140.821405
121.090699,1838.629195,370.102971,9992.780217
121.091007,1685.410096,666.185348,9918.759623
121.091316,2145.067394,888.247130,9400.615463
121.091624,2298.286494,1184.329507,9400.615463
121.091932,2374.896044,1258.350101,9400.615463
121.092240,2834.553343,1332.370696,9326.594869
121.092548,2374.896044,1110.308913,9326.594869
121.092856,2451.505594,1184.329507,9844.739029
121.093164,2298.286494,740.205942,9992.780217
121.093472,2068.457845,814.226536,9474.636058
121.093780,1915.238745,888.247130,9918.759623
121.094088,1915.238745,814.226536,9918.759623
121.094396,2068.457845,814.226536,9622.677246
121.094704,1991.848295,962.267725,10288.862594
121.095012,2374.896044,222.061783,9696.697840
121.095320,2451.505594,148.041188,9844.739029
121.095628,2451.505594,444.123565,9326.594869
121.095936,1991.848295,370.102971,9400.615463
121.096244,2145.067394,666.185348,9326.594869
121.096552,2145.067394,962.267725,9400.615463
121.096860,2145.067394,962.267725,9326.594869
121.097168,2145.067394,1184.329507,9474.636058
121.097476,1762.019645,814.226536,9474.636058
121.097784,1838.629195,444.123565,9474.636058
121.098093,1532.190996,222.061783,9548.656652
121.098401,842.705048,370.102971,9548.656652
121.098709,612.876398,148.041188,9770.718434
121.099017,689.485948,148.041188,9770.718434
121.099325,229.828649,-0.000000,9622.677246
121.099633,229.828649,-0.000000,9992.780217
121.099941,612.876398,-148.041188,9844.739029
121.100249,-306.438199,-0.000000,9918.759623
121.100557,0.000000,-222.061783,9770.718434
121.100865,-383.047749,-74.020594,9474.636058
121.101173,-459.657299,-0.000000,9696.697840
121.101481,-459.657299,-74.020594,9696.697840
121.101789,-689.485948,-370.102971,9400.615463
121.102097,-766.095498,-296.082377,9622.677246
121.102405,-459.657299,-222.061783,9474.636058
121.102713,-612.876398,-148.041188,9770.718434
121.103021,-689.485948,-666.185348,9400.615463
121.103329,-919.314598,-222.061783,9474.636058
121.103637,-1149.143247,-74.020594,9474.636058
121.103945,-1302.362347,-222.061783,9622.677246
121.104253,-1302.362347,-370.102971,9548.656652
121.104561,-1072.533697,-814.226536,9326.594869
121.104869,-2145.067394,-222.061783,9622.677246
121.105178,-842.705048,-962.267725,9992.780217
121.105486,-1072.533697,-1036.288319,9918.759623
121.105794,-1072.533697,-666.185348,9622.677246
121.106102,-842.705048,-592.164754,9622.677246
121.106410,-689.485948,-370.102971,9770.718434
121.106718,-306.438199,-222.061783,9844.739029
121.107026,-306.438199,-222.061783,10140.821405
121.107334,76.609550,-444.123565,9548.656652
121.107642,153.219100,-0.000000,9474.636058
121.107950,153.219100,-0.000000,10066.800811
121.108258,383.047749,222.061783,9474.636058
121.108566,689.485948,370.102971,9548.656652
121.108874,612.876398,666.185348,9696.697840
121.109182,766.095498,296.082377,9622.677246
121.109490,459.657299,148.041188,9992.780217
121.109798,1225.752797,296.082377,9992.780217
121.110106,1608.800546,444.123565,9918.759623
121.110414,1378.971896,-0.000000,9400.615463
121.110722,1302.362347,444.123565,9622.677246
121.111030,1608.800546,592.164754,9770.718434
121.111338,1762.019645,592.164754,9622.677246
121.111646,2145.067394,888.247130,9474.636058
121.111955,2374.896044,370.102971,9622.677246
121.112263,1915.238745,740.205942,9918.759623
121.112571,1762.019645,518.144159,9400.615463
121.112879,2374.896044,666.185348,9474.636058
121.113187,2374.896044,888.247130,9770.718434
121.113495,2221.676944,666.185348,9548.656652
121.113803,2145.067394,740.205942,9622.677246
121.114111,2298.286494,444.123565,9622.677246
121.114419,2451.505594,-0.000000,9622.677246
121.114727,2604.724693,148.041188,9178.553681
121.115035,1838.629195,814.226536,9474.636058
121.115343,2681.334243,-0.000000,9326.594869
121.115651,2221.676944,740.205942,9030.512492
121.115959,2374.896044,962.267725,9400.615463
121.116267,2374.896044,888.247130,9104.533087
121.116575,2374.896044,814.226536,9252.574275
121.116883,2451.505594,592.164754,9474.636058
121.117191,2145.067394,592.164754,9178.553681
121.117499,1685.410096,296.082377,9696.697840
121.117807,1302.362347,-0.000000,9696.697840
121.118115,995.924147,296.082377,9696.697840
121.118423,1072.533697,296.082377,9770.718434
121.118732,1302.362347,592.164754,9474.636058
121.119040,995.924147,444.123565,9474.636058
121.119348,842.705048,370.102971,9474.636058
121.119656,995.924147,296.082377,9400.615463
121.119964,612.876398,222.061783,9400.615463
121.120272,-153.219100,518.144159,9844.739029
121.120580,0.000000,-0.000000,9696.697840
121.120888,-383.047749,-222.061783,9474.636058
121.121196,-842.705048,-74.020594,9622.677246
121.121504,-995.924147,-148.041188,9696.697840
121.121812,-995.924147,-296.082377,9696.697840
121.122120,-1225.752797,-222.061783,9992.780217
121.122428,-1302.362347,-296.082377,9992.780217
121.122736,-1149.143247,-592.164754,9770.718434
121.123044,-1072.533697,-296.082377,9696.697840
121.123352,-1149.143247,-444.123565,9548.656652
121.123660,-1225.752797,-222.061783,9474.636058
121.123968,-1532.190996,-1036.288319,9548.656652
121.124276,-1608.800546,-518.144159,9770.718434
121.124584,-1838.629195,-888.247130,10140.821405
121.124892,-1532.190996,-592.164754,9548.656652
121.125200,-1608.800546,-444.123565,9844.739029
121.125508,-995.924147,-592.164754,9622.677246
121.125817,-842.705048,-370.102971,9326.594869
121.126125,-689.485948,-74.020594,9400.615463
121.126433,-229.828649,-296.082377,9178.553681
121.126741,383.047749,-148.041188,9400.615463
121.127049,-153.219100,-0.000000,9622.677246
121.127357,0.000000,-148.041188,9030.512492
121.127665,-76.609550,-148.041188,9696.697840
121.127973,0.000000,-0.000000,9696.697840
121.128281,0.000000,-0.000000,9770.718434
121.128589,459.657299,296.082377,9770.718434
121.128897,766.095498,-0.000000,9992.780217
121.129205,689.485948,296.082377,10140.821405
121.129513,919.314598,222.061783,9918.759623
121.129821,919.314598,592.164754,10140.821405
121.130129,1149.143247,148.041188,9770.718434
121.130437,1225.752797,296.082377,9770.718434
121.130745,1532.190996,592.164754,9696.697840
121.131053,1991.848295,592.164754,9622.677246
121.131361,2374.896044,740.205942,9622.677246
121.131669,2374.896044,1036.288319,9770.718434
121.131977,2374.896044,1184.329507,9622.677246
121.132285,2451.505594,1258.350101,9844.739029
121.132594,2451.505594,1036.288319,9326.594869
121.132902,2374.896044,1110.308913,9474.636058
121.133210,1991.848295,962.267725,9400.615463
121.133518,2145.067394,740.205942,9474.636058
121.133826,2298.286494,814.226536,9474.636058
121.134134,1991.848295,296.082377,9770.718434
121.134442,1991.848295,370.102971,10066.800811
121.134750,2145.067394,148.041188,9992.780217
121.135058,1838.629195,518.144159,9918.759623
121.135366,2068.457845,518.144159,9844.739029
121.135674,2068.457845,592.164754,9474.636058
121.135982,2221.676944,592.164754,9474.636058
121.136290,2298.286494,518.144159,9696.697840
121.136598,2451.505594,888.247130,9844.739029
121.136906,2145.067394,370.102971,9474.636058
121.137214,1455.581446,444.123565,9326.594869
121.137522,1532.190996,518.144159,9326.594869
121.137830,1685.410096,592.164754,9474.636058
121.138138,1532.190996,592.164754,9400.615463
121.138446,1072.533697,740.205942,9474.636058
121.138754,1225.752797,370.102971,9844.739029
121.139062,1225.752797,-0.000000,9548.656652
121.139371,1225.752797,-0.000000,9770.718434
121.139679,689.485948,-444.123565,9770.718434
121.139987,306.438199,-148.041188,9918.759623
121.140295,0.000000,-0.000000,9844.739029
121.140603,-306.438199,-148.041188,9770.718434
121.140911,-153.219100,-148.041188,9548.656652
121.141219,-842.705048,-370.102971,9548.656652
121.141527,76.609550,-222.061783,9326.594869
121.141835,-689.485948,-370.102971,9548.656652
121.142143,-919.314598,-666.185348,9178.553681
121.142451,-689.485948,-148.041188,9474.636058
121.142759,-919.314598,-296.082377,9474.636058
121.143067,-995.924147,-296.082377,9474.636058
121.143375,-1302.362347,-518.144159,9622.677246
121.143683,-842.705048,-222.061783,9696.697840
121.143991,-842.705048,-518.144159,9770.718434
121.144299,-536.266849,-888.247130,9696.697840
121.144607,-1378.971896,-518.144159,9622.677246
121.144915,-1149.143247,-518.144159,9474.636058
121.145223,-995.924147,-444.123565,9548.656652
121.145531,-1072.533697,-666.185348,9474.636058
121.145839,-689.485948,-370.102971,9252.574275
121.146148,-306.438199,-592.164754,9326.594869
121.146456,0.000000,-370.102971,9474.636058
121.146764,-459.657299,-444.123565,9696.697840
121.147072,-383.047749,-370.102971,9844.739029
121.147380,-306.438199,-370.102971,9770.718434
121.147688,-153.219100,-0.000000,9844.739029
121.147996,0.000000,-0.000000,9844.739029
121.148304,153.219100,-0.000000,10066.800811
121.148612,0.000000,296.082377,10214.842000
121.148920,383.047749,148.041188,9696.697840
121.149228,689.485948,-0.000000,9844.739029
121.149536,995.924147,-74.020594,9918.759623
121.149844,1302.362347,296.082377,9918.759623
121.150152,1149.143247,444.123565,9770.718434
121.150460,1302.362347,370.102971,9696.697840
121.150768,1455.581446,592.164754,9696.697840
121.151076,2221.676944,666.185348,9918.759623
121.151384,1915.238745,888.247130,9252.574275
121.151692,1762.019645,1184.329507,9696.697840
121.152000,2451.505594,888.247130,9474.636058
121.152308,2068.457845,1258.350101,9400.615463
121.152616,2451.505594,1184.329507,9474.636058
121.152924,2221.676944,1036.288319,9474.636058
121.153233,2298.286494,1110.308913,9474.636058
121.153541,2298.286494,518.144159,9770.718434
121.153849,2298.286494,740.205942,9844.739029
121.154157,2298.286494,444.123565,9696.697840
121.154465,2068.457845,740.205942,9918.759623
121.154773,1991.848295,370.102971,9844.739029
121.155081,1915.238745,296.082377,9548.656652
121.155389,2221.676944,444.123565,9474.636058
121.155697,2528.115143,518.144159,9474.636058
121.156005,2298.286494,592.164754,9474.636058
121.156313,2221.676944,740.205942,9696.697840
121.156621,2451.505594,740.205942,9400.615463
121.156929,2298.286494,814.226536,9252.574275
121.157237,2145.067394,888.247130,9252.574275
121.157545,1838.629195,814.226536,9252.574275
121.157853,1685.410096,592.164754,9326.594869
121.158161,1685.410096,444.123565,9474.636058
121.158469,995.924147,296.082377,9696.697840
121.158777,1149.143247,-0.000000,9548.656652
121.159085,766.095498,148.041188,9696.697840
121.159393,229.828649,-0.000000,9548.656652
121.159701,153.219100,-0.000000,9696.697840
121.160010,0.000000,-74.020594,9696.697840
121.160318,-229.828649,-370.102971,9548.656652
121.160626,-459.657299,-148.041188,9548.656652
121.160934,-306.438199,-148.041188,9548.656652
121.161242,-842.705048,-0.000000,9918.759623
121.161550,-459.657299,-296.082377,9178.553681
121.161858,-919.314598,-0.000000,9474.636058
121.162166,-842.705048,-0.000000,9474.636058
121.162474,-995.924147,-296.082377,9474.636058
121.162782,-1455.581446,-370.102971,9548.656652
121.163090,-1532.190996,-814.226536,9622.677246
121.163398,-1378.971896,-666.185348,9696.697840
121.163706,-919.314598,-592.164754,9474.636058
121.164014,-1302.362347,-518.144159,9622.677246
121.164322,-1149.143247,-740.205942,9252.574275
121.164630,-1302.362347,-740.205942,9474.636058
121.164938,-1302.362347,-666.185348,9622.677246
121.165246,-1225.752797,-740.205942,9696.697840
121.165554,-1225.752797,-592.164754,9622.677246
121.165862,-842.705048,-518.144159,9474.636058
121.166170,-306.438199,-222.061783,9696.697840
121.166478,-459.657299,-222.061783,9474.636058
121.166787,-383.047749,-148.041188,9474.636058
121.167095,-229.828649,-0.000000,9696.697840
121.167403,-229.828649,-0.000000,9696.697840
121.167711,-153.219100,-0.000000,9696.697840
121.168019,306.438199,-74.020594,9474.636058
121.168327,459.657299,-0.000000,9696.697840
121.168635,766.095498,74.020594,9696.697840
121.168943,689.485948,296.082377,9992.780217
121.169251,995.924147,296.082377,9622.677246
121.169559,1149.143247,370.102971,9770.718434
121.169867,1149.143247,370.102971,9622.677246
121.170175,1225.752797,370.102971,9918.759623
121.170483,1608.800546,296.082377,9474.636058
121.170791,2068.457845,666.185348,9696.697840
121.171099,1991.848295,814.226536,9918.759623
121.171407,2451.505594,444.123565,9252.574275
121.171715,1915.238745,962.267725,9622.677246
121.172023,2221.676944,888.247130,9770.718434
121.172331,2145.067394,1036.288319,9770.718434
121.172639,2221.676944,1110.308913,9548.656652
121.172947,2374.896044,1036.288319,9474.636058
121.173255,1991.848295,888.247130,9696.697840
121.173563,1915.238745,888.247130,9622.677246
121.173872,2374.896044,666.185348,9400.615463
121.174180,2221.676944,814.226536,9770.718434
121.174488,2221.676944,814.226536,9474.636058
121.174796,1991.848295,666.185348,9770.718434
121.175104,1915.238745,592.164754,9770.718434
121.175412,2298.286494,444.123565,9844.739029
121.175720,2221.676944,370.102971,10066.800811
121.176028,2068.457845,518.144159,9400.615463
121.176336,2221.676944,518.144159,9918.759623
121.176644,2068.457845,296.082377,9696.697840
121.176952,1915.238745,370.102971,9548.656652
121.177260,1915.238745,518.144159,9474.636058
121.177568,1762.019645,370.102971,9326.594869
121.177876,1455.581446,814.226536,9548.656652
121.178184,1302.362347,444.123565,9178.553681
121.178492,1225.752797,444.123565,9400.615463
121.178800,995.924147,518.144159,9622.677246
121.179108,919.314598,370.102971,9474.636058
121.179416,612.876398,222.061783,9548.656652
121.179724,153.219100,-74.020594,9696.697840
121.180032,0.000000,-0.000000,9696.697840
121.180340,-229.828649,-222.061783,9992.780217
121.180649,-306.438199,-222.061783,9844.739029
121.180957,-536.266849,-222.061783,9918.759623
121.181265,-919.314598,-148.041188,9622.677246
121.181573,-842.705048,-148.041188,9622.677246
121.181881,-689.485948,-74.020594,9400.615463
121.182189,-689.485948,-296.082377,9400.615463
121.182497,-766.095498,-74.020594,9474.636058
121.182805,-995.924147,-518.144159,9770.718434
121.183113,-1302.362347,-370.102971,9548.656652
121.183421,-1225.752797,-444.123565,9548.656652
121.183729,-995.924147,-814.226536,9474.636058
121.184037,-1532.190996,-666.185348,9474.636058
121.184345,-1685.410096,-592.164754,9696.697840
121.184653,-1302.362347,-666.185348,9548.656652
121.184961,-1302.362347,-444.123565,9548.656652
121.185269,-1072.533697,-370.102971,9696.697840
121.185577,-1072.533697,-518.144159,9474.636058
121.185885,-842.705048,-592.164754,9474.636058
121.186193,-459.657299,-370.102971,9326.594869
121.186501,-766.095498,-592.164754,9474.636058
121.186809,-612.876398,-74.020594,9400.615463
121.187117,-153.219100,-296.082377,9548.656652
121.187425,0.000000,-296.082377,9474.636058
121.187733,0.000000,-222.061783,9622.677246
121.188041,153.219100,-148.041188,9622.677246
121.188349,1072.533697,-0.000000,10066.800811
121.188657,689.485948,148.041188,9918.759623
121.188966,536.266849,370.102971,9622.677246
121.189274,1072.533697,370.102971,9548.656652
121.189582,919.314598,370.102971,9696.697840
121.189890,1225.752797,370.102971,9844.739029
121.190198,1455.581446,666.185348,10140.821405
121.190506,1455.581446,296.082377,9622.677246
121.190814,1685.410096,222.061783,9696.697840
121.191122,1302.362347,592.164754,9474.636058
121.191430,2145.067394,592.164754,9474.636058
121.191738,2221.676944,962.267725,9474.636058
121.192046,2145.067394,1110.308913,9400.615463
121.192354,2298.286494,1110.308913,9400.615463
121.192662,2604.724693,1036.288319,9548.656652
121.192970,2145.067394,888.247130,9622.677246
121.193278,2451.505594,888.247130,9844.739029
121.193586,1838.629195,814.226536,9992.780217
121.193894,1991.848295,962.267725,9622.677246
121.194202,2145.067394,814.226536,9844.739029
121.194510,2068.457845,814.226536,9770.718434
121.194818,2298.286494,666.185348,9622.677246
121.195126,2451.505594,592.164754,9844.739029
121.195434,2834.553343,740.205942,9696.697840
121.195742,3064.381992,370.102971,9326.594869
121.196050,2298.286494,444.123565,9474.636058
121.196358,2451.505594,888.247130,9474.636058
121.196666,2298.286494,444.123565,9252.574275
121.196974,2145.067394,666.185348,9178.553681
121.197282,2145.067394,592.164754,9400.615463
121.197590,1838.629195,814.226536,9400.615463
121.197898,1685.410096,370.102971,9474.636058
121.198206,1225.752797,518.144159,9400.615463
121.198515,995.924147,518.144159,9770.718434
121.198823,919.314598,592.164754,9770.718434
121.199131,842.705048,370.102971,9696.697840
121.199439,536.266849,-0.000000,9696.697840
121.199747,0.000000,-74.020594,9844.739029
121.200055,-153.219100,-148.041188,9992.780217
121.200363,-459.657299,-444.123565,9992.780217
121.200671,-1072.533697,-74.020594,9696.697840
121.200979,-995.924147,-518.144159,9696.697840
121.201287,-612.876398,-74.020594,9622.677246
121.201595,-766.095498,-0.000000,9474.636058
121.201903,-1072.533697,-74.020594,9474.636058
121.202211,-1072.533697,-0.000000,9474.636058
121.202519,-1608.800546,-222.061783,9474.636058
121.202827,-1149.143247,-666.185348,9622.677246
121.203135,-1608.800546,-518.144159,9844.739029
121.203443,-1149.143247,-444.123565,9696.697840
121.203751,-1455.581446,-666.185348,9696.697840
121.204059,-1455.581446,-666.185348,9770.718434
121.204367,-1532.190996,-814.226536,9696.697840
121.204675,-1608.800546,-888.247130,9548.656652
121.204983,-1762.019645,-1036.288319,9622.677246
121.205291,-1072.533697,-592.164754,9622.677246
121.205599,-1149.143247,-444.123565,9770.718434
121.205907,-766.095498,-0.000000,9400.615463
121.206215,-306.438199,-148.041188,9474.636058
121.206523,0.000000,-0.000000,9252.574275
121.206831,-459.657299,-0.000000,9252.574275
121.207139,76.609550,-518.144159,9844.739029
121.207447,76.609550,-222.061783,9844.739029
121.207756,229.828649,-0.000000,10066.800811
121.208064,459.657299,-444.123565,9844.739029
121.208372,689.485948,-0.000000,9918.759623
121.208680,536.266849,-0.000000,9770.718434
121.208988,1072.533697,222.061783,9696.697840
121.209296,1225.752797,222.061783,9696.697840
121.209604,1455.581446,370.102971,9696.697840
121.209912,1532.190996,-0.000000,10066.800811
121.210220,1532.190996,-0.000000,9696.697840
121.210528,1455.581446,444.123565,9696.697840
121.210836,1762.019645,592.164754,9474.636058
121.211144,1991.848295,1110.308913,9548.656652
121.211452,1991.848295,1184.329507,9622.677246
121.211760,1838.629195,1036.288319,9474.636058
121.212068,1991.848295,1184.329507,9548.656652
121.212376,2221.676944,814.226536,9622.677246
121.212684,2068.457845,740.205942,9622.677246
121.212992,1838.629195,814.226536,10066.800811
121.213300,2451.505594,1184.329507,9696.697840
121.213608,2374.896044,1332.370696,9474.636058
121.213916,2221.676944,1184.329507,9474.636058
121.214224,2451.505594,888.247130,9474.636058
121.214532,2374.896044,814.226536,9326.594869
121.214840,2298.286494,740.205942,9918.759623
121.215148,2528.115143,444.123565,9400.615463
121.215456,2451.505594,592.164754,9474.636058
121.215764,2298.286494,962.267725,9474.636058
121.216072,1991.848295,666.185348,9474.636058
121.216380,1991.848295,444.123565,9252.574275
121.216688,1991.848295,518.144159,9474.636058
121.216996,1685.410096,518.144159,9770.718434
121.217305,1302.362347,444.123565,9770.718434
121.217613,1149.143247,-0.000000,9548.656652
121.217921,1225.752797,-148.041188,9326.594869
121.218229,1378.971896,222.061783,9252.574275
121.218537,1378.971896,370.102971,9548.656652
121.218845,1149.143247,296.082377,9474.636058
121.219153,689.485948,296.082377,9622.677246
121.219461,536.266849,296.082377,9400.615463
121.219769,229.828649,-222.061783,9622.677246
121.220077,0.000000,148.041188,9770.718434
121.220385,-153.219100,-222.061783,9918.759623
121.220693,-229.828649,-222.061783,10288.862594
121.221001,-459.657299,-370.102971,9770.718434
121.221309,-766.095498,-74.020594,9622.677246
121.221617,-995.924147,-74.020594,9622.677246
121.221925,-919.314598,-148.041188,9400.615463
121.222233,-459.657299,-148.041188,9474.636058
121.222541,-536.266849,-0.000000,9474.636058
121.222849,-919.314598,-0.000000,9622.677246
121.223157,-1532.190996,-0.000000,9548.656652
121.223465,-1149.143247,-148.041188,9474.636058
121.223773,-1378.971896,-148.041188,9474.636058
121.224081,-1225.752797,-296.082377,9622.677246
121.224389,-1532.190996,-444.123565,9622.677246
121.224697,-1608.800546,-962.267725,9770.718434
121.225005,-1608.800546,-740.205942,9844.739029
121.225313,-1149.143247,-1184.329507,9696.697840
121.225621,-1378.971896,-666.185348,10066.800811
121.225929,-919.314598,-666.185348,9770.718434
121.226237,-612.876398,-296.082377,9622.677246
121.226545,-766.095498,-370.102971,9548.656652
121.226854,-919.314598,-222.061783,9696.697840
121.227162,0.000000,-296.082377,9696.697840
121.227470,76.609550,-222.061783,9548.656652
121.227778,0.000000,-0.000000,9622.677246
121.228086,229.828649,-0.000000,9548.656652
121.228394,612.876398,370.102971,9548.656652
121.228702,459.657299,370.102971,9696.697840
121.229010,919.314598,370.102971,9622.677246
121.229318,1072.533697,444.123565,9696.697840
121.229626,919.314598,148.041188,9622.677246
121.229934,1225.752797,-0.000000,9844.739029
121.230242,1608.800546,148.041188,9696.697840
121.230550,1225.752797,370.102971,9622.677246
121.230858,1532.190996,518.144159,9696.697840
121.231166,1608.800546,666.185348,9770.718434
121.231474,1838.629195,740.205942,9696.697840
121.231782,2068.457845,740.205942,9622.677246
121.232090,2451.505594,814.226536,9326.594869
121.232398,2374.896044,666.185348,9400.615463
121.232706,2221.676944,592.164754,9474.636058
121.233014,2221.676944,888.247130,9622.677246
121.233322,2374.896044,740.205942,9548.656652
121.233630,2298.286494,518.144159,9474.636058
121.233938,2145.067394,814.226536,9696.697840
121.234246,2528.115143,666.185348,9474.636058
121.234554,2145.067394,74.020594,9770.718434
121.234862,2145.067394,-0.000000,9696.697840
121.235170,2451.505594,592.164754,9548.656652
121.235478,2451.505594,592.164754,9400.615463
121.235786,2757.943793,814.226536,9252.574275
121.236094,2681.334243,962.267725,9030.512492
121.236403,2604.724693,962.267725,8956.491898
121.236711,2911.162892,592.164754,9030.512492
121.237019,2374.896044,592.164754,9178.553681
121.237327,2068.457845,666.185348,9326.594869
121.237635,2451.505594,444.123565,9622.677246
121.237943,1608.800546,296.082377,9474.636058
121.238251,1225.752797,74.020594,9474.636058
121.238559,842.705048,222.061783,9696.697840
