#time,accel_x,accel_y,accel_z
398.648690,612.876398,296.082377,9474.636058
398.648998,995.924147,-74.020594,9252.574275
398.649306,1225.752797,-0.000000,9474.636058
398.649613,689.485948,-0.000000,9548.656652
398.649921,383.047749,-0.000000,9918.759623
398.650229,306.438199,-0.000000,9548.656652
398.650537,383.047749,148.041188,9548.656652
398.650845,536.266849,370.102971,9622.677246
398.651153,612.876398,148.041188,9474.636058
398.651461,1225.752797,-0.000000,9474.636058
398.651769,995.924147,296.082377,9770.718434
398.652077,536.266849,592.164754,9844.739029
398.652385,612.876398,-0.000000,9474.636058
398.652693,689.485948,-0.000000,9622.677246
398.653001,612.876398,148.041188,9548.656652
398.653309,689.485948,222.061783,9622.677246
398.653616,766.095498,370.102971,9770.718434
398.653924,766.095498,222.061783,9474.636058
398.654232,842.705048,-0.000000,9326.594869
398.654540,1149.143247,-148.041188,9474.636058
398.654848,842.705048,-0.000000,9326.594869
398.655156,536.266849,296.082377,9696.697840
398.655464,689.485948,-0.000000,9696.697840
398.655772,689.485948,222.061783,9548.656652
398.656080,536.266849,296.082377,9844.739029
398.656388,536.266849,-0.000000,10288.862594
398.656696,459.657299,-0.000000,9770.718434
398.657004,842.705048,-0.000000,9622.677246
398.657312,689.485948,222.061783,9400.615463
398.657619,842.705048,296.082377,9474.636058
398.657927,919.314598,222.061783,9622.677246
398.658235,766.095498,370.102971,9548.656652
398.658543,766.095498,296.082377,9622.677246
398.658851,459.657299,444.123565,9992.780217
398.659159,1072.533697,-74.020594,9548.656652
398.659467,689.485948,-74.020594,9918.759623
398.659775,536.266849,-0.000000,9696.697840
398.660083,459.657299,-0.000000,9474.636058
398.660391,536.266849,296.082377,9548.656652
398.660699,766.095498,-0.000000,9548.656652
398.661007,842.705048,222.061783,9548.656652
398.661314,612.876398,296.082377,9622.677246
398.661622,919.314598,370.102971,9992.780217
398.661930,612.876398,-222.061783,9770.718434
398.662238,1072.533697,-148.041188,9918.759623
398.662546,612.876398,-740.205942,9992.780217
398.662854,536.266849,-370.102971,10288.862594
398.663162,612.876398,-518.144159,10066.800811
398.663470,766.095498,-370.102971,10436.903782
398.663778,1302.362347,-296.082377,10140.821405
398.664086,1685.410096,-0.000000,8808.450710
398.664394,2451.505594,592.164754,8808.450710
398.664702,2681.334243,740.205942,8734.430116
398.665010,2221.676944,740.205942,8882.471304
398.665317,1838.629195,666.185348,9178.553681
398.665625,1685.410096,444.123565,9178.553681
398.665933,1838.629195,444.123565,9474.636058
398.666241,1608.800546,222.061783,10140.821405
398.666549,1608.800546,-148.041188,10066.800811
398.666857,1762.019645,-296.082377,9696.697840
398.667165,1762.019645,-0.000000,9918.759623
398.667473,1838.629195,-296.082377,10140.821405
398.667781,1685.410096,-148.041188,9992.780217
398.668089,2068.457845,-0.000000,9770.718434
398.668397,2604.724693,518.144159,9548.656652
398.668705,2911.162892,296.082377,9474.636058
398.669013,2451.505594,296.082377,9400.615463
398.669320,2681.334243,-0.000000,9696.697840
398.669628,2451.505594,148.041188,9400.615463
398.669936,2145.067394,296.082377,9474.636058
398.670244,2451.505594,-0.000000,9918.759623
398.670552,2757.943793,-0.000000,9992.780217
398.670860,2604.724693,-0.000000,9622.677246
398.671168,2757.943793,74.020594,9770.718434
398.671476,3064.381992,-148.041188,10066.800811
398.671784,2681.334243,-222.061783,10362.883188
398.672092,2834.553343,-222.061783,9992.780217
398.672400,2987.772442,-0.000000,9844.739029
398.672708,2987.772442,-0.000000,9622.677246
398.673016,3524.039291,296.082377,9770.718434
398.673323,3370.820191,222.061783,9474.636058
398.673631,4213.525239,666.185348,9400.615463
398.673939,4213.525239,740.205942,9400.615463
398.674247,4826.401637,592.164754,8808.450710
398.674555,4749.792088,518.144159,9104.533087
398.674863,4443.353888,518.144159,9252.574275
398.675171,4290.134789,222.061783,9474.636058
398.675479,3983.696590,-0.000000,9622.677246
398.675787,4060.306139,-0.000000,10066.800811
398.676095,3983.696590,148.041188,9622.677246
398.676403,4443.353888,444.123565,9770.718434
398.676711,4826.401637,296.082377,9252.574275
398.677018,4749.792088,962.267725,9104.533087
398.677326,4443.353888,1036.288319,9030.512492
398.677634,4673.182538,1258.350101,9030.512492
398.677942,4749.792088,1184.329507,8882.471304
398.678250,4826.401637,1110.308913,8882.471304
398.678558,3983.696590,666.185348,8808.450710
398.678866,3983.696590,1332.370696,9622.677246
398.679174,3677.258390,592.164754,9918.759623
398.679482,3217.601092,740.205942,10510.924376
398.679790,3064.381992,888.247130,10584.944971
398.680098,2374.896044,-74.020594,10362.883188
398.680406,2911.162892,814.226536,10214.842000
398.680714,2451.505594,370.102971,9918.759623
398.681021,2681.334243,296.082377,9474.636058
398.681329,2374.896044,296.082377,9992.780217
398.681637,2221.676944,370.102971,10066.800811
398.681945,1915.238745,-0.000000,10140.821405
398.682253,1685.410096,-222.061783,10140.821405
398.682561,1685.410096,-296.082377,10288.862594
398.682869,1302.362347,-666.185348,10288.862594
398.683177,1838.629195,-1332.370696,10584.944971
398.683485,1685.410096,-1184.329507,10807.006753
398.683793,1762.019645,-1702.473667,10807.006753
398.684101,2374.896044,-1776.494261,10881.027347
398.684409,2757.943793,-2072.576638,10362.883188
398.684717,3140.991542,-1554.432478,9844.739029
398.685024,3753.867940,-888.247130,8956.491898
398.685332,4136.915689,-296.082377,9030.512492
398.685640,4903.011187,-148.041188,8882.471304
398.685948,4290.134789,370.102971,8142.265362
398.686256,5132.839837,592.164754,8290.306550
398.686564,5362.668486,962.267725,7920.203579
398.686872,4903.011187,962.267725,8142.265362
398.687180,4366.744339,814.226536,8364.327145
398.687488,4136.915689,370.102971,8808.450710
398.687796,3447.429741,-0.000000,9252.574275
398.688104,3217.601092,-148.041188,9696.697840
398.688412,3370.820191,222.061783,10066.800811
398.688720,3370.820191,518.144159,10066.800811
398.689027,3294.210641,1184.329507,9326.594869
398.689335,3830.477490,2072.576638,8734.430116
398.689643,3983.696590,2812.782580,8734.430116
398.689951,4749.792088,2960.823768,8734.430116
398.690259,4366.744339,2664.741391,8586.388927
398.690567,3830.477490,1258.350101,9178.553681
398.690875,3370.820191,296.082377,10362.883188
398.691183,1838.629195,-1036.288319,11769.274478
398.691491,995.924147,-2220.617826,13323.706956
398.691799,229.828649,-3256.906145,13397.727550
398.692107,306.438199,-3330.926739,13619.789333
398.692415,1608.800546,-3404.947333,13027.624579
398.692722,2911.162892,-2442.679609,11547.212695
398.693030,4443.353888,-888.247130,9696.697840
398.693338,6588.421283,-0.000000,8808.450710
398.693646,7354.516781,1554.432478,7254.018232
398.693954,7354.516781,3478.967927,5773.606348
398.694262,7890.783629,3997.112087,5773.606348
398.694570,7431.126331,4811.338623,5403.503377
398.694878,6281.983084,4811.338623,5773.606348
398.695186,5209.449386,3997.112087,6587.832884
398.695494,4290.134789,2960.823768,8068.244768
398.695802,2528.115143,962.267725,8882.471304
398.696110,1302.362347,-148.041188,10214.842000
398.696418,306.438199,-2220.617826,11917.315666
398.696725,-229.828649,-3627.009116,12953.603985
398.697033,-229.828649,-4145.153275,14137.933492
398.697341,229.828649,-4293.194464,14285.974681
398.697649,919.314598,-4293.194464,13397.727550
398.697957,2528.115143,-3552.988522,12213.398043
398.698265,3677.258390,-2072.576638,11399.171507
398.698573,4826.401637,-1332.370696,9400.615463
398.698881,5975.544884,888.247130,7994.224174
398.699189,6818.249932,2220.617826,6661.853478
398.699497,6511.811733,3034.844362,5847.626942
398.699805,6205.373534,3775.050304,5699.585753
398.700113,6281.983084,3404.947333,6291.750507
398.700421,5056.230287,2516.700203,7105.977043
398.700728,4366.744339,1110.308913,7920.203579
398.701036,2757.943793,-962.267725,9474.636058
398.701344,1455.581446,-2812.782580,11769.274478
398.701652,459.657299,-4071.132681,12805.562797
398.701960,766.095498,-4589.276840,13323.706956
398.702268,1378.971896,-3256.906145,12657.521608
398.702576,3447.429741,-2072.576638,11547.212695
398.702884,4903.011187,222.061783,9400.615463
398.703192,7048.078582,2812.782580,6143.709319
398.703500,7967.393179,5551.544565,4367.215058
398.703808,8120.612279,7105.977043,3775.050304
398.704116,9346.365076,6217.729913,5181.441594
398.704424,5592.497135,5995.668130,4071.132681
398.704731,4596.572988,2146.597232,8512.368333
398.705039,2298.286494,-1776.494261,12361.439231
398.705347,-2451.505594,-2960.823768,12879.583391
398.705655,-2757.943793,-5699.585753,16432.571912
398.705963,-3753.867940,-6735.874072,17394.839637
398.706271,-3140.991542,-7179.997637,18061.024985
398.706579,-612.876398,-4145.153275,14211.954086
398.706887,2451.505594,-2220.617826,11177.109724
398.707195,5362.668486,740.205942,8068.244768
398.707503,8044.002729,3330.926739,4737.318029
398.707811,10189.070123,5773.606348,5255.462188
398.708119,10112.460574,5773.606348,2812.782580
398.708427,10189.070123,5181.441594,3256.906145
398.708734,7048.078582,4145.153275,4737.318029
398.709042,4903.011187,296.082377,8586.388927
398.709350,1762.019645,-2886.803174,10732.986159
398.709658,-995.924147,-4145.153275,12583.501014
398.709966,-919.314598,-5551.544565,14285.974681
398.710274,-229.828649,-4367.215058,12953.603985
398.710582,842.705048,-814.226536,11769.274478
398.710890,6205.373534,592.164754,10510.924376
398.711198,7431.126331,2812.782580,6365.771101
398.711506,7354.516781,4219.173869,6291.750507
398.711814,8503.660028,4293.194464,7476.080014
398.712122,6435.202183,4145.153275,6365.771101
398.712429,4519.963438,2072.576638,10066.800811
398.712737,2681.334243,-740.205942,11103.089130
398.713045,0.000000,-1776.494261,11547.212695
398.713353,-1225.752797,-3108.864956,13767.830521
398.713661,-1608.800546,-3478.967927,13841.851115
398.713969,-1302.362347,-3034.844362,13249.686362
398.714277,1072.533697,-2664.741391,12065.356855
398.714585,3677.258390,-1332.370696,10362.883188
398.714893,5669.106685,-666.185348,9326.594869
398.715201,6052.154434,-740.205942,8808.450710
398.715509,6358.592633,1776.494261,7772.162391
398.715817,6665.030833,2368.659014,6587.832884
398.716125,7890.783629,3108.864956,7698.141797
398.716432,5745.716235,5847.626942,4885.359217
398.716740,6128.763984,5847.626942,5403.503377
398.717048,7507.735880,4515.256246,7031.956449
398.717356,5439.278036,4441.235652,6957.935855
398.717664,4136.915689,740.205942,10214.842000
398.717972,2987.772442,-2220.617826,12435.459826
398.718280,153.219100,-4515.256246,14063.912898
398.718588,-1838.629195,-6291.750507,14730.098246
398.718896,-1455.581446,-5995.668130,14730.098246
398.719204,-1378.971896,-4441.235652,13249.686362
398.719512,383.047749,-2442.679609,10658.965565
398.719820,3370.820191,-592.164754,10288.862594
398.720128,4826.401637,1332.370696,9104.533087
398.720435,5592.497135,1628.453072,6957.935855
398.720743,6128.763984,2590.720797,5921.647536
398.721051,6665.030833,4515.256246,4885.359217
398.721359,6281.983084,3775.050304,6217.729913
398.721667,6205.373534,3775.050304,7550.100608
398.721975,5132.839837,3997.112087,7328.038826
398.722283,4673.182538,2072.576638,8216.285956
398.722591,3677.258390,370.102971,10066.800811
398.722899,2911.162892,-1628.453072,11177.109724
398.723207,2451.505594,-3701.029710,13027.624579
398.723515,1072.533697,-4885.359217,13027.624579
398.723823,0.000000,-4959.379811,12435.459826
398.724131,0.000000,-3849.070898,12435.459826
398.724438,2298.286494,-1258.350101,10732.986159
398.724746,4213.525239,1258.350101,8438.347739
398.725054,6052.154434,2368.659014,7254.018232
398.725362,5592.497135,2886.803174,6365.771101
398.725670,5056.230287,1998.556043,7105.977043
398.725978,3447.429741,2072.576638,8660.409521
398.726286,2145.067394,2516.700203,9400.615463
398.726594,1685.410096,1850.514855,9474.636058
398.726902,1302.362347,2442.679609,9992.780217
398.727210,2145.067394,2516.700203,9844.739029
398.727518,2757.943793,1332.370696,11029.068536
398.727826,995.924147,-518.144159,11399.171507
398.728134,766.095498,-2960.823768,12583.501014
398.728441,-1455.581446,-3627.009116,12879.583391
398.728749,-1532.190996,-3701.029710,12805.562797
398.729057,0.000000,-2960.823768,11473.192101
398.729365,1149.143247,888.247130,9030.512492
398.729673,3830.477490,1184.329507,7994.224174
398.729981,4979.620737,1850.514855,6365.771101
398.730289,4366.744339,2368.659014,7105.977043
398.730597,3753.867940,518.144159,7328.038826
398.730905,1685.410096,592.164754,8512.368333
398.731213,612.876398,148.041188,10436.903782
398.731521,1455.581446,222.061783,10288.862594
398.731829,2068.457845,1702.473667,9400.615463
398.732137,3524.039291,1110.308913,9030.512492
398.732444,4749.792088,-74.020594,9474.636058
398.732752,1762.019645,-888.247130,9844.739029
398.733060,1072.533697,-2516.700203,12213.398043
398.733368,1072.533697,-3330.926739,11843.295072
398.733676,-536.266849,-2220.617826,9770.718434
398.733984,1838.629195,-1998.556043,9992.780217
398.734292,3677.258390,-296.082377,7402.059420
398.734600,3830.477490,666.185348,7254.018232
398.734908,3064.381992,-74.020594,7328.038826
398.735216,2221.676944,814.226536,8882.471304
398.735524,1072.533697,1258.350101,9992.780217
398.735832,1072.533697,1628.453072,9474.636058
398.736140,2145.067394,3330.926739,9104.533087
398.736447,2987.772442,4219.173869,8882.471304
398.736755,4366.744339,2294.638420,8734.430116
398.737063,1838.629195,1480.411884,9918.759623
398.737371,383.047749,-296.082377,11991.336260
398.737679,-1302.362347,-1924.535449,11917.315666
398.737987,-1608.800546,-2220.617826,12361.439231
398.738295,-919.314598,-1480.411884,11325.150913
398.738603,306.438199,-888.247130,9178.553681
398.738911,1608.800546,-74.020594,8290.306550
398.739219,1915.238745,666.185348,7402.059420
398.739527,1378.971896,1702.473667,8068.244768
398.739835,1149.143247,1924.535449,9622.677246
398.740143,1762.019645,1998.556043,9474.636058
398.740451,1225.752797,3404.947333,8068.244768
398.740758,2451.505594,1628.453072,9474.636058
398.741066,2145.067394,370.102971,10066.800811
398.741374,536.266849,-296.082377,10658.965565
398.741682,-459.657299,-2368.659014,12287.418637
398.741990,-1915.238745,-3552.988522,12213.398043
398.742298,-2451.505594,-2886.803174,11251.130318
398.742606,-1149.143247,-1776.494261,11103.089130
398.742914,1072.533697,-1702.473667,8808.450710
398.743222,689.485948,-0.000000,6513.812290
398.743530,2374.896044,740.205942,5773.606348
398.743838,2834.553343,1036.288319,6587.832884
398.744146,1685.410096,2294.638420,7550.100608
398.744454,2068.457845,1406.391290,9252.574275
398.744761,2681.334243,1998.556043,8808.450710
398.745069,2298.286494,962.267725,9474.636058
398.745377,1378.971896,-666.185348,10436.903782
398.745685,689.485948,-1184.329507,11695.253884
398.745993,-1532.190996,-2220.617826,12509.480420
398.746301,-2221.676944,-2442.679609,12509.480420
398.746609,-1378.971896,-1702.473667,11621.233289
398.746917,-383.047749,-666.185348,9548.656652
398.747225,2374.896044,-0.000000,7698.141797
398.747533,2451.505594,1184.329507,6587.832884
398.747841,1685.410096,1998.556043,6661.853478
398.748149,1838.629195,1998.556043,7624.121203
398.748457,1225.752797,3627.009116,8216.285956
398.748764,1455.581446,2960.823768,9252.574275
398.749072,1762.019645,2516.700203,8364.327145
398.749380,1991.848295,2072.576638,9622.677246
398.749688,919.314598,-518.144159,11251.130318
398.749996,-842.705048,-962.267725,12361.439231
398.750304,-2298.286494,-1628.453072,12953.603985
398.750612,-2757.943793,-2960.823768,12953.603985
398.750920,-2298.286494,-2368.659014,12065.356855
398.751228,-919.314598,-1702.473667,9918.759623
398.751536,1149.143247,-592.164754,9104.533087
398.751844,766.095498,148.041188,7105.977043
398.752152,1302.362347,1480.411884,6883.915261
398.752460,1838.629195,2664.741391,7105.977043
398.752767,2221.676944,2368.659014,8734.430116
398.753075,2451.505594,3108.864956,8068.244768
398.753383,3294.210641,2442.679609,7550.100608
398.753691,2068.457845,1036.288319,8734.430116
398.753999,1838.629195,-1110.308913,10140.821405
398.754307,-842.705048,-1776.494261,11473.192101
398.754615,-1532.190996,-3627.009116,13323.706956
398.754923,-2451.505594,-3034.844362,11621.233289
398.755231,-2374.896044,-2442.679609,10510.924376
398.755539,-306.438199,-2738.761985,11177.109724
398.755847,842.705048,-444.123565,7105.977043
398.756155,1532.190996,-0.000000,7179.997637
398.756463,1302.362347,1480.411884,7624.121203
398.756770,1608.800546,2368.659014,7994.224174
398.757078,2145.067394,2516.700203,9770.718434
398.757386,3983.696590,2960.823768,8882.471304
398.757694,3217.601092,2738.761985,8290.306550
398.758002,1149.143247,888.247130,9844.739029
398.758310,842.705048,-518.144159,12583.501014
398.758618,-1608.800546,-1702.473667,13027.624579
398.758926,-2757.943793,-1998.556043,13175.665768
398.759234,-2451.505594,-2960.823768,11695.253884
398.759542,-1608.800546,-1998.556043,10066.800811
398.759850,153.219100,-1998.556043,9696.697840
398.760158,1225.752797,-0.000000,7476.080014
398.760466,1991.848295,1406.391290,7031.956449
398.760773,1762.019645,1998.556043,7402.059420
398.761081,2374.896044,2960.823768,8290.306550
398.761389,3447.429741,4737.318029,8512.368333
398.761697,4060.306139,3997.112087,8364.327145
398.762005,2451.505594,3034.844362,7550.100608
398.762313,1915.238745,592.164754,10732.986159
398.762621,229.828649,-444.123565,12879.583391
398.762929,-2451.505594,-1110.308913,12213.398043
398.763237,-2911.162892,-2220.617826,12731.542202
398.763545,-1685.410096,-2294.638420,10436.903782
398.763853,-612.876398,-2368.659014,9548.656652
398.764161,995.924147,-1628.453072,9622.677246
398.764469,1455.581446,-222.061783,7476.080014
398.764776,842.705048,1332.370696,6883.915261
398.765084,1532.190996,1554.432478,7624.121203
398.765392,2757.943793,2886.803174,9474.636058
398.765700,2528.115143,3404.947333,8586.388927
398.766008,3294.210641,2516.700203,8290.306550
398.766316,2451.505594,740.205942,9474.636058
398.766624,383.047749,-740.205942,11547.212695
398.766932,-2145.067394,-1184.329507,13323.706956
398.767240,-2298.286494,-3775.050304,14063.912898
398.767548,-3064.381992,-1406.391290,10955.047942
398.767856,-1915.238745,-2812.782580,11251.130318
398.768164,689.485948,-2146.597232,8438.347739
398.768472,-153.219100,-296.082377,7550.100608
398.768779,1455.581446,-666.185348,7105.977043
398.769087,1991.848295,1480.411884,6883.915261
398.769395,2298.286494,2886.803174,9178.553681
398.769703,3677.258390,3404.947333,8216.285956
398.770011,5286.058936,3849.070898,7624.121203
398.770319,3294.210641,2960.823768,7550.100608
398.770627,1225.752797,-74.020594,10732.986159
398.770935,-383.047749,-1258.350101,12583.501014
398.771243,-3294.210641,-2368.659014,13471.748144
398.771551,-3447.429741,-3404.947333,13989.892304
398.771859,-3524.039291,-2442.679609,10807.006753
398.772167,-2298.286494,-3108.864956,10807.006753
398.772475,-153.219100,-1998.556043,9252.574275
398.772782,1149.143247,370.102971,7254.018232
398.773090,1915.238745,1998.556043,7105.977043
398.773398,2604.724693,1924.535449,7105.977043
398.773706,2987.772442,4145.153275,7402.059420
398.774014,4136.915689,4441.235652,8290.306550
398.774322,4596.572988,3182.885551,8364.327145
398.774630,2298.286494,2368.659014,6735.874072
398.774938,842.705048,-370.102971,11547.212695
398.775246,-1378.971896,-1332.370696,13249.686362
398.775554,-2834.553343,-2072.576638,12657.521608
398.775862,-3524.039291,-2886.803174,13915.871710
398.776170,-2374.896044,-2590.720797,10436.903782
398.776478,-153.219100,-2886.803174,9252.574275
398.776786,0.000000,-444.123565,8438.347739
398.777093,1532.190996,-296.082377,7179.997637
398.777401,1149.143247,888.247130,7254.018232
398.777709,2451.505594,2738.761985,8734.430116
398.778017,3753.867940,2664.741391,8734.430116
398.778325,3907.087040,3849.070898,8068.244768
398.778633,3677.258390,2072.576638,8882.471304
398.778941,2604.724693,444.123565,9844.739029
398.779249,229.828649,-1184.329507,12657.521608
398.779557,-1762.019645,-1850.514855,13249.686362
398.779865,-2911.162892,-2738.761985,12287.418637
398.780173,-2451.505594,-2442.679609,11695.253884
398.780481,-1532.190996,-3034.844362,10214.842000
398.780789,1225.752797,-1406.391290,8956.491898
398.781096,1455.581446,-370.102971,6513.812290
398.781404,1991.848295,1480.411884,6217.729913
398.781712,2451.505594,2072.576638,7402.059420
398.782020,3217.601092,3923.091493,8512.368333
398.782328,3907.087040,3775.050304,8660.409521
398.782636,4060.306139,3627.009116,7920.203579
398.782944,2757.943793,2664.741391,8290.306550
398.783252,1455.581446,-444.123565,11547.212695
398.783560,-1455.581446,-666.185348,12731.542202
398.783868,-3140.991542,-1998.556043,13249.686362
398.784176,-2451.505594,-2516.700203,13471.748144
398.784484,-3064.381992,-1998.556043,9918.759623
398.784792,-306.438199,-2220.617826,10584.944971
398.785099,229.828649,-444.123565,8142.265362
398.785407,2145.067394,1406.391290,6587.832884
398.785715,1225.752797,1480.411884,7179.997637
398.786023,2145.067394,2220.617826,8660.409521
398.786331,2911.162892,4071.132681,8290.306550
398.786639,3524.039291,3478.967927,8660.409521
398.786947,3370.820191,2294.638420,9252.574275
398.787255,1302.362347,1480.411884,9400.615463
398.787563,0.000000,-1184.329507,12879.583391
398.787871,-1991.848295,-1776.494261,13249.686362
398.788179,-3217.601092,-3034.844362,12879.583391
398.788487,-2374.896044,-2960.823768,12657.521608
398.788795,-1838.629195,-3552.988522,9622.677246
398.789102,-229.828649,-1850.514855,9474.636058
398.789410,1149.143247,-888.247130,7402.059420
398.789718,1838.629195,1776.494261,6735.874072
398.790026,1685.410096,1480.411884,8290.306550
398.790334,2834.553343,2664.741391,8586.388927
398.790642,3600.648841,3849.070898,8586.388927
398.790950,3217.601092,3552.988522,8142.265362
398.791258,2757.943793,1406.391290,9474.636058
398.791566,-306.438199,-666.185348,12731.542202
398.791874,-1915.238745,-1776.494261,14211.954086
398.792182,-3140.991542,-3404.947333,14359.995275
398.792490,-4596.572988,-3256.906145,12139.377449
398.792798,-3447.429741,-3849.070898,11547.212695
398.793105,-995.924147,-2368.659014,8956.491898
398.793413,995.924147,-1480.411884,9104.533087
398.793721,1225.752797,1332.370696,5921.647536
398.794029,3064.381992,1184.329507,7328.038826
398.794337,1915.238745,3997.112087,7105.977043
398.794645,3907.087040,4737.318029,6513.812290
398.794953,4903.011187,5033.400406,7402.059420
398.795261,3600.648841,4737.318029,6513.812290
398.795569,1838.629195,1702.473667,9178.553681
398.795877,-842.705048,-740.205942,13545.768739
398.796185,-3370.820191,-1924.535449,14730.098246
398.796493,-4596.572988,-2960.823768,14211.954086
398.796801,-3524.039291,-2664.741391,12657.521608
398.797108,-2911.162892,-3849.070898,11251.130318
398.797416,-229.828649,-2220.617826,9178.553681
398.797724,1455.581446,-296.082377,7624.121203
398.798032,1532.190996,1036.288319,6439.791695
398.798340,3294.210641,1258.350101,7031.956449
398.798648,4826.401637,3775.050304,7179.997637
398.798956,4519.963438,4737.318029,6291.750507
398.799264,4826.401637,3849.070898,7031.956449
398.799572,3294.210641,3256.906145,7846.182985
398.799880,1685.410096,-74.020594,11917.315666
398.800188,-459.657299,-1480.411884,12657.521608
398.800496,-2374.896044,-2368.659014,13397.727550
398.800804,-2757.943793,-4293.194464,13693.809927
398.801111,-1838.629195,-4367.215058,11251.130318
398.801419,-995.924147,-3034.844362,9474.636058
398.801727,0.000000,-2220.617826,10214.842000
398.802035,1762.019645,-74.020594,7105.977043
398.802343,1225.752797,1628.453072,6513.812290
398.802651,2757.943793,2442.679609,8512.368333
398.802959,4213.525239,3997.112087,6735.874072
398.803267,4903.011187,4663.297435,6661.853478
398.803575,3983.696590,3330.926739,7698.141797
398.803883,2068.457845,666.185348,8882.471304
398.804191,-612.876398,-1628.453072,13989.892304
398.804499,-2911.162892,-2294.638420,13027.624579
398.804807,-3370.820191,-2812.782580,12435.459826
398.805114,-3447.429741,-2812.782580,12065.356855
398.805422,-1762.019645,-2590.720797,10510.924376
398.805730,0.000000,-1702.473667,9326.594869
398.806038,1378.971896,-0.000000,7624.121203
398.806346,2298.286494,1110.308913,6439.791695
398.806654,2604.724693,2516.700203,6883.915261
398.806962,3677.258390,3849.070898,7105.977043
398.807270,4290.134789,5255.462188,6291.750507
398.807578,4903.011187,4811.338623,6661.853478
398.807886,3294.210641,2960.823768,8512.368333
398.808194,1302.362347,-814.226536,11695.253884
398.808502,-919.314598,-1850.514855,13101.645173
398.808810,-3140.991542,-3923.091493,14211.954086
398.809117,-3983.696590,-3997.112087,13619.789333
398.809425,-3447.429741,-3997.112087,11547.212695
398.809733,-995.924147,-3330.926739,11325.150913
398.810041,383.047749,-1406.391290,8660.409521
398.810349,2298.286494,888.247130,6735.874072
398.810657,2681.334243,1776.494261,6809.894666
398.810965,2911.162892,3108.864956,7105.977043
398.811273,4290.134789,4959.379811,7254.018232
398.811581,5286.058936,5181.441594,6365.771101
398.811889,3677.258390,3330.926739,7994.224174
398.812197,1608.800546,888.247130,10362.883188
398.812505,153.219100,-2146.597232,14211.954086
398.812813,-2834.553343,-2960.823768,14137.933492
398.813121,-4290.134789,-4145.153275,13249.686362
398.813428,-3447.429741,-4589.276840,13323.706956
398.813736,-2911.162892,-2960.823768,11399.171507
398.814044,-689.485948,-2590.720797,10436.903782
398.814352,383.047749,-296.082377,7402.059420
398.814660,1991.848295,2072.576638,6291.750507
398.814968,2451.505594,2590.720797,7105.977043
398.815276,3907.087040,5107.421000,7254.018232
398.815584,4673.182538,6365.771101,6439.791695
398.815892,5439.278036,5699.585753,6735.874072
398.816200,2528.115143,3478.967927,7772.162391
398.816508,1225.752797,-0.000000,11991.336260
398.816816,-1532.190996,-1258.350101,12953.603985
398.817124,-4136.915689,-2812.782580,13323.706956
398.817432,-4749.792088,-4367.215058,14211.954086
398.817740,-4749.792088,-3997.112087,12731.542202
398.818048,-2528.115143,-4145.153275,12657.521608
398.818356,-383.047749,-2516.700203,9770.718434
398.818664,919.314598,740.205942,7105.977043
398.818972,1762.019645,1628.453072,7328.038826
398.819280,2681.334243,2886.803174,7328.038826
398.819588,3447.429741,4959.379811,5847.626942
398.819896,4903.011187,5551.544565,6365.771101
398.820204,3370.820191,3997.112087,7624.121203
398.820512,2068.457845,1480.411884,8882.471304
398.820820,1149.143247,-1406.391290,13915.871710
398.821128,-2451.505594,-2220.617826,12287.418637
398.821436,-3907.087040,-4071.132681,13027.624579
398.821745,-4366.744339,-4663.297435,13841.851115
398.822053,-3140.991542,-3552.988522,11695.253884
398.822361,-1455.581446,-3256.906145,11029.068536
398.822669,383.047749,-888.247130,8586.388927
398.822977,1762.019645,1480.411884,6365.771101
398.823285,2451.505594,1998.556043,6143.709319
398.823593,4979.620737,3923.091493,7624.121203
398.823901,5362.668486,6291.750507,4737.318029
398.824209,4290.134789,5847.626942,5995.668130
398.824517,3753.867940,2738.761985,8808.450710
398.824825,1378.971896,444.123565,9548.656652
398.825133,-995.924147,-1332.370696,12731.542202
398.825441,-3064.381992,-2590.720797,12657.521608
398.825749,-4903.011187,-4145.153275,13471.748144
398.826057,-4213.525239,-3552.988522,12657.521608
398.826365,-1915.238745,-3404.947333,10510.924376
398.826673,229.828649,-1554.432478,9326.594869
398.826981,1455.581446,592.164754,6957.935855
398.827289,1991.848295,1332.370696,6735.874072
398.827597,2911.162892,3108.864956,7105.977043
398.827906,4749.792088,4885.359217,6587.832884
398.828214,5056.230287,6143.709319,6513.812290
398.828522,4749.792088,4367.215058,7328.038826
398.828830,2911.162892,2220.617826,9400.615463
398.829138,229.828649,-962.267725,13471.748144
398.829446,-1991.848295,-1702.473667,12213.398043
398.829754,-3753.867940,-3849.070898,13471.748144
398.830062,-4060.306139,-4663.297435,13767.830521
398.830370,-2834.553343,-4367.215058,11695.253884
398.830678,-1991.848295,-3478.967927,10955.047942
398.830986,76.609550,-1628.453072,7994.224174
398.831294,2451.505594,-0.000000,6809.894666
398.831602,2374.896044,2072.576638,6809.894666
398.831910,3907.087040,3627.009116,7550.100608
398.832218,5056.230287,5033.400406,6143.709319
398.832526,5975.544884,5033.400406,6957.935855
398.832834,3753.867940,3182.885551,7550.100608
398.833142,2451.505594,222.061783,11325.150913
398.833450,-229.828649,-1776.494261,13101.645173
398.833759,-3217.601092,-2368.659014,12065.356855
398.834067,-4366.744339,-4441.235652,13841.851115
398.834375,-3830.477490,-4219.173869,12953.603985
398.834683,-2604.724693,-3701.029710,10807.006753
398.834991,-919.314598,-2146.597232,9844.739029
398.835299,1149.143247,-370.102971,7328.038826
398.835607,2145.067394,1702.473667,6439.791695
398.835915,3140.991542,3701.029710,6587.832884
398.836223,4826.401637,5403.503377,6069.688724
398.836531,5132.839837,6439.791695,5995.668130
398.836839,4903.011187,5181.441594,7402.059420
398.837147,2681.334243,2368.659014,8364.327145
398.837455,1762.019645,370.102971,11621.233289
398.837763,-1532.190996,-814.226536,11325.150913
398.838071,-4596.572988,-2368.659014,12953.603985
398.838379,-4136.915689,-4293.194464,14285.974681
398.838687,-3524.039291,-3108.864956,11917.315666
398.838995,-1608.800546,-3182.885551,10658.965565
398.839303,0.000000,-1554.432478,8882.471304
398.839611,1838.629195,-0.000000,7254.018232
398.839920,1685.410096,1110.308913,7846.182985
398.840228,1915.238745,3034.844362,7920.203579
398.840536,3830.477490,4589.276840,7550.100608
398.840844,4826.401637,4663.297435,8142.265362
398.841152,3524.039291,3256.906145,7476.080014
398.841460,2757.943793,444.123565,10140.821405
398.841768,0.000000,-666.185348,11917.315666
398.842076,-1991.848295,-1628.453072,12435.459826
398.842384,-3370.820191,-4145.153275,13619.789333
398.842692,-4136.915689,-4071.132681,12731.542202
398.843000,-2528.115143,-4367.215058,11325.150913
398.843308,-383.047749,-2516.700203,9400.615463
398.843616,229.828649,-296.082377,7846.182985
398.843924,1378.971896,-0.000000,8216.285956
398.844232,1915.238745,2294.638420,7698.141797
398.844540,2604.724693,3849.070898,8438.347739
398.844848,4136.915689,4293.194464,7476.080014
398.845156,5209.449386,4367.215058,7550.100608
398.845464,3447.429741,2072.576638,8364.327145
398.845772,1378.971896,-0.000000,11029.068536
398.846081,-995.924147,-444.123565,11843.295072
398.846389,-2834.553343,-1480.411884,12953.603985
398.846697,-3370.820191,-3034.844362,13175.665768
398.847005,-3524.039291,-2368.659014,10140.821405
398.847313,-536.266849,-3108.864956,10955.047942
398.847621,229.828649,-1406.391290,8142.265362
398.847929,919.314598,370.102971,6883.915261
398.848237,1302.362347,888.247130,8290.306550
398.848545,1762.019645,3108.864956,8438.347739
398.848853,3370.820191,4737.318029,8438.347739
398.849161,4136.915689,4367.215058,7846.182985
398.849469,3830.477490,3775.050304,7994.224174
398.849777,2681.334243,814.226536,9548.656652
398.850085,306.438199,-148.041188,11177.109724
398.850393,-1532.190996,-740.205942,11769.274478
398.850701,-2834.553343,-2886.803174,13841.851115
398.851009,-2451.505594,-2812.782580,12287.418637
398.851317,-2987.772442,-3108.864956,9400.615463
398.851625,-229.828649,-2146.597232,9844.739029
398.851933,2604.724693,-2146.597232,8882.471304
398.852242,-229.828649,666.185348,6143.709319
398.852550,1762.019645,-0.000000,8290.306550
398.852858,3370.820191,2072.576638,9622.677246
398.853166,2987.772442,3330.926739,8142.265362
398.853474,4443.353888,3108.864956,8290.306550
398.853782,3447.429741,1776.494261,7994.224174
398.854090,1762.019645,222.061783,11399.171507
398.854398,-612.876398,-0.000000,11769.274478
398.854706,-1991.848295,-1554.432478,12139.377449
398.855014,-2451.505594,-2738.761985,12731.542202
398.855322,-2221.676944,-3034.844362,10510.924376
398.855630,-1225.752797,-2146.597232,9548.656652
398.855938,76.609550,-2146.597232,9178.553681
398.856246,536.266849,370.102971,7476.080014
398.856554,995.924147,1554.432478,7846.182985
398.856862,3140.991542,3108.864956,8364.327145
398.857170,2451.505594,4293.194464,7328.038826
398.857478,4443.353888,4293.194464,7920.203579
398.857786,4979.620737,3478.967927,7920.203579
398.858095,1455.581446,1554.432478,8956.491898
398.858403,459.657299,-0.000000,11843.295072
398.858711,-1149.143247,-296.082377,12435.459826
398.859019,-3294.210641,-1702.473667,13027.624579
398.859327,-3370.820191,-1702.473667,11769.274478
398.859635,-1532.190996,-2294.638420,9844.739029
398.859943,-383.047749,-2442.679609,9696.697840
398.860251,-229.828649,-962.267725,7254.018232
398.860559,689.485948,-0.000000,8068.244768
398.860867,612.876398,444.123565,9104.533087
398.861175,1455.581446,2294.638420,8512.368333
398.861483,3064.381992,3108.864956,8512.368333
398.861791,3983.696590,2960.823768,8438.347739
398.862099,3830.477490,1554.432478,8364.327145
398.862407,2145.067394,592.164754,10214.842000
398.862715,383.047749,-962.267725,11843.295072
398.863023,-1149.143247,-2368.659014,12139.377449
398.863331,-2528.115143,-2812.782580,11843.295072
398.863639,-1762.019645,-3478.967927,11547.212695
398.863947,-229.828649,-3034.844362,8808.450710
398.864256,536.266849,-1332.370696,7624.121203
398.864564,1225.752797,-74.020594,7624.121203
398.864872,1302.362347,222.061783,7476.080014
398.865180,1378.971896,2368.659014,8956.491898
398.865488,2604.724693,2738.761985,9030.512492
398.865796,3830.477490,3330.926739,7920.203579
398.866104,3600.648841,2664.741391,8660.409521
398.866412,2221.676944,592.164754,10288.862594
398.866720,383.047749,-0.000000,11769.274478
398.867028,-1685.410096,-962.267725,12361.439231
398.867336,-2145.067394,-1776.494261,12731.542202
398.867644,-1685.410096,-2220.617826,11695.253884
398.867952,-1762.019645,-1628.453072,9252.574275
398.868260,153.219100,-1998.556043,9178.553681
398.868568,919.314598,-0.000000,7105.977043
398.868876,1225.752797,1258.350101,7105.977043
398.869184,1149.143247,1702.473667,8290.306550
398.869492,1838.629195,2960.823768,8956.491898
398.869800,3064.381992,3923.091493,8068.244768
398.870108,3983.696590,3923.091493,7920.203579
398.870417,3370.820191,2072.576638,8808.450710
398.870725,766.095498,888.247130,10584.944971
398.871033,-536.266849,-370.102971,12435.459826
398.871341,-2298.286494,-962.267725,12583.501014
398.871649,-2374.896044,-2368.659014,12509.480420
398.871957,-1225.752797,-2072.576638,10807.006753
398.872265,-1225.752797,-2220.617826,9474.636058
398.872573,689.485948,-1776.494261,7772.162391
398.872881,459.657299,-518.144159,7328.038826
398.873189,842.705048,296.082377,9104.533087
398.873497,842.705048,1554.432478,8364.327145
398.873805,2451.505594,2886.803174,9252.574275
398.874113,3370.820191,2738.761985,8512.368333
398.874421,3447.429741,2442.679609,8216.285956
398.874729,2221.676944,-0.000000,10658.965565
398.875037,-1149.143247,-296.082377,11917.315666
398.875345,-842.705048,-1924.535449,12435.459826
398.875653,-3600.648841,-2664.741391,12657.521608
398.875961,-2298.286494,-3108.864956,12065.356855
398.876269,-1532.190996,-2738.761985,9548.656652
398.876578,306.438199,-1924.535449,9178.553681
398.876886,383.047749,-370.102971,7254.018232
398.877194,1225.752797,592.164754,7402.059420
398.877502,1149.143247,1702.473667,8512.368333
398.877810,2221.676944,3182.885551,7920.203579
398.878118,3677.258390,4145.153275,7402.059420
398.878426,3907.087040,3552.988522,7254.018232
398.878734,2987.772442,2368.659014,8586.388927
398.879042,1072.533697,814.226536,10955.047942
398.879350,-842.705048,222.061783,11843.295072
398.879658,-2757.943793,-740.205942,12509.480420
398.879966,-2681.334243,-2590.720797,13619.789333
398.880274,-2374.896044,-2072.576638,11473.192101
398.880582,-612.876398,-2072.576638,9400.615463
398.880890,306.438199,-518.144159,7179.997637
398.881198,1149.143247,-518.144159,7698.141797
398.881506,842.705048,-0.000000,8142.265362
398.881814,536.266849,1406.391290,9104.533087
398.882122,2451.505594,2442.679609,9474.636058
398.882431,3370.820191,3775.050304,8216.285956
398.882739,3447.429741,3034.844362,8216.285956
398.883047,2068.457845,1332.370696,9622.677246
398.883355,612.876398,-0.000000,12657.521608
398.883663,-995.924147,-444.123565,11991.336260
398.883971,-1532.190996,-2664.741391,12731.542202
398.884279,-1532.190996,-2368.659014,11399.171507
398.884587,-689.485948,-2368.659014,8586.388927
398.884895,1378.971896,-1776.494261,8586.388927
398.885203,1149.143247,-740.205942,6809.894666
398.885511,1608.800546,-0.000000,7328.038826
398.885819,1072.533697,666.185348,8512.368333
398.886127,1915.238745,1702.473667,9252.574275
398.886435,2757.943793,2664.741391,8734.430116
398.886743,3677.258390,2664.741391,8882.471304
398.887051,2987.772442,1110.308913,8882.471304
398.887359,1455.581446,-0.000000,10584.944971
398.887667,0.000000,-74.020594,12287.418637
398.887975,-2451.505594,-1776.494261,12361.439231
398.888283,-1915.238745,-2072.576638,11991.336260
398.888592,-842.705048,-1628.453072,10510.924376
398.888900,229.828649,-1702.473667,9178.553681
398.889208,1455.581446,-222.061783,7698.141797
398.889516,1838.629195,666.185348,7105.977043
398.889824,2068.457845,814.226536,8364.327145
398.890132,1762.019645,2516.700203,7772.162391
398.890440,2834.553343,3330.926739,8438.347739
398.890748,3600.648841,4293.194464,7920.203579
398.891056,3524.039291,2960.823768,7772.162391
398.891364,1991.848295,1554.432478,10214.842000
398.891672,76.609550,-370.102971,12213.398043
398.891980,-1072.533697,-1258.350101,12509.480420
398.892288,-2757.943793,-1702.473667,12953.603985
398.892596,-2528.115143,-2294.638420,12139.377449
398.892904,-919.314598,-2146.597232,10584.944971
398.893212,76.609550,-1258.350101,8660.409521
398.893520,1838.629195,-296.082377,7254.018232
398.893828,1149.143247,370.102971,7772.162391
398.894136,1762.019645,1406.391290,8586.388927
398.894444,2298.286494,2220.617826,7698.141797
398.894753,2987.772442,3330.926739,7846.182985
398.895061,2987.772442,3552.988522,7846.182985
398.895369,2068.457845,1924.535449,9104.533087
398.895677,995.924147,-444.123565,12435.459826
398.895985,-1532.190996,-1406.391290,12953.603985
398.896293,-3217.601092,-2812.782580,13175.665768
398.896601,-2681.334243,-3849.070898,13471.748144
398.896909,-2604.724693,-3627.009116,11695.253884
398.897217,-1072.533697,-2886.803174,9918.759623
398.897525,766.095498,-1332.370696,7254.018232
398.897833,1455.581446,444.123565,6439.791695
398.898141,1455.581446,1406.391290,6883.915261
398.898449,2221.676944,2812.782580,6809.894666
398.898757,4060.306139,4293.194464,6513.812290
398.899065,4673.182538,4737.318029,6735.874072
398.899373,3600.648841,3701.029710,6957.935855
398.899681,1838.629195,666.185348,9252.574275
398.899989,306.438199,-740.205942,12435.459826
398.900297,-2451.505594,-1776.494261,12731.542202
398.900605,-4060.306139,-2590.720797,13027.624579
398.900914,-2451.505594,-3701.029710,13471.748144
398.901222,-2298.286494,-2368.659014,10288.862594
398.901530,459.657299,-2368.659014,10362.883188
398.901838,842.705048,-296.082377,6513.812290
398.902146,1532.190996,1258.350101,7846.182985
398.902454,2221.676944,888.247130,8586.388927
398.902762,1455.581446,3627.009116,6439.791695
398.903070,3830.477490,3627.009116,8956.491898
398.903378,4060.306139,4811.338623,7624.121203
398.903686,2911.162892,2368.659014,8586.388927
398.903994,1225.752797,-0.000000,11251.130318
398.904302,76.609550,-1184.329507,13175.665768
398.904610,-2604.724693,-2146.597232,13397.727550
398.904918,-3140.991542,-2960.823768,12657.521608
398.905226,-1915.238745,-3182.885551,12435.459826
398.905534,-612.876398,-2294.638420,9474.636058
398.905842,919.314598,-1924.535449,8290.306550
398.906150,1378.971896,222.061783,6883.915261
398.906458,1762.019645,666.185348,7846.182985
398.906767,1838.629195,2960.823768,7550.100608
398.907075,2604.724693,3701.029710,7254.018232
398.907383,4366.744339,4515.256246,7402.059420
398.907691,3753.867940,3627.009116,7328.038826
398.907999,2145.067394,1480.411884,9474.636058
398.908307,0.000000,-1110.308913,12731.542202
398.908615,-2145.067394,-1628.453072,13841.851115
398.908923,-3600.648841,-3330.926739,13767.830521
398.909231,-3677.258390,-3997.112087,13175.665768
398.909539,-2145.067394,-3034.844362,10140.821405
398.909847,0.000000,-2442.679609,8956.491898
398.910155,1302.362347,-666.185348,7402.059420
398.910463,1225.752797,592.164754,6957.935855
398.910771,2298.286494,1554.432478,8290.306550
398.911079,2298.286494,2960.823768,6735.874072
398.911387,4136.915689,4589.276840,6661.853478
398.911695,4903.011187,4293.194464,7550.100608
398.912003,3830.477490,3182.885551,8068.244768
398.912311,1608.800546,-0.000000,11177.109724
398.912619,-459.657299,-1036.288319,12731.542202
398.912928,-2681.334243,-2294.638420,13693.809927
398.913236,-3753.867940,-3775.050304,13989.892304
398.913544,-2528.115143,-3256.906145,12139.377449
398.913852,-995.924147,-3330.926739,10066.800811
398.914160,842.705048,-1924.535449,9030.512492
398.914468,1762.019645,222.061783,6735.874072
398.914776,1838.629195,888.247130,7179.997637
398.915084,1838.629195,2368.659014,7476.080014
398.915392,3217.601092,4145.153275,7624.121203
398.915700,4213.525239,4367.215058,7698.141797
398.916008,3907.087040,3997.112087,7476.080014
398.916316,2604.724693,1998.556043,8734.430116
398.916624,1225.752797,-74.020594,12065.356855
398.916932,-2145.067394,-962.267725,13471.748144
398.917240,-3830.477490,-3404.947333,14063.912898
398.917548,-3677.258390,-4071.132681,13693.809927
398.917856,-2528.115143,-3404.947333,11473.192101
398.918164,-1685.410096,-2960.823768,9104.533087
398.918472,1149.143247,-1110.308913,8734.430116
398.918781,1762.019645,1110.308913,7328.038826
398.919089,2298.286494,2368.659014,7624.121203
398.919397,2911.162892,3108.864956,6661.853478
398.919705,4443.353888,5329.482782,6217.729913
398.920013,4979.620737,4515.256246,6735.874072
398.920321,3983.696590,3849.070898,7994.224174
398.920629,1915.238745,370.102971,10436.903782
398.920937,-612.876398,-962.267725,12731.542202
398.921245,-2604.724693,-2368.659014,13101.645173
398.921554,-4443.353888,-3701.029710,13249.686362
398.921862,-3753.867940,-4071.132681,13249.686362
398.922170,-1838.629195,-3997.112087,10214.842000
398.922478,-383.047749,-2220.617826,8290.306550
398.922786,459.657299,-1036.288319,7994.224174
398.923094,1762.019645,296.082377,7476.080014
398.923402,1838.629195,1628.453072,7920.203579
398.923710,3753.867940,3478.967927,7698.141797
398.924018,5669.106685,4737.318029,6217.729913
398.924327,5132.839837,4219.173869,6661.853478
398.924635,2911.162892,2516.700203,8586.388927
398.924943,2911.162892,-444.123565,12065.356855
398.925251,-1685.410096,-74.020594,11251.130318
398.925559,-2528.115143,-3034.844362,14063.912898
398.925867,-3524.039291,-4367.215058,14137.933492
398.926175,-3447.429741,-3108.864956,12805.562797
398.926483,-2221.676944,-3478.967927,10510.924376
398.926791,-229.828649,-1628.453072,8734.430116
398.927099,76.609550,1258.350101,7994.224174
398.927408,76.609550,1036.288319,8882.471304
398.927716,2911.162892,2960.823768,8216.285956
398.928024,2604.724693,5477.523971,5921.647536
398.928332,4519.963438,3404.947333,8734.430116
398.928640,3064.381992,3775.050304,7920.203579
398.928948,612.876398,1776.494261,10214.842000
398.929256,0.000000,-1258.350101,14508.036463
398.929564,-2221.676944,-518.144159,11843.295072
398.929872,-3294.210641,-2886.803174,13693.809927
398.930181,-3064.381992,-3997.112087,12139.377449
398.930489,-1838.629195,-3256.906145,9474.636058
398.930797,0.000000,-2590.720797,9548.656652
398.931105,1225.752797,-1110.308913,6661.853478
398.931413,995.924147,1258.350101,7254.018232
398.931721,2681.334243,1406.391290,7846.182985
398.932029,3677.258390,3552.988522,6809.894666
398.932337,4290.134789,4885.359217,5847.626942
398.932645,5286.058936,3849.070898,8290.306550
398.932954,2528.115143,2664.741391,9104.533087
398.933262,1838.629195,1036.288319,11547.212695
398.933570,0.000000,-962.267725,12361.439231
398.933878,-2681.334243,-2072.576638,12435.459826
398.934186,-3447.429741,-4071.132681,13249.686362
398.934494,-2681.334243,-3404.947333,11621.233289
398.934802,-1378.971896,-3478.967927,10288.862594
398.935110,153.219100,-1924.535449,8142.265362
398.935418,766.095498,-518.144159,7254.018232
398.935726,1532.190996,444.123565,8586.388927
398.936035,2298.286494,1850.514855,7476.080014
398.936343,3524.039291,3923.091493,6513.812290
398.936651,4749.792088,3997.112087,8142.265362
398.936959,4136.915689,3182.885551,7920.203579
398.937267,2221.676944,1702.473667,9770.718434
398.937575,536.266849,-148.041188,12287.418637
398.937883,-1072.533697,-1258.350101,11917.315666
398.938191,-3600.648841,-3034.844362,13101.645173
398.938499,-3064.381992,-3478.967927,12287.418637
398.938808,-2528.115143,-3182.885551,10510.924376
398.939116,-536.266849,-1850.514855,9548.656652
398.939424,766.095498,-740.205942,7698.141797
398.939732,2068.457845,814.226536,7402.059420
398.940040,2681.334243,1850.514855,7105.977043
398.940348,3600.648841,3627.009116,6365.771101
398.940656,4519.963438,4737.318029,6217.729913
398.940964,4596.572988,4219.173869,8586.388927
398.941272,3140.991542,2812.782580,9030.512492
398.941581,1455.581446,296.082377,11473.192101
398.941889,-459.657299,-74.020594,12361.439231
398.942197,-2374.896044,-1628.453072,11843.295072
398.942505,-2528.115143,-2590.720797,12879.583391
398.942813,-2681.334243,-2516.700203,11695.253884
398.943121,-1225.752797,-2738.761985,9918.759623
398.943429,0.000000,-2072.576638,8882.471304
398.943737,306.438199,-518.144159,8438.347739
398.944045,612.876398,-74.020594,8882.471304
398.944353,1685.410096,1554.432478,8734.430116
398.944662,2451.505594,3108.864956,8512.368333
398.944970,3907.087040,4515.256246,8734.430116
398.945278,4443.353888,3108.864956,8586.388927
398.945586,1991.848295,1850.514855,9326.594869
398.945894,306.438199,-222.061783,11621.233289
398.946202,-612.876398,-666.185348,11843.295072
398.946510,-2911.162892,-1628.453072,12509.480420
398.946818,-2681.334243,-3256.906145,11991.336260
398.947126,-2681.334243,-2590.720797,9918.759623
398.947435,-1302.362347,-2886.803174,10732.986159
398.947743,-459.657299,-1776.494261,8808.450710
398.948051,229.828649,-0.000000,8290.306550
398.948359,1608.800546,296.082377,8586.388927
398.948667,536.266849,2368.659014,7550.100608
398.948975,3907.087040,4071.132681,8216.285956
398.949283,4443.353888,3775.050304,8438.347739
398.949591,3064.381992,3182.885551,8364.327145
398.949899,2681.334243,740.205942,9548.656652
398.950208,919.314598,-148.041188,10584.944971
398.950516,-1302.362347,-1184.329507,11103.089130
398.950824,-1991.848295,-1776.494261,11473.192101
398.951132,-1455.581446,-2812.782580,10436.903782
398.951440,-2911.162892,-2146.597232,8660.409521
398.951748,-383.047749,-2590.720797,9696.697840
398.952056,306.438199,-814.226536,7994.224174
398.952364,1455.581446,-518.144159,8438.347739
398.952672,1455.581446,296.082377,9178.553681
398.952980,2451.505594,3034.844362,8660.409521
398.953289,3677.258390,3108.864956,9474.636058
398.953597,3907.087040,3108.864956,9400.615463
398.953905,2911.162892,2294.638420,9178.553681
398.954213,1302.362347,370.102971,10881.027347
398.954521,76.609550,-296.082377,10658.965565
398.954829,-1225.752797,-740.205942,11547.212695
398.955137,-2145.067394,-1924.535449,12065.356855
398.955445,-842.705048,-1480.411884,9178.553681
398.955753,-536.266849,-2294.638420,9474.636058
398.956062,76.609550,-1554.432478,9400.615463
398.956370,536.266849,-518.144159,8882.471304
398.956678,766.095498,222.061783,9474.636058
398.956986,1225.752797,1628.453072,9178.553681
398.957294,2681.334243,2294.638420,9474.636058
398.957602,3600.648841,3108.864956,9474.636058
398.957910,3217.601092,2886.803174,7846.182985
398.958218,2145.067394,1480.411884,9400.615463
398.958526,2068.457845,592.164754,11251.130318
398.958835,153.219100,148.041188,10955.047942
398.959143,-1991.848295,-1258.350101,11695.253884
398.959451,-1149.143247,-2442.679609,11177.109724
398.959759,-1378.971896,-2072.576638,9474.636058
398.960067,-306.438199,-2442.679609,9918.759623
398.960375,-842.705048,-1258.350101,8364.327145
398.960683,153.219100,-148.041188,8660.409521
398.960991,153.219100,814.226536,8290.306550
398.961299,1838.629195,2590.720797,8586.388927
398.961607,3677.258390,2960.823768,8808.450710
398.961916,3677.258390,3034.844362,8660.409521
398.962224,3294.210641,1850.514855,8586.388927
398.962532,2221.676944,1258.350101,9548.656652
398.962840,536.266849,518.144159,11251.130318
398.963148,-919.314598,-444.123565,11473.192101
398.963456,-842.705048,-1554.432478,10881.027347
398.963764,-2528.115143,-1184.329507,9252.574275
398.964072,-1072.533697,-2812.782580,9992.780217
398.964380,-689.485948,-1406.391290,9178.553681
398.964689,-919.314598,-1480.411884,9622.677246
398.964997,-153.219100,-296.082377,9400.615463
398.965305,612.876398,1184.329507,8734.430116
398.965613,2911.162892,1776.494261,9622.677246
398.965921,3217.601092,2516.700203,8808.450710
398.966229,4443.353888,2368.659014,9104.533087
398.966537,2374.896044,1036.288319,8882.471304
398.966845,1378.971896,-0.000000,10955.047942
398.967153,76.609550,-444.123565,11177.109724
398.967462,-1608.800546,-1628.453072,11621.233289
398.967770,-1378.971896,-1776.494261,11251.130318
398.968078,-995.924147,-2590.720797,9918.759623
398.968386,-536.266849,-1998.556043,9030.512492
398.968694,-459.657299,-666.185348,7402.059420
398.969002,306.438199,-74.020594,9178.553681
398.969310,-229.828649,1406.391290,9104.533087
398.969618,459.657299,2220.617826,9474.636058
398.969926,2068.457845,2220.617826,9844.739029
398.970234,3753.867940,2368.659014,8882.471304
398.970543,2604.724693,2368.659014,8364.327145
398.970851,1378.971896,666.185348,10066.800811
398.971159,1302.362347,296.082377,10732.986159
398.971467,-1072.533697,-666.185348,10288.862594
398.971775,-2451.505594,-1554.432478,10436.903782
398.972083,-1072.533697,-2442.679609,9622.677246
398.972391,-229.828649,-2072.576638,9030.512492
398.972699,383.047749,-0.000000,8364.327145
398.973007,459.657299,-148.041188,8364.327145
398.973316,0.000000,1184.329507,8734.430116
398.973624,536.266849,1480.411884,9252.574275
398.973932,2681.334243,3034.844362,9326.594869
398.974240,2987.772442,2886.803174,7772.162391
398.974548,2757.943793,1924.535449,8808.450710
398.974856,1915.238745,814.226536,9992.780217
398.975164,766.095498,-0.000000,11769.274478
398.975472,-1149.143247,-1036.288319,11843.295072
398.975780,-1532.190996,-740.205942,10584.944971
398.976089,-1302.362347,-1924.535449,10732.986159
398.976397,-1378.971896,-2072.576638,9770.718434
398.976705,76.609550,-1702.473667,9400.615463
398.977013,153.219100,-74.020594,7550.100608
398.977321,612.876398,592.164754,8290.306550
398.977629,1532.190996,1628.453072,8882.471304
398.977937,2145.067394,3182.885551,9252.574275
398.978245,3064.381992,2886.803174,9844.739029
398.978553,3677.258390,2664.741391,7994.224174
398.978861,2451.505594,1554.432478,10066.800811
398.979170,306.438199,-740.205942,12435.459826
398.979478,-842.705048,-1332.370696,12509.480420
398.979786,-2068.457845,-1776.494261,12657.521608
398.980094,-2145.067394,-1850.514855,11695.253884
398.980402,-1455.581446,-1998.556043,9992.780217
398.980710,-306.438199,-1776.494261,10140.821405
398.981018,842.705048,-222.061783,8216.285956
398.981326,1072.533697,1184.329507,7105.977043
398.981634,1455.581446,1998.556043,7772.162391
398.981943,1532.190996,2812.782580,8290.306550
398.982251,2911.162892,3404.947333,8068.244768
398.982559,3524.039291,2960.823768,8364.327145
398.982867,2757.943793,2960.823768,8586.388927
398.983175,1608.800546,-0.000000,10140.821405
398.983483,-229.828649,-592.164754,12361.439231
398.983791,-1532.190996,-1406.391290,11991.336260
398.984099,-2145.067394,-1776.494261,11399.171507
398.984407,-612.876398,-2220.617826,10732.986159
398.984716,-1072.533697,-2072.576638,8882.471304
398.985024,612.876398,-1776.494261,9030.512492
398.985332,1685.410096,-222.061783,7772.162391
398.985640,766.095498,1184.329507,7105.977043
398.985948,842.705048,1258.350101,8364.327145
398.986256,2451.505594,2368.659014,9104.533087
398.986564,3524.039291,2368.659014,9178.553681
398.986872,2604.724693,2146.597232,8660.409521
398.987180,2374.896044,1110.308913,9696.697840
398.987489,689.485948,-1702.473667,11917.315666
398.987797,-1149.143247,-1998.556043,13101.645173
398.988105,-1838.629195,-2442.679609,12435.459826
398.988413,-1915.238745,-2368.659014,10807.006753
398.988721,-995.924147,-2516.700203,10140.821405
398.989029,-383.047749,-2368.659014,9104.533087
398.989337,1302.362347,-814.226536,8068.244768
398.989645,1302.362347,-0.000000,7402.059420
398.989953,919.314598,1480.411884,6587.832884
398.990261,1762.019645,2368.659014,7846.182985
398.990570,2374.896044,3627.009116,8512.368333
398.990878,3370.820191,3627.009116,8586.388927
398.991186,3294.210641,3256.906145,9178.553681
398.991494,1455.581446,592.164754,9770.718434
398.991802,0.000000,-370.102971,12139.377449
398.992110,-459.657299,-888.247130,12435.459826
398.992418,-2757.943793,-1110.308913,11177.109724
398.992726,-1762.019645,-1850.514855,10658.965565
398.993034,-766.095498,-2146.597232,9770.718434
398.993343,306.438199,-222.061783,8290.306550
398.993651,612.876398,222.061783,7772.162391
398.993959,1685.410096,1998.556043,7105.977043
398.994267,1915.238745,1776.494261,8142.265362
398.994575,1838.629195,2812.782580,8290.306550
398.994883,3140.991542,2664.741391,9474.636058
398.995191,3217.601092,3330.926739,9252.574275
398.995499,1608.800546,962.267725,10214.842000
398.995807,76.609550,-1332.370696,12361.439231
398.996116,-842.705048,-1998.556043,12805.562797
398.996424,-2298.286494,-2590.720797,12509.480420
398.996732,-2757.943793,-2146.597232,11547.212695
398.997040,-689.485948,-2738.761985,11547.212695
398.997348,383.047749,-1110.308913,9252.574275
398.997656,1532.190996,-518.144159,7772.162391
398.997964,1685.410096,1184.329507,7179.997637
398.998272,1838.629195,2368.659014,7105.977043
398.998580,2374.896044,2442.679609,8290.306550
398.998888,2834.553343,3256.906145,8586.388927
398.999197,3983.696590,2812.782580,8882.471304
398.999505,3140.991542,2072.576638,9326.594869
398.999813,1225.752797,-518.144159,11251.130318
399.000121,0.000000,-1924.535449,13175.665768
399.000429,-1838.629195,-2294.638420,12805.562797
399.000737,-2757.943793,-2812.782580,12509.480420
399.001045,-1915.238745,-2294.638420,11103.089130
399.001353,-689.485948,-1850.514855,10288.862594
399.001661,995.924147,-1036.288319,8586.388927
399.001970,1225.752797,814.226536,7698.141797
399.002278,1838.629195,2294.638420,7328.038826
399.002586,2068.457845,2590.720797,7105.977043
399.002894,1991.848295,4293.194464,7179.997637
399.003202,3217.601092,4071.132681,8290.306550
399.003510,3677.258390,3256.906145,7920.203579
399.003818,1072.533697,1258.350101,9104.533087
399.004126,536.266849,-1110.308913,11843.295072
399.004434,-919.314598,-2368.659014,13619.789333
399.004743,-3600.648841,-2442.679609,12953.603985
399.005051,-3217.601092,-2664.741391,12583.501014
399.005359,-1532.190996,-2442.679609,10807.006753
399.005667,-459.657299,-1850.514855,9696.697840
399.005975,76.609550,-370.102971,7624.121203
399.006283,1455.581446,814.226536,6661.853478
399.006591,1915.238745,2442.679609,6735.874072
399.006899,2221.676944,2220.617826,7698.141797
399.007207,2528.115143,3923.091493,8364.327145
399.007515,3753.867940,3478.967927,8364.327145
399.007824,2451.505594,2072.576638,8586.388927
399.008132,1072.533697,-666.185348,11695.253884
399.008440,-689.485948,-1850.514855,13545.768739
399.008748,-2221.676944,-3256.906145,13397.727550
399.009056,-4213.525239,-3997.112087,11991.336260
399.009364,-1991.848295,-3404.947333,11695.253884
399.009672,-1072.533697,-2812.782580,9844.739029
399.009980,229.828649,-1036.288319,8068.244768
399.010288,1838.629195,-148.041188,6809.894666
399.010597,1378.971896,1850.514855,5995.668130
399.010905,2451.505594,2294.638420,6957.935855
399.011213,2987.772442,3923.091493,7328.038826
399.011521,3524.039291,3330.926739,7846.182985
399.011829,2681.334243,3330.926739,8956.491898
399.012137,2145.067394,-0.000000,9696.697840
399.012445,0.000000,-962.267725,12361.439231
399.012753,-2451.505594,-2220.617826,13101.645173
399.013061,-3447.429741,-2664.741391,12435.459826
399.013370,-3217.601092,-2368.659014,11843.295072
399.013678,-2068.457845,-2812.782580,10362.883188
399.013986,229.828649,-592.164754,9178.553681
399.014294,1378.971896,-74.020594,7105.977043
399.014602,2451.505594,1406.391290,6365.771101
399.014910,2068.457845,2960.823768,5773.606348
399.015218,2681.334243,3775.050304,7328.038826
399.015526,2987.772442,3923.091493,7994.224174
399.015834,3524.039291,4441.235652,7920.203579
399.016142,2528.115143,2368.659014,10066.800811
399.016451,1225.752797,-1258.350101,12139.377449
399.016759,-1225.752797,-1702.473667,12879.583391
399.017067,-2987.772442,-3108.864956,13619.789333
399.017375,-3524.039291,-3923.091493,13545.768739
399.017683,-2987.772442,-3034.844362,11251.130318
399.017991,-1149.143247,-2590.720797,11177.109724
399.018299,383.047749,-1480.411884,7254.018232
399.018607,2451.505594,666.185348,8068.244768
399.018915,2681.334243,1036.288319,6735.874072
399.019224,2298.286494,3404.947333,6069.688724
399.019532,3983.696590,3330.926739,8216.285956
399.019840,4673.182538,4811.338623,7031.956449
399.020148,4366.744339,3627.009116,8808.450710
399.020456,2528.115143,1258.350101,9622.677246
399.020764,842.705048,-1628.453072,13101.645173
399.021072,-1455.581446,-2664.741391,13175.665768
399.021380,-4060.306139,-3701.029710,13323.706956
399.021688,-2298.286494,-3849.070898,13249.686362
399.021997,-2451.505594,-2812.782580,10214.842000
399.022305,-459.657299,-2146.597232,11103.089130
399.022613,2068.457845,-666.185348,7772.162391
399.022921,2145.067394,1998.556043,5033.400406
399.023229,2834.553343,3182.885551,6365.771101
399.023537,3370.820191,3849.070898,6587.832884
399.023845,4596.572988,5847.626942,6587.832884
399.024153,4979.620737,4589.276840,7624.121203
399.024461,3677.258390,3478.967927,7846.182985
399.024769,1915.238745,-222.061783,10584.944971
399.025077,-536.266849,-1036.288319,12213.398043
399.025385,-2604.724693,-2442.679609,13175.665768
399.025693,-3524.039291,-3182.885551,13619.789333
399.026001,-2987.772442,-2516.700203,11695.253884
399.026309,-1915.238745,-2738.761985,11325.150913
399.026617,842.705048,-1998.556043,9474.636058
399.026925,1225.752797,370.102971,7179.997637
399.027233,2068.457845,1850.514855,6217.729913
399.027541,2528.115143,2146.597232,7254.018232
399.027849,2911.162892,4589.276840,7179.997637
399.028157,3830.477490,3627.009116,8586.388927
399.028464,4673.182538,3701.029710,7550.100608
399.028772,2911.162892,1332.370696,8438.347739
399.029080,766.095498,-1184.329507,11695.253884
399.029388,-1455.581446,-2146.597232,13619.789333
399.029696,-2604.724693,-3256.906145,13471.748144
399.030004,-3677.258390,-3849.070898,12361.439231
399.030312,-3064.381992,-3775.050304,11325.150913
399.030620,-766.095498,-3182.885551,10732.986159
399.030928,842.705048,-1184.329507,7994.224174
399.031236,1762.019645,740.205942,6439.791695
399.031544,2221.676944,1702.473667,6735.874072
399.031852,3140.991542,3256.906145,7402.059420
399.032160,3447.429741,4663.297435,7105.977043
399.032468,4749.792088,4959.379811,7402.059420
399.032776,3600.648841,2590.720797,8586.388927
399.033084,2298.286494,-0.000000,10214.842000
399.033392,-306.438199,-1924.535449,12805.562797
399.033700,-2681.334243,-1998.556043,12361.439231
399.034008,-3983.696590,-3404.947333,12953.603985
399.034316,-3600.648841,-3034.844362,12435.459826
399.034624,-2604.724693,-2886.803174,10658.965565
399.034932,0.000000,-1554.432478,9548.656652
399.035240,1225.752797,592.164754,6365.771101
399.035548,2068.457845,2294.638420,6143.709319
399.035856,2374.896044,2812.782580,6365.771101
399.036164,2834.553343,3923.091493,7402.059420
399.036472,4290.134789,4737.318029,8216.285956
399.036780,4596.572988,4071.132681,7254.018232
399.037088,2451.505594,1850.514855,8586.388927
399.037396,306.438199,-1406.391290,12731.542202
399.037704,-1991.848295,-1036.288319,13027.624579
399.038012,-3524.039291,-3478.967927,13175.665768
399.038320,-3983.696590,-3627.009116,13027.624579
399.038628,-3294.210641,-3627.009116,11769.274478
399.038936,-1608.800546,-3182.885551,11251.130318
399.039244,689.485948,-1628.453072,8512.368333
399.039552,919.314598,1184.329507,6069.688724
399.039860,1302.362347,1480.411884,7402.059420
399.040168,2681.334243,2960.823768,7254.018232
399.040476,3524.039291,5033.400406,6809.894666
399.040784,4903.011187,4737.318029,8068.244768
399.041092,4443.353888,3256.906145,8364.327145
399.041400,1532.190996,-148.041188,10362.883188
399.041708,-383.047749,-888.247130,12361.439231
399.042016,-2068.457845,-2220.617826,12287.418637
399.042324,-3524.039291,-3923.091493,13101.645173
399.042632,-3907.087040,-3478.967927,12435.459826
399.042940,-2451.505594,-3775.050304,10732.986159
399.043248,76.609550,-2368.659014,9696.697840
399.043556,842.705048,-74.020594,7031.956449
399.043864,1685.410096,740.205942,6587.832884
399.044171,2451.505594,2368.659014,6957.935855
399.044479,3294.210641,3404.947333,7105.977043
399.044787,4749.792088,4737.318029,7179.997637
399.045095,5056.230287,4071.132681,7846.182985
399.045403,3830.477490,1776.494261,8290.306550
399.045711,2221.676944,-518.144159,11251.130318
399.046019,-612.876398,-888.247130,11547.212695
399.046327,-2221.676944,-2590.720797,13027.624579
399.046635,-3140.991542,-2960.823768,13175.665768
399.046943,-3370.820191,-1998.556043,11917.315666
399.047251,-2068.457845,-3330.926739,11325.150913
399.047559,-229.828649,-888.247130,9326.594869
399.047867,689.485948,1628.453072,7105.977043
399.048175,919.314598,962.267725,8142.265362
399.048483,2068.457845,2886.803174,8216.285956
399.048791,2604.724693,4737.318029,9030.512492
399.049099,4366.744339,4515.256246,7846.182985
399.049407,3907.087040,3849.070898,8438.347739
399.049715,2451.505594,814.226536,9770.718434
399.050023,-153.219100,-1036.288319,12213.398043
399.050331,-1149.143247,-1554.432478,12953.603985
399.050639,-2221.676944,-3182.885551,12731.542202
399.050947,-2604.724693,-3330.926739,11695.253884
399.051255,-2681.334243,-3404.947333,10288.862594
399.051563,-306.438199,-1924.535449,10214.842000
399.051871,612.876398,-370.102971,7254.018232
399.052179,536.266849,222.061783,6957.935855
399.052487,2145.067394,1776.494261,7402.059420
399.052795,3064.381992,2960.823768,8216.285956
399.053103,3983.696590,4145.153275,7476.080014
399.053411,4290.134789,4071.132681,8808.450710
399.053719,3677.258390,1850.514855,8808.450710
399.054027,1455.581446,-148.041188,10584.944971
399.054335,306.438199,-592.164754,11547.212695
399.054643,-1991.848295,-2368.659014,10955.047942
399.054951,-2374.896044,-2368.659014,11325.150913
399.055259,-2757.943793,-2368.659014,10362.883188
399.055567,-1225.752797,-2664.741391,10584.944971
399.055875,306.438199,-1628.453072,8290.306550
399.056183,995.924147,-0.000000,6513.812290
399.056491,1225.752797,962.267725,6661.853478
399.056799,2298.286494,1258.350101,8142.265362
399.057107,2528.115143,2664.741391,8882.471304
399.057415,4060.306139,3182.885551,8734.430116
399.057723,4060.306139,1998.556043,8882.471304
399.058031,1455.581446,444.123565,9178.553681
399.058339,229.828649,-1628.453072,11843.295072
399.058647,-995.924147,-1776.494261,11991.336260
399.058955,-2451.505594,-1850.514855,11547.212695
399.059263,-2145.067394,-1850.514855,10955.047942
399.059571,-1838.629195,-2886.803174,10658.965565
399.059879,-1072.533697,-1776.494261,9622.677246
399.060186,76.609550,-296.082377,8956.491898
399.060494,1072.533697,-0.000000,7550.100608
399.060802,919.314598,1628.453072,7254.018232
399.061110,1532.190996,2590.720797,8068.244768
399.061418,3370.820191,3775.050304,9252.574275
399.061726,4136.915689,3923.091493,8660.409521
399.062034,3447.429741,2146.597232,9178.553681
399.062342,2298.286494,-0.000000,10658.965565
399.062650,0.000000,-666.185348,11547.212695
399.062958,-1225.752797,-2368.659014,12361.439231
399.063266,-1991.848295,-2294.638420,11843.295072
399.063574,-2145.067394,-2368.659014,10732.986159
399.063882,-1915.238745,-2368.659014,10362.883188
399.064190,0.000000,-1924.535449,9252.574275
399.064498,-153.219100,888.247130,7846.182985
399.064806,995.924147,1036.288319,8216.285956
399.065114,995.924147,2368.659014,8438.347739
399.065422,2221.676944,3775.050304,9252.574275
399.065730,3600.648841,3552.988522,9030.512492
399.066038,3753.867940,4145.153275,8956.491898
399.066346,2528.115143,1924.535449,9696.697840
399.066654,1608.800546,222.061783,10510.924376
399.066962,-153.219100,-814.226536,10955.047942
399.067270,-1838.629195,-1110.308913,12065.356855
399.067578,-1915.238745,-1998.556043,11251.130318
399.067886,-1915.238745,-2368.659014,10288.862594
399.068194,-995.924147,-2294.638420,9992.780217
399.068502,612.876398,-592.164754,7772.162391
399.068810,459.657299,222.061783,7179.997637
399.069118,-229.828649,740.205942,8142.265362
399.069426,1455.581446,1776.494261,9622.677246
399.069734,3600.648841,3552.988522,9030.512492
399.070042,2757.943793,3256.906145,10140.821405
399.070350,2834.553343,666.185348,9770.718434
399.070658,2451.505594,222.061783,10214.842000
399.070966,-306.438199,-370.102971,11695.253884
399.071274,-689.485948,-1850.514855,11843.295072
399.071582,-1378.971896,-1480.411884,11103.089130
399.071890,-1302.362347,-1924.535449,10288.862594
399.072198,-459.657299,-2220.617826,9030.512492
399.072506,383.047749,-1184.329507,8438.347739
399.072814,306.438199,-518.144159,7328.038826
399.073122,229.828649,148.041188,7624.121203
399.073430,1225.752797,962.267725,8512.368333
399.073738,1455.581446,2516.700203,8512.368333
399.074046,2911.162892,2368.659014,9548.656652
399.074354,3217.601092,2886.803174,9178.553681
399.074662,2681.334243,518.144159,10140.821405
399.074970,612.876398,-814.226536,10658.965565
399.075278,0.000000,-1628.453072,11621.233289
399.075586,-1149.143247,-1628.453072,11769.274478
399.075894,-1838.629195,-1258.350101,9696.697840
399.076201,-842.705048,-1480.411884,9326.594869
399.076509,76.609550,-1036.288319,9030.512492
399.076817,1225.752797,-74.020594,6957.935855
399.077125,612.876398,1258.350101,6365.771101
399.077433,1149.143247,962.267725,7254.018232
399.077741,1608.800546,1850.514855,8586.388927
399.078049,1378.971896,2664.741391,9400.615463
399.078357,2298.286494,2738.761985,9474.636058
399.078665,2221.676944,1258.350101,10214.842000
399.078973,1072.533697,-1332.370696,10881.027347
399.079281,-1225.752797,-740.205942,11177.109724
399.079589,-612.876398,-3182.885551,13249.686362
399.079897,-2834.553343,-1850.514855,10658.965565
399.080205,-1991.848295,-2368.659014,11991.336260
399.080513,-536.266849,-1554.432478,9326.594869
399.080821,919.314598,-370.102971,7772.162391
399.081129,2221.676944,666.185348,7772.162391
399.081437,919.314598,2146.597232,5773.606348
399.081745,1455.581446,2072.576638,8512.368333
399.082053,2451.505594,2368.659014,8438.347739
399.082361,3294.210641,3108.864956,9252.574275
399.082669,2681.334243,2146.597232,9992.780217
399.082977,1378.971896,-0.000000,9992.780217
399.083285,306.438199,-1776.494261,12509.480420
399.083593,-1378.971896,-2664.741391,12361.439231
399.083901,-1838.629195,-2886.803174,12657.521608
399.084209,-2068.457845,-2664.741391,11325.150913
399.084517,-995.924147,-2294.638420,9622.677246
399.084825,766.095498,-1480.411884,8882.471304
399.085133,1762.019645,666.185348,5773.606348
399.085441,1608.800546,1702.473667,6513.812290
399.085749,2451.505594,2516.700203,7179.997637
399.086057,1378.971896,3849.070898,7698.141797
399.086365,3217.601092,3627.009116,8882.471304
399.086673,2757.943793,3923.091493,8660.409521
399.086981,2451.505594,2220.617826,9992.780217
399.087289,689.485948,-962.267725,12139.377449
399.087597,-766.095498,-1332.370696,11251.130318
399.087905,-2145.067394,-2664.741391,13101.645173
399.088213,-1991.848295,-1850.514855,11251.130318
399.088521,-919.314598,-1702.473667,10584.944971
399.088829,766.095498,-962.267725,9548.656652
399.089137,2145.067394,-0.000000,7476.080014
399.089445,1838.629195,1554.432478,6143.709319
399.089753,766.095498,1406.391290,7105.977043
399.090061,1991.848295,2072.576638,8512.368333
399.090369,1762.019645,2664.741391,9696.697840
399.090677,2298.286494,3108.864956,9474.636058
399.090985,2681.334243,2072.576638,10066.800811
399.091293,1685.410096,888.247130,10807.006753
399.091601,76.609550,-962.267725,12213.398043
399.091908,-459.657299,-1998.556043,13841.851115
399.092216,-1608.800546,-2146.597232,12287.418637
399.092524,-1685.410096,-1628.453072,10140.821405
399.092832,-689.485948,-2368.659014,11029.068536
399.093140,1072.533697,-1554.432478,9548.656652
399.093448,1302.362347,444.123565,6809.894666
399.093756,1762.019645,814.226536,7105.977043
399.094064,1685.410096,1332.370696,7179.997637
399.094372,995.924147,2294.638420,7994.224174
399.094680,2451.505594,2812.782580,9844.739029
399.094988,2911.162892,2812.782580,9770.718434
399.095296,1608.800546,666.185348,10658.965565
399.095604,0.000000,-962.267725,11991.336260
399.095912,0.000000,-2442.679609,13249.686362
399.096220,-2374.896044,-2072.576638,11843.295072
399.096528,-2068.457845,-2072.576638,11843.295072
399.096836,-1455.581446,-1850.514855,10140.821405
399.097144,0.000000,-1110.308913,8734.430116
399.097452,1915.238745,-296.082377,8068.244768
399.097760,2451.505594,1628.453072,4737.318029
399.098068,2374.896044,2294.638420,5847.626942
399.098376,1685.410096,2738.761985,6439.791695
399.098684,2068.457845,3330.926739,7994.224174
399.098992,2757.943793,2960.823768,9400.615463
399.099300,2145.067394,1702.473667,8364.327145
399.099608,1149.143247,148.041188,9252.574275
399.099916,306.438199,-2368.659014,13027.624579
399.100224,-1532.190996,-2886.803174,13767.830521
399.100532,-3217.601092,-2886.803174,12213.398043
399.100840,-2145.067394,-2442.679609,11473.192101
399.101148,-1608.800546,-2146.597232,10807.006753
399.101456,919.314598,-1332.370696,9326.594869
399.101764,1455.581446,296.082377,7031.956449
399.102072,2221.676944,2072.576638,6291.750507
399.102380,2298.286494,2146.597232,6661.853478
399.102688,2221.676944,3404.947333,7994.224174
399.102996,2451.505594,4293.194464,9178.553681
399.103304,2834.553343,3775.050304,9030.512492
399.103612,2298.286494,2220.617826,9844.739029
399.103920,383.047749,-666.185348,10881.027347
399.104228,-995.924147,-2812.782580,13175.665768
399.104536,-2451.505594,-3997.112087,13915.871710
399.104844,-2374.896044,-3997.112087,12879.583391
399.105152,-3294.210641,-2886.803174,11621.233289
399.105460,-1225.752797,-3404.947333,11399.171507
399.105768,1149.143247,-962.267725,8290.306550
399.106076,1762.019645,1628.453072,5551.544565
399.106384,2451.505594,2590.720797,5921.647536
399.106692,3140.991542,3108.864956,6587.832884
399.107000,3370.820191,4737.318029,6735.874072
399.107308,3677.258390,4515.256246,7846.182985
399.107616,3600.648841,4293.194464,8068.244768
399.107923,1915.238745,962.267725,9770.718434
399.108231,-229.828649,-1332.370696,12879.583391
399.108539,-1762.019645,-2442.679609,13397.727550
399.108847,-3064.381992,-2442.679609,13323.706956
399.109155,-3140.991542,-2812.782580,11621.233289
399.109463,-2221.676944,-2368.659014,10881.027347
399.109771,1378.971896,-2368.659014,10214.842000
399.110079,1838.629195,222.061783,5847.626942
399.110387,2451.505594,1702.473667,4811.338623
399.110695,3140.991542,2368.659014,6143.709319
399.111003,3600.648841,3256.906145,7031.956449
399.111311,2757.943793,3627.009116,7920.203579
399.111619,3524.039291,3849.070898,8956.491898
399.111927,2451.505594,1258.350101,9770.718434
399.112235,-306.438199,-518.144159,12213.398043
399.112543,-1149.143247,-2590.720797,14211.954086
399.112851,-2528.115143,-2516.700203,13397.727550
399.113159,-3830.477490,-2960.823768,12953.603985
399.113467,-2068.457845,-2664.741391,12065.356855
399.113775,-459.657299,-1480.411884,10881.027347
399.114083,1225.752797,-444.123565,9030.512492
399.114391,2374.896044,1110.308913,5107.421000
399.114699,2298.286494,2516.700203,6291.750507
399.115007,1762.019645,2812.782580,7402.059420
399.115315,1991.848295,3627.009116,7254.018232
399.115623,2834.553343,4071.132681,8734.430116
399.115931,1685.410096,3182.885551,8512.368333
399.116239,1072.533697,-296.082377,11177.109724
399.116547,-536.266849,-1702.473667,13915.871710
399.116855,-1532.190996,-3478.967927,14211.954086
399.117163,-3677.258390,-4071.132681,12065.356855
399.117471,-2681.334243,-2960.823768,12065.356855
399.117779,-1225.752797,-2368.659014,11473.192101
399.118087,689.485948,-1406.391290,8068.244768
399.118395,2451.505594,1406.391290,6291.750507
399.118709,3447.429741,1924.535449,5181.441594
399.119017,2757.943793,2886.803174,5773.606348
399.119325,3140.991542,3923.091493,6735.874072
399.119633,3907.087040,3849.070898,7476.080014
399.119940,3064.381992,3849.070898,7846.182985
399.120248,1991.848295,1924.535449,9474.636058
399.120556,229.828649,-1702.473667,11843.295072
399.120864,-1072.533697,-2590.720797,13619.789333
399.121172,-2451.505594,-4071.132681,13471.748144
399.121480,-3600.648841,-3627.009116,12879.583391
399.121788,-2374.896044,-3256.906145,12287.418637
399.122096,-1608.800546,-2812.782580,9844.739029
399.122404,1378.971896,-1036.288319,8660.409521
399.122712,2145.067394,666.185348,6217.729913
399.123020,2298.286494,1850.514855,5625.565159
399.123328,2451.505594,2812.782580,6735.874072
399.123636,2911.162892,3923.091493,7254.018232
399.123944,3064.381992,3849.070898,7698.141797
399.124252,3140.991542,4293.194464,8142.265362
399.124560,1455.581446,740.205942,9844.739029
399.124868,0.000000,-1258.350101,12953.603985
399.125176,-1378.971896,-2442.679609,13471.748144
399.125484,-3217.601092,-3404.947333,12805.562797
399.125792,-3294.210641,-3923.091493,12435.459826
399.126100,-3140.991542,-2812.782580,11399.171507
399.126408,-229.828649,-3182.885551,10955.047942
399.126716,842.705048,-370.102971,6809.894666
399.127024,1915.238745,1702.473667,6069.688724
399.127332,2451.505594,2516.700203,6291.750507
399.127639,2528.115143,4663.297435,6291.750507
399.127947,3677.258390,4219.173869,8660.409521
399.128255,3753.867940,4885.359217,7179.997637
399.128563,2987.772442,3182.885551,9400.615463
399.128871,1608.800546,-74.020594,11621.233289
399.129179,-229.828649,-1628.453072,12657.521608
399.129487,-2298.286494,-2442.679609,12583.501014
399.129795,-3064.381992,-2886.803174,12065.356855
399.130103,-1838.629195,-2738.761985,13027.624579
399.130411,-2145.067394,-2590.720797,10881.027347
399.130719,612.876398,-1702.473667,9548.656652
399.131027,1302.362347,148.041188,6809.894666
399.131335,1302.362347,1702.473667,5995.668130
399.131643,2068.457845,2146.597232,7772.162391
399.131951,3370.820191,3997.112087,7402.059420
399.132259,3447.429741,4219.173869,8216.285956
399.132567,3677.258390,3849.070898,8734.430116
399.132875,3140.991542,1924.535449,9474.636058
399.133183,1608.800546,-666.185348,11547.212695
399.133491,-306.438199,-1554.432478,12065.356855
399.133799,-1762.019645,-1924.535449,12509.480420
399.134107,-2528.115143,-3182.885551,12953.603985
399.134415,-2604.724693,-1776.494261,11399.171507
399.134723,-766.095498,-2220.617826,10955.047942
399.135031,612.876398,-740.205942,8364.327145
399.135338,689.485948,1036.288319,6957.935855
399.135646,459.657299,1036.288319,7179.997637
399.135954,1762.019645,2368.659014,8364.327145
399.136262,2451.505594,3775.050304,8660.409521
399.136570,2681.334243,3701.029710,8512.368333
399.136878,2681.334243,2368.659014,9326.594869
399.137186,1149.143247,-148.041188,10584.944971
399.137494,-383.047749,-1554.432478,11843.295072
399.137802,-612.876398,-2368.659014,11843.295072
399.138110,-1378.971896,-3552.988522,11325.150913
399.138418,-1685.410096,-2960.823768,11399.171507
399.138726,-919.314598,-3182.885551,10214.842000
399.139034,0.000000,-1554.432478,8364.327145
399.139342,1149.143247,-370.102971,6957.935855
399.139650,1532.190996,2072.576638,6069.688724
399.139958,1532.190996,2368.659014,7179.997637
399.140266,2374.896044,3627.009116,7254.018232
399.140574,3217.601092,3923.091493,7920.203579
399.140882,3370.820191,2812.782580,9770.718434
399.141190,1991.848295,962.267725,9474.636058
399.141498,612.876398,-1184.329507,10955.047942
399.141806,-919.314598,-2368.659014,12509.480420
399.142114,-2221.676944,-2664.741391,11917.315666
399.142422,-2221.676944,-3256.906145,12657.521608
399.142730,-1915.238745,-2516.700203,11917.315666
399.143037,76.609550,-2368.659014,10140.821405
399.143345,229.828649,-592.164754,8068.244768
399.143653,1225.752797,962.267725,6957.935855
399.143961,842.705048,1332.370696,7328.038826
399.144269,1225.752797,3108.864956,7476.080014
399.144577,2221.676944,3923.091493,8660.409521
399.144885,3370.820191,4071.132681,8882.471304
399.145193,2221.676944,3701.029710,8956.491898
399.145501,1532.190996,222.061783,10881.027347
399.145809,229.828649,-1332.370696,11843.295072
399.146117,-842.705048,-1776.494261,11695.253884
399.146425,-1991.848295,-3404.947333,12805.562797
399.146733,-1838.629195,-2516.700203,11399.171507
399.147041,-1532.190996,-2738.761985,10436.903782
399.147349,612.876398,-1850.514855,9178.553681
399.147657,842.705048,222.061783,6735.874072
399.147965,842.705048,1480.411884,6587.832884
399.148273,1991.848295,2072.576638,7031.956449
399.148581,2987.772442,4367.215058,7254.018232
399.148889,3140.991542,4071.132681,9104.533087
399.149197,3524.039291,2960.823768,9252.574275
399.149505,2145.067394,1628.453072,8512.368333
399.149813,1608.800546,-1184.329507,11769.274478
399.150121,-612.876398,-1332.370696,11325.150913
399.150429,-1762.019645,-1924.535449,11325.150913
399.150736,-1608.800546,-3034.844362,12435.459826
399.151044,-536.266849,-1924.535449,10510.924376
399.151352,76.609550,-1850.514855,9030.512492
399.151660,1149.143247,-1332.370696,7920.203579
399.151968,0.000000,740.205942,6439.791695
399.152276,0.000000,814.226536,7550.100608
399.152584,1072.533697,2146.597232,9178.553681
399.152892,1225.752797,4145.153275,8956.491898
399.153200,3447.429741,2368.659014,9326.594869
399.153508,2757.943793,3256.906145,9400.615463
399.153816,1991.848295,370.102971,10584.944971
399.154124,536.266849,-1480.411884,11917.315666
399.154432,-766.095498,-888.247130,11695.253884
399.154740,-1225.752797,-2442.679609,11621.233289
399.155048,-1225.752797,-2220.617826,11473.192101
399.155356,-153.219100,-2072.576638,11177.109724
399.155664,1378.971896,-1776.494261,8956.491898
399.155972,766.095498,296.082377,7105.977043
399.156280,383.047749,740.205942,7328.038826
399.156588,612.876398,1702.473667,8808.450710
399.156896,1149.143247,3108.864956,9326.594869
399.157204,1915.238745,3330.926739,9770.718434
399.157512,3447.429741,3256.906145,9548.656652
399.157820,2145.067394,962.267725,8882.471304
399.158128,1455.581446,-1554.432478,11547.212695
399.158436,0.000000,-1776.494261,10881.027347
399.158743,-842.705048,-2146.597232,11473.192101
399.159051,-1302.362347,-2516.700203,11621.233289
399.159359,-766.095498,-1628.453072,9844.739029
399.159667,995.924147,-1998.556043,10288.862594
399.159975,689.485948,-0.000000,6957.935855
399.160283,689.485948,814.226536,7105.977043
399.160591,689.485948,1036.288319,7328.038826
399.160899,383.047749,2516.700203,8438.347739
399.161207,766.095498,3552.988522,9474.636058
399.161515,2298.286494,3701.029710,8808.450710
399.161823,2604.724693,3330.926739,9844.739029
399.162131,3294.210641,-814.226536,10658.965565
399.162439,-766.095498,-148.041188,9400.615463
399.162747,-229.828649,-3627.009116,12731.542202
399.163055,-2604.724693,-3034.844362,12509.480420
399.163363,-1915.238745,-2664.741391,12139.377449
399.163671,-229.828649,-2442.679609,10807.006753
399.163979,612.876398,-1628.453072,8438.347739
399.164287,1149.143247,370.102971,6883.915261
399.164595,1149.143247,1258.350101,5847.626942
399.164903,306.438199,2220.617826,8660.409521
399.165211,1378.971896,2590.720797,9104.533087
399.165519,2528.115143,3552.988522,9474.636058
399.165827,2834.553343,4071.132681,9548.656652
399.166135,2834.553343,666.185348,10140.821405
399.166442,766.095498,-74.020594,10807.006753
399.166750,0.000000,-1554.432478,11547.212695
399.167058,-1149.143247,-2368.659014,11177.109724
399.167366,-1838.629195,-2738.761985,11769.274478
399.167674,-1072.533697,-2368.659014,10362.883188
399.167982,-919.314598,-2738.761985,9918.759623
399.168290,536.266849,-814.226536,8068.244768
399.168598,919.314598,148.041188,7698.141797
399.168906,76.609550,962.267725,7328.038826
399.169214,536.266849,2368.659014,8364.327145
399.169522,1685.410096,3330.926739,9474.636058
399.169830,2298.286494,3701.029710,9622.677246
399.170138,2987.772442,3182.885551,9104.533087
399.170446,2528.115143,1628.453072,9622.677246
399.170754,1532.190996,-370.102971,10658.965565
399.171062,306.438199,-1184.329507,10807.006753
399.171370,229.828649,-1258.350101,10436.903782
399.171678,-766.095498,-1998.556043,10658.965565
399.171986,-842.705048,-2072.576638,10510.924376
399.172294,919.314598,-2516.700203,9622.677246
399.172602,0.000000,-148.041188,7476.080014
399.172910,766.095498,-370.102971,8216.285956
399.173218,612.876398,1184.329507,8290.306550
399.173526,536.266849,2294.638420,9474.636058
399.173834,1072.533697,2368.659014,10362.883188
399.174141,2757.943793,3108.864956,10214.842000
399.174449,2451.505594,2442.679609,9844.739029
399.174757,1072.533697,-0.000000,9992.780217
399.175065,1915.238745,-1332.370696,11399.171507
399.175373,383.047749,-1258.350101,10362.883188
399.175681,-1225.752797,-1998.556043,11695.253884
399.175989,-919.314598,-1480.411884,10140.821405
399.176297,0.000000,-1924.535449,9696.697840
399.176605,459.657299,-222.061783,8586.388927
399.176913,536.266849,814.226536,6735.874072
399.177221,383.047749,1036.288319,7994.224174
399.177529,153.219100,1998.556043,8660.409521
399.177837,842.705048,3034.844362,9918.759623
399.178145,2068.457845,3034.844362,10658.965565
399.178453,1991.848295,2442.679609,9844.739029
399.178761,1302.362347,888.247130,9992.780217
399.179069,536.266849,-962.267725,11917.315666
399.179377,-306.438199,-1406.391290,11843.295072
399.179685,-1532.190996,-2220.617826,10436.903782
399.179993,-1149.143247,-1554.432478,10584.944971
399.180301,76.609550,-2294.638420,10584.944971
399.180609,995.924147,-814.226536,8586.388927
399.180917,383.047749,518.144159,7550.100608
399.181225,536.266849,1110.308913,7105.977043
399.181533,612.876398,2442.679609,6883.915261
399.181840,919.314598,4145.153275,8586.388927
399.182148,995.924147,3849.070898,9696.697840
399.182456,2374.896044,3627.009116,9474.636058
399.182764,1532.190996,2368.659014,9918.759623
399.183072,-306.438199,592.164754,10214.842000
399.183380,-842.705048,-2220.617826,13175.665768
399.183688,-2987.772442,-3034.844362,12509.480420
399.183996,-4290.134789,-2812.782580,11621.233289
399.184304,-3753.867940,-3182.885551,12065.356855
399.184612,-2528.115143,-3108.864956,11547.212695
399.184920,-1838.629195,-1628.453072,9178.553681
399.185228,-919.314598,-74.020594,7254.018232
399.185536,-612.876398,444.123565,7328.038826
399.185844,-842.705048,2368.659014,7254.018232
399.186152,459.657299,3552.988522,8586.388927
399.186460,2221.676944,3404.947333,9622.677246
399.186768,1455.581446,4367.215058,8586.388927
399.187076,1532.190996,1554.432478,9178.553681
399.187384,-536.266849,-222.061783,10881.027347
399.187692,-1532.190996,-1776.494261,11695.253884
399.188000,-2298.286494,-2590.720797,11695.253884
399.188308,-3830.477490,-2886.803174,10436.903782
399.188616,-3830.477490,-3256.906145,10732.986159
399.188924,-2451.505594,-2738.761985,10807.006753
399.189232,-1762.019645,-888.247130,8142.265362
399.189539,-1762.019645,-592.164754,7105.977043
399.189847,-1762.019645,666.185348,7476.080014
399.190155,-766.095498,1480.411884,9400.615463
399.190463,-842.705048,2664.741391,9918.759623
399.190771,995.924147,3478.967927,9696.697840
399.191079,1532.190996,4219.173869,8512.368333
399.191387,1072.533697,1554.432478,9178.553681
399.191695,842.705048,592.164754,9696.697840
399.192003,0.000000,-222.061783,9622.677246
399.192311,-1915.238745,-1110.308913,9918.759623
399.192619,-2068.457845,-1110.308913,9474.636058
399.192927,-2451.505594,-1110.308913,9326.594869
399.193235,-1762.019645,-888.247130,10140.821405
399.193543,-1149.143247,-74.020594,7476.080014
399.193851,-1762.019645,148.041188,7328.038826
399.194159,-2451.505594,-592.164754,8956.491898
399.194467,-2911.162892,814.226536,10288.862594
399.194775,-2911.162892,1332.370696,11843.295072
399.195083,-1532.190996,3034.844362,10584.944971
399.195391,-612.876398,2812.782580,10066.800811
399.195699,0.000000,1406.391290,10214.842000
399.196007,-536.266849,-0.000000,9548.656652
399.196315,-1838.629195,-1110.308913,9548.656652
399.196623,-3294.210641,-2368.659014,10510.924376
399.196931,-4749.792088,-3330.926739,11843.295072
399.197238,-4673.182538,-3330.926739,11621.233289
399.197546,-3600.648841,-1776.494261,9918.759623
399.197854,-1991.848295,-0.000000,8512.368333
399.198162,-612.876398,814.226536,7550.100608
399.198470,-153.219100,814.226536,6735.874072
399.198778,-1149.143247,1036.288319,8068.244768
399.199086,-919.314598,814.226536,9474.636058
399.199394,-1532.190996,2146.597232,8586.388927
399.199702,-1608.800546,2294.638420,10288.862594
399.200010,-306.438199,1480.411884,11103.089130
399.200318,766.095498,1628.453072,9178.553681
399.200626,0.000000,962.267725,9030.512492
399.200934,-153.219100,-222.061783,8364.327145
399.201242,-2834.553343,-1406.391290,9622.677246
399.201550,-4519.963438,-2960.823768,11843.295072
399.201858,-4673.182538,-3034.844362,12213.398043
399.202166,-4903.011187,-1184.329507,10436.903782
399.202474,-3983.696590,444.123565,10288.862594
399.202782,-689.485948,1924.535449,8438.347739
399.203090,-383.047749,2886.803174,7254.018232
399.203398,229.828649,2590.720797,7846.182985
399.203706,-306.438199,2442.679609,7698.141797
399.204014,-1455.581446,1406.391290,9326.594869
399.204322,-2987.772442,888.247130,10955.047942
399.204630,-3064.381992,814.226536,9992.780217
399.204937,-3217.601092,814.226536,9992.780217
399.205245,-2451.505594,740.205942,9992.780217
399.205553,-1455.581446,1110.308913,8660.409521
399.205861,-1685.410096,-74.020594,9178.553681
399.206169,-2528.115143,-1184.329507,10214.842000
399.206477,-3983.696590,-2590.720797,11843.295072
399.206785,-5209.449386,-4219.173869,13545.768739
399.207093,-5439.278036,-4515.256246,13841.851115
399.207401,-4673.182538,-2590.720797,11843.295072
399.207709,-2681.334243,-370.102971,10584.944971
399.208017,-383.047749,1924.535449,8364.327145
399.208325,919.314598,3552.988522,6069.688724
399.208633,1608.800546,3849.070898,5847.626942
399.208941,1378.971896,3552.988522,5773.606348
399.209249,-383.047749,2368.659014,6587.832884
399.209557,-2757.943793,-0.000000,8512.368333
399.209865,-4673.182538,-444.123565,10214.842000
399.210173,-5439.278036,-592.164754,11103.089130
399.210481,-4979.620737,518.144159,11473.192101
399.210789,-4136.915689,1480.411884,10658.965565
399.211097,-3064.381992,1628.453072,10140.821405
399.211405,-1915.238745,1850.514855,9474.636058
399.211713,-1378.971896,296.082377,9252.574275
399.212021,-2221.676944,-1110.308913,10288.862594
399.212329,-3064.381992,-2664.741391,11843.295072
399.212636,-4366.744339,-4219.173869,12213.398043
399.212944,-5669.106685,-4219.173869,13027.624579
399.213252,-5132.839837,-4071.132681,12953.603985
399.213560,-4443.353888,-2294.638420,10732.986159
399.213868,-2987.772442,-148.041188,9474.636058
399.214176,-1149.143247,1924.535449,7994.224174
399.214484,612.876398,3330.926739,6217.729913
399.214792,1225.752797,4441.235652,5773.606348
399.215100,1302.362347,4663.297435,4959.379811
399.215408,919.314598,4367.215058,5551.544565
399.215716,612.876398,2738.761985,8438.347739
399.216024,-1149.143247,1332.370696,8512.368333
399.216332,-2681.334243,-148.041188,10140.821405
399.216640,-4136.915689,-1036.288319,11251.130318
399.216948,-3983.696590,-962.267725,11029.068536
399.217256,-3294.210641,-666.185348,11473.192101
399.217564,-2374.896044,148.041188,10066.800811
399.217872,-1608.800546,592.164754,9474.636058
399.218180,-995.924147,1258.350101,8216.285956
399.218488,-1149.143247,148.041188,9030.512492
399.218796,-1532.190996,-666.185348,10362.883188
399.219104,-3370.820191,-1924.535449,11991.336260
399.219412,-4903.011187,-2886.803174,13101.645173
399.219720,-6741.640382,-3701.029710,14285.974681
399.220028,-6971.469032,-3849.070898,14508.036463
399.220335,-5975.544884,-3034.844362,13249.686362
399.220643,-4136.915689,-1406.391290,11029.068536
399.220951,-1838.629195,740.205942,8808.450710
399.221259,766.095498,3330.926739,6587.832884
399.221567,2911.162892,5033.400406,4441.235652
399.221875,4366.744339,6069.688724,3182.885551
399.222183,4136.915689,6513.812290,2516.700203
399.222491,2834.553343,5329.482782,3182.885551
399.222799,536.266849,3478.967927,6143.709319
399.223107,-2374.896044,666.185348,9400.615463
399.223415,-5056.230287,-1628.453072,12657.521608
399.223723,-7124.688131,-4071.132681,14211.954086
399.224031,-8273.831378,-5403.503377,15396.283594
399.224339,-7584.345430,-5847.626942,15840.407159
399.224647,-5898.935335,-4441.235652,14063.912898
399.224955,-3983.696590,-1850.514855,11399.171507
399.225263,-1762.019645,444.123565,8734.430116
399.225571,229.828649,2368.659014,7550.100608
399.225879,1149.143247,4219.173869,6661.853478
399.226187,1762.019645,5181.441594,6069.688724
399.226495,1378.971896,5107.421000,6291.750507
399.226803,-459.657299,3478.967927,7846.182985
399.227111,-2681.334243,740.205942,10066.800811
399.227419,-5822.325785,-1406.391290,12139.377449
399.227727,-7737.564530,-4219.173869,14952.160028
399.228035,-8963.317327,-5403.503377,15100.201217
399.228343,-8503.660028,-5403.503377,15026.180623
399.228651,-5362.668486,-4737.318029,14063.912898
399.228959,-2757.943793,-2590.720797,10510.924376
399.229267,-153.219100,-296.082377,7846.182985
399.229575,1991.848295,1332.370696,5477.523971
399.229883,3600.648841,3627.009116,4737.318029
399.230191,4749.792088,5255.462188,3923.091493
399.230499,4060.306139,7031.956449,2738.761985
399.230807,3600.648841,6587.832884,4219.173869
399.231115,1532.190996,4441.235652,5773.606348
399.231423,-689.485948,2590.720797,8734.430116
399.231731,-4060.306139,-0.000000,11695.253884
399.232039,-6435.202183,-3552.988522,14137.933492
399.232347,-9039.926876,-4367.215058,14359.995275
399.232655,-8886.707777,-4441.235652,14804.118840
399.232963,-7124.688131,-4811.338623,14878.139434
399.233271,-4979.620737,-3404.947333,12287.418637
399.233578,-3677.258390,-2516.700203,10066.800811
399.233886,-1455.581446,-1554.432478,9104.533087
399.234194,-153.219100,740.205942,7624.121203
399.234502,1302.362347,2220.617826,7328.038826
399.234810,2145.067394,3256.906145,7031.956449
399.235118,2298.286494,3330.926739,6217.729913
399.235426,1762.019645,2664.741391,7031.956449
399.235734,383.047749,2072.576638,7772.162391
399.236042,-306.438199,518.144159,10362.883188
399.236350,-1762.019645,-0.000000,10658.965565
399.236658,-2681.334243,-1110.308913,10362.883188
399.236966,-2834.553343,-1554.432478,11103.089130
399.237274,-2528.115143,-740.205942,9770.718434
399.237582,-2451.505594,518.144159,9326.594869
399.237890,-1378.971896,592.164754,8956.491898
399.238198,-1455.581446,962.267725,8364.327145
399.238506,-1838.629195,2072.576638,8882.471304
399.238814,-2451.505594,1924.535449,9918.759623
399.239122,-2987.772442,1776.494261,10584.944971
399.239430,-3983.696590,1184.329507,10881.027347
399.239738,-4903.011187,222.061783,11325.150913
399.240046,-6205.373534,-888.247130,12065.356855
399.240354,-6588.421283,-1628.453072,13027.624579
399.240662,-6665.030833,-1628.453072,12953.603985
399.240970,-6281.983084,-2590.720797,12509.480420
399.241278,-5286.058936,-2368.659014,11843.295072
399.241586,-4366.744339,-1184.329507,10510.924376
399.241894,-2221.676944,-148.041188,9030.512492
399.242202,-459.657299,444.123565,7402.059420
399.242510,842.705048,1702.473667,6661.853478
399.242818,1378.971896,2294.638420,5921.647536
399.243126,1608.800546,2368.659014,6217.729913
399.243434,1532.190996,2960.823768,6883.915261
399.243742,612.876398,2294.638420,7179.997637
399.244050,153.219100,1628.453072,8290.306550
399.244358,-1149.143247,814.226536,9400.615463
399.244666,-2298.286494,-0.000000,10140.821405
399.244974,-3600.648841,-666.185348,10881.027347
399.245282,-3830.477490,-1258.350101,11547.212695
399.245590,-4366.744339,-1702.473667,11547.212695
399.245898,-3983.696590,-1480.411884,11251.130318
399.246206,-3524.039291,-1258.350101,11029.068536
399.246514,-2987.772442,-962.267725,10362.883188
399.246822,-2221.676944,-74.020594,9770.718434
399.247130,-1838.629195,518.144159,9696.697840
399.247438,-1225.752797,814.226536,9474.636058
399.247746,-1302.362347,1184.329507,9400.615463
399.248054,-153.219100,1332.370696,9400.615463
399.248362,-995.924147,1110.308913,9326.594869
399.248670,-1302.362347,592.164754,9400.615463
399.248978,-1455.581446,518.144159,9548.656652
399.249286,-2068.457845,-0.000000,9622.677246
399.249594,-1991.848295,444.123565,9474.636058
399.249902,-2068.457845,592.164754,9252.574275
399.250209,-1532.190996,444.123565,9030.512492
399.250517,-1608.800546,370.102971,8364.327145
399.250825,-1302.362347,148.041188,9030.512492
399.251133,-1455.581446,444.123565,9400.615463
399.251441,-1762.019645,740.205942,9104.533087
399.251749,-2374.896044,518.144159,9400.615463
399.252057,-2681.334243,222.061783,9770.718434
399.252365,-3294.210641,-370.102971,10140.821405
399.252673,-3830.477490,-518.144159,10584.944971
399.252981,-3983.696590,-962.267725,11029.068536
399.253289,-3830.477490,-1332.370696,10658.965565
399.253597,-3524.039291,-1702.473667,10732.986159
399.253905,-3370.820191,-1110.308913,10807.006753
399.254213,-3064.381992,-740.205942,10066.800811
399.254521,-1991.848295,-518.144159,9844.739029
399.254829,-1302.362347,-444.123565,8956.491898
399.255137,-612.876398,-74.020594,8512.368333
399.255445,0.000000,-0.000000,9326.594869
399.255753,-306.438199,222.061783,8660.409521
399.256061,0.000000,296.082377,8586.388927
399.256369,383.047749,888.247130,8438.347739
399.256677,459.657299,1332.370696,8216.285956
399.256985,0.000000,1480.411884,8216.285956
399.257293,0.000000,1628.453072,8512.368333
399.257601,-153.219100,1628.453072,8512.368333
399.257909,-995.924147,1184.329507,9178.553681
399.258217,-1762.019645,592.164754,9548.656652
399.258525,-2298.286494,518.144159,10584.944971
399.258833,-2528.115143,370.102971,10881.027347
399.259141,-3600.648841,444.123565,10955.047942
399.259449,-3447.429741,370.102971,10955.047942
399.259757,-3600.648841,666.185348,11251.130318
399.260065,-3294.210641,962.267725,11177.109724
399.260373,-3370.820191,592.164754,11399.171507
399.260681,-3447.429741,592.164754,11103.089130
399.260989,-3064.381992,592.164754,10288.862594
399.261297,-3064.381992,444.123565,10140.821405
399.261605,-3064.381992,666.185348,9474.636058
399.261913,-2911.162892,740.205942,9400.615463
399.262221,-2987.772442,814.226536,9104.533087
399.262529,-3064.381992,814.226536,9178.553681
399.262837,-2757.943793,814.226536,9030.512492
399.263145,-2681.334243,666.185348,9178.553681
399.263453,-2911.162892,148.041188,9474.636058
399.263761,-3524.039291,-296.082377,9548.656652
399.264069,-3830.477490,-296.082377,9474.636058
399.264377,-4290.134789,-518.144159,9770.718434
399.264685,-4213.525239,-518.144159,9992.780217
399.264993,-4213.525239,-814.226536,9918.759623
399.265301,-4290.134789,-592.164754,9844.739029
399.265609,-3370.820191,-1184.329507,9844.739029
399.265917,-4673.182538,-740.205942,8734.430116
399.266225,-3677.258390,-1036.288319,9770.718434
399.266532,-3294.210641,-1332.370696,9622.677246
399.266840,-3983.696590,-666.185348,8734.430116
399.267148,-3294.210641,-1332.370696,9696.697840
399.267456,-3140.991542,-740.205942,9474.636058
399.267764,-3294.210641,-1628.453072,9992.780217
399.268072,-2298.286494,-888.247130,9844.739029
399.268380,-1991.848295,-1258.350101,10066.800811
399.268688,-1762.019645,-1110.308913,9770.718434
399.268996,-1532.190996,-666.185348,9326.594869
399.269304,-536.266849,-370.102971,9474.636058
399.269612,-229.828649,370.102971,8660.409521
399.269920,153.219100,962.267725,7846.182985
399.270228,995.924147,1406.391290,7254.018232
399.270536,1378.971896,2368.659014,7550.100608
399.270844,1149.143247,2516.700203,6809.894666
399.271152,536.266849,3182.885551,6883.915261
399.271460,306.438199,3182.885551,7994.224174
399.271768,-995.924147,2960.823768,8290.306550
399.272076,-1455.581446,2664.741391,9474.636058
399.272384,-2528.115143,1998.556043,10510.924376
399.272692,-3294.210641,1332.370696,11399.171507
399.273000,-4136.915689,444.123565,12065.356855
399.273308,-4519.963438,-518.144159,12657.521608
399.273616,-5592.497135,-1480.411884,12805.562797
399.273924,-5132.839837,-1554.432478,13249.686362
399.274232,-4903.011187,-1406.391290,13027.624579
399.274540,-4749.792088,-1628.453072,12435.459826
399.274848,-3907.087040,-1480.411884,11843.295072
399.275156,-3370.820191,-1184.329507,11177.109724
399.275464,-2374.896044,-444.123565,9548.656652
399.275772,-1225.752797,-74.020594,8808.450710
399.276080,-459.657299,814.226536,8438.347739
399.276388,229.828649,1332.370696,7550.100608
399.276696,995.924147,2294.638420,7328.038826
399.277004,1302.362347,1998.556043,7550.100608
399.277312,842.705048,2516.700203,7105.977043
399.277620,689.485948,2738.761985,6809.894666
399.277928,766.095498,2960.823768,7476.080014
399.278236,0.000000,2368.659014,7994.224174
399.278544,-1685.410096,1702.473667,8586.388927
399.278852,-2068.457845,888.247130,9474.636058
399.279160,-3677.258390,-444.123565,10510.924376
399.279468,-4903.011187,-1850.514855,11547.212695
399.279776,-5515.887586,-2516.700203,12213.398043
399.280084,-6741.640382,-3404.947333,12361.439231
399.280392,-6281.983084,-4071.132681,13397.727550
399.280700,-5669.106685,-3404.947333,12731.542202
399.281008,-4903.011187,-3034.844362,12657.521608
399.281316,-4290.134789,-2516.700203,11325.150913
399.281624,-2374.896044,-1628.453072,11177.109724
399.281932,-1608.800546,-0.000000,8660.409521
399.282240,229.828649,1776.494261,7328.038826
399.282548,1915.238745,3701.029710,6365.771101
399.282856,3064.381992,5255.462188,4145.153275
399.283163,3907.087040,5403.503377,4367.215058
399.283471,3753.867940,5995.668130,3108.864956
399.283779,2374.896044,4737.318029,5477.523971
399.284087,-229.828649,2960.823768,7105.977043
399.284395,-2221.676944,1184.329507,9474.636058
399.284703,-4519.963438,-1258.350101,12139.377449
399.285011,-6281.983084,-3256.906145,13027.624579
399.285319,-7354.516781,-5181.441594,14211.954086
399.285627,-7354.516781,-6143.709319,14582.057057
399.285935,-6588.421283,-5329.482782,15470.304188
399.286243,-6052.154434,-3997.112087,12879.583391
399.286551,-4596.572988,-2146.597232,11029.068536
399.286859,-1991.848295,370.102971,9474.636058
399.287167,-153.219100,3330.926739,7031.956449
399.287475,1991.848295,5699.585753,6291.750507
399.287783,2451.505594,6217.729913,3775.050304
399.288091,1532.190996,5847.626942,4293.194464
399.288399,229.828649,3627.009116,7179.997637
399.288707,-2604.724693,592.164754,9326.594869
399.289015,-5362.668486,-2072.576638,12065.356855
399.289323,-7890.783629,-5477.523971,14508.036463
399.289631,-8427.050478,-6291.750507,14434.015869
399.289939,-8810.098227,-6661.853478,14285.974681
399.290247,-6205.373534,-5625.565159,13619.789333
399.290555,-4060.306139,-2368.659014,10288.862594
399.290863,-1072.533697,814.226536,7698.141797
399.291171,1838.629195,3552.988522,5995.668130
399.291479,4060.306139,7179.997637,3478.967927
399.291787,5515.887586,8142.265362,3256.906145
399.292095,5056.230287,8364.327145,3182.885551
399.292403,2604.724693,6365.771101,4737.318029
399.292711,-612.876398,2442.679609,9770.718434
399.293019,-4060.306139,-1258.350101,12879.583391
399.293327,-8044.002729,-4293.194464,16284.530724
399.293635,-9882.631924,-7179.997637,17912.983796
399.293943,-10878.556072,-6883.915261,16654.633695
399.294251,-9422.974625,-5625.565159,16136.489536
399.294559,-5056.230287,-2886.803174,12953.603985
399.294867,-1302.362347,1480.411884,7624.121203
399.295175,612.876398,2516.700203,6069.688724
399.295483,2451.505594,4441.235652,5477.523971
399.295791,3064.381992,6587.832884,4441.235652
399.296099,2221.676944,5551.544565,5033.400406
399.296407,0.000000,3923.091493,6587.832884
399.296715,-2528.115143,1628.453072,9104.533087
399.297023,-4903.011187,-296.082377,11621.233289
399.297331,-6588.421283,-1628.453072,12657.521608
399.297639,-7277.907231,-2738.761985,14359.995275
399.297947,-6358.592633,-2368.659014,12731.542202
399.298255,-4366.744339,-222.061783,9696.697840
399.298563,0.000000,296.082377,9252.574275
399.298871,1991.848295,592.164754,7402.059420
399.299179,2451.505594,370.102971,6587.832884
399.299487,2451.505594,-296.082377,7476.080014
399.299794,612.876398,-148.041188,7402.059420
399.300102,-1149.143247,-592.164754,9178.553681
399.300410,-2451.505594,518.144159,9548.656652
399.300718,-2145.067394,814.226536,10214.842000
399.301026,-2451.505594,1036.288319,9474.636058
399.301334,-3140.991542,518.144159,9178.553681
399.301642,-2757.943793,-740.205942,10881.027347
399.301950,-4213.525239,-2220.617826,12065.356855
399.302258,-5056.230287,-3627.009116,12805.562797
399.302566,-5745.716235,-3775.050304,11843.295072
399.302874,-5362.668486,-2590.720797,11251.130318
399.303182,-3447.429741,-444.123565,10066.800811
399.303490,-1608.800546,2294.638420,8068.244768
399.303798,1149.143247,4367.215058,5921.647536
399.304106,2374.896044,5255.462188,4071.132681
399.304414,2681.334243,4885.359217,4441.235652
399.304722,1762.019645,2442.679609,8290.306550
399.305030,-536.266849,444.123565,10288.862594
399.305338,-3907.087040,-1184.329507,11251.130318
399.305646,-5515.887586,-3108.864956,13027.624579
399.305954,-6128.763984,-3923.091493,14508.036463
399.306262,-6205.373534,-3034.844362,14211.954086
399.306570,-4749.792088,-1776.494261,11843.295072
399.306878,-2604.724693,-1036.288319,9400.615463
399.307186,-1685.410096,-962.267725,9400.615463
399.307494,-1532.190996,-1110.308913,9844.739029
399.307802,-2145.067394,-444.123565,8734.430116
399.308110,-1455.581446,1776.494261,7624.121203
399.308418,-1072.533697,2960.823768,7105.977043
399.308726,153.219100,4737.318029,7031.956449
399.309034,1302.362347,5107.421000,6735.874072
399.309342,842.705048,4441.235652,5625.565159
399.309650,0.000000,3108.864956,8068.244768
399.309958,-1149.143247,148.041188,10732.986159
399.310266,-3983.696590,-3108.864956,13249.686362
399.310574,-5592.497135,-3108.864956,13101.645173
399.310882,-4979.620737,-3034.844362,12287.418637
399.311190,-3447.429741,-2442.679609,12657.521608
399.311498,-1685.410096,-1998.556043,11251.130318
399.311806,153.219100,-1184.329507,8882.471304
399.312114,536.266849,-1776.494261,7920.203579
399.312422,-306.438199,-1628.453072,8290.306550
399.312730,-1762.019645,-370.102971,9474.636058
399.313038,-1532.190996,222.061783,10436.903782
399.313346,-995.924147,1702.473667,9252.574275
399.313654,536.266849,3997.112087,7624.121203
399.313962,2604.724693,4219.173869,6587.832884
399.314270,3524.039291,3775.050304,6513.812290
399.314578,3370.820191,2516.700203,7846.182985
399.314886,1072.533697,444.123565,9104.533087
399.315194,-1225.752797,-1036.288319,10288.862594
399.315502,-2681.334243,-1554.432478,11399.171507
399.315810,-2451.505594,-1036.288319,11695.253884
399.316118,-1225.752797,-1332.370696,10807.006753
399.316425,229.828649,-370.102971,9622.677246
399.316733,-76.609550,-1628.453072,9622.677246
399.317041,-995.924147,-1702.473667,9474.636058
399.317349,-842.705048,-1110.308913,10066.800811
399.317657,-2221.676944,-0.000000,10881.027347
399.317965,-2145.067394,592.164754,11251.130318
399.318273,-1072.533697,2516.700203,9474.636058
399.318581,229.828649,3256.906145,9178.553681
399.318889,1608.800546,3330.926739,7624.121203
399.319197,1838.629195,2886.803174,7772.162391
399.319505,0.000000,1702.473667,9992.780217
399.319813,-1149.143247,148.041188,10140.821405
399.320121,-2451.505594,-148.041188,10658.965565
399.320429,-1991.848295,-1258.350101,11917.315666
399.320737,-2068.457845,-2072.576638,10436.903782
399.321045,-1685.410096,-2294.638420,10066.800811
399.321353,-1302.362347,-3034.844362,10288.862594
399.321661,-2528.115143,-2146.597232,9548.656652
399.321969,-1991.848295,-1036.288319,10066.800811
399.322277,-153.219100,1480.411884,9474.636058
399.322585,1455.581446,2590.720797,7846.182985
399.322894,3600.648841,3478.967927,6661.853478
399.323202,4366.744339,3478.967927,6069.688724
399.323510,3294.210641,2442.679609,7105.977043
399.323818,1532.190996,1110.308913,8290.306550
399.324126,-306.438199,-0.000000,11029.068536
399.324434,-2145.067394,-1406.391290,12287.418637
399.324742,-2374.896044,-2516.700203,13693.809927
399.325050,-2451.505594,-3034.844362,12657.521608
399.325358,-1838.629195,-3478.967927,11325.150913
399.325666,-383.047749,-2886.803174,10214.842000
399.325974,-4443.353888,-962.267725,7846.182985
399.326283,1149.143247,-1184.329507,13175.665768
399.326591,0.000000,1628.453072,8512.368333
399.326899,1378.971896,3849.070898,6513.812290
399.327207,5592.497135,3330.926739,7994.224174
399.327515,3907.087040,4737.318029,4515.256246
399.327823,2834.553343,1184.329507,10362.883188
399.328131,1378.971896,1332.370696,9326.594869
399.328439,-1149.143247,444.123565,11399.171507
399.328747,-2911.162892,-1628.453072,13249.686362
399.329055,-1915.238745,-1998.556043,12583.501014
399.329364,-1915.238745,-1998.556043,12065.356855
399.329672,0.000000,-2960.823768,10510.924376
399.329980,-459.657299,-2220.617826,9178.553681
399.330288,-1225.752797,-1036.288319,8808.450710
399.330596,-153.219100,-444.123565,10362.883188
399.330904,229.828649,2072.576638,8660.409521
399.331212,2681.334243,4293.194464,7402.059420
399.331520,4673.182538,4293.194464,6735.874072
399.331828,4519.963438,4367.215058,5403.503377
399.332136,3677.258390,3478.967927,7031.956449
399.332444,1302.362347,1702.473667,8586.388927
399.332753,689.485948,666.185348,10881.027347
399.333061,-1149.143247,-1702.473667,13471.748144
399.333369,-1762.019645,-2442.679609,12731.542202
399.333677,-1072.533697,-2886.803174,11695.253884
399.333985,-1762.019645,-3330.926739,11621.233289
399.334293,-1072.533697,-4589.276840,12065.356855
399.334601,-1915.238745,-1480.411884,9844.739029
399.334909,-536.266849,-518.144159,9474.636058
399.335217,1532.190996,1702.473667,7846.182985
399.335525,2987.772442,4589.276840,6291.750507
399.335834,5132.839837,3997.112087,6513.812290
399.336142,4903.011187,3330.926739,5921.647536
399.336450,4136.915689,2960.823768,7179.997637
399.336758,1991.848295,1998.556043,8882.471304
399.337066,919.314598,-222.061783,11843.295072
399.337374,-383.047749,-1850.514855,13545.768739
399.337682,-1149.143247,-2590.720797,11547.212695
399.337990,-1532.190996,-2960.823768,10288.862594
399.338298,-1915.238745,-4811.338623,11473.192101
399.338606,-1838.629195,-4293.194464,11991.336260
399.338914,-1302.362347,-1406.391290,10214.842000
399.339223,766.095498,-222.061783,9326.594869
399.339531,2604.724693,2368.659014,7772.162391
399.339839,4290.134789,4589.276840,6513.812290
399.340147,5592.497135,4737.318029,7031.956449
399.340455,4596.572988,4515.256246,6291.750507
399.340763,3677.258390,3478.967927,7328.038826
399.341071,1149.143247,1924.535449,9992.780217
399.341379,1149.143247,-222.061783,12583.501014
399.341687,-612.876398,-2146.597232,11843.295072
399.341995,-1532.190996,-1998.556043,11177.109724
399.342304,-2221.676944,-3182.885551,11103.089130
399.342612,-2604.724693,-4219.173869,12657.521608
399.342920,-2451.505594,-3330.926739,12213.398043
399.343228,-1685.410096,-1332.370696,9696.697840
399.343536,229.828649,-0.000000,8734.430116
399.343844,1991.848295,2812.782580,7846.182985
399.344152,5286.058936,4145.153275,6809.894666
399.344460,4903.011187,3404.947333,6809.894666
399.344768,4136.915689,4737.318029,5699.585753
399.345076,3140.991542,2812.782580,8290.306550
399.345384,1302.362347,1554.432478,9918.759623
399.345693,766.095498,-370.102971,12657.521608
399.346001,-383.047749,-2072.576638,11769.274478
399.346309,-1302.362347,-2220.617826,9474.636058
399.346617,-1532.190996,-3627.009116,11103.089130
399.346925,-2911.162892,-4293.194464,11991.336260
399.347233,-2298.286494,-3034.844362,11473.192101
399.347541,-2221.676944,-666.185348,9992.780217
399.347849,0.000000,592.164754,9400.615463
399.348157,2757.943793,2590.720797,7624.121203
399.348465,3294.210641,3849.070898,7624.121203
399.348773,3677.258390,3552.988522,8364.327145
399.349082,3140.991542,3775.050304,6513.812290
399.349390,1915.238745,2738.761985,9918.759623
399.349698,1072.533697,-518.144159,12435.459826
399.350006,0.000000,-814.226536,11917.315666
399.350314,-1072.533697,-2146.597232,11473.192101
399.350622,-1072.533697,-2960.823768,10140.821405
399.350930,-2145.067394,-3404.947333,11103.089130
399.351238,-2834.553343,-3701.029710,12435.459826
399.351546,-2604.724693,-1406.391290,10288.862594
399.351854,-842.705048,-148.041188,9400.615463
399.352163,459.657299,2146.597232,8290.306550
399.352471,3677.258390,3701.029710,7179.997637
399.352779,3907.087040,4293.194464,6513.812290
399.353087,4136.915689,4293.194464,7105.977043
399.353395,2298.286494,3478.967927,7031.956449
399.353703,1455.581446,2368.659014,9992.780217
399.354011,689.485948,-0.000000,11843.295072
399.354319,153.219100,-1258.350101,11547.212695
399.354627,-766.095498,-2442.679609,10658.965565
399.354935,-4519.963438,-3108.864956,9474.636058
399.355243,-1302.362347,-5847.626942,15174.221811
399.355552,-4136.915689,-2442.679609,10362.883188
399.355860,-1991.848295,-1776.494261,9474.636058
399.356168,612.876398,148.041188,9844.739029
399.356476,3064.381992,3404.947333,6957.935855
399.356784,3830.477490,3182.885551,7994.224174
399.357092,4903.011187,4663.297435,6365.771101
399.357400,4519.963438,4663.297435,6957.935855
399.357708,2528.115143,2516.700203,8364.327145
399.358016,1991.848295,1184.329507,11251.130318
399.358324,306.438199,-740.205942,12213.398043
399.358633,-229.828649,-2442.679609,10510.924376
399.358941,-842.705048,-2738.761985,9770.718434
399.359249,-2298.286494,-4811.338623,11399.171507
399.359557,-2528.115143,-4737.318029,12657.521608
399.359865,-2911.162892,-2294.638420,10510.924376
399.360173,-306.438199,-740.205942,9474.636058
399.360481,1378.971896,1184.329507,8882.471304
399.360789,4596.572988,3108.864956,6661.853478
399.361097,5515.887586,3775.050304,7254.018232
399.361405,4060.306139,4737.318029,6217.729913
399.361713,3830.477490,3627.009116,6661.853478
399.362022,1838.629195,2442.679609,10066.800811
399.362330,536.266849,-0.000000,13101.645173
399.362638,0.000000,-1036.288319,11473.192101
399.362946,-995.924147,-1850.514855,10510.924376
399.363254,-1838.629195,-3701.029710,11177.109724
399.363562,-3140.991542,-4367.215058,11473.192101
399.363870,-2451.505594,-2960.823768,12287.418637
399.364178,-2451.505594,-1480.411884,10436.903782
399.364486,0.000000,518.144159,9104.533087
399.364794,2604.724693,3256.906145,7772.162391
399.365102,4443.353888,4219.173869,6291.750507
399.365411,4443.353888,4071.132681,6735.874072
399.365719,3983.696590,4737.318029,6069.688724
399.366027,2374.896044,3627.009116,7698.141797
399.366335,1532.190996,1036.288319,11103.089130
399.366643,842.705048,-814.226536,12287.418637
399.366951,-689.485948,-1480.411884,11473.192101
399.367259,-2604.724693,-3478.967927,10066.800811
399.367567,-2681.334243,-4959.379811,12213.398043
399.367875,-3294.210641,-4515.256246,12509.480420
399.368183,-2681.334243,-2146.597232,11029.068536
399.368492,-1378.971896,-1480.411884,9918.759623
399.368800,1685.410096,1702.473667,8808.450710
399.369108,3983.696590,3108.864956,6365.771101
399.369416,5056.230287,3627.009116,6439.791695
399.369724,4673.182538,3775.050304,7402.059420
399.370032,3294.210641,3997.112087,6735.874072
399.370340,2757.943793,1554.432478,9770.718434
399.370648,229.828649,-888.247130,13323.706956
399.370956,-536.266849,-2146.597232,12361.439231
399.371264,-2068.457845,-2886.803174,11547.212695
399.371572,-3447.429741,-4293.194464,12583.501014
399.371881,-3600.648841,-5255.462188,12879.583391
399.372189,-2987.772442,-2738.761985,11473.192101
399.372497,-1915.238745,-888.247130,9844.739029
399.372805,0.000000,740.205942,8512.368333
399.373113,3600.648841,3330.926739,5773.606348
399.373421,4213.525239,4663.297435,6439.791695
399.373729,4979.620737,4367.215058,6143.709319
399.374037,4673.182538,5181.441594,4959.379811
399.374345,2145.067394,4663.297435,7105.977043
399.374653,1302.362347,592.164754,11695.253884
399.374962,229.828649,-592.164754,12583.501014
399.375270,-919.314598,-2516.700203,13545.768739
399.375578,-3064.381992,-4441.235652,10214.842000
399.375886,-4903.011187,-4441.235652,11399.171507
399.376194,-1915.238745,-5847.626942,15470.304188
399.376502,-3753.867940,-1036.288319,8882.471304
399.376810,-459.657299,-666.185348,10066.800811
399.377118,2374.896044,814.226536,7920.203579
399.377426,4136.915689,4589.276840,4293.194464
399.377734,5822.325785,3849.070898,7105.977043
399.378042,6358.592633,4737.318029,6365.771101
399.378351,3524.039291,5773.606348,5699.585753
399.378659,2298.286494,1628.453072,10807.006753
399.378967,2068.457845,370.102971,13323.706956
399.379275,-842.705048,-1110.308913,11991.336260
399.379583,-1532.190996,-3552.988522,11769.274478
399.379891,-2528.115143,-4145.153275,11769.274478
399.380199,-3370.820191,-5329.482782,13323.706956
399.380507,-3600.648841,-3923.091493,12361.439231
399.380815,-1838.629195,-1258.350101,10066.800811
399.381123,1072.533697,-222.061783,8808.450710
399.381432,2987.772442,2220.617826,6957.935855
399.381740,5439.278036,4293.194464,5847.626942
399.382048,4903.011187,3627.009116,7254.018232
399.382356,4519.963438,4737.318029,5921.647536
399.382664,1991.848295,4293.194464,6217.729913
399.382972,1302.362347,1332.370696,13249.686362
399.383280,153.219100,-962.267725,12583.501014
399.383588,-995.924147,-740.205942,11251.130318
399.383896,-2221.676944,-3108.864956,11547.212695
399.384204,-3370.820191,-4219.173869,11251.130318
399.384512,-3447.429741,-3923.091493,13693.809927
399.384821,-2374.896044,-1776.494261,11473.192101
399.385129,-689.485948,-814.226536,9918.759623
399.385437,1149.143247,1776.494261,7920.203579
399.385745,4366.744339,3478.967927,6661.853478
399.386053,5362.668486,3478.967927,5847.626942
399.386361,4826.401637,4885.359217,5329.482782
399.386669,4290.134789,4737.318029,6587.832884
399.386977,1685.410096,3330.926739,7476.080014
399.387285,1532.190996,518.144159,12287.418637
399.387593,459.657299,-444.123565,12065.356855
399.387901,-1991.848295,-2442.679609,10881.027347
399.388210,-2451.505594,-4515.256246,11843.295072
399.388518,-3983.696590,-4811.338623,12583.501014
399.388826,-3677.258390,-3701.029710,12657.521608
399.389134,-2834.553343,-1850.514855,10732.986159
399.389442,76.609550,-222.061783,9992.780217
399.389750,2298.286494,2368.659014,6439.791695
399.390058,4903.011187,3923.091493,5847.626942
399.390366,5439.278036,3108.864956,6217.729913
399.390674,4749.792088,4515.256246,6143.709319
399.390982,3064.381992,4071.132681,7328.038826
399.391291,1762.019645,1332.370696,10881.027347
399.391599,0.000000,-814.226536,12361.439231
399.391907,-612.876398,-2072.576638,12213.398043
399.392215,-2374.896044,-3849.070898,10881.027347
399.392523,-3830.477490,-4589.276840,11695.253884
399.392831,-3753.867940,-4959.379811,12953.603985
399.393139,-3294.210641,-2812.782580,11473.192101
399.393447,-1838.629195,-1110.308913,10288.862594
399.393755,1302.362347,222.061783,8882.471304
399.394063,3294.210641,3627.009116,5477.523971
399.394371,5592.497135,4071.132681,5033.400406
399.394680,5209.449386,4071.132681,4737.318029
399.394988,4903.011187,5773.606348,6513.812290
399.395296,2987.772442,2664.741391,7846.182985
399.395604,1915.238745,1184.329507,10881.027347
399.395912,536.266849,-592.164754,11991.336260
399.396220,-1685.410096,-2368.659014,11695.253884
399.396528,-3064.381992,-4589.276840,12213.398043
399.396836,-4136.915689,-5329.482782,12731.542202
399.397144,-4443.353888,-5107.421000,12509.480420
399.397452,-2451.505594,-2442.679609,11325.150913
399.397761,-459.657299,-888.247130,9844.739029
399.398069,2451.505594,2886.803174,7698.141797
399.398377,5362.668486,4145.153275,5477.523971
399.398685,6358.592633,4589.276840,5107.421000
399.398993,4673.182538,5181.441594,6365.771101
399.399301,4290.134789,5699.585753,6217.729913
399.399609,3524.039291,2442.679609,9622.677246
399.399917,766.095498,444.123565,12731.542202
399.400225,153.219100,-2294.638420,12731.542202
399.400533,-1685.410096,-3627.009116,11917.315666
399.400841,-4596.572988,-5033.400406,12065.356855
399.401150,-4826.401637,-5551.544565,14656.077652
399.401458,-3677.258390,-3552.988522,13175.665768
399.401766,-2374.896044,-888.247130,11547.212695
399.402074,1072.533697,-0.000000,9844.739029
399.402382,3677.258390,3627.009116,5551.544565
399.402690,5975.544884,4441.235652,6069.688724
399.402998,5822.325785,3997.112087,6735.874072
399.403306,5209.449386,5107.421000,6661.853478
399.403614,3294.210641,4885.359217,7920.203579
399.403922,1685.410096,2294.638420,10436.903782
399.404230,459.657299,-0.000000,12065.356855
399.404539,-995.924147,-1702.473667,12805.562797
399.404847,-2451.505594,-4219.173869,12139.377449
399.405155,-4213.525239,-4145.153275,11843.295072
399.405463,-3677.258390,-5181.441594,13249.686362
399.405771,-3524.039291,-2960.823768,12065.356855
399.406079,-766.095498,-444.123565,10214.842000
399.406387,1762.019645,1184.329507,7846.182985
399.406695,4443.353888,3997.112087,5477.523971
399.407003,5286.058936,4071.132681,5477.523971
399.407311,4979.620737,4145.153275,6883.915261
399.407620,4519.963438,5551.544565,6365.771101
399.407928,3064.381992,3256.906145,8290.306550
399.408236,1378.971896,148.041188,11547.212695
399.408544,-153.219100,-1036.288319,11547.212695
399.408852,-1838.629195,-2516.700203,11547.212695
399.409160,-3830.477490,-4219.173869,11621.233289
399.409468,-4136.915689,-4885.359217,12657.521608
399.409776,-3600.648841,-3923.091493,12731.542202
399.410084,-2528.115143,-1924.535449,10584.944971
399.410392,459.657299,-518.144159,9178.553681
399.410700,3294.210641,2812.782580,6587.832884
399.411009,4979.620737,3478.967927,5477.523971
399.411317,5362.668486,2960.823768,5773.606348
399.411625,4826.401637,4515.256246,5403.503377
399.411933,3447.429741,3330.926739,7254.018232
399.412241,2451.505594,1258.350101,10510.924376
399.412549,995.924147,-370.102971,11843.295072
399.412857,-536.266849,-2442.679609,12287.418637
399.413165,-3064.381992,-3997.112087,10807.006753
399.413473,-4596.572988,-5181.441594,12509.480420
399.413781,-4826.401637,-4885.359217,13545.768739
399.414090,-4290.134789,-2960.823768,12361.439231
399.414398,-1991.848295,-1628.453072,10881.027347
399.414706,1378.971896,962.267725,9178.553681
399.415014,3677.258390,3478.967927,5403.503377
399.415322,5209.449386,3923.091493,5255.462188
399.415630,5515.887586,4589.276840,5699.585753
399.415938,4596.572988,5477.523971,5551.544565
399.416246,2604.724693,4293.194464,7550.100608
399.416554,2068.457845,518.144159,11621.233289
399.416862,153.219100,-0.000000,10881.027347
399.417170,-1608.800546,-2590.720797,11473.192101
399.417479,-3217.601092,-4737.318029,11843.295072
399.417787,-4903.011187,-5329.482782,12657.521608
399.418095,-4749.792088,-4515.256246,13027.624579
399.418403,-2911.162892,-2664.741391,11991.336260
399.418711,-306.438199,-740.205942,9696.697840
399.419019,2221.676944,2664.741391,7179.997637
399.419327,5362.668486,3478.967927,6217.729913
399.419635,5898.935335,3775.050304,6365.771101
399.419943,4979.620737,4885.359217,6143.709319
399.420251,5056.230287,5403.503377,6513.812290
399.420559,3140.991542,2886.803174,9474.636058
399.420868,2068.457845,296.082377,11251.130318
399.421176,229.828649,-888.247130,10881.027347
399.421484,-1838.629195,-2886.803174,11843.295072
399.421792,-4136.915689,-5625.565159,13027.624579
399.422100,-4443.353888,-4959.379811,13767.830521
399.422408,-3753.867940,-4219.173869,13989.892304
399.422716,-1838.629195,-2072.576638,11843.295072
399.423024,-919.314598,1184.329507,8142.265362
399.423332,6435.202183,1924.535449,9696.697840
