#time,accel_x,accel_y,accel_z
115.600772,2145.067394,-296.082377,9622.677246
115.601080,1838.629195,-148.041188,10288.862594
115.601388,1915.238745,-518.144159,9770.718434
115.601696,1532.190996,-444.123565,9918.759623
115.602005,1532.190996,-370.102971,10288.862594
115.602313,1608.800546,-592.164754,10066.800811
115.602621,2068.457845,-296.082377,10436.903782
115.602929,1915.238745,-666.185348,10214.842000
115.603237,1838.629195,-444.123565,10066.800811
115.603545,2068.457845,-296.082377,9844.739029
115.603853,2145.067394,-74.020594,9548.656652
115.604162,2298.286494,222.061783,9104.533087
115.604470,2374.896044,666.185348,9030.512492
115.604778,2298.286494,740.205942,8956.491898
115.605086,2145.067394,592.164754,9030.512492
115.605394,1608.800546,592.164754,9844.739029
115.605702,1685.410096,222.061783,9844.739029
115.606010,1225.752797,-444.123565,9918.759623
115.606319,842.705048,148.041188,10140.821405
115.606627,919.314598,-0.000000,9770.718434
115.606935,1302.362347,-0.000000,9844.739029
115.607243,1608.800546,296.082377,9696.697840
115.607551,1532.190996,296.082377,9696.697840
115.607859,842.705048,-0.000000,9622.677246
115.608168,1302.362347,-74.020594,9918.759623
115.608476,766.095498,-518.144159,10066.800811
115.608784,689.485948,-370.102971,10214.842000
115.609092,1072.533697,-370.102971,9770.718434
115.609400,1072.533697,-148.041188,9696.697840
115.609708,1455.581446,-74.020594,9622.677246
115.610016,1838.629195,-0.000000,9622.677246
115.610325,1915.238745,-0.000000,9104.533087
115.610633,2528.115143,740.205942,9104.533087
115.610941,2987.772442,296.082377,8734.430116
115.611249,2987.772442,740.205942,8068.244768
115.611557,2911.162892,666.185348,8438.347739
115.611865,2757.943793,518.144159,8512.368333
115.612174,2604.724693,666.185348,8882.471304
115.612482,2221.676944,444.123565,9252.574275
115.612790,1915.238745,296.082377,9696.697840
115.613098,1915.238745,666.185348,9992.780217
115.613406,1685.410096,-74.020594,9474.636058
115.613714,1455.581446,-148.041188,9992.780217
115.614022,1608.800546,-222.061783,9992.780217
115.614331,1378.971896,-0.000000,10214.842000
115.614639,1455.581446,-0.000000,10362.883188
115.614947,1685.410096,-0.000000,10362.883188
115.615255,1762.019645,-148.041188,10288.862594
115.615563,2221.676944,-0.000000,10140.821405
115.615871,1072.533697,-0.000000,9992.780217
115.616179,1532.190996,444.123565,10288.862594
115.616488,1762.019645,-0.000000,9992.780217
115.616796,1685.410096,-0.000000,9696.697840
115.617104,2068.457845,222.061783,9622.677246
115.617412,2145.067394,740.205942,9474.636058
115.617720,2604.724693,592.164754,9474.636058
115.618028,2604.724693,1184.329507,9400.615463
115.618337,2528.115143,888.247130,9030.512492
115.618645,1991.848295,1036.288319,9178.553681
115.618953,2298.286494,1110.308913,8882.471304
115.619261,2298.286494,1036.288319,8956.491898
115.619569,1991.848295,1036.288319,9252.574275
115.619877,1378.971896,592.164754,9326.594869
115.620185,1225.752797,296.082377,9696.697840
115.620494,995.924147,444.123565,10140.821405
115.620802,1072.533697,296.082377,10140.821405
115.621110,842.705048,296.082377,10288.862594
115.621418,612.876398,-74.020594,10066.800811
115.621726,229.828649,-0.000000,10362.883188
115.622034,229.828649,-0.000000,10140.821405
115.622343,536.266849,222.061783,10066.800811
115.622651,383.047749,-0.000000,9992.780217
115.622959,153.219100,148.041188,9770.718434
115.623267,459.657299,-0.000000,10214.842000
115.623575,-153.219100,-0.000000,9474.636058
115.623883,0.000000,296.082377,9770.718434
115.624191,0.000000,148.041188,9696.697840
115.624500,-229.828649,-0.000000,9918.759623
115.624808,-383.047749,222.061783,9844.739029
115.625116,0.000000,-0.000000,9696.697840
115.625424,229.828649,-74.020594,9696.697840
115.625732,0.000000,-148.041188,9474.636058
115.626040,-306.438199,-0.000000,9548.656652
115.626348,-383.047749,-74.020594,9474.636058
115.626657,-383.047749,-0.000000,9548.656652
115.626965,-459.657299,-0.000000,9474.636058
115.627273,-229.828649,-0.000000,9548.656652
115.627581,-229.828649,-666.185348,9696.697840
115.627889,-536.266849,-518.144159,9474.636058
115.628197,-842.705048,-962.267725,10066.800811
115.628506,-536.266849,-518.144159,9992.780217
115.628814,-536.266849,-518.144159,9622.677246
115.629122,0.000000,-296.082377,9622.677246
115.629430,76.609550,-296.082377,9548.656652
115.629738,0.000000,-444.123565,9474.636058
115.630046,919.314598,-0.000000,9548.656652
115.630354,919.314598,148.041188,9474.636058
115.630663,536.266849,-74.020594,9474.636058
115.630971,383.047749,-148.041188,9400.615463
115.631279,459.657299,-0.000000,9400.615463
115.631587,459.657299,296.082377,9326.594869
115.631895,689.485948,222.061783,9400.615463
115.632203,306.438199,296.082377,9326.594869
115.632511,1149.143247,222.061783,9474.636058
115.632820,842.705048,370.102971,9696.697840
115.633128,1302.362347,-0.000000,9474.636058
115.633436,1225.752797,592.164754,9844.739029
115.633744,995.924147,222.061783,9696.697840
115.634052,1149.143247,592.164754,9918.759623
115.634360,1072.533697,370.102971,9992.780217
115.634669,1225.752797,148.041188,9696.697840
115.634977,1302.362347,518.144159,9918.759623
115.635285,1149.143247,814.226536,9992.780217
115.635593,1532.190996,296.082377,9918.759623
115.635901,766.095498,740.205942,9548.656652
115.636209,1149.143247,666.185348,9548.656652
115.636517,1149.143247,666.185348,9844.739029
115.636825,995.924147,666.185348,9548.656652
115.637133,1532.190996,666.185348,9696.697840
115.637441,1378.971896,740.205942,9474.636058
115.637750,1225.752797,296.082377,9474.636058
115.638058,995.924147,814.226536,9548.656652
115.638366,1302.362347,592.164754,9474.636058
115.638674,1378.971896,444.123565,9326.594869
115.638982,1532.190996,222.061783,9252.574275
115.639290,1455.581446,370.102971,9326.594869
115.639598,1455.581446,666.185348,9326.594869
115.639906,1378.971896,370.102971,9252.574275
115.640214,1378.971896,444.123565,9474.636058
115.640523,1225.752797,370.102971,9252.574275
115.640831,1378.971896,148.041188,9474.636058
115.641139,1225.752797,-0.000000,9252.574275
115.641447,919.314598,-148.041188,9400.615463
115.641755,766.095498,-0.000000,9548.656652
115.642063,766.095498,-296.082377,9844.739029
115.642371,689.485948,-518.144159,9622.677246
115.642679,612.876398,-296.082377,9844.739029
115.642987,766.095498,-0.000000,10214.842000
115.643295,536.266849,-0.000000,9770.718434
115.643604,229.828649,-74.020594,9696.697840
115.643912,383.047749,-0.000000,9696.697840
115.644220,76.609550,-74.020594,9400.615463
115.644528,306.438199,-222.061783,9696.697840
115.644836,306.438199,-0.000000,9844.739029
115.645144,0.000000,148.041188,9474.636058
115.645452,-153.219100,-0.000000,9326.594869
115.645760,-153.219100,148.041188,9400.615463
115.646068,-383.047749,-0.000000,9474.636058
115.646376,-383.047749,-0.000000,9474.636058
115.646685,-306.438199,-0.000000,9474.636058
115.646993,-383.047749,-0.000000,9548.656652
115.647301,-229.828649,-148.041188,9548.656652
115.647609,0.000000,-222.061783,9622.677246
115.647917,-612.876398,-0.000000,9844.739029
115.648225,-689.485948,-0.000000,9474.636058
115.648533,-766.095498,-0.000000,9696.697840
115.648841,-689.485948,-74.020594,9844.739029
115.649149,-459.657299,-370.102971,9770.718434
115.649458,-153.219100,-148.041188,9622.677246
115.649766,-306.438199,-296.082377,9548.656652
115.650074,0.000000,-370.102971,9770.718434
115.650382,459.657299,-592.164754,9474.636058
115.650690,229.828649,-0.000000,9474.636058
115.650998,459.657299,-0.000000,9622.677246
115.651306,612.876398,-0.000000,9474.636058
115.651614,842.705048,222.061783,9474.636058
115.651922,919.314598,222.061783,9696.697840
115.652230,995.924147,-0.000000,9474.636058
115.652539,1532.190996,-0.000000,9622.677246
115.652847,919.314598,148.041188,9548.656652
115.653155,995.924147,518.144159,9622.677246
115.653463,1455.581446,666.185348,9770.718434
115.653771,1378.971896,592.164754,9696.697840
115.654079,1378.971896,592.164754,9622.677246
115.654387,1149.143247,518.144159,9844.739029
115.654695,1378.971896,370.102971,10362.883188
115.655003,1302.362347,296.082377,9992.780217
115.655311,1302.362347,222.061783,10140.821405
115.655620,1378.971896,148.041188,10066.800811
115.655928,1072.533697,370.102971,10066.800811
115.656236,1225.752797,444.123565,10066.800811
115.656544,1225.752797,740.205942,9918.759623
115.656852,1762.019645,592.164754,9474.636058
115.657160,1685.410096,962.267725,9622.677246
115.657468,1762.019645,962.267725,9548.656652
115.657776,1532.190996,962.267725,9548.656652
115.658084,1685.410096,962.267725,8956.491898
115.658393,1685.410096,888.247130,9104.533087
115.658701,1685.410096,1036.288319,9252.574275
115.659009,1838.629195,962.267725,9400.615463
115.659317,1532.190996,518.144159,9474.636058
115.659625,1072.533697,444.123565,9548.656652
115.659933,1149.143247,518.144159,9548.656652
115.660241,1302.362347,148.041188,9622.677246
115.660549,995.924147,222.061783,9474.636058
115.660857,842.705048,-74.020594,9622.677246
115.661165,1149.143247,-222.061783,9696.697840
115.661474,919.314598,-222.061783,9622.677246
115.661782,842.705048,-74.020594,9474.636058
115.662090,919.314598,-0.000000,9622.677246
115.662398,689.485948,-0.000000,9474.636058
115.662706,766.095498,-148.041188,9474.636058
115.663014,612.876398,-0.000000,9474.636058
115.663322,842.705048,-0.000000,9400.615463
115.663630,612.876398,-0.000000,9474.636058
115.663938,459.657299,370.102971,9548.656652
115.664246,153.219100,-0.000000,9622.677246
115.664555,76.609550,222.061783,9030.512492
115.664863,0.000000,-0.000000,9918.759623
115.665171,-153.219100,-0.000000,9622.677246
115.665479,-383.047749,-0.000000,9474.636058
115.665787,-229.828649,-0.000000,9474.636058
115.666095,-536.266849,-74.020594,9548.656652
115.666403,-229.828649,296.082377,9696.697840
115.666711,-153.219100,-296.082377,9696.697840
115.667019,-766.095498,-444.123565,9622.677246
115.667328,-612.876398,-222.061783,9696.697840
115.667636,-1302.362347,-148.041188,9696.697840
115.667944,-1072.533697,-74.020594,9770.718434
115.668252,-1302.362347,-222.061783,9844.739029
115.668560,-766.095498,-0.000000,9844.739029
115.668868,-689.485948,-74.020594,9474.636058
115.669176,-612.876398,-0.000000,9918.759623
115.669484,-612.876398,222.061783,9770.718434
115.669792,-612.876398,-0.000000,9474.636058
115.670100,0.000000,-0.000000,9326.594869
115.670409,-229.828649,-0.000000,9400.615463
115.670717,0.000000,-0.000000,9326.594869
115.671025,-306.438199,-0.000000,9622.677246
115.671333,0.000000,-0.000000,10066.800811
115.671641,0.000000,-296.082377,9696.697840
115.671949,0.000000,-296.082377,10066.800811
115.672257,0.000000,-370.102971,9918.759623
115.672565,383.047749,-370.102971,9770.718434
115.672873,383.047749,-0.000000,9844.739029
115.673181,842.705048,-0.000000,9696.697840
115.673490,842.705048,-0.000000,9548.656652
115.673798,1149.143247,-0.000000,9474.636058
115.674106,1532.190996,-0.000000,9622.677246
115.674414,1762.019645,-0.000000,9474.636058
115.674722,1762.019645,148.041188,9622.677246
115.675030,1762.019645,370.102971,9918.759623
115.675338,1532.190996,370.102971,9844.739029
115.675646,1532.190996,370.102971,9696.697840
115.675954,1991.848295,740.205942,9696.697840
115.676263,1838.629195,666.185348,9548.656652
115.676571,2834.553343,370.102971,9548.656652
115.676879,2451.505594,740.205942,9770.718434
115.677187,2528.115143,592.164754,9326.594869
115.677495,2221.676944,592.164754,9474.636058
115.677803,2145.067394,518.144159,9770.718434
115.678111,2145.067394,592.164754,9844.739029
115.678419,1838.629195,740.205942,9696.697840
115.678727,1915.238745,888.247130,9770.718434
115.679035,2145.067394,740.205942,9844.739029
115.679344,2374.896044,666.185348,9696.697840
115.679652,2221.676944,740.205942,9548.656652
115.679960,2451.505594,962.267725,9474.636058
115.680268,2068.457845,962.267725,9474.636058
115.680576,2068.457845,962.267725,9400.615463
115.680884,1685.410096,814.226536,9548.656652
115.681192,2145.067394,592.164754,9696.697840
115.681500,1532.190996,444.123565,9474.636058
115.681808,1532.190996,740.205942,9474.636058
115.682116,1072.533697,-0.000000,9326.594869
115.682425,842.705048,444.123565,9622.677246
115.682733,1072.533697,296.082377,9474.636058
115.683041,919.314598,-0.000000,9474.636058
115.683349,842.705048,-0.000000,9622.677246
115.683657,459.657299,-0.000000,9622.677246
115.683965,689.485948,-74.020594,9326.594869
115.684273,612.876398,-444.123565,9178.553681
115.684581,306.438199,148.041188,9474.636058
115.684889,536.266849,-74.020594,9326.594869
115.685198,229.828649,-0.000000,9474.636058
115.685506,0.000000,-222.061783,9474.636058
115.685814,-229.828649,-444.123565,9474.636058
115.686122,0.000000,-370.102971,9844.739029
115.686430,0.000000,-518.144159,9474.636058
115.686738,-536.266849,-296.082377,9400.615463
115.687046,-306.438199,-74.020594,9252.574275
115.687354,-536.266849,-222.061783,9474.636058
115.687662,-536.266849,-296.082377,9474.636058
115.687970,-766.095498,-222.061783,9474.636058
115.688279,-689.485948,-74.020594,9548.656652
115.688587,-766.095498,-222.061783,9696.697840
115.688895,-689.485948,-222.061783,9696.697840
115.689203,-1149.143247,-148.041188,9770.718434
115.689511,-1302.362347,-0.000000,9770.718434
115.689819,-1378.971896,-0.000000,9770.718434
115.690127,-1455.581446,-222.061783,9696.697840
115.690435,-1532.190996,-222.061783,9770.718434
115.690743,-1225.752797,-0.000000,9770.718434
115.691051,-842.705048,-0.000000,9918.759623
115.691360,-536.266849,-0.000000,9696.697840
115.691668,-1302.362347,-148.041188,9770.718434
115.691976,-383.047749,-296.082377,9548.656652
115.692284,-689.485948,-0.000000,9696.697840
115.692592,-842.705048,-0.000000,9696.697840
115.692900,-689.485948,222.061783,9696.697840
115.693208,-536.266849,222.061783,9622.677246
115.693516,-76.609550,-296.082377,9844.739029
115.693824,306.438199,-0.000000,9992.780217
115.694133,536.266849,-74.020594,9474.636058
115.694441,76.609550,296.082377,9474.636058
115.694749,383.047749,-0.000000,9622.677246
115.695057,459.657299,-0.000000,9770.718434
115.695365,842.705048,148.041188,9474.636058
115.695673,995.924147,222.061783,9400.615463
115.695981,1225.752797,-0.000000,9474.636058
115.696289,1378.971896,148.041188,9474.636058
115.696597,1685.410096,370.102971,9474.636058
115.696905,1685.410096,370.102971,9548.656652
115.697214,1838.629195,592.164754,9622.677246
115.697522,1991.848295,296.082377,9696.697840
115.697830,1838.629195,222.061783,9696.697840
115.698138,1685.410096,148.041188,9548.656652
115.698446,1915.238745,148.041188,9474.636058
115.698754,1838.629195,-0.000000,9622.677246
115.699062,2298.286494,296.082377,9696.697840
115.699370,2068.457845,444.123565,9696.697840
115.699678,2068.457845,666.185348,9770.718434
115.699986,2298.286494,740.205942,9770.718434
115.700295,2221.676944,296.082377,9696.697840
115.700603,1991.848295,444.123565,9622.677246
115.700911,1915.238745,518.144159,9918.759623
115.701219,1991.848295,740.205942,9474.636058
115.701527,2374.896044,666.185348,9622.677246
115.701835,2221.676944,740.205942,9400.615463
115.702143,2145.067394,814.226536,9326.594869
115.702451,2298.286494,1110.308913,9104.533087
115.702759,2221.676944,962.267725,9104.533087
115.703068,2374.896044,814.226536,9252.574275
115.703376,2068.457845,888.247130,9178.553681
115.703684,2451.505594,814.226536,9474.636058
115.703992,1608.800546,444.123565,9326.594869
115.704300,1838.629195,666.185348,9326.594869
115.704608,1302.362347,296.082377,9474.636058
115.704916,1072.533697,-0.000000,9918.759623
115.705224,919.314598,-0.000000,9992.780217
115.705532,919.314598,-222.061783,9770.718434
115.705840,612.876398,-74.020594,9844.739029
115.706149,919.314598,-370.102971,9770.718434
115.706457,995.924147,-518.144159,9474.636058
115.706765,612.876398,-0.000000,9326.594869
115.707073,919.314598,-0.000000,9326.594869
115.707381,536.266849,-0.000000,9252.574275
115.707689,459.657299,-0.000000,9326.594869
115.707997,459.657299,-0.000000,9252.574275
115.708305,459.657299,-0.000000,9474.636058
115.708613,383.047749,-148.041188,9474.636058
115.708921,0.000000,-0.000000,9622.677246
115.709230,0.000000,-0.000000,9696.697840
115.709538,-229.828649,-0.000000,9474.636058
115.709846,-306.438199,-222.061783,9622.677246
115.710154,-383.047749,-222.061783,9696.697840
115.710462,-459.657299,-0.000000,10140.821405
115.710770,-459.657299,-370.102971,9918.759623
115.711078,-689.485948,-0.000000,10066.800811
115.711386,-766.095498,-0.000000,10214.842000
115.711694,-1072.533697,-0.000000,9844.739029
115.712003,-1532.190996,-296.082377,9770.718434
115.712311,-1225.752797,-74.020594,9844.739029
115.712619,-1532.190996,-148.041188,10066.800811
115.712927,-1762.019645,-148.041188,10214.842000
115.713235,-995.924147,-444.123565,10066.800811
115.713543,-842.705048,370.102971,9844.739029
115.713851,-766.095498,296.082377,10066.800811
115.714159,-689.485948,222.061783,10066.800811
115.714467,-919.314598,370.102971,9548.656652
115.714775,-766.095498,518.144159,9474.636058
115.715084,-383.047749,370.102971,9474.636058
115.715392,-689.485948,666.185348,9474.636058
115.715700,0.000000,148.041188,9474.636058
115.716008,-229.828649,-0.000000,9474.636058
115.716316,0.000000,370.102971,9622.677246
115.716624,0.000000,-0.000000,9770.718434
115.716932,0.000000,-222.061783,9844.739029
115.717240,459.657299,-0.000000,9992.780217
115.717548,459.657299,-0.000000,9918.759623
115.717856,612.876398,-148.041188,9622.677246
115.718165,995.924147,-0.000000,9844.739029
115.718473,1149.143247,-0.000000,9918.759623
115.718781,1532.190996,148.041188,10066.800811
115.719089,1378.971896,148.041188,9548.656652
115.719397,1532.190996,296.082377,9548.656652
115.719705,1378.971896,296.082377,9548.656652
115.720013,1685.410096,518.144159,9622.677246
115.720321,2298.286494,-0.000000,9474.636058
115.720629,2221.676944,-0.000000,9622.677246
115.720938,2604.724693,-0.000000,9474.636058
115.721246,2298.286494,444.123565,9474.636058
115.721554,2068.457845,444.123565,9548.656652
115.721862,2451.505594,444.123565,9474.636058
115.722170,2145.067394,74.020594,9548.656652
115.722478,2068.457845,370.102971,9622.677246
115.722786,2451.505594,222.061783,9770.718434
115.723094,2221.676944,444.123565,9696.697840
115.723402,2145.067394,666.185348,9548.656652
115.723710,1532.190996,962.267725,9770.718434
115.724019,2221.676944,888.247130,9400.615463
115.724327,2068.457845,962.267725,9104.533087
115.724635,2145.067394,1110.308913,9178.553681
115.724943,2068.457845,1110.308913,9104.533087
115.725251,2221.676944,1184.329507,9104.533087
115.725559,1532.190996,814.226536,9326.594869
115.725867,1762.019645,814.226536,9400.615463
115.726175,1532.190996,370.102971,9326.594869
115.726483,1302.362347,592.164754,9474.636058
115.726791,1149.143247,444.123565,9770.718434
115.727100,1149.143247,370.102971,9918.759623
115.727408,842.705048,222.061783,9622.677246
115.727716,689.485948,-0.000000,9770.718434
115.728024,536.266849,-74.020594,9844.739029
115.728332,842.705048,-74.020594,9992.780217
115.728640,842.705048,-0.000000,9844.739029
115.728948,766.095498,-0.000000,9548.656652
115.729256,766.095498,222.061783,9474.636058
115.729564,689.485948,-0.000000,9474.636058
115.729873,306.438199,-296.082377,9474.636058
115.730181,306.438199,-518.144159,9474.636058
115.730489,0.000000,-740.205942,9178.553681
115.730797,0.000000,-148.041188,9696.697840
115.731105,-153.219100,-296.082377,9770.718434
115.731413,0.000000,-222.061783,9474.636058
115.731721,0.000000,-148.041188,9474.636058
115.732029,-383.047749,-0.000000,9622.677246
115.732337,-306.438199,-296.082377,9622.677246
115.732645,0.000000,-370.102971,9474.636058
115.732954,-612.876398,-296.082377,9992.780217
115.733262,-306.438199,-592.164754,9400.615463
115.733570,-1072.533697,-74.020594,9474.636058
115.733878,-919.314598,-222.061783,9770.718434
115.734186,-1072.533697,-222.061783,10066.800811
115.734494,-1225.752797,-74.020594,9548.656652
115.734802,-995.924147,-370.102971,9992.780217
115.735110,-766.095498,-0.000000,9844.739029
115.735418,-995.924147,-74.020594,9696.697840
115.735726,-1378.971896,-0.000000,9696.697840
115.736034,-536.266849,370.102971,9918.759623
115.736342,-689.485948,370.102971,9474.636058
115.736650,-689.485948,444.123565,9622.677246
115.736958,-459.657299,370.102971,9474.636058
115.737266,-459.657299,518.144159,9696.697840
115.737574,-306.438199,518.144159,9622.677246
115.737882,153.219100,-74.020594,9548.656652
115.738190,0.000000,-0.000000,9696.697840
115.738498,-153.219100,-0.000000,9696.697840
115.738806,76.609550,-0.000000,9770.718434
115.739114,306.438199,-0.000000,9696.697840
115.739422,459.657299,-0.000000,9844.739029
115.739730,766.095498,-148.041188,9696.697840
115.740038,1455.581446,-0.000000,9622.677246
115.740346,1072.533697,296.082377,9918.759623
115.740654,1455.581446,666.185348,9622.677246
115.740962,1915.238745,296.082377,9548.656652
115.741270,1685.410096,296.082377,9474.636058
115.741578,1685.410096,296.082377,9622.677246
115.741886,1762.019645,370.102971,9474.636058
115.742194,2298.286494,222.061783,9548.656652
115.742502,2221.676944,444.123565,9770.718434
115.742810,2145.067394,-0.000000,9844.739029
115.743118,1838.629195,222.061783,9918.759623
115.743426,2145.067394,148.041188,9548.656652
115.743734,1838.629195,222.061783,9548.656652
115.744042,1915.238745,296.082377,9622.677246
115.744350,1991.848295,444.123565,9474.636058
115.744658,1838.629195,814.226536,9696.697840
115.744966,1838.629195,296.082377,9696.697840
115.745274,1838.629195,592.164754,9548.656652
115.745582,2145.067394,296.082377,9326.594869
115.745890,1838.629195,740.205942,9474.636058
115.746198,1762.019645,740.205942,9400.615463
115.746506,1838.629195,1036.288319,9400.615463
115.746814,1838.629195,962.267725,8956.491898
115.747122,1915.238745,962.267725,9030.512492
115.747430,1915.238745,962.267725,9178.553681
115.747738,1838.629195,740.205942,9030.512492
115.748046,1149.143247,666.185348,9400.615463
115.748354,1225.752797,518.144159,9326.594869
115.748662,1149.143247,518.144159,9548.656652
115.748970,919.314598,592.164754,9696.697840
115.749278,536.266849,148.041188,9918.759623
115.749586,459.657299,-296.082377,9548.656652
115.749894,1072.533697,-370.102971,9844.739029
115.750202,612.876398,-0.000000,9474.636058
115.750510,229.828649,-222.061783,9696.697840
115.750818,536.266849,-148.041188,9474.636058
115.751126,612.876398,-0.000000,9474.636058
115.751434,766.095498,-0.000000,9104.533087
115.751742,229.828649,-0.000000,9178.553681
115.752050,306.438199,-74.020594,9474.636058
115.752358,76.609550,-0.000000,9474.636058
115.752666,0.000000,-222.061783,9474.636058
115.752974,0.000000,-148.041188,9696.697840
115.753282,-153.219100,-74.020594,9474.636058
115.753590,-383.047749,-0.000000,9622.677246
115.753898,-536.266849,-74.020594,9696.697840
115.754206,-459.657299,-148.041188,9696.697840
115.754514,-612.876398,-222.061783,9918.759623
115.754822,0.000000,-666.185348,9844.739029
115.755130,-1225.752797,-222.061783,9844.739029
115.755438,-459.657299,-518.144159,10140.821405
115.755746,-766.095498,-296.082377,9844.739029
115.756054,-995.924147,-296.082377,9770.718434
115.756362,-1149.143247,-296.082377,9844.739029
115.756670,-1302.362347,-370.102971,9992.780217
115.756978,-1378.971896,-222.061783,9770.718434
115.757286,-766.095498,-148.041188,9622.677246
115.757594,-459.657299,-0.000000,9474.636058
115.757902,-306.438199,148.041188,9696.697840
115.758210,-229.828649,444.123565,9326.594869
115.758518,-306.438199,592.164754,9400.615463
115.758826,0.000000,592.164754,9474.636058
115.759134,-153.219100,740.205942,9548.656652
115.759442,-536.266849,-0.000000,9104.533087
115.759750,-153.219100,592.164754,9696.697840
115.760058,-229.828649,-148.041188,10066.800811
115.760366,153.219100,-444.123565,9918.759623
115.760674,0.000000,-0.000000,9696.697840
115.760982,153.219100,-296.082377,9844.739029
115.761290,229.828649,-148.041188,9992.780217
115.761598,383.047749,-148.041188,10066.800811
115.761906,612.876398,-370.102971,9918.759623
115.762214,1455.581446,-0.000000,9548.656652
115.762522,1149.143247,444.123565,9622.677246
115.762830,1608.800546,222.061783,9992.780217
115.763138,1838.629195,444.123565,9474.636058
115.763446,1838.629195,592.164754,9474.636058
115.763754,1838.629195,148.041188,9474.636058
115.764062,1838.629195,444.123565,9622.677246
115.764370,2221.676944,296.082377,10066.800811
115.764678,2145.067394,296.082377,9696.697840
115.764986,2681.334243,296.082377,9252.574275
115.765294,1915.238745,592.164754,9622.677246
115.765602,2451.505594,592.164754,9474.636058
115.765910,2374.896044,666.185348,9474.636058
115.766218,2298.286494,740.205942,9474.636058
115.766526,2451.505594,592.164754,9548.656652
115.766834,2221.676944,518.144159,9770.718434
115.767142,1762.019645,370.102971,9918.759623
115.767450,2451.505594,296.082377,9918.759623
115.767758,1685.410096,592.164754,9622.677246
115.768066,2068.457845,962.267725,9696.697840
115.768374,1838.629195,814.226536,9474.636058
115.768682,2068.457845,1332.370696,9400.615463
115.768990,1915.238745,1332.370696,9326.594869
115.769298,2145.067394,1110.308913,9104.533087
115.769606,1991.848295,1110.308913,9178.553681
115.769914,2221.676944,962.267725,9178.553681
115.770222,1302.362347,962.267725,9326.594869
115.770530,1225.752797,888.247130,9474.636058
115.770838,689.485948,740.205942,9548.656652
115.771146,612.876398,370.102971,9770.718434
115.771454,306.438199,-148.041188,9918.759623
115.771762,0.000000,-370.102971,9918.759623
115.772070,0.000000,-74.020594,9844.739029
115.772378,153.219100,74.020594,10140.821405
115.772686,0.000000,-296.082377,9918.759623
115.772994,229.828649,-222.061783,9548.656652
115.773302,0.000000,-296.082377,9474.636058
115.773610,76.609550,-148.041188,9178.553681
115.773918,0.000000,-0.000000,9326.594869
115.774226,0.000000,-666.185348,9178.553681
115.774534,153.219100,-444.123565,9326.594869
115.774842,-229.828649,-518.144159,9400.615463
115.775150,-536.266849,-444.123565,9474.636058
115.775458,-689.485948,-592.164754,9548.656652
115.775766,-536.266849,-592.164754,9474.636058
115.776074,-689.485948,-370.102971,9474.636058
115.776382,-1149.143247,-518.144159,9474.636058
115.776690,-612.876398,-370.102971,9474.636058
115.776998,-612.876398,-444.123565,9770.718434
115.777306,-612.876398,-444.123565,9474.636058
115.777614,-536.266849,-74.020594,9844.739029
115.777922,-995.924147,-148.041188,9622.677246
115.778230,-842.705048,-148.041188,9696.697840
115.778539,-842.705048,-222.061783,9474.636058
115.778847,-766.095498,-0.000000,9696.697840
115.779155,-1378.971896,-74.020594,9622.677246
115.779463,-766.095498,444.123565,9696.697840
115.779771,-842.705048,222.061783,9992.780217
115.780079,-536.266849,222.061783,9844.739029
115.780387,-612.876398,296.082377,9548.656652
115.780695,-459.657299,370.102971,9770.718434
115.781003,-536.266849,370.102971,9696.697840
115.781311,0.000000,-0.000000,9918.759623
115.781619,-153.219100,222.061783,9992.780217
115.781927,153.219100,592.164754,9696.697840
115.782235,76.609550,-0.000000,9770.718434
115.782543,306.438199,370.102971,9622.677246
115.782851,689.485948,222.061783,9696.697840
115.783159,766.095498,148.041188,9474.636058
115.783467,995.924147,370.102971,9696.697840
115.783775,1149.143247,296.082377,9400.615463
115.784083,1225.752797,148.041188,9622.677246
115.784391,1608.800546,-0.000000,9696.697840
115.784699,1991.848295,-148.041188,9474.636058
115.785007,1532.190996,222.061783,9622.677246
115.785315,1915.238745,370.102971,9400.615463
115.785623,1915.238745,444.123565,9548.656652
115.785931,1915.238745,296.082377,9548.656652
115.786239,2221.676944,592.164754,10066.800811
115.786547,1915.238745,148.041188,9770.718434
115.786855,1532.190996,296.082377,9770.718434
115.787163,2221.676944,592.164754,9474.636058
115.787471,2068.457845,518.144159,9770.718434
115.787779,2298.286494,444.123565,9770.718434
115.788087,2221.676944,518.144159,9770.718434
115.788395,2298.286494,592.164754,9622.677246
115.788703,2068.457845,370.102971,9622.677246
115.789011,1838.629195,222.061783,9696.697840
115.789319,1915.238745,592.164754,10140.821405
115.789627,2604.724693,-0.000000,9918.759623
115.789935,1838.629195,888.247130,9770.718434
115.790243,2068.457845,962.267725,9474.636058
115.790551,2145.067394,1110.308913,9178.553681
115.790859,2145.067394,1332.370696,9104.533087
115.791167,1991.848295,1480.411884,9252.574275
115.791475,1991.848295,1554.432478,9400.615463
115.791783,1915.238745,1258.350101,9104.533087
115.792091,1762.019645,888.247130,9326.594869
115.792399,1302.362347,1036.288319,9474.636058
115.792707,919.314598,666.185348,9622.677246
115.793015,689.485948,592.164754,9770.718434
115.793323,459.657299,296.082377,9918.759623
115.793631,459.657299,-444.123565,10436.903782
115.793939,76.609550,-444.123565,10510.924376
115.794247,229.828649,-444.123565,10436.903782
115.794555,-229.828649,-740.205942,10510.924376
115.794863,0.000000,-592.164754,10140.821405
115.795171,0.000000,-222.061783,9770.718434
115.795479,153.219100,-222.061783,9622.677246
115.795787,383.047749,-0.000000,9400.615463
115.796095,689.485948,-148.041188,8956.491898
115.796403,0.000000,-148.041188,8734.430116
115.796711,306.438199,148.041188,8882.471304
115.797019,0.000000,-0.000000,8956.491898
115.797327,-383.047749,-0.000000,8882.471304
115.797635,-383.047749,-74.020594,9178.553681
115.797943,-383.047749,-74.020594,9326.594869
115.798251,-612.876398,-74.020594,9474.636058
115.798559,-766.095498,-370.102971,9474.636058
115.798867,-842.705048,-666.185348,9548.656652
115.799175,-1149.143247,-74.020594,9844.739029
115.799483,-1225.752797,-518.144159,10140.821405
115.799791,-1149.143247,-370.102971,9844.739029
115.800099,-995.924147,-444.123565,9770.718434
115.800407,-1072.533697,-370.102971,10066.800811
115.800715,-1302.362347,-444.123565,10214.842000
115.801023,-1685.410096,-666.185348,9770.718434
115.801331,-1072.533697,-370.102971,10214.842000
115.801639,-766.095498,-74.020594,9992.780217
115.801947,-1225.752797,-0.000000,10436.903782
115.802255,-919.314598,-0.000000,9918.759623
115.802563,-459.657299,296.082377,9770.718434
115.802871,-229.828649,444.123565,9474.636058
115.803179,76.609550,592.164754,9770.718434
115.803487,76.609550,592.164754,9474.636058
115.803795,76.609550,592.164754,9474.636058
115.804103,229.828649,666.185348,9104.533087
115.804411,766.095498,518.144159,9326.594869
115.804719,536.266849,296.082377,9474.636058
115.805027,612.876398,222.061783,9548.656652
115.805335,536.266849,-0.000000,9622.677246
115.805643,1072.533697,-0.000000,9918.759623
115.805951,612.876398,-0.000000,9918.759623
115.806259,612.876398,-370.102971,9622.677246
115.806567,1302.362347,-0.000000,10288.862594
115.806875,995.924147,-74.020594,9474.636058
115.807183,1685.410096,-0.000000,9844.739029
115.807491,1532.190996,222.061783,9992.780217
115.807799,1685.410096,296.082377,9844.739029
115.808107,1915.238745,370.102971,9918.759623
115.808415,1915.238745,296.082377,9622.677246
115.808723,1838.629195,666.185348,9844.739029
115.809031,1991.848295,592.164754,9622.677246
115.809339,2451.505594,370.102971,9474.636058
115.809647,2528.115143,518.144159,9474.636058
115.809955,2604.724693,666.185348,9474.636058
115.810263,2528.115143,666.185348,9400.615463
115.810571,2987.772442,888.247130,9474.636058
115.810879,2757.943793,592.164754,9696.697840
115.811187,3064.381992,592.164754,9474.636058
115.811495,2528.115143,814.226536,9622.677246
115.811803,2068.457845,888.247130,9918.759623
115.812111,1991.848295,666.185348,9474.636058
115.812419,1838.629195,740.205942,9622.677246
115.812727,1762.019645,1184.329507,9474.636058
115.813035,1838.629195,1776.494261,9548.656652
115.813343,2068.457845,1184.329507,9326.594869
115.813651,2221.676944,1258.350101,9400.615463
115.813959,1991.848295,1406.391290,9474.636058
115.814267,1685.410096,962.267725,9400.615463
115.814575,1149.143247,740.205942,9474.636058
115.814883,1072.533697,518.144159,9548.656652
115.815191,536.266849,296.082377,9696.697840
115.815499,-153.219100,-74.020594,9918.759623
115.815807,76.609550,-148.041188,10214.842000
115.816115,0.000000,-666.185348,10436.903782
115.816423,-689.485948,-666.185348,9918.759623
115.816731,0.000000,-444.123565,9622.677246
115.817039,0.000000,-444.123565,9474.636058
115.817347,383.047749,-148.041188,9326.594869
115.817655,229.828649,-148.041188,9400.615463
115.817963,383.047749,-0.000000,9326.594869
115.818271,0.000000,-370.102971,8882.471304
115.818579,153.219100,-370.102971,8956.491898
115.818887,0.000000,-518.144159,9252.574275
115.819195,-229.828649,-370.102971,9474.636058
115.819503,-383.047749,-444.123565,9474.636058
115.819811,-459.657299,-814.226536,9400.615463
115.820119,-536.266849,-740.205942,9474.636058
115.820427,-383.047749,-666.185348,9918.759623
115.820735,-612.876398,-518.144159,9918.759623
115.821043,-536.266849,-222.061783,9622.677246
115.821351,-689.485948,-666.185348,9178.553681
115.821659,-383.047749,-0.000000,9474.636058
115.821967,-612.876398,-0.000000,9474.636058
115.822275,-459.657299,-0.000000,9696.697840
115.822583,-1072.533697,-74.020594,9696.697840
115.822891,-766.095498,-0.000000,10066.800811
115.823199,-536.266849,-0.000000,9844.739029
115.823507,-306.438199,-296.082377,9696.697840
115.823815,-612.876398,-0.000000,9844.739029
115.824123,-459.657299,370.102971,9844.739029
115.824431,-459.657299,148.041188,9548.656652
115.824739,-383.047749,740.205942,9622.677246
115.825047,-383.047749,592.164754,9770.718434
115.825355,306.438199,592.164754,9770.718434
115.825663,0.000000,444.123565,9548.656652
115.825971,-153.219100,666.185348,10066.800811
115.826279,153.219100,296.082377,9696.697840
115.826587,229.828649,592.164754,9696.697840
115.826895,459.657299,370.102971,9622.677246
115.827203,536.266849,148.041188,9770.718434
115.827511,766.095498,-0.000000,9622.677246
115.827819,919.314598,-0.000000,9918.759623
115.828127,383.047749,-296.082377,10066.800811
115.828435,995.924147,-0.000000,9918.759623
115.828743,1225.752797,-0.000000,9844.739029
115.829051,1302.362347,-0.000000,9548.656652
115.829359,1762.019645,-0.000000,9696.697840
115.829667,1532.190996,296.082377,9696.697840
115.829975,1685.410096,222.061783,9696.697840
115.830283,1915.238745,-0.000000,9548.656652
115.830591,1762.019645,-74.020594,9696.697840
115.830899,2145.067394,-0.000000,9770.718434
115.831207,2068.457845,-0.000000,9696.697840
115.831515,2145.067394,518.144159,9474.636058
115.831823,2068.457845,370.102971,9474.636058
115.832132,2298.286494,370.102971,9474.636058
115.832440,2374.896044,518.144159,9400.615463
115.832748,2911.162892,444.123565,9252.574275
115.833056,2145.067394,814.226536,9400.615463
115.833364,2145.067394,814.226536,9548.656652
115.833672,2451.505594,444.123565,9548.656652
115.833980,2145.067394,814.226536,9548.656652
115.834288,1838.629195,962.267725,9770.718434
115.834596,1685.410096,1036.288319,9622.677246
115.834904,1532.190996,962.267725,9844.739029
115.835217,1838.629195,1184.329507,9696.697840
115.835525,1149.143247,1036.288319,9474.636058
115.835833,842.705048,1184.329507,9474.636058
115.836141,1608.800546,666.185348,9622.677246
115.836449,1225.752797,814.226536,9326.594869
115.836757,995.924147,592.164754,9474.636058
115.837064,919.314598,518.144159,9474.636058
115.837372,766.095498,148.041188,9696.697840
115.837680,536.266849,148.041188,9770.718434
115.837988,383.047749,-222.061783,9918.759623
115.838296,612.876398,-74.020594,9770.718434
115.838604,153.219100,-222.061783,9770.718434
115.838911,0.000000,-444.123565,9474.636058
115.839219,76.609550,-370.102971,9844.739029
115.839527,0.000000,-222.061783,9696.697840
115.839835,153.219100,-592.164754,9548.656652
115.840143,0.000000,-148.041188,9474.636058
115.840451,306.438199,-370.102971,9104.533087
115.840758,229.828649,-0.000000,9252.574275
115.841066,76.609550,-74.020594,8956.491898
115.841374,-153.219100,-74.020594,9104.533087
115.841682,0.000000,-0.000000,9326.594869
115.841990,-306.438199,-74.020594,9400.615463
115.842298,0.000000,-222.061783,9474.636058
115.842605,-306.438199,-148.041188,9770.718434
115.842913,-689.485948,-74.020594,9474.636058
115.843221,-383.047749,-222.061783,10066.800811
115.843529,-536.266849,-518.144159,9622.677246
115.843837,-1072.533697,-370.102971,9918.759623
115.844145,-1149.143247,-296.082377,9844.739029
115.844452,-1072.533697,-370.102971,10140.821405
115.844760,-919.314598,-296.082377,9992.780217
115.845068,-1225.752797,-444.123565,9622.677246
115.845376,-1072.533697,-74.020594,9844.739029
115.845684,-383.047749,-0.000000,9992.780217
115.845992,-766.095498,592.164754,9844.739029
115.846299,-383.047749,444.123565,9770.718434
115.846607,-383.047749,592.164754,9548.656652
115.846915,0.000000,592.164754,9548.656652
115.847223,306.438199,740.205942,9474.636058
115.847531,229.828649,666.185348,9696.697840
115.847839,536.266849,-0.000000,9400.615463
115.848146,306.438199,518.144159,9252.574275
115.848454,306.438199,518.144159,9548.656652
115.848762,689.485948,592.164754,9400.615463
115.849070,689.485948,296.082377,9474.636058
115.849378,536.266849,222.061783,9474.636058
115.849686,383.047749,592.164754,9918.759623
115.849993,1072.533697,-222.061783,9770.718434
115.850301,1149.143247,-148.041188,10140.821405
115.850609,1149.143247,-222.061783,9918.759623
115.850917,1378.971896,-0.000000,9696.697840
115.851225,1685.410096,-0.000000,9548.656652
115.851533,1302.362347,-0.000000,9474.636058
115.851840,1608.800546,-0.000000,9696.697840
115.852148,1608.800546,-0.000000,9844.739029
115.852456,1838.629195,-0.000000,9992.780217
115.852764,1685.410096,-74.020594,9844.739029
115.853072,1915.238745,-0.000000,9770.718434
115.853380,1991.848295,-0.000000,9770.718434
115.853687,2145.067394,518.144159,9548.656652
115.853995,2298.286494,666.185348,9474.636058
115.854303,2374.896044,814.226536,9474.636058
115.854611,2681.334243,1036.288319,9474.636058
115.854919,2604.724693,1184.329507,9548.656652
115.855227,2604.724693,592.164754,9326.594869
115.855534,2834.553343,888.247130,9474.636058
115.855842,2298.286494,888.247130,9474.636058
115.856150,1685.410096,1036.288319,9696.697840
115.856458,1455.581446,740.205942,9844.739029
115.856766,1532.190996,888.247130,9844.739029
115.857074,995.924147,814.226536,9992.780217
115.857381,1608.800546,740.205942,9918.759623
115.857689,1302.362347,518.144159,9474.636058
115.857997,1378.971896,962.267725,9844.739029
115.858305,842.705048,1036.288319,9474.636058
115.858613,1149.143247,1110.308913,9548.656652
115.858921,1072.533697,740.205942,9474.636058
115.859228,995.924147,740.205942,9622.677246
115.859536,689.485948,296.082377,9622.677246
115.859844,153.219100,222.061783,9696.697840
115.860152,842.705048,-518.144159,9992.780217
115.860460,0.000000,-444.123565,9548.656652
115.860768,0.000000,-444.123565,9474.636058
115.861075,-229.828649,-592.164754,9622.677246
115.861383,0.000000,-518.144159,9622.677246
115.861691,0.000000,-444.123565,9474.636058
115.861999,229.828649,-296.082377,9548.656652
115.862307,229.828649,-370.102971,9696.697840
115.862615,536.266849,-740.205942,9252.574275
115.862922,-153.219100,-296.082377,9326.594869
115.863230,0.000000,-444.123565,9252.574275
115.863538,-459.657299,-592.164754,9474.636058
115.863846,-536.266849,-444.123565,9326.594869
115.864154,-383.047749,-518.144159,9622.677246
115.864462,-995.924147,-740.205942,9474.636058
115.864769,-1149.143247,-592.164754,9844.739029
115.865077,-766.095498,-666.185348,9992.780217
115.865385,-612.876398,-222.061783,9992.780217
115.865693,-459.657299,-74.020594,9696.697840
115.866001,-459.657299,-0.000000,9474.636058
115.866309,-306.438199,-0.000000,9548.656652
115.866616,-383.047749,296.082377,9474.636058
115.866924,0.000000,-0.000000,9622.677246
115.867232,-383.047749,740.205942,9844.739029
115.867540,-689.485948,296.082377,9622.677246
115.867848,0.000000,222.061783,9770.718434
115.868155,-459.657299,444.123565,9770.718434
115.868463,-153.219100,444.123565,9844.739029
115.868771,-229.828649,370.102971,9770.718434
115.869079,0.000000,592.164754,9548.656652
115.869387,0.000000,148.041188,9696.697840
115.869695,-306.438199,444.123565,9696.697840
115.870002,306.438199,518.144159,9474.636058
115.870310,-153.219100,370.102971,9770.718434
115.870618,306.438199,518.144159,9918.759623
115.870926,76.609550,148.041188,9844.739029
115.871234,306.438199,-74.020594,9918.759623
115.871542,459.657299,-148.041188,10214.842000
115.871849,459.657299,-0.000000,10140.821405
115.872157,459.657299,-518.144159,9992.780217
115.872465,842.705048,-296.082377,9844.739029
115.872773,1302.362347,-0.000000,10066.800811
115.873081,1455.581446,-0.000000,9548.656652
115.873389,1838.629195,-0.000000,9178.553681
115.873696,1991.848295,444.123565,9178.553681
115.874004,2145.067394,518.144159,9178.553681
115.874312,2451.505594,222.061783,9030.512492
115.874620,2068.457845,814.226536,9326.594869
115.874928,1991.848295,444.123565,9400.615463
115.875236,1608.800546,370.102971,9548.656652
115.875543,1991.848295,444.123565,9400.615463
115.875851,1915.238745,592.164754,9474.636058
115.876159,1532.190996,518.144159,9474.636058
115.876467,1532.190996,740.205942,10140.821405
115.876775,1455.581446,444.123565,9770.718434
115.877083,1838.629195,222.061783,9918.759623
115.877390,1915.238745,518.144159,9770.718434
115.877698,1915.238745,518.144159,9622.677246
115.878006,1455.581446,814.226536,9844.739029
115.878314,1762.019645,814.226536,9918.759623
115.878622,1532.190996,740.205942,9844.739029
115.878930,1072.533697,814.226536,9696.697840
115.879237,1685.410096,814.226536,9992.780217
115.879545,1455.581446,888.247130,9696.697840
115.879853,1378.971896,962.267725,9400.615463
115.880161,1072.533697,1110.308913,9474.636058
115.880469,1378.971896,1110.308913,9104.533087
115.880777,1532.190996,1036.288319,9326.594869
115.881084,1149.143247,888.247130,9252.574275
115.881392,766.095498,1332.370696,9400.615463
115.881700,1072.533697,296.082377,9326.594869
115.882008,612.876398,148.041188,9918.759623
115.882316,306.438199,-0.000000,9992.780217
115.882624,0.000000,-296.082377,9992.780217
115.882931,0.000000,-370.102971,9918.759623
115.883239,0.000000,-592.164754,10066.800811
115.883547,0.000000,-592.164754,9622.677246
115.883855,-153.219100,-888.247130,9992.780217
115.884163,0.000000,-296.082377,9844.739029
115.884471,153.219100,-444.123565,9400.615463
115.884778,306.438199,-0.000000,9548.656652
115.885086,0.000000,-0.000000,8956.491898
115.885394,0.000000,-0.000000,8956.491898
115.885702,0.000000,-0.000000,9030.512492
115.886010,-383.047749,296.082377,9252.574275
115.886318,0.000000,-0.000000,9474.636058
115.886625,-612.876398,-74.020594,9474.636058
115.886933,-766.095498,-296.082377,9474.636058
115.887241,-612.876398,-0.000000,9622.677246
115.887549,-689.485948,-222.061783,9696.697840
115.887857,-766.095498,-370.102971,9548.656652
115.888165,-612.876398,-370.102971,9770.718434
115.888472,-536.266849,-222.061783,9696.697840
115.888780,-536.266849,-296.082377,9918.759623
115.889088,-383.047749,-296.082377,9770.718434
115.889396,-919.314598,-666.185348,9548.656652
115.889704,-383.047749,-0.000000,9770.718434
115.890012,-459.657299,296.082377,9622.677246
115.890319,-383.047749,222.061783,9770.718434
115.890627,-153.219100,222.061783,9474.636058
115.890935,0.000000,370.102971,9474.636058
115.891243,306.438199,518.144159,9474.636058
115.891551,842.705048,-0.000000,9474.636058
115.891859,153.219100,296.082377,9474.636058
115.892166,383.047749,370.102971,9696.697840
115.892474,229.828649,222.061783,9474.636058
115.892782,459.657299,370.102971,9474.636058
115.893090,536.266849,-0.000000,9622.677246
115.893398,612.876398,-0.000000,9474.636058
115.893706,459.657299,-74.020594,9770.718434
115.894013,1149.143247,-296.082377,9474.636058
115.894321,995.924147,-0.000000,9474.636058
115.894629,1072.533697,-222.061783,9844.739029
115.894937,1225.752797,-222.061783,9548.656652
115.895245,1302.362347,-0.000000,9770.718434
115.895553,1455.581446,-0.000000,9474.636058
115.895860,1685.410096,-0.000000,9622.677246
115.896168,1838.629195,222.061783,9548.656652
115.896476,1608.800546,-0.000000,9770.718434
115.896784,1915.238745,74.020594,9548.656652
115.897092,1838.629195,518.144159,9844.739029
115.897400,2221.676944,444.123565,9548.656652
115.897707,2374.896044,592.164754,9548.656652
115.898015,2145.067394,666.185348,9400.615463
115.898323,2145.067394,962.267725,9474.636058
115.898631,2068.457845,592.164754,9548.656652
115.898939,2145.067394,888.247130,9696.697840
115.899247,2374.896044,740.205942,9770.718434
115.899554,2451.505594,1258.350101,9770.718434
115.899862,1991.848295,814.226536,9696.697840
115.900170,1991.848295,666.185348,9992.780217
115.900478,1608.800546,592.164754,9918.759623
115.900786,1532.190996,592.164754,9844.739029
115.901094,1455.581446,740.205942,9844.739029
115.901401,919.314598,740.205942,9992.780217
115.901709,1225.752797,666.185348,9844.739029
115.902017,1072.533697,1332.370696,9992.780217
115.902325,1302.362347,1258.350101,9474.636058
115.902633,1225.752797,962.267725,9400.615463
115.902941,1149.143247,962.267725,9400.615463
115.903248,842.705048,592.164754,9474.636058
115.903556,689.485948,592.164754,9548.656652
115.903864,766.095498,148.041188,9474.636058
115.904172,919.314598,-0.000000,9992.780217
115.904480,0.000000,148.041188,9844.739029
115.904788,0.000000,-592.164754,9696.697840
115.905095,153.219100,-444.123565,9844.739029
115.905403,0.000000,-666.185348,9622.677246
115.905711,153.219100,-296.082377,9474.636058
115.906019,0.000000,-592.164754,9474.636058
115.906327,229.828649,-222.061783,9548.656652
115.906635,0.000000,-74.020594,9178.553681
115.906942,153.219100,-0.000000,9178.553681
115.907250,76.609550,-296.082377,9178.553681
115.907558,0.000000,-370.102971,9326.594869
115.907866,-153.219100,-296.082377,9400.615463
115.908174,459.657299,-518.144159,9326.594869
115.908482,-229.828649,-592.164754,9474.636058
115.908789,-229.828649,-814.226536,9622.677246
115.909097,-306.438199,-888.247130,9474.636058
115.909405,-306.438199,-148.041188,9474.636058
115.909713,0.000000,-0.000000,9474.636058
115.910021,0.000000,148.041188,9474.636058
115.910329,-153.219100,-0.000000,9548.656652
115.910636,-153.219100,444.123565,9844.739029
115.910944,0.000000,370.102971,9474.636058
115.911252,-383.047749,222.061783,9548.656652
115.911560,-383.047749,-148.041188,9696.697840
115.911868,-612.876398,-74.020594,9918.759623
115.912176,-612.876398,222.061783,9696.697840
115.912483,-766.095498,444.123565,9770.718434
115.912791,-612.876398,370.102971,9918.759623
115.913099,0.000000,296.082377,9918.759623
115.913407,0.000000,296.082377,9770.718434
115.913715,0.000000,592.164754,9844.739029
115.914023,153.219100,592.164754,9474.636058
115.914330,306.438199,444.123565,9474.636058
115.914638,76.609550,518.144159,9696.697840
115.914946,306.438199,370.102971,9548.656652
115.915254,383.047749,296.082377,9696.697840
115.915562,612.876398,-0.000000,9696.697840
115.915870,842.705048,-0.000000,9844.739029
115.916177,612.876398,-444.123565,9548.656652
115.916485,842.705048,-296.082377,9918.759623
115.916793,1302.362347,-148.041188,9770.718434
115.917101,995.924147,-0.000000,9918.759623
115.917409,1225.752797,-0.000000,9548.656652
115.917716,1685.410096,370.102971,9474.636058
115.918024,2221.676944,740.205942,9548.656652
115.918332,1915.238745,666.185348,9770.718434
115.918640,2145.067394,296.082377,9622.677246
115.918948,1915.238745,518.144159,9474.636058
115.919256,1838.629195,444.123565,9548.656652
115.919563,1762.019645,370.102971,9622.677246
115.919871,1685.410096,296.082377,9622.677246
115.920179,1685.410096,370.102971,9770.718434
115.920487,1685.410096,666.185348,9918.759623
115.920795,1915.238745,370.102971,9696.697840
115.921103,1915.238745,370.102971,9770.718434
115.921410,2298.286494,370.102971,9696.697840
115.921718,1991.848295,740.205942,9770.718434
115.922026,1762.019645,740.205942,9770.718434
115.922334,1838.629195,592.164754,9474.636058
115.922642,1685.410096,740.205942,9548.656652
115.922950,1991.848295,518.144159,9474.636058
115.923257,1149.143247,814.226536,9696.697840
115.923565,1685.410096,1036.288319,9548.656652
115.923873,919.314598,518.144159,9474.636058
115.924181,1378.971896,666.185348,9104.533087
115.924489,1532.190996,814.226536,9474.636058
115.924797,1302.362347,814.226536,9326.594869
115.925104,1225.752797,666.185348,9400.615463
115.925412,1072.533697,-0.000000,9548.656652
115.925720,689.485948,-0.000000,9474.636058
115.926028,842.705048,-296.082377,9696.697840
115.926336,459.657299,-444.123565,9622.677246
115.926644,0.000000,-222.061783,9696.697840
115.926951,0.000000,-296.082377,9622.677246
115.927259,0.000000,-222.061783,9622.677246
115.927567,153.219100,-592.164754,9474.636058
115.927875,459.657299,-444.123565,9474.636058
115.928183,306.438199,-592.164754,9622.677246
115.928491,306.438199,-740.205942,9400.615463
115.928798,536.266849,-666.185348,9178.553681
115.929106,229.828649,-74.020594,9104.533087
115.929414,0.000000,-74.020594,8882.471304
115.929722,0.000000,-0.000000,9030.512492
115.930030,0.000000,-74.020594,9178.553681
115.930338,0.000000,-0.000000,9400.615463
115.930645,-153.219100,-296.082377,9474.636058
115.930953,-536.266849,-0.000000,9548.656652
115.931261,-536.266849,-0.000000,9770.718434
115.931569,-689.485948,-74.020594,9696.697840
115.931877,-383.047749,-0.000000,9844.739029
115.932185,-536.266849,-0.000000,9696.697840
115.932492,-612.876398,148.041188,9918.759623
115.932800,-612.876398,-222.061783,9992.780217
115.933108,-919.314598,-0.000000,9918.759623
115.933416,-1072.533697,370.102971,10362.883188
115.933724,-1072.533697,-0.000000,10066.800811
115.934032,-995.924147,-0.000000,9992.780217
115.934340,-919.314598,-0.000000,10214.842000
115.934647,-612.876398,-0.000000,9992.780217
115.934955,-1149.143247,222.061783,9918.759623
115.935263,-536.266849,592.164754,10140.821405
115.935571,-383.047749,518.144159,10140.821405
115.935879,-383.047749,370.102971,9844.739029
115.936187,229.828649,962.267725,10066.800811
115.936495,229.828649,518.144159,9696.697840
115.936803,536.266849,444.123565,9400.615463
115.937110,536.266849,444.123565,9326.594869
115.937418,689.485948,296.082377,9326.594869
115.937726,459.657299,296.082377,9844.739029
115.938034,1608.800546,-0.000000,10066.800811
115.938342,1072.533697,-74.020594,9474.636058
115.938650,919.314598,-0.000000,9770.718434
115.938958,1072.533697,-222.061783,9474.636058
115.939266,1072.533697,-222.061783,9844.739029
115.939573,1149.143247,-0.000000,9844.739029
115.939881,1378.971896,-0.000000,9696.697840
115.940189,1762.019645,-0.000000,9622.677246
115.940497,1915.238745,-74.020594,9548.656652
115.940805,2221.676944,-0.000000,9400.615463
115.941113,1838.629195,-0.000000,9474.636058
115.941421,1915.238745,296.082377,9326.594869
115.941729,2068.457845,444.123565,9696.697840
115.942036,2068.457845,592.164754,9474.636058
115.942344,2145.067394,740.205942,9400.615463
115.942652,2451.505594,740.205942,9326.594869
115.942960,2451.505594,666.185348,9474.636058
115.943268,2528.115143,740.205942,9326.594869
115.943576,2528.115143,1110.308913,9548.656652
115.943884,2451.505594,814.226536,9326.594869
115.944192,2145.067394,666.185348,9474.636058
115.944499,2068.457845,740.205942,9696.697840
115.944807,1532.190996,740.205942,9696.697840
115.945115,1608.800546,-0.000000,9770.718434
115.945423,1915.238745,592.164754,10066.800811
115.945731,919.314598,740.205942,9918.759623
115.946039,1302.362347,518.144159,9326.594869
115.946347,1149.143247,888.247130,9474.636058
115.946655,1378.971896,962.267725,9474.636058
115.946962,1149.143247,962.267725,9400.615463
115.947270,1072.533697,814.226536,9252.574275
115.947578,919.314598,518.144159,9622.677246
115.947886,536.266849,-0.000000,9474.636058
115.948194,995.924147,148.041188,9844.739029
115.948502,76.609550,-370.102971,9770.718434
115.948810,76.609550,-0.000000,9992.780217
115.949118,0.000000,-444.123565,9844.739029
115.949425,-306.438199,-444.123565,9770.718434
115.949733,0.000000,-666.185348,9696.697840
115.950041,0.000000,-296.082377,9548.656652
115.950349,0.000000,-592.164754,9622.677246
115.950657,153.219100,-888.247130,9326.594869
115.950965,76.609550,-592.164754,9326.594869
115.951273,0.000000,-148.041188,9104.533087
115.951581,0.000000,-74.020594,9474.636058
115.951888,0.000000,-0.000000,9326.594869
115.952196,0.000000,-222.061783,9326.594869
115.952504,0.000000,-444.123565,9178.553681
115.952812,-383.047749,-0.000000,9548.656652
115.953120,-459.657299,296.082377,9474.636058
115.953428,-536.266849,-74.020594,9696.697840
115.953736,-229.828649,-0.000000,9622.677246
115.954044,-153.219100,-0.000000,9474.636058
115.954351,-306.438199,222.061783,9770.718434
115.954659,-459.657299,370.102971,9918.759623
115.954967,0.000000,518.144159,9844.739029
115.955275,0.000000,-0.000000,10140.821405
115.955583,-536.266849,-0.000000,9992.780217
115.955891,-919.314598,-0.000000,10214.842000
115.956199,-842.705048,222.061783,9918.759623
115.956507,-459.657299,296.082377,9918.759623
115.956814,-612.876398,370.102971,9770.718434
115.957122,0.000000,370.102971,9992.780217
115.957430,0.000000,148.041188,9844.739029
115.957738,153.219100,666.185348,9696.697840
115.958046,536.266849,888.247130,9400.615463
115.958354,306.438199,814.226536,9548.656652
115.958662,306.438199,592.164754,9400.615463
115.958970,459.657299,814.226536,9548.656652
115.959278,536.266849,444.123565,9474.636058
115.959585,842.705048,148.041188,9474.636058
115.959893,536.266849,-0.000000,9696.697840
115.960201,689.485948,-222.061783,9992.780217
115.960509,995.924147,-444.123565,9474.636058
115.960817,842.705048,-222.061783,9696.697840
115.961125,919.314598,-148.041188,9548.656652
115.961433,1149.143247,-222.061783,9622.677246
115.961741,1149.143247,-74.020594,9548.656652
115.962048,1532.190996,-0.000000,9474.636058
115.962356,1608.800546,-0.000000,9474.636058
115.962664,1455.581446,-74.020594,9030.512492
115.962972,1455.581446,296.082377,9474.636058
115.963280,1915.238745,222.061783,9548.656652
115.963588,1838.629195,444.123565,9548.656652
115.963896,1838.629195,222.061783,9474.636058
115.964204,1532.190996,296.082377,9622.677246
115.964511,1991.848295,-74.020594,9548.656652
115.964819,2068.457845,296.082377,9622.677246
115.965127,1991.848295,148.041188,9474.636058
115.965435,2374.896044,518.144159,9474.636058
115.965743,1762.019645,740.205942,9696.697840
115.966051,2068.457845,444.123565,9548.656652
115.966359,1608.800546,814.226536,9548.656652
115.966667,1838.629195,666.185348,9696.697840
115.966974,1532.190996,666.185348,9548.656652
115.967282,1532.190996,518.144159,9622.677246
115.967590,1225.752797,888.247130,9104.533087
115.967898,1455.581446,814.226536,9696.697840
115.968206,1378.971896,962.267725,9474.636058
115.968514,1608.800546,1036.288319,9326.594869
115.968822,1685.410096,962.267725,9474.636058
115.969130,1302.362347,592.164754,9326.594869
115.969437,1072.533697,444.123565,9474.636058
115.969745,1072.533697,296.082377,9844.739029
115.970053,689.485948,-0.000000,9770.718434
115.970361,689.485948,-222.061783,10066.800811
115.970669,459.657299,-0.000000,9696.697840
115.970977,306.438199,-74.020594,9770.718434
115.971285,459.657299,-148.041188,9622.677246
115.971593,306.438199,-74.020594,9548.656652
115.971900,536.266849,-370.102971,9104.533087
115.972208,766.095498,-222.061783,9252.574275
115.972516,383.047749,-148.041188,9844.739029
115.972824,306.438199,-0.000000,9548.656652
115.973132,229.828649,-0.000000,9326.594869
115.973440,153.219100,-0.000000,9104.533087
115.973748,76.609550,-74.020594,9252.574275
115.974056,76.609550,-0.000000,9548.656652
115.974363,0.000000,-0.000000,9548.656652
115.974671,-536.266849,-370.102971,9548.656652
115.974979,-229.828649,-0.000000,9918.759623
115.975287,-306.438199,-74.020594,9696.697840
115.975595,-229.828649,-0.000000,9696.697840
115.975903,-306.438199,-0.000000,9622.677246
115.976211,-459.657299,-0.000000,9474.636058
115.976519,-536.266849,-0.000000,9696.697840
115.976826,-612.876398,-0.000000,10066.800811
115.977134,-536.266849,-74.020594,10066.800811
115.977442,-1225.752797,-0.000000,10066.800811
115.977750,-689.485948,-370.102971,9696.697840
115.978058,-766.095498,-74.020594,9992.780217
115.978366,-689.485948,-0.000000,9992.780217
115.978674,-536.266849,-0.000000,9918.759623
115.978982,-383.047749,222.061783,9548.656652
115.979289,-383.047749,-148.041188,9696.697840
115.979597,-306.438199,148.041188,9474.636058
115.979905,0.000000,518.144159,9770.718434
115.980213,-153.219100,518.144159,9178.553681
115.980521,536.266849,592.164754,9178.553681
115.980829,612.876398,370.102971,9474.636058
115.981137,689.485948,296.082377,9326.594869
115.981445,612.876398,-0.000000,9326.594869
115.981752,766.095498,-0.000000,9696.697840
115.982060,842.705048,-74.020594,9548.656652
115.982368,995.924147,-222.061783,9918.759623
115.982676,842.705048,-518.144159,9696.697840
115.982984,1072.533697,-296.082377,9474.636058
115.983292,995.924147,-0.000000,9622.677246
115.983600,1302.362347,-0.000000,9770.718434
115.983908,1149.143247,-0.000000,9696.697840
115.984215,1608.800546,-148.041188,9474.636058
115.984523,1991.848295,-222.061783,9992.780217
115.984831,1915.238745,-0.000000,9474.636058
115.985139,1685.410096,296.082377,9918.759623
115.985447,1685.410096,444.123565,9770.718434
115.985755,1762.019645,-0.000000,9474.636058
115.986063,1608.800546,444.123565,9474.636058
115.986371,1915.238745,592.164754,9622.677246
115.986678,1838.629195,740.205942,9918.759623
115.986986,2374.896044,592.164754,9622.677246
115.987294,2068.457845,740.205942,9474.636058
115.987602,1532.190996,962.267725,9474.636058
115.987910,2145.067394,814.226536,9474.636058
115.988218,1991.848295,962.267725,9474.636058
115.988526,1838.629195,592.164754,9622.677246
115.988834,1455.581446,888.247130,9622.677246
115.989141,1149.143247,444.123565,9622.677246
115.989449,1225.752797,444.123565,9622.677246
115.989757,1072.533697,962.267725,10140.821405
115.990065,1455.581446,444.123565,9918.759623
115.990373,1225.752797,740.205942,9622.677246
115.990681,1378.971896,592.164754,9622.677246
115.990989,995.924147,592.164754,9474.636058
115.991297,1149.143247,518.144159,9474.636058
115.991604,689.485948,222.061783,9474.636058
115.991912,1225.752797,444.123565,9400.615463
115.992220,995.924147,518.144159,9474.636058
115.992528,842.705048,370.102971,9474.636058
115.992836,536.266849,222.061783,9474.636058
115.993144,153.219100,-0.000000,9696.697840
115.993452,229.828649,-0.000000,9622.677246
115.993760,612.876398,-222.061783,9548.656652
115.994067,0.000000,-296.082377,9622.677246
115.994375,306.438199,-518.144159,9844.739029
115.994683,229.828649,-1036.288319,9252.574275
115.994991,153.219100,-148.041188,9474.636058
115.995299,76.609550,-148.041188,9252.574275
115.995607,229.828649,-222.061783,9326.594869
115.995915,76.609550,-0.000000,9178.553681
115.996223,612.876398,-296.082377,9178.553681
115.996530,229.828649,-0.000000,9252.574275
115.996838,-383.047749,-444.123565,9104.533087
115.997146,-459.657299,-296.082377,9474.636058
115.997454,229.828649,-148.041188,9326.594869
115.997762,-306.438199,-222.061783,9326.594869
115.998070,-153.219100,-0.000000,9474.636058
115.998378,-306.438199,-74.020594,9548.656652
115.998686,0.000000,-74.020594,9696.697840
115.998993,0.000000,-296.082377,9770.718434
115.999301,-153.219100,-0.000000,9844.739029
115.999609,-229.828649,-296.082377,9548.656652
115.999917,-306.438199,-74.020594,9326.594869
116.000225,-229.828649,148.041188,9622.677246
116.000533,-306.438199,296.082377,9474.636058
116.000841,-306.438199,370.102971,9696.697840
116.001149,-459.657299,222.061783,9548.656652
116.001456,0.000000,-0.000000,9474.636058
116.001764,0.000000,296.082377,9474.636058
116.002072,76.609550,296.082377,9992.780217
116.002380,0.000000,518.144159,9770.718434
116.002688,0.000000,370.102971,9696.697840
116.002996,229.828649,370.102971,9622.677246
116.003304,0.000000,148.041188,9696.697840
116.003612,229.828649,-0.000000,9622.677246
116.003919,229.828649,-0.000000,9696.697840
116.004227,612.876398,222.061783,9918.759623
116.004535,383.047749,296.082377,10214.842000
116.004843,689.485948,-0.000000,9696.697840
116.005151,766.095498,-0.000000,9696.697840
116.005459,689.485948,-74.020594,9770.718434
116.005767,919.314598,-0.000000,9622.677246
116.006075,1072.533697,-296.082377,9770.718434
116.006382,1072.533697,370.102971,9992.780217
116.006690,1608.800546,222.061783,9474.636058
116.006998,1685.410096,222.061783,9252.574275
116.007306,1302.362347,518.144159,9474.636058
116.007614,1608.800546,370.102971,9548.656652
116.007922,1532.190996,370.102971,9474.636058
116.008230,1762.019645,370.102971,9474.636058
116.008538,1225.752797,296.082377,9622.677246
116.008845,2374.896044,518.144159,9992.780217
116.009153,2068.457845,518.144159,9622.677246
116.009461,2145.067394,592.164754,9326.594869
116.009769,1991.848295,370.102971,9770.718434
116.010077,1838.629195,592.164754,9696.697840
116.010385,1915.238745,518.144159,9622.677246
116.010693,1762.019645,592.164754,9474.636058
116.011001,1991.848295,592.164754,9696.697840
116.011309,1685.410096,592.164754,9844.739029
116.011616,1149.143247,592.164754,9696.697840
116.011924,1378.971896,518.144159,9918.759623
116.012232,1378.971896,592.164754,9548.656652
116.012540,1302.362347,370.102971,9474.636058
116.012848,1378.971896,666.185348,9548.656652
116.013156,1378.971896,592.164754,9474.636058
116.013464,1685.410096,222.061783,9104.533087
116.013772,2145.067394,296.082377,9252.574275
116.014079,1532.190996,592.164754,9548.656652
116.014387,1225.752797,592.164754,9400.615463
116.014695,1149.143247,592.164754,9252.574275
116.015003,995.924147,370.102971,9326.594869
116.015311,536.266849,-0.000000,9326.594869
116.015619,536.266849,-0.000000,9548.656652
116.015927,229.828649,-148.041188,9770.718434
116.016235,0.000000,-814.226536,9844.739029
116.016542,76.609550,-444.123565,9844.739029
116.016850,0.000000,-222.061783,9844.739029
116.017158,0.000000,-296.082377,9770.718434
116.017466,-153.219100,-296.082377,9548.656652
116.017774,76.609550,-74.020594,9548.656652
116.018082,0.000000,-74.020594,9400.615463
116.018390,0.000000,-518.144159,9326.594869
116.018698,0.000000,-0.000000,9326.594869
116.019005,-229.828649,-0.000000,9400.615463
116.019313,-536.266849,-0.000000,9400.615463
116.019621,-229.828649,-0.000000,9326.594869
116.019929,0.000000,148.041188,9474.636058
116.020237,-306.438199,-0.000000,9474.636058
116.020545,-766.095498,-222.061783,9696.697840
116.020853,-536.266849,-74.020594,9918.759623
116.021161,-459.657299,296.082377,10436.903782
116.021468,-612.876398,-222.061783,9918.759623
116.021776,-995.924147,-0.000000,9770.718434
116.022084,-766.095498,-0.000000,9696.697840
116.022392,-536.266849,-74.020594,9770.718434
116.022700,-766.095498,-0.000000,9844.739029
116.023008,-459.657299,-0.000000,9918.759623
116.023316,-612.876398,-0.000000,10066.800811
116.023624,-842.705048,148.041188,10066.800811
116.023931,-612.876398,222.061783,9918.759623
116.024239,76.609550,-0.000000,9770.718434
116.024547,0.000000,222.061783,9474.636058
116.024855,0.000000,296.082377,9622.677246
116.025163,0.000000,370.102971,9622.677246
116.025471,612.876398,148.041188,9770.718434
116.025779,536.266849,-0.000000,9474.636058
116.026087,76.609550,296.082377,9622.677246
116.026394,536.266849,370.102971,9548.656652
116.026702,459.657299,518.144159,9474.636058
116.027010,919.314598,296.082377,9548.656652
116.027318,1149.143247,-0.000000,9696.697840
116.027626,919.314598,-0.000000,9622.677246
116.027934,1302.362347,296.082377,9622.677246
116.028242,1072.533697,444.123565,9770.718434
116.028550,1302.362347,370.102971,10066.800811
116.028857,1685.410096,370.102971,9918.759623
116.029165,1608.800546,296.082377,9474.636058
116.029473,1455.581446,296.082377,9696.697840
116.029781,1685.410096,296.082377,9622.677246
116.030089,1762.019645,-0.000000,9474.636058
116.030397,1915.238745,222.061783,9474.636058
116.030705,1915.238745,296.082377,9622.677246
116.031013,1378.971896,-0.000000,9622.677246
116.031320,1838.629195,370.102971,9474.636058
116.031628,2221.676944,518.144159,9622.677246
116.031936,2298.286494,814.226536,9474.636058
116.032244,2374.896044,888.247130,9400.615463
116.032552,2145.067394,592.164754,9252.574275
116.032860,2451.505594,666.185348,9252.574275
116.033168,2298.286494,888.247130,9474.636058
116.033476,2298.286494,296.082377,9474.636058
116.033783,1608.800546,666.185348,9992.780217
116.034091,1532.190996,444.123565,9918.759623
116.034399,1072.533697,444.123565,9696.697840
116.034707,1302.362347,296.082377,9548.656652
116.035015,1149.143247,592.164754,9622.677246
116.035323,1149.143247,518.144159,9474.636058
116.035631,1455.581446,-0.000000,9326.594869
116.035939,1302.362347,592.164754,9622.677246
116.036247,1302.362347,888.247130,9622.677246
116.036555,1149.143247,518.144159,9548.656652
116.036863,766.095498,370.102971,9326.594869
116.037171,536.266849,-0.000000,9252.574275
116.037479,383.047749,148.041188,9548.656652
116.037787,842.705048,-74.020594,9770.718434
116.038095,0.000000,-74.020594,9770.718434
116.038403,76.609550,-518.144159,9474.636058
116.038711,0.000000,-518.144159,9696.697840
116.039019,229.828649,-444.123565,9474.636058
116.039327,0.000000,-370.102971,9548.656652
116.039635,0.000000,-222.061783,9474.636058
116.039943,383.047749,-0.000000,9252.574275
116.040251,0.000000,-74.020594,9178.553681
116.040559,153.219100,-0.000000,9104.533087
116.040867,383.047749,222.061783,9474.636058
116.041175,-229.828649,-0.000000,9252.574275
116.041483,-153.219100,-74.020594,9474.636058
116.041791,0.000000,-148.041188,9400.615463
116.042099,-383.047749,-0.000000,9474.636058
116.042407,-229.828649,-0.000000,9474.636058
116.042715,229.828649,-0.000000,9326.594869
116.043023,-229.828649,-0.000000,9770.718434
116.043331,0.000000,-0.000000,9918.759623
116.043639,0.000000,-0.000000,9918.759623
116.043947,-383.047749,222.061783,9474.636058
116.044255,-229.828649,222.061783,9918.759623
116.044563,-306.438199,148.041188,9992.780217
116.044871,-383.047749,296.082377,9844.739029
116.045179,-229.828649,222.061783,9696.697840
116.045487,0.000000,296.082377,9696.697840
116.045795,153.219100,740.205942,9696.697840
116.046103,-306.438199,518.144159,9548.656652
116.046411,-536.266849,296.082377,9622.677246
116.046719,0.000000,444.123565,9548.656652
116.047027,0.000000,296.082377,9770.718434
116.047335,0.000000,444.123565,9844.739029
116.047643,0.000000,-148.041188,9844.739029
116.047951,153.219100,-0.000000,10066.800811
116.048259,153.219100,-0.000000,9696.697840
116.048567,0.000000,222.061783,9770.718434
116.048875,153.219100,-0.000000,9770.718434
116.049183,459.657299,-0.000000,9770.718434
116.049491,383.047749,-0.000000,9548.656652
116.049799,689.485948,-74.020594,9696.697840
116.050107,919.314598,-222.061783,9548.656652
116.050415,842.705048,-74.020594,9474.636058
116.050723,1149.143247,-0.000000,9622.677246
116.051031,1685.410096,-0.000000,9474.636058
116.051339,1685.410096,222.061783,9400.615463
116.051647,1532.190996,-0.000000,9252.574275
116.051955,1608.800546,148.041188,9474.636058
116.052263,1838.629195,-0.000000,9326.594869
116.052571,1838.629195,148.041188,9548.656652
116.052879,1532.190996,-74.020594,9474.636058
116.053187,1685.410096,-0.000000,9400.615463
116.053495,1915.238745,-0.000000,9474.636058
116.053803,2068.457845,740.205942,9622.677246
116.054111,1915.238745,518.144159,9474.636058
116.054419,2221.676944,518.144159,9474.636058
116.054727,1991.848295,518.144159,9474.636058
116.055035,2068.457845,444.123565,9696.697840
116.055343,2221.676944,370.102971,9622.677246
116.055651,1991.848295,148.041188,9918.759623
116.055959,2374.896044,592.164754,10066.800811
116.056267,1838.629195,666.185348,9770.718434
116.056575,2068.457845,814.226536,9474.636058
116.056883,1915.238745,592.164754,9474.636058
116.057191,1455.581446,888.247130,9400.615463
116.057499,2068.457845,888.247130,9104.533087
116.057807,1838.629195,1036.288319,9252.574275
116.058115,1378.971896,888.247130,9252.574275
116.058423,1991.848295,1036.288319,9622.677246
116.058731,1378.971896,370.102971,9252.574275
116.059039,919.314598,444.123565,9548.656652
116.059347,689.485948,222.061783,9918.759623
116.059655,76.609550,296.082377,10140.821405
116.059963,76.609550,296.082377,9992.780217
116.060271,383.047749,-0.000000,9992.780217
116.060579,229.828649,370.102971,10288.862594
116.060887,383.047749,-0.000000,9992.780217
116.061195,0.000000,-370.102971,9844.739029
116.061503,0.000000,-296.082377,9770.718434
116.061811,-229.828649,-296.082377,9918.759623
116.062119,0.000000,-148.041188,9622.677246
116.062427,383.047749,370.102971,9474.636058
116.062735,153.219100,-0.000000,9400.615463
116.063043,-153.219100,-0.000000,9104.533087
116.063351,76.609550,-0.000000,9104.533087
116.063659,-153.219100,-222.061783,9252.574275
116.063967,-306.438199,-148.041188,9696.697840
116.064275,-383.047749,-370.102971,9622.677246
116.064583,-842.705048,-296.082377,9696.697840
116.064891,-536.266849,-148.041188,9622.677246
116.065199,-536.266849,-296.082377,9696.697840
116.065507,-919.314598,-0.000000,9992.780217
116.065815,-612.876398,-444.123565,9622.677246
116.066123,-689.485948,-74.020594,9770.718434
116.066431,-459.657299,-0.000000,9696.697840
116.066739,-306.438199,-0.000000,9474.636058
116.067047,-689.485948,-0.000000,9474.636058
116.067355,-459.657299,148.041188,10066.800811
116.067663,0.000000,148.041188,9918.759623
116.067971,-689.485948,-0.000000,9696.697840
116.068279,-766.095498,444.123565,10140.821405
116.068587,-306.438199,370.102971,9770.718434
116.068895,-383.047749,296.082377,9696.697840
116.069203,0.000000,370.102971,9474.636058
116.069511,153.219100,444.123565,9474.636058
116.069819,459.657299,148.041188,9326.594869
116.070127,-459.657299,222.061783,9474.636058
116.070435,766.095498,-0.000000,9252.574275
116.070743,459.657299,-0.000000,9474.636058
116.071051,766.095498,148.041188,9474.636058
116.071359,842.705048,-0.000000,9474.636058
116.071667,689.485948,-0.000000,9622.677246
116.071975,842.705048,148.041188,9548.656652
116.072283,459.657299,-222.061783,9844.739029
116.072591,1149.143247,-0.000000,9918.759623
116.072899,1532.190996,-370.102971,9622.677246
116.073207,1838.629195,222.061783,9622.677246
116.073515,1762.019645,370.102971,9474.636058
116.073823,1608.800546,296.082377,9474.636058
116.074131,1838.629195,296.082377,9622.677246
116.074439,1838.629195,444.123565,9474.636058
116.074747,1915.238745,148.041188,9474.636058
116.075055,1762.019645,296.082377,9696.697840
116.075363,2221.676944,370.102971,9474.636058
116.075671,1838.629195,592.164754,9548.656652
116.075979,1991.848295,592.164754,9474.636058
116.076287,1915.238745,740.205942,9548.656652
116.076595,1991.848295,740.205942,9696.697840
116.076903,1915.238745,518.144159,9770.718434
116.077211,1991.848295,814.226536,9770.718434
116.077519,1915.238745,-0.000000,9474.636058
116.077827,1762.019645,592.164754,9918.759623
116.078135,2068.457845,518.144159,9918.759623
116.078443,1302.362347,518.144159,9918.759623
116.078751,1302.362347,666.185348,9622.677246
116.079059,1378.971896,666.185348,9696.697840
116.079367,1608.800546,962.267725,9548.656652
116.079675,1149.143247,740.205942,9548.656652
116.079983,1455.581446,814.226536,9770.718434
116.080291,1225.752797,296.082377,9104.533087
116.080599,1149.143247,-0.000000,9474.636058
116.080907,919.314598,666.185348,9548.656652
116.081215,689.485948,592.164754,9696.697840
116.081523,689.485948,296.082377,9548.656652
116.081831,612.876398,222.061783,9622.677246
116.082139,612.876398,-0.000000,9770.718434
116.082447,459.657299,-296.082377,9992.780217
116.082755,306.438199,-370.102971,9844.739029
116.083063,229.828649,-370.102971,9548.656652
116.083371,76.609550,-296.082377,9474.636058
116.083679,153.219100,-370.102971,9548.656652
116.083987,153.219100,-148.041188,9474.636058
116.084295,459.657299,-296.082377,9400.615463
116.084603,0.000000,-518.144159,9474.636058
116.084911,76.609550,-370.102971,9400.615463
116.085219,229.828649,-444.123565,9474.636058
116.085527,153.219100,-518.144159,9622.677246
116.085835,0.000000,-148.041188,9326.594869
116.086143,-153.219100,-296.082377,9400.615463
116.086451,0.000000,-148.041188,9548.656652
116.086759,0.000000,-222.061783,9474.636058
116.087067,0.000000,-74.020594,9326.594869
116.087375,0.000000,-222.061783,9474.636058
116.087683,0.000000,-0.000000,9770.718434
116.087991,-229.828649,-74.020594,9548.656652
116.088299,-306.438199,-0.000000,9696.697840
116.088606,-383.047749,-0.000000,9696.697840
116.088914,-306.438199,-0.000000,9622.677246
116.089222,0.000000,-74.020594,9548.656652
116.089530,-306.438199,370.102971,9548.656652
116.089838,0.000000,148.041188,9400.615463
116.090146,76.609550,222.061783,9770.718434
116.090454,-919.314598,518.144159,9622.677246
116.090762,-153.219100,740.205942,9622.677246
116.091070,0.000000,666.185348,9770.718434
116.091378,-153.219100,518.144159,9844.739029
116.091686,-229.828649,592.164754,10214.842000
116.091994,0.000000,296.082377,10066.800811
116.092302,-306.438199,-0.000000,9918.759623
116.092610,76.609550,-0.000000,9770.718434
116.092918,306.438199,-74.020594,9918.759623
116.093226,76.609550,-74.020594,9918.759623
116.093534,459.657299,-0.000000,10066.800811
116.093842,536.266849,-74.020594,9622.677246
116.094150,612.876398,-370.102971,9770.718434
116.094458,919.314598,-148.041188,9770.718434
116.094766,612.876398,-0.000000,9548.656652
116.095074,1685.410096,148.041188,9400.615463
116.095382,995.924147,518.144159,9400.615463
116.095690,1302.362347,296.082377,9326.594869
116.095998,1532.190996,370.102971,9326.594869
116.096306,1608.800546,370.102971,9474.636058
116.096614,1685.410096,666.185348,10140.821405
116.096922,1991.848295,-0.000000,9474.636058
116.097230,1532.190996,222.061783,9696.697840
116.097538,1685.410096,296.082377,10362.883188
116.097846,1455.581446,-0.000000,9696.697840
116.098154,1762.019645,-0.000000,9770.718434
116.098462,1762.019645,296.082377,9622.677246
116.098770,1532.190996,444.123565,9474.636058
116.099078,2068.457845,740.205942,9622.677246
116.099386,1838.629195,666.185348,9770.718434
116.099694,2298.286494,518.144159,9696.697840
116.100002,1608.800546,814.226536,9696.697840
116.100310,1762.019645,814.226536,9622.677246
116.100618,1608.800546,962.267725,9622.677246
116.100926,1762.019645,888.247130,9622.677246
116.101234,1532.190996,740.205942,9474.636058
116.101542,1685.410096,666.185348,9474.636058
116.101850,1838.629195,518.144159,9474.636058
116.102158,1762.019645,518.144159,9474.636058
116.102466,1762.019645,666.185348,9326.594869
116.102774,1532.190996,888.247130,9474.636058
116.103082,1378.971896,592.164754,9326.594869
116.103390,1149.143247,592.164754,9474.636058
116.103698,689.485948,740.205942,9548.656652
116.104006,536.266849,370.102971,9622.677246
116.104314,689.485948,-0.000000,9770.718434
116.104622,383.047749,148.041188,9918.759623
116.104930,459.657299,-592.164754,9918.759623
116.105238,229.828649,-444.123565,9474.636058
116.105546,-229.828649,-518.144159,9770.718434
116.105854,-229.828649,-666.185348,9992.780217
116.106162,76.609550,-444.123565,9770.718434
116.106470,229.828649,-518.144159,9474.636058
116.106778,306.438199,-444.123565,9178.553681
116.107086,0.000000,-148.041188,9104.533087
116.107394,0.000000,-0.000000,9252.574275
116.107702,0.000000,-0.000000,8956.491898
116.108010,0.000000,148.041188,8734.430116
116.108318,0.000000,-0.000000,9326.594869
116.108626,-383.047749,-0.000000,9252.574275
116.108934,-229.828649,-222.061783,9252.574275
116.109242,-459.657299,-222.061783,9474.636058
116.109550,-383.047749,-222.061783,9400.615463
116.109858,-306.438199,-222.061783,9474.636058
116.110166,-536.266849,-222.061783,9770.718434
116.110474,-766.095498,-222.061783,9918.759623
116.110782,-766.095498,-222.061783,9918.759623
116.111090,-612.876398,-0.000000,9918.759623
116.111398,-995.924147,-148.041188,10140.821405
116.111706,-842.705048,-0.000000,10214.842000
116.112014,-536.266849,-0.000000,9992.780217
116.112322,-766.095498,148.041188,10288.862594
116.112630,-612.876398,296.082377,9844.739029
116.112938,-229.828649,370.102971,9696.697840
116.113246,0.000000,296.082377,9548.656652
116.113554,0.000000,148.041188,9622.677246
116.113862,76.609550,962.267725,9474.636058
116.114170,306.438199,370.102971,9696.697840
116.114478,153.219100,518.144159,9622.677246
116.114786,612.876398,666.185348,9474.636058
116.115094,766.095498,592.164754,9548.656652
116.115402,689.485948,518.144159,9474.636058
116.115710,766.095498,370.102971,9622.677246
116.116018,306.438199,222.061783,9696.697840
116.116326,842.705048,-296.082377,9770.718434
116.116634,995.924147,-74.020594,9992.780217
116.116942,919.314598,222.061783,10214.842000
116.117250,1302.362347,-370.102971,9474.636058
116.117558,1149.143247,-0.000000,9622.677246
116.117866,1302.362347,222.061783,9622.677246
116.118174,1455.581446,222.061783,9474.636058
116.118482,1762.019645,296.082377,9696.697840
116.118790,1838.629195,296.082377,9548.656652
116.119098,1532.190996,888.247130,9474.636058
116.119406,1915.238745,444.123565,9844.739029
116.119714,1762.019645,518.144159,9548.656652
116.120022,2145.067394,592.164754,9474.636058
116.120330,2221.676944,740.205942,9474.636058
116.120638,2145.067394,814.226536,9474.636058
116.120946,2068.457845,666.185348,9474.636058
116.121254,2451.505594,518.144159,9252.574275
116.121562,2528.115143,518.144159,9474.636058
116.121870,1915.238745,518.144159,9474.636058
116.122178,1838.629195,666.185348,9548.656652
116.122486,1685.410096,518.144159,9844.739029
116.122794,1532.190996,592.164754,9474.636058
116.123102,1455.581446,592.164754,9844.739029
116.123410,1762.019645,666.185348,9696.697840
116.123718,1378.971896,444.123565,9622.677246
116.124026,1378.971896,296.082377,9622.677246
116.124334,1685.410096,444.123565,9474.636058
116.124642,1378.971896,518.144159,9474.636058
116.124950,1072.533697,370.102971,9622.677246
116.125258,1149.143247,296.082377,9326.594869
116.125566,919.314598,444.123565,9474.636058
116.125874,1225.752797,370.102971,9326.594869
116.126182,919.314598,-0.000000,9474.636058
116.126490,842.705048,-0.000000,9622.677246
116.126798,612.876398,-370.102971,9252.574275
116.127106,612.876398,-518.144159,9400.615463
116.127414,229.828649,-518.144159,9474.636058
116.127722,153.219100,-444.123565,9622.677246
116.128030,76.609550,-370.102971,9622.677246
116.128338,76.609550,-444.123565,9326.594869
116.128646,459.657299,-444.123565,9400.615463
116.128954,229.828649,-222.061783,9474.636058
116.129262,536.266849,-74.020594,9474.636058
116.129570,-383.047749,-370.102971,9326.594869
116.129878,0.000000,-222.061783,9474.636058
116.130186,0.000000,-296.082377,9474.636058
116.130494,-306.438199,-74.020594,9548.656652
116.130802,0.000000,-0.000000,9622.677246
116.131110,-306.438199,-296.082377,9548.656652
116.131418,-153.219100,-0.000000,9844.739029
116.131726,76.609550,-0.000000,9474.636058
116.132034,76.609550,-0.000000,9400.615463
116.132342,0.000000,296.082377,9474.636058
116.132650,76.609550,370.102971,9548.656652
116.132958,0.000000,370.102971,9548.656652
116.133266,0.000000,444.123565,9474.636058
116.133574,-306.438199,222.061783,9844.739029
116.133882,-689.485948,370.102971,10214.842000
116.134190,-919.314598,-0.000000,10140.821405
116.134498,-842.705048,370.102971,9770.718434
116.134806,-536.266849,296.082377,9992.780217
116.135114,-766.095498,222.061783,9918.759623
116.135422,-766.095498,-0.000000,10066.800811
116.135730,0.000000,-148.041188,10066.800811
116.136038,-306.438199,370.102971,10288.862594
116.136346,0.000000,-0.000000,10066.800811
116.136654,0.000000,-74.020594,9918.759623
116.136962,306.438199,444.123565,9696.697840
116.137270,229.828649,370.102971,9696.697840
116.137578,383.047749,148.041188,9622.677246
116.137886,459.657299,-0.000000,9696.697840
116.138195,229.828649,-74.020594,9548.656652
116.138503,612.876398,-0.000000,9548.656652
116.138811,1225.752797,-74.020594,9548.656652
116.139119,1149.143247,-0.000000,9622.677246
116.139427,1302.362347,-0.000000,9252.574275
116.139735,1225.752797,148.041188,9400.615463
116.140043,1608.800546,370.102971,9400.615463
116.140351,1685.410096,296.082377,9326.594869
116.140659,1302.362347,222.061783,9178.553681
116.140967,1762.019645,-0.000000,9474.636058
116.141275,1608.800546,222.061783,9474.636058
116.141583,1762.019645,-74.020594,9474.636058
116.141891,1838.629195,-0.000000,9474.636058
116.142200,1608.800546,222.061783,9622.677246
116.142508,1608.800546,296.082377,9548.656652
116.142816,1838.629195,370.102971,9474.636058
116.143124,2221.676944,296.082377,9548.656652
116.143432,2221.676944,296.082377,9474.636058
116.143740,2374.896044,148.041188,9474.636058
116.144048,2451.505594,518.144159,9474.636058
116.144356,2068.457845,370.102971,9474.636058
116.144664,2068.457845,592.164754,9474.636058
116.144972,1915.238745,370.102971,9622.677246
116.145280,1532.190996,444.123565,9474.636058
116.145588,1762.019645,-0.000000,9548.656652
116.145897,1532.190996,444.123565,9918.759623
116.146205,1455.581446,740.205942,9474.636058
116.146513,1455.581446,962.267725,9326.594869
116.146821,1838.629195,962.267725,9104.533087
116.147129,1838.629195,962.267725,9178.553681
116.147437,1608.800546,962.267725,9178.553681
116.147745,1455.581446,740.205942,9178.553681
116.148053,1455.581446,592.164754,9474.636058
116.148361,919.314598,370.102971,9474.636058
116.148669,689.485948,222.061783,9548.656652
116.148977,306.438199,-0.000000,9770.718434
116.149285,0.000000,-0.000000,10066.800811
116.149594,0.000000,-296.082377,10066.800811
116.149902,-383.047749,-370.102971,9770.718434
116.150210,0.000000,-666.185348,10362.883188
116.150518,0.000000,-296.082377,10066.800811
116.150826,-306.438199,-740.205942,10066.800811
116.151134,-306.438199,-370.102971,9844.739029
116.151442,0.000000,-0.000000,9474.636058
116.151750,0.000000,-0.000000,9474.636058
116.152058,0.000000,-0.000000,9252.574275
116.152366,-153.219100,-0.000000,9400.615463
116.152674,-536.266849,222.061783,9474.636058
116.152982,0.000000,296.082377,9622.677246
116.153290,0.000000,-518.144159,9474.636058
116.153599,-153.219100,-0.000000,9474.636058
116.153907,-842.705048,-0.000000,9474.636058
116.154215,-536.266849,-0.000000,9696.697840
116.154523,-536.266849,-0.000000,9770.718434
116.154831,-689.485948,-74.020594,9696.697840
116.155139,-612.876398,-0.000000,9918.759623
116.155447,-842.705048,-222.061783,10066.800811
116.155755,-459.657299,-148.041188,9696.697840
116.156063,-842.705048,-444.123565,9696.697840
116.156371,-766.095498,-148.041188,10214.842000
116.156679,-995.924147,-0.000000,9770.718434
116.156987,-842.705048,-0.000000,9992.780217
116.157296,-612.876398,-0.000000,9992.780217
116.157604,-383.047749,-0.000000,9844.739029
116.157912,-383.047749,-148.041188,9918.759623
116.158220,-612.876398,296.082377,9770.718434
116.158528,766.095498,-0.000000,9474.636058
116.158836,459.657299,-0.000000,9326.594869
116.159144,766.095498,296.082377,9474.636058
116.159452,766.095498,370.102971,9400.615463
116.159760,842.705048,518.144159,9326.594869
116.160068,919.314598,296.082377,9474.636058
116.160376,1149.143247,-0.000000,9474.636058
116.160684,76.609550,370.102971,9844.739029
116.160993,1072.533697,-0.000000,9474.636058
116.161301,1149.143247,-0.000000,9844.739029
116.161609,1149.143247,-0.000000,9622.677246
116.161917,1149.143247,-0.000000,9622.677246
116.162225,1455.581446,-0.000000,9696.697840
116.162533,2221.676944,222.061783,9474.636058
116.162841,1532.190996,222.061783,9474.636058
116.163149,1991.848295,148.041188,9474.636058
116.163457,1608.800546,222.061783,9696.697840
116.163765,1685.410096,518.144159,9696.697840
116.164073,1838.629195,518.144159,9474.636058
116.164381,2068.457845,592.164754,9474.636058
116.164689,1915.238745,740.205942,9474.636058
116.164998,2068.457845,740.205942,9548.656652
116.165306,2298.286494,666.185348,9474.636058
116.165614,2068.457845,518.144159,9326.594869
116.165922,2068.457845,296.082377,9918.759623
116.166230,2145.067394,444.123565,9696.697840
116.166538,1991.848295,444.123565,9474.636058
116.166846,1532.190996,296.082377,9844.739029
116.167154,1532.190996,518.144159,9844.739029
116.167462,1378.971896,592.164754,9622.677246
116.167770,1455.581446,740.205942,9622.677246
116.168078,1378.971896,740.205942,9770.718434
116.168386,1608.800546,666.185348,9474.636058
116.168695,1378.971896,370.102971,9548.656652
116.169003,1378.971896,740.205942,9326.594869
116.169311,1149.143247,962.267725,9400.615463
116.169619,1149.143247,666.185348,9474.636058
116.169927,1149.143247,518.144159,9474.636058
116.170235,612.876398,444.123565,9326.594869
116.170543,536.266849,-0.000000,9548.656652
116.170851,689.485948,-444.123565,9918.759623
116.171159,0.000000,-148.041188,9918.759623
116.171467,76.609550,-148.041188,9844.739029
116.171775,76.609550,-222.061783,9622.677246
116.172083,0.000000,-148.041188,9474.636058
116.172392,0.000000,-74.020594,9622.677246
116.172700,229.828649,-222.061783,9770.718434
116.173008,383.047749,-518.144159,8882.471304
116.173316,536.266849,-0.000000,9474.636058
116.173624,76.609550,-370.102971,9400.615463
116.173932,153.219100,-148.041188,9252.574275
116.174240,0.000000,-74.020594,9326.594869
116.174548,0.000000,-74.020594,9400.615463
116.174856,-306.438199,-444.123565,9474.636058
116.175164,0.000000,-370.102971,9400.615463
116.175472,0.000000,-148.041188,9400.615463
116.175780,153.219100,370.102971,9696.697840
116.176088,0.000000,-0.000000,9474.636058
116.176397,0.000000,-0.000000,9400.615463
116.176705,0.000000,148.041188,9474.636058
116.177013,-229.828649,444.123565,9622.677246
116.177321,-459.657299,-0.000000,9770.718434
116.177629,-383.047749,-74.020594,9770.718434
116.177937,-536.266849,-148.041188,9992.780217
116.178245,-536.266849,-222.061783,9992.780217
116.178553,-766.095498,-0.000000,9770.718434
116.178861,-536.266849,-0.000000,10066.800811
116.179169,-689.485948,296.082377,9844.739029
116.179477,-459.657299,296.082377,9844.739029
116.179785,-459.657299,518.144159,9770.718434
116.180094,-229.828649,444.123565,9918.759623
116.180402,-459.657299,444.123565,9992.780217
116.180710,0.000000,-0.000000,9770.718434
116.181018,-153.219100,296.082377,10066.800811
116.181326,0.000000,74.020594,9770.718434
116.181634,0.000000,222.061783,9770.718434
116.181942,0.000000,148.041188,9622.677246
116.182250,459.657299,-0.000000,9474.636058
116.182558,766.095498,-148.041188,9400.615463
116.182866,536.266849,-0.000000,9622.677246
116.183174,306.438199,-74.020594,9548.656652
116.183482,1149.143247,148.041188,9474.636058
116.183791,919.314598,-0.000000,9400.615463
116.184099,1302.362347,-0.000000,9400.615463
116.184407,1302.362347,444.123565,9252.574275
116.184715,1608.800546,592.164754,9548.656652
116.185023,2068.457845,222.061783,9400.615463
116.185331,1608.800546,-0.000000,9548.656652
116.185639,1302.362347,-0.000000,9474.636058
116.185947,1838.629195,370.102971,9548.656652
116.186255,1762.019645,296.082377,9696.697840
116.186563,1685.410096,444.123565,9696.697840
116.186871,1838.629195,222.061783,9622.677246
116.187179,2068.457845,444.123565,9622.677246
116.187487,1991.848295,296.082377,10066.800811
116.187796,2145.067394,444.123565,9770.718434
116.188104,2374.896044,370.102971,9400.615463
116.188412,2068.457845,814.226536,9548.656652
116.188720,2298.286494,666.185348,9474.636058
116.189028,1915.238745,592.164754,9474.636058
116.189336,1762.019645,666.185348,9474.636058
116.189644,1915.238745,592.164754,9696.697840
116.189952,1455.581446,740.205942,9474.636058
116.190260,1455.581446,370.102971,9474.636058
116.190568,1608.800546,592.164754,9696.697840
116.190876,1455.581446,962.267725,9474.636058
116.191184,1608.800546,740.205942,9400.615463
116.191493,1532.190996,888.247130,9400.615463
116.191801,1149.143247,666.185348,9548.656652
116.192109,919.314598,518.144159,9696.697840
116.192417,689.485948,444.123565,9696.697840
116.192725,-76.609550,444.123565,9474.636058
116.193033,612.876398,296.082377,9770.718434
116.193341,153.219100,370.102971,9696.697840
116.193649,229.828649,-0.000000,9696.697840
116.193957,153.219100,-0.000000,9844.739029
116.194265,76.609550,-148.041188,9918.759623
116.194573,0.000000,-444.123565,10140.821405
116.194881,-1072.533697,-296.082377,9992.780217
116.195189,-383.047749,-0.000000,9992.780217
116.195498,0.000000,-592.164754,9622.677246
116.195806,0.000000,-74.020594,9474.636058
116.196114,0.000000,-0.000000,9326.594869
116.196422,0.000000,-74.020594,9474.636058
116.196730,0.000000,-74.020594,9474.636058
116.197038,76.609550,-0.000000,9030.512492
116.197346,0.000000,-0.000000,9326.594869
116.197654,-76.609550,-0.000000,9400.615463
116.197962,-76.609550,-296.082377,9326.594869
116.198270,-229.828649,-0.000000,9622.677246
116.198578,-383.047749,-0.000000,9548.656652
116.198886,-689.485948,-0.000000,9548.656652
116.199195,-536.266849,-0.000000,9770.718434
116.199503,-766.095498,-74.020594,9992.780217
116.199811,-919.314598,-74.020594,10214.842000
116.200119,-1225.752797,-370.102971,9918.759623
116.200427,-536.266849,-370.102971,10066.800811
116.200735,-1149.143247,-148.041188,10066.800811
116.201043,-919.314598,-222.061783,9844.739029
116.201351,-689.485948,-0.000000,9770.718434
116.201659,-612.876398,-0.000000,9622.677246
116.201967,-459.657299,-296.082377,9474.636058
116.202275,153.219100,296.082377,9770.718434
116.202583,306.438199,-0.000000,9622.677246
116.202892,153.219100,-0.000000,9696.697840
116.203200,76.609550,296.082377,9326.594869
116.203508,459.657299,444.123565,9326.594869
116.203816,459.657299,370.102971,9252.574275
116.204124,689.485948,370.102971,9474.636058
116.204432,612.876398,-74.020594,9474.636058
116.204740,766.095498,-0.000000,9548.656652
116.205048,689.485948,-0.000000,9474.636058
116.205356,766.095498,-222.061783,9844.739029
116.205664,919.314598,-0.000000,9474.636058
116.205972,842.705048,-0.000000,9548.656652
116.206280,1072.533697,148.041188,9548.656652
116.206588,1685.410096,222.061783,9400.615463
116.206897,1991.848295,-0.000000,9474.636058
116.207205,2068.457845,296.082377,9696.697840
116.207513,1838.629195,370.102971,9992.780217
116.207821,1685.410096,-0.000000,9696.697840
116.208129,1762.019645,370.102971,9696.697840
116.208437,1455.581446,296.082377,9918.759623
116.208745,1762.019645,444.123565,9696.697840
116.209053,1378.971896,296.082377,9696.697840
116.209361,1685.410096,518.144159,9696.697840
116.209669,1915.238745,814.226536,9918.759623
116.209977,2068.457845,592.164754,9252.574275
116.210285,2374.896044,888.247130,9622.677246
116.210594,2298.286494,962.267725,9548.656652
116.210902,2068.457845,888.247130,9326.594869
116.211210,2145.067394,666.185348,9696.697840
116.211518,1762.019645,370.102971,9992.780217
116.211826,2068.457845,666.185348,9696.697840
116.212134,1762.019645,814.226536,9548.656652
116.212442,1455.581446,814.226536,9474.636058
116.212750,1378.971896,740.205942,9844.739029
116.213058,1378.971896,888.247130,9548.656652
116.213366,1225.752797,740.205942,9326.594869
116.213674,1225.752797,740.205942,9400.615463
116.213982,842.705048,666.185348,9474.636058
116.214291,1225.752797,592.164754,9474.636058
116.214599,1608.800546,518.144159,9548.656652
116.214907,1149.143247,222.061783,9844.739029
116.215215,919.314598,-74.020594,9696.697840
116.215523,383.047749,-0.000000,9918.759623
116.215831,306.438199,-592.164754,9992.780217
116.216139,0.000000,-740.205942,9844.739029
116.216447,153.219100,-1036.288319,9696.697840
116.216755,0.000000,-814.226536,9696.697840
116.217063,536.266849,-814.226536,9178.553681
116.217371,766.095498,-370.102971,9474.636058
116.217679,766.095498,-296.082377,9252.574275
116.217987,459.657299,-296.082377,9030.512492
116.218296,766.095498,-0.000000,9030.512492
116.218604,306.438199,-0.000000,8956.491898
116.218912,536.266849,-0.000000,9178.553681
116.219220,459.657299,-148.041188,9178.553681
116.219528,229.828649,-0.000000,9474.636058
116.219836,0.000000,-0.000000,9696.697840
116.220144,0.000000,-0.000000,9400.615463
116.220452,-153.219100,-0.000000,9474.636058
116.220760,0.000000,-74.020594,9696.697840
116.221068,-383.047749,-74.020594,9622.677246
116.221376,0.000000,-0.000000,9548.656652
116.221684,-383.047749,-148.041188,9548.656652
116.221993,-612.876398,-148.041188,9992.780217
116.222301,-995.924147,-296.082377,10066.800811
116.222609,-689.485948,-148.041188,10066.800811
116.222917,-919.314598,-0.000000,10066.800811
116.223225,-1072.533697,222.061783,10066.800811
116.223533,-536.266849,370.102971,9844.739029
116.223841,-459.657299,-296.082377,9844.739029
116.224149,-306.438199,-0.000000,9918.759623
116.224457,-383.047749,-74.020594,9770.718434
116.224765,-153.219100,296.082377,9770.718434
116.225073,0.000000,148.041188,9474.636058
116.225381,-306.438199,-0.000000,9474.636058
116.225690,-153.219100,222.061783,9622.677246
116.225998,-153.219100,-0.000000,9474.636058
116.226306,0.000000,518.144159,9696.697840
116.226614,383.047749,-0.000000,9696.697840
116.226922,459.657299,-222.061783,10140.821405
116.227230,459.657299,-148.041188,9696.697840
116.227538,383.047749,-0.000000,9548.656652
116.227846,459.657299,-74.020594,9474.636058
116.228154,842.705048,222.061783,9770.718434
116.228462,842.705048,222.061783,9770.718434
116.228770,1762.019645,370.102971,9918.759623
116.229078,1455.581446,222.061783,9622.677246
116.229386,1302.362347,222.061783,9400.615463
116.229695,1608.800546,-0.000000,9474.636058
116.230003,1455.581446,222.061783,9622.677246
116.230311,1685.410096,222.061783,9622.677246
116.230619,1302.362347,296.082377,9622.677246
116.230927,1608.800546,370.102971,9844.739029
116.231235,1838.629195,-0.000000,10140.821405
116.231543,1685.410096,444.123565,9918.759623
116.231851,2068.457845,222.061783,9844.739029
116.232159,2298.286494,666.185348,9622.677246
116.232467,2374.896044,888.247130,9400.615463
116.232775,2221.676944,814.226536,9400.615463
116.233083,2068.457845,1036.288319,9400.615463
116.233392,2068.457845,666.185348,9178.553681
116.233700,1762.019645,666.185348,9622.677246
116.234008,1608.800546,518.144159,9622.677246
116.234316,1915.238745,444.123565,9474.636058
116.234624,1302.362347,222.061783,9400.615463
116.234932,1455.581446,814.226536,9548.656652
116.235240,1532.190996,740.205942,9548.656652
116.235548,1608.800546,888.247130,9400.615463
116.235856,1685.410096,888.247130,9400.615463
116.236164,1378.971896,666.185348,9622.677246
116.236472,1455.581446,592.164754,9918.759623
116.236780,1378.971896,518.144159,9474.636058
116.237088,689.485948,-0.000000,9326.594869
116.237396,766.095498,222.061783,9400.615463
116.237704,766.095498,222.061783,9474.636058
116.238012,612.876398,-0.000000,9696.697840
116.238320,459.657299,-74.020594,9770.718434
116.238628,306.438199,-518.144159,9844.739029
116.238936,229.828649,-296.082377,9622.677246
116.239244,-995.924147,-370.102971,10066.800811
116.239552,153.219100,-370.102971,9844.739029
116.239860,229.828649,-0.000000,9474.636058
116.240168,459.657299,-0.000000,9252.574275
116.240475,306.438199,222.061783,9030.512492
116.240783,306.438199,296.082377,9030.512492
116.241091,306.438199,-0.000000,9178.553681
116.241399,306.438199,-74.020594,9178.553681
116.241707,0.000000,-0.000000,9474.636058
116.242015,-459.657299,-148.041188,9474.636058
116.242323,-536.266849,-0.000000,9548.656652
116.242631,-766.095498,-148.041188,9844.739029
116.242939,-689.485948,-222.061783,9770.718434
116.243247,-766.095498,-296.082377,9622.677246
116.243555,-766.095498,-444.123565,9918.759623
116.243863,-995.924147,-74.020594,10214.842000
116.244171,-383.047749,-148.041188,10362.883188
116.244479,-306.438199,-370.102971,9474.636058
116.244787,-612.876398,-0.000000,9992.780217
116.245095,-919.314598,-0.000000,9844.739029
116.245403,-766.095498,-0.000000,9696.697840
116.245711,-766.095498,148.041188,9696.697840
116.246019,-612.876398,222.061783,9696.697840
116.246327,-383.047749,296.082377,9696.697840
116.246635,0.000000,-74.020594,9400.615463
116.246943,-229.828649,222.061783,9918.759623
116.247251,0.000000,-0.000000,9474.636058
116.247559,76.609550,296.082377,9770.718434
116.247867,76.609550,444.123565,9844.739029
116.248175,306.438199,444.123565,9548.656652
116.248483,612.876398,444.123565,9474.636058
116.248791,536.266849,370.102971,9622.677246
116.249099,919.314598,666.185348,9770.718434
116.249407,842.705048,-0.000000,9622.677246
116.249715,459.657299,222.061783,9770.718434
116.250023,842.705048,296.082377,9770.718434
116.250330,919.314598,148.041188,9770.718434
116.250638,995.924147,-0.000000,9770.718434
116.250946,1072.533697,222.061783,9918.759623
116.251254,1685.410096,-148.041188,9770.718434
116.251562,1608.800546,296.082377,10140.821405
116.251870,1762.019645,-0.000000,10066.800811
116.252178,1532.190996,296.082377,9696.697840
116.252486,1685.410096,222.061783,9696.697840
116.252794,1685.410096,666.185348,9696.697840
116.253102,1915.238745,518.144159,9622.677246
116.253410,2221.676944,740.205942,9252.574275
116.253718,2145.067394,518.144159,9400.615463
116.254026,2451.505594,666.185348,9548.656652
116.254334,2451.505594,888.247130,9622.677246
116.254642,2451.505594,1110.308913,9474.636058
116.254950,2451.505594,740.205942,9252.574275
116.255258,2068.457845,444.123565,9474.636058
116.255566,1608.800546,370.102971,9548.656652
116.255874,2451.505594,296.082377,9622.677246
116.256182,1608.800546,222.061783,9548.656652
116.256490,2068.457845,370.102971,9622.677246
116.256798,1685.410096,222.061783,9918.759623
116.257106,1302.362347,666.185348,9474.636058
116.257414,1532.190996,592.164754,9548.656652
116.257722,1378.971896,962.267725,9474.636058
116.258030,1302.362347,518.144159,9474.636058
116.258338,1455.581446,518.144159,9548.656652
116.258646,1685.410096,518.144159,9178.553681
116.258954,1225.752797,222.061783,9474.636058
116.259262,1149.143247,296.082377,9400.615463
116.259570,919.314598,-0.000000,9400.615463
116.259877,612.876398,-148.041188,9474.636058
116.260185,306.438199,-222.061783,9622.677246
116.260493,459.657299,-222.061783,9474.636058
116.260801,612.876398,-444.123565,9696.697840
116.261109,459.657299,-518.144159,9474.636058
116.261417,459.657299,-592.164754,9844.739029
116.261725,76.609550,-296.082377,9474.636058
116.262033,76.609550,-222.061783,9400.615463
116.262341,76.609550,-0.000000,9326.594869
116.262649,459.657299,-74.020594,9326.594869
116.262957,306.438199,-74.020594,9104.533087
116.263265,306.438199,-0.000000,9104.533087
116.263573,383.047749,-222.061783,9178.553681
116.263881,-229.828649,-148.041188,9178.553681
116.264189,-229.828649,-0.000000,9696.697840
116.264497,-229.828649,-0.000000,9622.677246
116.264805,-383.047749,-0.000000,9622.677246
116.265113,-536.266849,-222.061783,9918.759623
116.265421,-536.266849,-0.000000,9992.780217
116.265729,-612.876398,-518.144159,9992.780217
116.266037,-766.095498,-148.041188,10214.842000
116.266345,-842.705048,-0.000000,10584.944971
116.266653,-919.314598,-0.000000,9770.718434
116.266961,-689.485948,-0.000000,9844.739029
116.267269,-536.266849,296.082377,9770.718434
116.267577,-383.047749,296.082377,9696.697840
116.267885,-459.657299,296.082377,9696.697840
116.268193,-766.095498,296.082377,9770.718434
116.268501,-306.438199,370.102971,9918.759623
116.268809,-76.609550,592.164754,9844.739029
116.269117,0.000000,-0.000000,9474.636058
116.269425,-153.219100,296.082377,9548.656652
116.269732,0.000000,222.061783,9918.759623
116.270040,-153.219100,148.041188,9770.718434
116.270348,0.000000,222.061783,9918.759623
116.270656,229.828649,-0.000000,9622.677246
116.270964,383.047749,-148.041188,10066.800811
116.271272,229.828649,296.082377,9992.780217
116.271580,229.828649,-222.061783,9548.656652
116.271888,459.657299,-74.020594,9696.697840
116.272196,459.657299,-0.000000,9844.739029
116.272504,612.876398,-0.000000,9918.759623
116.272812,919.314598,-148.041188,9844.739029
116.273120,1072.533697,-0.000000,10436.903782
116.273428,1532.190996,-148.041188,9548.656652
116.273736,1608.800546,-0.000000,9474.636058
116.274044,1685.410096,-0.000000,9474.636058
116.274352,1685.410096,296.082377,9400.615463
116.274660,1685.410096,-0.000000,9474.636058
116.274968,1838.629195,222.061783,9400.615463
116.275276,2145.067394,370.102971,9252.574275
116.275584,1915.238745,518.144159,9474.636058
116.275892,2145.067394,444.123565,9474.636058
116.276200,2145.067394,-0.000000,9400.615463
116.276508,2145.067394,518.144159,9326.594869
116.276816,2145.067394,296.082377,9474.636058
116.277124,2221.676944,444.123565,9400.615463
116.277432,2145.067394,592.164754,9622.677246
116.277740,2221.676944,370.102971,9474.636058
116.278048,2528.115143,222.061783,9474.636058
116.278356,1915.238745,370.102971,9696.697840
116.278664,2145.067394,444.123565,9474.636058
116.278972,2145.067394,666.185348,9400.615463
116.279279,1991.848295,888.247130,9474.636058
116.279587,1838.629195,1036.288319,9178.553681
116.279895,1915.238745,814.226536,9030.512492
116.280203,1685.410096,740.205942,9104.533087
116.280511,1915.238745,888.247130,9400.615463
116.280819,842.705048,592.164754,9622.677246
116.281127,1378.971896,814.226536,9474.636058
116.281435,842.705048,222.061783,9696.697840
116.281743,995.924147,370.102971,9770.718434
116.282051,842.705048,444.123565,9622.677246
116.282359,459.657299,-0.000000,9770.718434
116.282667,842.705048,-0.000000,9918.759623
116.282975,383.047749,-0.000000,9992.780217
116.283283,229.828649,-296.082377,10066.800811
116.283591,-383.047749,-296.082377,9844.739029
116.283899,-229.828649,-148.041188,9770.718434
116.284207,-229.828649,-222.061783,9696.697840
116.284515,0.000000,-74.020594,9400.615463
116.284823,0.000000,-0.000000,9548.656652
116.285131,0.000000,148.041188,9474.636058
116.285439,76.609550,-0.000000,9326.594869
116.285747,-153.219100,-74.020594,9326.594869
116.286055,0.000000,-222.061783,9548.656652
116.286363,-459.657299,-0.000000,9548.656652
116.286671,-995.924147,222.061783,9548.656652
116.286979,-459.657299,-0.000000,9622.677246
116.287287,-459.657299,-148.041188,9622.677246
116.287595,-1225.752797,-296.082377,9844.739029
116.287903,-612.876398,-222.061783,10066.800811
116.288211,-689.485948,-370.102971,9770.718434
116.288519,-536.266849,-222.061783,9770.718434
116.288826,-1149.143247,-148.041188,9770.718434
116.289134,-995.924147,-222.061783,10140.821405
116.289442,-995.924147,-0.000000,10066.800811
116.289750,-689.485948,-0.000000,9918.759623
116.290058,-459.657299,-0.000000,10140.821405
116.290366,-689.485948,-0.000000,9992.780217
116.290674,-153.219100,-0.000000,9770.718434
116.290982,-536.266849,370.102971,9696.697840
116.291290,0.000000,444.123565,9770.718434
116.291598,0.000000,370.102971,9696.697840
116.291906,0.000000,296.082377,9770.718434
116.292214,153.219100,518.144159,9696.697840
116.292522,0.000000,296.082377,9770.718434
116.292830,229.828649,148.041188,9474.636058
116.293138,536.266849,-0.000000,9548.656652
116.293446,76.609550,-0.000000,9548.656652
116.293754,919.314598,222.061783,9474.636058
116.294062,1149.143247,370.102971,9548.656652
116.294370,842.705048,296.082377,9474.636058
116.294678,1149.143247,-0.000000,9622.677246
116.294986,1072.533697,-74.020594,9992.780217
116.295294,1378.971896,-148.041188,10288.862594
116.295602,1532.190996,-0.000000,9696.697840
116.295910,1455.581446,-0.000000,9696.697840
116.296218,1532.190996,-74.020594,9770.718434
116.296526,1455.581446,222.061783,9770.718434
116.296834,1915.238745,-0.000000,9622.677246
116.297142,1915.238745,296.082377,9474.636058
116.297450,1838.629195,-0.000000,9474.636058
116.297758,2145.067394,296.082377,9548.656652
116.298066,2145.067394,148.041188,9474.636058
116.298374,2221.676944,518.144159,9104.533087
116.298681,2528.115143,592.164754,9326.594869
116.298989,2298.286494,814.226536,9178.553681
116.299297,2451.505594,814.226536,9400.615463
116.299605,2298.286494,814.226536,9326.594869
116.299913,2374.896044,-0.000000,9400.615463
116.300221,2451.505594,370.102971,9844.739029
116.300529,1991.848295,592.164754,9696.697840
116.300837,1532.190996,296.082377,9622.677246
116.301145,1762.019645,518.144159,9696.697840
116.301453,1685.410096,666.185348,9474.636058
116.301761,1302.362347,518.144159,9474.636058
116.302069,1532.190996,518.144159,9474.636058
116.302377,1685.410096,592.164754,9474.636058
116.302685,1149.143247,222.061783,9178.553681
116.302993,1302.362347,592.164754,9326.594869
116.303301,1532.190996,592.164754,9474.636058
116.303609,1378.971896,518.144159,9474.636058
116.303917,995.924147,518.144159,9474.636058
116.304225,536.266849,-0.000000,9622.677246
116.304533,612.876398,-148.041188,9770.718434
116.304841,383.047749,-592.164754,9696.697840
116.305149,383.047749,-444.123565,9918.759623
116.305457,76.609550,-592.164754,9770.718434
116.305765,0.000000,-592.164754,9548.656652
116.306073,306.438199,-0.000000,9326.594869
116.306381,459.657299,-0.000000,9252.574275
116.306689,612.876398,-0.000000,9104.533087
116.306997,459.657299,-0.000000,9104.533087
116.307305,229.828649,-222.061783,9178.553681
116.307613,229.828649,-444.123565,9326.594869
116.307921,-306.438199,-444.123565,9474.636058
116.308228,0.000000,-0.000000,9474.636058
116.308536,-383.047749,-74.020594,9474.636058
116.308844,-306.438199,-0.000000,9622.677246
116.309152,-612.876398,-0.000000,9548.656652
116.309460,-306.438199,-74.020594,9548.656652
116.309768,-459.657299,-0.000000,9844.739029
116.310076,-229.828649,-518.144159,9548.656652
116.310384,-459.657299,-222.061783,9844.739029
116.310692,-919.314598,-222.061783,9770.718434
116.311000,-842.705048,-148.041188,9992.780217
116.311308,-995.924147,148.041188,9844.739029
116.311616,-1149.143247,-0.000000,9918.759623
116.311924,-1225.752797,-0.000000,9992.780217
116.312232,-1149.143247,296.082377,10066.800811
116.312540,-1149.143247,296.082377,10214.842000
116.312848,-153.219100,296.082377,9474.636058
116.313156,-459.657299,592.164754,9844.739029
116.313464,-383.047749,518.144159,9918.759623
116.313772,-306.438199,518.144159,9696.697840
116.314080,-536.266849,592.164754,9696.697840
116.314388,-153.219100,370.102971,9696.697840
116.314696,-459.657299,296.082377,9992.780217
116.315004,306.438199,-0.000000,9844.739029
116.315312,229.828649,-0.000000,9548.656652
116.315620,0.000000,148.041188,9992.780217
116.315928,153.219100,-0.000000,9992.780217
116.316236,229.828649,-0.000000,9770.718434
116.316544,536.266849,-0.000000,9770.718434
116.316852,919.314598,-0.000000,9918.759623
116.317160,842.705048,-0.000000,9696.697840
116.317468,1072.533697,-0.000000,9548.656652
116.317776,1225.752797,-0.000000,9474.636058
116.318083,1149.143247,148.041188,9548.656652
116.318391,1455.581446,222.061783,9326.594869
116.318699,1685.410096,148.041188,9474.636058
116.319007,1455.581446,-0.000000,9548.656652
116.319315,1608.800546,-0.000000,9696.697840
116.319623,1838.629195,-148.041188,9474.636058
116.319931,2374.896044,148.041188,9844.739029
116.320239,2451.505594,-0.000000,9252.574275
116.320547,2298.286494,666.185348,9474.636058
116.320855,2374.896044,518.144159,9474.636058
116.321163,2451.505594,370.102971,9252.574275
116.321471,2451.505594,518.144159,9400.615463
116.321779,2451.505594,370.102971,9400.615463
116.322087,2451.505594,296.082377,9474.636058
116.322395,2451.505594,592.164754,9474.636058
116.322703,2221.676944,888.247130,9252.574275
116.323011,2451.505594,592.164754,9474.636058
116.323319,1838.629195,814.226536,9474.636058
116.323627,1915.238745,740.205942,9400.615463
116.323935,1685.410096,888.247130,9474.636058
116.324243,2451.505594,814.226536,9474.636058
116.324551,1762.019645,1036.288319,9474.636058
116.324859,1838.629195,666.185348,9178.553681
116.325167,1762.019645,666.185348,9326.594869
116.325475,1532.190996,740.205942,9400.615463
116.325783,1149.143247,666.185348,9548.656652
116.326091,995.924147,666.185348,9474.636058
116.326399,536.266849,148.041188,9474.636058
116.326707,306.438199,-0.000000,9918.759623
116.327015,842.705048,-74.020594,9844.739029
116.327323,536.266849,-666.185348,9992.780217
116.327630,-229.828649,-518.144159,9474.636058
116.327938,0.000000,-592.164754,10214.842000
116.328246,0.000000,-222.061783,9992.780217
116.328554,229.828649,-296.082377,9770.718434
116.328862,76.609550,-0.000000,9474.636058
116.329170,229.828649,-74.020594,9474.636058
116.329478,153.219100,-148.041188,9474.636058
116.329786,229.828649,-0.000000,9178.553681
116.330094,766.095498,-0.000000,9104.533087
116.330402,-153.219100,-0.000000,9252.574275
116.330710,-306.438199,-0.000000,9326.594869
116.331018,-383.047749,-0.000000,9400.615463
116.331326,-306.438199,-74.020594,9474.636058
116.331634,-536.266849,-74.020594,9622.677246
116.331942,-919.314598,-370.102971,9770.718434
116.332250,-229.828649,-222.061783,9696.697840
116.332558,-459.657299,-370.102971,9548.656652
116.332866,-612.876398,-370.102971,9918.759623
116.333174,-766.095498,-222.061783,10066.800811
116.333482,-842.705048,-296.082377,9844.739029
116.333790,-995.924147,-148.041188,9844.739029
116.334098,-459.657299,-0.000000,9844.739029
116.334406,-766.095498,-148.041188,9696.697840
116.334714,-459.657299,74.020594,9622.677246
116.335022,-383.047749,-0.000000,9696.697840
116.335330,-383.047749,370.102971,9622.677246
116.335638,0.000000,370.102971,9770.718434
116.335946,0.000000,148.041188,9474.636058
116.336254,0.000000,370.102971,9918.759623
116.336562,0.000000,222.061783,9474.636058
116.336870,0.000000,-0.000000,9474.636058
116.337177,459.657299,444.123565,9770.718434
116.337485,229.828649,444.123565,9696.697840
116.337793,306.438199,296.082377,9474.636058
116.338101,459.657299,-0.000000,9474.636058
116.338409,459.657299,-0.000000,9548.656652
116.338717,689.485948,-0.000000,9474.636058
116.339025,766.095498,-0.000000,9770.718434
116.339333,766.095498,-0.000000,9770.718434
116.339641,919.314598,-74.020594,9696.697840
116.339949,1455.581446,-0.000000,9696.697840
116.340257,1149.143247,-0.000000,9474.636058
116.340565,1455.581446,-0.000000,9696.697840
116.340873,1302.362347,-0.000000,9696.697840
116.341181,1378.971896,-74.020594,9696.697840
116.341489,1225.752797,-0.000000,9770.718434
116.341796,1762.019645,-0.000000,10066.800811
116.342104,995.924147,148.041188,9770.718434
116.342412,1378.971896,444.123565,9770.718434
116.342720,1762.019645,444.123565,9474.636058
116.343028,1991.848295,962.267725,9474.636058
116.343336,2145.067394,888.247130,9474.636058
116.343644,2221.676944,740.205942,9252.574275
116.343952,2221.676944,592.164754,9400.615463
116.344260,2451.505594,518.144159,9400.615463
116.344568,2221.676944,962.267725,9548.656652
116.344876,2145.067394,296.082377,9770.718434
116.345184,1685.410096,666.185348,9474.636058
116.345492,1762.019645,592.164754,9474.636058
116.345800,1685.410096,666.185348,9548.656652
116.346108,1685.410096,740.205942,9474.636058
116.346415,1685.410096,814.226536,9622.677246
116.346723,1762.019645,1110.308913,9474.636058
116.347031,1838.629195,740.205942,9178.553681
116.347339,1608.800546,666.185348,9474.636058
116.347647,1608.800546,814.226536,9326.594869
116.347955,1302.362347,814.226536,9400.615463
116.348263,919.314598,296.082377,9400.615463
116.348571,612.876398,148.041188,9548.656652
116.348879,383.047749,-296.082377,9770.718434
116.349187,383.047749,-370.102971,9918.759623
116.349495,153.219100,-666.185348,10066.800811
116.349803,0.000000,-518.144159,9622.677246
116.350111,76.609550,-518.144159,9696.697840
116.350419,153.219100,-666.185348,9696.697840
116.350727,383.047749,-370.102971,9326.594869
116.351035,612.876398,-148.041188,9400.615463
116.351342,689.485948,-148.041188,9178.553681
116.351650,536.266849,518.144159,9178.553681
116.351958,459.657299,-0.000000,9400.615463
116.352266,0.000000,-0.000000,9030.512492
116.352574,-229.828649,-74.020594,9252.574275
116.352882,-383.047749,-222.061783,9474.636058
116.353190,-383.047749,-222.061783,9474.636058
116.353498,-995.924147,-222.061783,9548.656652
116.353806,-689.485948,-74.020594,9622.677246
116.354114,-612.876398,-148.041188,9548.656652
116.354422,-229.828649,-296.082377,9548.656652
116.354730,-766.095498,148.041188,9622.677246
116.355038,-306.438199,-0.000000,9770.718434
116.355346,-536.266849,-0.000000,9696.697840
116.355654,-536.266849,222.061783,9918.759623
116.355961,-689.485948,-0.000000,9918.759623
116.356269,-1149.143247,-0.000000,9918.759623
116.356577,-995.924147,370.102971,9696.697840
116.356885,-1072.533697,-0.000000,9992.780217
116.357193,-842.705048,222.061783,10140.821405
116.357501,-995.924147,592.164754,9992.780217
116.357809,-689.485948,222.061783,9992.780217
116.358117,-536.266849,444.123565,9770.718434
116.358425,459.657299,592.164754,9696.697840
116.358733,0.000000,148.041188,9918.759623
116.359041,-306.438199,-0.000000,10140.821405
116.359349,0.000000,222.061783,9770.718434
116.359657,-383.047749,148.041188,9918.759623
116.359965,153.219100,-0.000000,9992.780217
116.360273,229.828649,-0.000000,10066.800811
116.360580,306.438199,-0.000000,9548.656652
116.360888,612.876398,-0.000000,9548.656652
116.361196,995.924147,-0.000000,9474.636058
116.361504,1149.143247,-0.000000,9696.697840
116.361812,1302.362347,370.102971,9918.759623
116.362120,1455.581446,222.061783,9474.636058
116.362428,1532.190996,222.061783,9326.594869
116.362736,1685.410096,370.102971,9400.615463
116.363044,1838.629195,296.082377,9474.636058
116.363352,1762.019645,-74.020594,9400.615463
116.363660,2068.457845,296.082377,9474.636058
116.363968,2068.457845,296.082377,9696.697840
116.364276,1915.238745,-0.000000,9474.636058
116.364584,1685.410096,370.102971,9696.697840
116.364892,2068.457845,444.123565,9474.636058
116.365199,2298.286494,370.102971,9400.615463
116.365507,2451.505594,370.102971,9474.636058
116.365815,2145.067394,518.144159,9622.677246
116.366123,2374.896044,296.082377,9548.656652
116.366431,2451.505594,518.144159,9622.677246
116.366739,2451.505594,444.123565,9696.697840
116.367047,2221.676944,592.164754,9622.677246
116.367355,2068.457845,740.205942,9474.636058
116.367663,2068.457845,1110.308913,9474.636058
116.367971,2145.067394,1036.288319,9252.574275
116.368279,1915.238745,740.205942,9104.533087
116.368587,1838.629195,1110.308913,9400.615463
116.368895,2145.067394,1110.308913,9104.533087
116.369203,1302.362347,1036.288319,9326.594869
116.369511,1608.800546,814.226536,9474.636058
116.369818,919.314598,592.164754,9548.656652
116.370126,919.314598,518.144159,9548.656652
116.370434,842.705048,370.102971,9696.697840
116.370742,536.266849,296.082377,9696.697840
116.371050,766.095498,-222.061783,9918.759623
116.371358,383.047749,-444.123565,10288.862594
116.371666,0.000000,-592.164754,9844.739029
116.371974,0.000000,-518.144159,10214.842000
116.372282,0.000000,-592.164754,9770.718434
116.372590,76.609550,-444.123565,9696.697840
116.372898,-153.219100,-74.020594,9548.656652
116.373206,459.657299,-444.123565,9178.553681
116.373514,536.266849,-0.000000,8882.471304
116.373822,0.000000,-222.061783,9030.512492
116.374130,0.000000,-444.123565,9104.533087
116.374438,-306.438199,-148.041188,9104.533087
116.374745,-153.219100,-0.000000,9252.574275
116.375053,-459.657299,-222.061783,9252.574275
116.375361,-229.828649,-74.020594,9474.636058
116.375669,-842.705048,-296.082377,9844.739029
116.375977,-536.266849,-370.102971,9622.677246
116.376285,-229.828649,-666.185348,9844.739029
116.376593,-383.047749,-592.164754,9992.780217
116.376901,-536.266849,-148.041188,9548.656652
116.377209,-612.876398,-74.020594,9770.718434
116.377517,-919.314598,-74.020594,9770.718434
116.377825,-766.095498,-370.102971,9696.697840
116.378133,-383.047749,-74.020594,9992.780217
116.378441,-842.705048,-222.061783,9696.697840
116.378749,-919.314598,-74.020594,9992.780217
116.379057,-766.095498,-222.061783,10140.821405
116.379364,-536.266849,148.041188,9992.780217
116.379672,-612.876398,296.082377,9696.697840
116.379980,-229.828649,444.123565,9918.759623
116.380288,-459.657299,296.082377,9770.718434
116.380596,76.609550,740.205942,9918.759623
116.380904,229.828649,444.123565,9474.636058
116.381212,153.219100,296.082377,9548.656652
116.381520,0.000000,-0.000000,9474.636058
116.381828,459.657299,518.144159,9548.656652
116.382136,459.657299,592.164754,9474.636058
116.382444,306.438199,222.061783,9474.636058
116.382752,459.657299,222.061783,9548.656652
116.383060,842.705048,-148.041188,10066.800811
116.383368,689.485948,-0.000000,9918.759623
116.383676,306.438199,-222.061783,9696.697840
116.383983,1302.362347,-296.082377,9696.697840
116.384291,1225.752797,-0.000000,9696.697840
116.384599,1532.190996,-0.000000,9622.677246
116.384907,1608.800546,-0.000000,9770.718434
116.385215,1378.971896,148.041188,9622.677246
116.385523,1762.019645,-0.000000,9770.718434
116.385831,1149.143247,-0.000000,9844.739029
116.386139,1991.848295,296.082377,9770.718434
116.386447,1915.238745,-0.000000,9696.697840
116.386755,1915.238745,222.061783,9474.636058
116.387063,2068.457845,370.102971,9474.636058
116.387371,2068.457845,592.164754,9548.656652
116.387679,2298.286494,444.123565,9474.636058
116.387987,2221.676944,592.164754,9474.636058
116.388295,2451.505594,518.144159,9326.594869
116.388602,2604.724693,518.144159,9400.615463
116.388910,2451.505594,518.144159,9400.615463
116.389218,2068.457845,666.185348,9622.677246
116.389526,2221.676944,814.226536,9474.636058
116.389834,1762.019645,814.226536,9474.636058
116.390142,1685.410096,962.267725,9400.615463
116.390450,1762.019645,962.267725,9696.697840
116.390758,1991.848295,740.205942,9400.615463
116.391066,1915.238745,814.226536,9400.615463
116.391374,1608.800546,962.267725,9844.739029
116.391682,1378.971896,666.185348,9400.615463
116.391990,1072.533697,666.185348,9474.636058
116.392298,919.314598,592.164754,9548.656652
116.392606,766.095498,370.102971,9548.656652
116.392914,689.485948,444.123565,9844.739029
116.393221,76.609550,-148.041188,9918.759623
116.393529,306.438199,-592.164754,9770.718434
116.393837,306.438199,-74.020594,10140.821405
116.394145,76.609550,-518.144159,9844.739029
116.394453,0.000000,-296.082377,9696.697840
116.394761,76.609550,-444.123565,9474.636058
116.395069,76.609550,-0.000000,9474.636058
116.395377,536.266849,-222.061783,9326.594869
116.395685,766.095498,-0.000000,9104.533087
116.395993,766.095498,-0.000000,9178.553681
116.396301,229.828649,-148.041188,8882.471304
116.396609,229.828649,-296.082377,9178.553681
116.396917,-153.219100,-370.102971,9400.615463
116.397225,-306.438199,-74.020594,9400.615463
116.397533,-306.438199,-222.061783,9474.636058
116.397840,0.000000,-148.041188,9696.697840
116.398148,0.000000,-296.082377,9474.636058
116.398456,-229.828649,-148.041188,9622.677246
116.398764,-306.438199,-148.041188,9992.780217
116.399072,-612.876398,-222.061783,9918.759623
116.399380,-766.095498,-222.061783,9844.739029
116.399688,-842.705048,-296.082377,10140.821405
116.399996,-995.924147,-296.082377,10140.821405
116.400304,-919.314598,-222.061783,10066.800811
116.400612,-1378.971896,-74.020594,10584.944971
116.400920,-766.095498,-296.082377,9844.739029
116.401228,-995.924147,296.082377,9548.656652
116.401536,-536.266849,222.061783,9770.718434
116.401844,-612.876398,444.123565,9622.677246
116.402152,-306.438199,592.164754,9622.677246
116.402460,-229.828649,518.144159,9548.656652
116.402767,-229.828649,370.102971,9696.697840
116.403075,0.000000,296.082377,9178.553681
116.403383,0.000000,222.061783,9622.677246
116.403691,0.000000,444.123565,9844.739029
116.403999,229.828649,222.061783,9844.739029
116.404307,153.219100,370.102971,9696.697840
116.404615,383.047749,-0.000000,9696.697840
116.404923,306.438199,-148.041188,9622.677246
116.405231,229.828649,-148.041188,9622.677246
116.405539,689.485948,-296.082377,9696.697840
116.405847,995.924147,-74.020594,9770.718434
116.406155,1149.143247,-148.041188,9918.759623
116.406463,1149.143247,-0.000000,9622.677246
116.406771,1455.581446,-0.000000,9696.697840
116.407079,1532.190996,148.041188,9622.677246
116.407386,1608.800546,-296.082377,9474.636058
116.407694,2298.286494,-0.000000,9548.656652
116.408002,2221.676944,148.041188,9844.739029
116.408310,2221.676944,-148.041188,9696.697840
116.408618,2145.067394,296.082377,9622.677246
116.408926,2298.286494,518.144159,9696.697840
116.409234,2374.896044,444.123565,9326.594869
116.409542,2374.896044,740.205942,9252.574275
116.409850,2451.505594,518.144159,9178.553681
116.410158,2757.943793,814.226536,9548.656652
116.410466,2374.896044,888.247130,9400.615463
116.410774,2681.334243,888.247130,9474.636058
116.411082,2145.067394,888.247130,9178.553681
116.411390,1915.238745,962.267725,9474.636058
116.411698,2298.286494,370.102971,9992.780217
116.412005,1762.019645,962.267725,9326.594869
