#time,accel_x,accel_y,accel_z
275.545381,995.924147,-0.000000,9400.615463
275.545689,689.485948,-0.000000,9844.739029
275.545997,995.924147,-74.020594,9474.636058
275.546305,459.657299,222.061783,9622.677246
275.546613,459.657299,370.102971,9622.677246
275.546921,536.266849,222.061783,9474.636058
275.547230,919.314598,370.102971,9770.718434
275.547538,383.047749,222.061783,9622.677246
275.547846,612.876398,-0.000000,9770.718434
275.548154,1072.533697,148.041188,10066.800811
275.548462,766.095498,-0.000000,9548.656652
275.548770,612.876398,296.082377,9696.697840
275.549078,459.657299,370.102971,9622.677246
275.549386,842.705048,148.041188,9622.677246
275.549695,919.314598,222.061783,9696.697840
275.550003,1072.533697,-0.000000,9548.656652
275.550311,153.219100,296.082377,9918.759623
275.550619,612.876398,-0.000000,9548.656652
275.550927,766.095498,-0.000000,9696.697840
275.551235,612.876398,-0.000000,9770.718434
275.551543,612.876398,148.041188,9548.656652
275.551851,842.705048,-0.000000,9474.636058
275.552160,536.266849,222.061783,9548.656652
275.552468,842.705048,148.041188,9696.697840
275.552776,842.705048,222.061783,9622.677246
275.553084,689.485948,74.020594,9696.697840
275.553392,919.314598,-0.000000,9622.677246
275.553700,536.266849,222.061783,9622.677246
275.554008,229.828649,-0.000000,9622.677246
275.554316,612.876398,-0.000000,9770.718434
275.554625,995.924147,222.061783,9696.697840
275.554933,383.047749,-74.020594,9474.636058
275.555241,919.314598,-0.000000,9770.718434
275.555549,1149.143247,148.041188,9474.636058
275.555857,689.485948,-0.000000,9770.718434
275.556165,689.485948,148.041188,9548.656652
275.556473,459.657299,222.061783,9548.656652
275.556781,536.266849,370.102971,9548.656652
275.557089,229.828649,-0.000000,9548.656652
275.557398,459.657299,222.061783,9622.677246
275.557706,689.485948,-222.061783,9474.636058
275.558014,536.266849,370.102971,9696.697840
275.558322,383.047749,-0.000000,9474.636058
275.558630,229.828649,296.082377,9474.636058
275.558938,612.876398,222.061783,9548.656652
275.559246,689.485948,-0.000000,9474.636058
275.559554,919.314598,-0.000000,9474.636058
275.559863,689.485948,-0.000000,9770.718434
275.560171,689.485948,296.082377,9548.656652
275.560479,612.876398,444.123565,9696.697840
275.560787,536.266849,-0.000000,9622.677246
275.561095,536.266849,-0.000000,9548.656652
275.561403,383.047749,-0.000000,9474.636058
275.561711,536.266849,222.061783,9474.636058
275.562019,306.438199,222.061783,9474.636058
275.562328,612.876398,-0.000000,9622.677246
275.562636,536.266849,296.082377,9918.759623
275.562944,306.438199,444.123565,9770.718434
275.563252,689.485948,222.061783,9548.656652
275.563560,459.657299,222.061783,9474.636058
275.563868,306.438199,222.061783,9474.636058
275.564176,459.657299,-0.000000,9474.636058
275.564484,459.657299,-0.000000,9474.636058
275.564793,612.876398,-0.000000,9400.615463
275.565101,842.705048,444.123565,9548.656652
275.565409,459.657299,296.082377,9770.718434
275.565717,842.705048,666.185348,9696.697840
275.566025,536.266849,222.061783,9474.636058
275.566333,536.266849,296.082377,9474.636058
275.566641,766.095498,148.041188,9622.677246
275.566949,689.485948,-0.000000,9400.615463
275.567258,689.485948,296.082377,9326.594869
275.567566,919.314598,-0.000000,10140.821405
275.567874,842.705048,-0.000000,10362.883188
275.568182,842.705048,-518.144159,9918.759623
275.568490,536.266849,-518.144159,9992.780217
275.568798,689.485948,-444.123565,10214.842000
275.569106,919.314598,-296.082377,9992.780217
275.569414,1149.143247,-74.020594,9918.759623
275.569723,1608.800546,-0.000000,9622.677246
275.570031,1991.848295,444.123565,9104.533087
275.570339,2451.505594,518.144159,9030.512492
275.570647,2528.115143,888.247130,8882.471304
275.570955,2374.896044,740.205942,9178.553681
275.571263,1915.238745,444.123565,9104.533087
275.571571,1838.629195,370.102971,9474.636058
275.571879,1685.410096,296.082377,9770.718434
275.572188,1762.019645,-74.020594,9992.780217
275.572496,1685.410096,148.041188,10288.862594
275.572804,2528.115143,-0.000000,9770.718434
275.573112,1762.019645,-518.144159,9992.780217
275.573420,2221.676944,-74.020594,10066.800811
275.573728,2451.505594,-0.000000,9918.759623
275.574036,2528.115143,518.144159,9474.636058
275.574344,2987.772442,-0.000000,9252.574275
275.574652,2911.162892,370.102971,9622.677246
275.574961,2681.334243,222.061783,9474.636058
275.575269,2757.943793,370.102971,9326.594869
275.575577,2757.943793,592.164754,9696.697840
275.575885,2604.724693,-0.000000,9770.718434
275.576193,2604.724693,-0.000000,9844.739029
275.576501,2528.115143,-0.000000,9696.697840
275.576809,2987.772442,222.061783,9844.739029
275.577117,3217.601092,-74.020594,9992.780217
275.577426,2681.334243,-222.061783,9992.780217
275.577734,3294.210641,-222.061783,10140.821405
275.578042,3064.381992,-0.000000,9844.739029
275.578350,3294.210641,148.041188,9844.739029
275.578658,3370.820191,-0.000000,9696.697840
275.578966,3524.039291,-0.000000,9622.677246
275.579274,4213.525239,-0.000000,9326.594869
275.579582,4213.525239,444.123565,8956.491898
275.579891,4443.353888,444.123565,9252.574275
275.580199,3753.867940,814.226536,9178.553681
275.580507,4443.353888,370.102971,9104.533087
275.580815,4290.134789,148.041188,9474.636058
275.581123,4060.306139,-0.000000,9474.636058
275.581431,4136.915689,296.082377,9474.636058
275.581739,4060.306139,296.082377,9474.636058
275.582047,4213.525239,-0.000000,9696.697840
275.582356,4443.353888,518.144159,9104.533087
275.582664,4519.963438,444.123565,8956.491898
275.582972,4366.744339,740.205942,8882.471304
275.583280,4749.792088,1184.329507,8586.388927
275.583588,3983.696590,592.164754,8660.409521
275.583896,4519.963438,1480.411884,8882.471304
275.584204,4366.744339,1036.288319,9030.512492
275.584512,3830.477490,888.247130,9178.553681
275.584821,3524.039291,1036.288319,9474.636058
275.585129,3064.381992,296.082377,10066.800811
275.585437,3064.381992,444.123565,10362.883188
275.585745,2451.505594,296.082377,9992.780217
275.586053,2451.505594,370.102971,10288.862594
275.586361,2451.505594,592.164754,9992.780217
275.586669,2911.162892,1036.288319,10066.800811
275.586977,2298.286494,592.164754,9844.739029
275.587286,2145.067394,1184.329507,10066.800811
275.587594,1302.362347,148.041188,9992.780217
275.587902,1685.410096,-74.020594,10288.862594
275.588210,1455.581446,-592.164754,10584.944971
275.588518,1455.581446,-888.247130,10510.924376
275.588826,1225.752797,-1110.308913,10288.862594
275.589134,1608.800546,-1258.350101,10436.903782
275.589442,1608.800546,-1850.514855,11029.068536
275.589750,2528.115143,-1850.514855,11029.068536
275.590059,2757.943793,-1702.473667,10436.903782
275.590367,3294.210641,-1702.473667,9992.780217
275.590675,3447.429741,-1184.329507,9474.636058
275.590983,3600.648841,-444.123565,9400.615463
275.591291,4903.011187,-148.041188,9400.615463
275.591599,4596.572988,370.102971,8290.306550
275.591907,4903.011187,1036.288319,8512.368333
275.592215,5056.230287,1036.288319,8808.450710
275.592524,5132.839837,666.185348,8068.244768
275.592832,4749.792088,444.123565,8290.306550
275.593140,4290.134789,666.185348,8586.388927
275.593448,3830.477490,222.061783,9178.553681
275.593756,3524.039291,-0.000000,9548.656652
275.594064,3294.210641,-0.000000,9770.718434
275.594372,3217.601092,888.247130,9696.697840
275.594680,3294.210641,1258.350101,9104.533087
275.594989,4213.525239,2368.659014,8734.430116
275.595297,4366.744339,2812.782580,8512.368333
275.595605,4213.525239,3182.885551,8364.327145
275.595913,4443.353888,2738.761985,8660.409521
275.596221,3830.477490,1998.556043,9178.553681
275.596529,3064.381992,962.267725,10214.842000
275.596837,2681.334243,-962.267725,11177.109724
275.597145,689.485948,-1998.556043,12509.480420
275.597454,536.266849,-3404.947333,13693.809927
275.597762,536.266849,-3627.009116,13545.768739
275.598070,1302.362347,-3552.988522,13101.645173
275.598378,2298.286494,-2812.782580,11769.274478
275.598686,4290.134789,-1110.308913,10066.800811
275.598994,5822.325785,-0.000000,9030.512492
275.599302,7201.297681,888.247130,7920.203579
275.599610,6971.469032,2960.823768,6217.729913
275.599919,7660.954980,4071.132681,5551.544565
275.600227,7814.174080,4219.173869,5699.585753
275.600535,6741.640382,4885.359217,5551.544565
275.600843,5669.106685,4367.215058,6291.750507
275.601151,4903.011187,3330.926739,7105.977043
275.601459,2451.505594,2368.659014,7920.203579
275.601767,1838.629195,592.164754,9400.615463
275.602075,1378.971896,-814.226536,11621.233289
275.602384,0.000000,-2664.741391,12509.480420
275.602692,-612.876398,-3404.947333,13323.706956
275.603000,-306.438199,-3478.967927,13693.809927
275.603308,306.438199,-3627.009116,13101.645173
275.603616,1608.800546,-2886.803174,12583.501014
275.603924,2604.724693,-1850.514855,11769.274478
275.604232,3983.696590,-1184.329507,9770.718434
275.604540,4749.792088,222.061783,8512.368333
275.604848,5056.230287,1332.370696,7328.038826
275.605157,5439.278036,2738.761985,6661.853478
275.605465,5209.449386,3182.885551,6365.771101
275.605773,4903.011187,3849.070898,6291.750507
275.606081,3907.087040,3478.967927,6291.750507
275.606389,3064.381992,2220.617826,7179.997637
275.606697,1991.848295,370.102971,9178.553681
275.607005,1072.533697,-1406.391290,11029.068536
275.607313,-459.657299,-2886.803174,12509.480420
275.607622,-1455.581446,-4293.194464,13175.665768
275.607930,-1225.752797,-4293.194464,13693.809927
275.608238,0.000000,-3182.885551,13175.665768
275.608546,2068.457845,-2146.597232,11473.192101
275.608854,3524.039291,222.061783,9770.718434
275.609162,5822.325785,2294.638420,7476.080014
275.609470,5362.668486,4367.215058,4737.318029
275.609778,6281.983084,5329.482782,5033.400406
275.610087,5898.935335,5699.585753,4737.318029
275.610395,4903.011187,4737.318029,5403.503377
275.610703,3447.429741,1998.556043,8216.285956
275.611011,459.657299,-222.061783,9844.739029
275.611319,-995.924147,-2590.720797,12065.356855
275.611627,-2987.772442,-4515.256246,14730.098246
275.611935,-4213.525239,-6143.709319,16432.571912
275.612243,-4060.306139,-5773.606348,16506.592507
275.612552,-2451.505594,-4663.297435,15544.324782
275.612860,-383.047749,-2738.761985,12583.501014
275.613168,2374.896044,518.144159,8808.450710
275.613476,4903.011187,2590.720797,6661.853478
275.613784,6511.811733,4515.256246,5033.400406
275.614092,7201.297681,6513.812290,3997.112087
275.614400,6894.859482,6883.915261,3627.009116
275.614708,5975.544884,5477.523971,4441.235652
275.615017,3677.258390,2072.576638,7105.977043
275.615325,459.657299,-1258.350101,10288.862594
275.615633,-2298.286494,-4515.256246,12953.603985
275.615941,-4673.182538,-6291.750507,15396.283594
275.616249,-4136.915689,-6365.771101,15840.407159
275.616557,-2145.067394,-4441.235652,14137.933492
275.616865,76.609550,-1110.308913,11843.295072
275.617173,3524.039291,1406.391290,8586.388927
275.617482,5515.887586,4071.132681,5921.647536
275.617790,6741.640382,7031.956449,4145.153275
275.618098,7201.297681,7846.182985,3923.091493
275.618406,6281.983084,7179.997637,4737.318029
275.618714,4213.525239,5107.421000,5921.647536
275.619022,1149.143247,1924.535449,8586.388927
275.619330,-2451.505594,-1702.473667,12583.501014
275.619638,-4826.401637,-5625.565159,16358.551318
275.619947,-7737.564530,-7624.121203,17098.757260
275.620254,-7814.174080,-8586.388927,18061.024985
275.620562,-5362.668486,-7476.080014,16876.695478
275.620870,-2528.115143,-4441.235652,13841.851115
275.621178,536.266849,-1184.329507,9326.594869
275.621486,4290.134789,2368.659014,6439.791695
275.621793,5745.716235,5625.565159,3182.885551
275.622101,7967.393179,7179.997637,3256.906145
275.622409,7660.954980,7698.141797,2442.679609
275.622717,6358.592633,6809.894666,3034.844362
275.623024,3983.696590,3330.926739,6291.750507
275.623332,919.314598,-444.123565,9548.656652
275.623640,-2834.553343,-3849.070898,12139.377449
275.623948,-4213.525239,-5033.400406,14137.933492
275.624256,-3907.087040,-5329.482782,13841.851115
275.624563,-2604.724693,-4737.318029,13619.789333
275.624871,229.828649,-1258.350101,11103.089130
275.625179,2604.724693,740.205942,7624.121203
275.625487,3983.696590,2072.576638,6365.771101
275.625795,5209.449386,4071.132681,5921.647536
275.626102,4366.744339,4515.256246,6069.688724
275.626410,3217.601092,3552.988522,7031.956449
275.626718,1378.971896,1998.556043,8808.450710
275.627026,-1225.752797,-0.000000,10881.027347
275.627334,-3064.381992,-2368.659014,12731.542202
275.627641,-4673.182538,-3552.988522,13767.830521
275.627949,-5286.058936,-3775.050304,14508.036463
275.628257,-4749.792088,-4071.132681,14211.954086
275.628565,-3140.991542,-2368.659014,12583.501014
275.628873,306.438199,-444.123565,9474.636058
275.629180,2911.162892,1406.391290,7105.977043
275.629488,3983.696590,2368.659014,5403.503377
275.629796,4596.572988,3034.844362,5773.606348
275.630104,4060.306139,2738.761985,6809.894666
275.630412,2451.505594,1998.556043,8290.306550
275.630719,1149.143247,814.226536,9474.636058
275.631027,612.876398,740.205942,8956.491898
275.631335,-536.266849,222.061783,9252.574275
275.631643,-995.924147,444.123565,9474.636058
275.631951,842.705048,592.164754,11473.192101
275.632258,229.828649,1110.308913,9252.574275
275.632566,842.705048,518.144159,9178.553681
275.632874,689.485948,-592.164754,10288.862594
275.633182,-612.876398,-1406.391290,9992.780217
275.633490,-689.485948,-2368.659014,12213.398043
275.633797,-2221.676944,-2368.659014,12435.459826
275.634105,-2987.772442,-3552.988522,13619.789333
275.634413,-3217.601092,-2812.782580,12731.542202
275.634721,-2757.943793,-1332.370696,11991.336260
275.635029,-1072.533697,-0.000000,10658.965565
275.635336,0.000000,1850.514855,7994.224174
275.635644,2604.724693,3256.906145,7772.162391
275.635952,3677.258390,4219.173869,5699.585753
275.636260,5056.230287,3775.050304,6365.771101
275.636568,2757.943793,3256.906145,5773.606348
275.636875,4213.525239,1184.329507,7920.203579
275.637183,1991.848295,-814.226536,9104.533087
275.637491,-536.266849,-1998.556043,10732.986159
275.637799,-612.876398,-3330.926739,13101.645173
275.638107,-1608.800546,-1702.473667,11251.130318
275.638414,0.000000,-1406.391290,11103.089130
275.638722,1532.190996,666.185348,9178.553681
275.639030,3140.991542,2664.741391,8142.265362
275.639338,3907.087040,4071.132681,7031.956449
275.639646,3830.477490,4737.318029,5847.626942
275.639953,3447.429741,3478.967927,8068.244768
275.640261,1762.019645,1332.370696,9252.574275
275.640569,383.047749,-0.000000,11917.315666
275.640877,-2528.115143,-2368.659014,13619.789333
275.641185,-4366.744339,-4811.338623,15100.201217
275.641492,-5056.230287,-4811.338623,15322.262999
275.641800,-4673.182538,-4293.194464,14285.974681
275.642108,-2987.772442,-3330.926739,13323.706956
275.642416,-536.266849,-592.164754,10214.842000
275.642724,2834.553343,2516.700203,7328.038826
275.643031,5056.230287,4367.215058,4811.338623
275.643339,6971.469032,5625.565159,3182.885551
275.643647,7584.345430,5403.503377,3034.844362
275.643955,6128.763984,4515.256246,4219.173869
275.644263,4290.134789,1850.514855,7254.018232
275.644570,1302.362347,-518.144159,9918.759623
275.644878,-766.095498,-2812.782580,11843.295072
275.645186,-2451.505594,-3775.050304,11917.315666
275.645494,-2451.505594,-3182.885551,11991.336260
275.645802,-1838.629195,-2294.638420,11843.295072
275.646109,306.438199,-592.164754,10955.047942
275.646417,2451.505594,1480.411884,8734.430116
275.646725,3370.820191,2368.659014,7105.977043
275.647033,3600.648841,2886.803174,6217.729913
275.647341,3064.381992,2664.741391,6809.894666
275.647648,2068.457845,1406.391290,8660.409521
275.647956,0.000000,-444.123565,10584.944971
275.648264,-2298.286494,-2812.782580,12953.603985
275.648572,-3370.820191,-4737.318029,14804.118840
275.648880,-5286.058936,-4515.256246,14434.015869
275.649187,-4903.011187,-4293.194464,13841.851115
275.649495,-3217.601092,-2146.597232,12065.356855
275.649803,-383.047749,518.144159,9992.780217
275.650111,2528.115143,2072.576638,7624.121203
275.650419,5132.839837,4219.173869,4663.297435
275.650726,5669.106685,4737.318029,3330.926739
275.651034,5975.544884,4219.173869,4737.318029
275.651342,4213.525239,3108.864956,5921.647536
275.651650,2604.724693,1924.535449,8586.388927
275.651958,153.219100,-444.123565,10436.903782
275.652265,-1838.629195,-1184.329507,10807.006753
275.652573,-1762.019645,-2072.576638,11843.295072
275.652881,-1991.848295,-1258.350101,11547.212695
275.653189,-536.266849,-814.226536,11399.171507
275.653497,919.314598,148.041188,10436.903782
275.653804,1455.581446,1332.370696,8512.368333
275.654112,2068.457845,1850.514855,7772.162391
275.654420,2068.457845,1184.329507,8364.327145
275.654728,1225.752797,296.082377,9474.636058
275.655036,459.657299,-888.247130,10881.027347
275.655343,-1915.238745,-2072.576638,13101.645173
275.655651,-3140.991542,-3330.926739,13545.768739
275.655959,-3753.867940,-3182.885551,13323.706956
275.656267,-3830.477490,-1924.535449,12879.583391
275.656575,-2451.505594,-814.226536,11695.253884
275.656882,76.609550,962.267725,9918.759623
275.657190,2145.067394,2960.823768,7179.997637
275.657498,4519.963438,3997.112087,5255.462188
275.657806,4749.792088,3849.070898,5403.503377
275.658114,4979.620737,2886.803174,5403.503377
275.658421,3140.991542,1702.473667,6883.915261
275.658729,2451.505594,444.123565,9474.636058
275.659037,0.000000,-1480.411884,10584.944971
275.659345,-1302.362347,-2368.659014,11251.130318
275.659653,-1608.800546,-2664.741391,12435.459826
275.659960,-1838.629195,-1702.473667,11251.130318
275.660268,-153.219100,-370.102971,11251.130318
275.660576,1532.190996,1332.370696,9770.718434
275.660884,3140.991542,2368.659014,8142.265362
275.661192,3217.601092,2886.803174,7254.018232
275.661499,2911.162892,2442.679609,7772.162391
275.661807,2145.067394,962.267725,9178.553681
275.662115,459.657299,-296.082377,10510.924376
275.662423,-995.924147,-2146.597232,12213.398043
275.662731,-2604.724693,-3849.070898,13619.789333
275.663038,-3753.867940,-4071.132681,13915.871710
275.663346,-2987.772442,-2738.761985,12657.521608
275.663654,-1532.190996,-666.185348,11399.171507
275.663962,229.828649,370.102971,9696.697840
275.664270,2987.772442,2960.823768,7179.997637
275.664577,5209.449386,4589.276840,5107.421000
275.664885,5822.325785,4589.276840,4663.297435
275.665193,6435.202183,3997.112087,4885.359217
275.665501,4443.353888,2220.617826,6143.709319
275.665809,2834.553343,888.247130,8364.327145
275.666116,766.095498,-1332.370696,10732.986159
275.666424,-1225.752797,-2738.761985,11991.336260
275.666732,-2145.067394,-2960.823768,12065.356855
275.667040,-2298.286494,-2590.720797,12065.356855
275.667348,-1225.752797,-1480.411884,11843.295072
275.667655,459.657299,-0.000000,10214.842000
275.667963,2298.286494,1924.535449,8734.430116
275.668271,2834.553343,2664.741391,7328.038826
275.668579,2987.772442,2738.761985,7105.977043
275.668887,2834.553343,1850.514855,8438.347739
275.669194,1608.800546,592.164754,9400.615463
275.669502,0.000000,-1036.288319,11621.233289
275.669810,-2374.896044,-2960.823768,12805.562797
275.670118,-3217.601092,-4145.153275,13471.748144
275.670426,-3907.087040,-3478.967927,13397.727550
275.670733,-2451.505594,-1628.453072,12065.356855
275.671041,-612.876398,-0.000000,10436.903782
275.671349,1455.581446,1850.514855,7846.182985
275.671657,3907.087040,3849.070898,5773.606348
275.671965,5209.449386,4663.297435,4219.173869
275.672272,4979.620737,3404.947333,5033.400406
275.672580,4213.525239,2516.700203,6439.791695
275.672888,2987.772442,1776.494261,8364.327145
275.673196,612.876398,-444.123565,9918.759623
275.673504,-1532.190996,-1776.494261,11621.233289
275.673811,-2451.505594,-2294.638420,12805.562797
275.674119,-2834.553343,-1998.556043,12583.501014
275.674427,-2221.676944,-1184.329507,12139.377449
275.674735,-1072.533697,-444.123565,11695.253884
275.675043,1072.533697,888.247130,9844.739029
275.675350,1915.238745,2294.638420,8438.347739
275.675658,2145.067394,2072.576638,8142.265362
275.675966,1991.848295,1184.329507,8364.327145
275.676274,766.095498,444.123565,9548.656652
275.676582,-153.219100,-518.144159,11029.068536
275.676889,-2145.067394,-2146.597232,12435.459826
275.677197,-2987.772442,-2368.659014,12805.562797
275.677505,-3370.820191,-3182.885551,12657.521608
275.677813,-2528.115143,-1554.432478,12139.377449
275.678121,-919.314598,-0.000000,10658.965565
275.678428,1378.971896,1628.453072,8290.306550
275.678736,3064.381992,3182.885551,6143.709319
275.679044,4596.572988,3849.070898,4811.338623
275.679352,4749.792088,3256.906145,5033.400406
275.679660,4290.134789,1998.556043,6439.791695
275.679967,2834.553343,962.267725,7846.182985
275.680275,1455.581446,-592.164754,9548.656652
275.680583,-536.266849,-1998.556043,11103.089130
275.680891,-1762.019645,-2442.679609,11769.274478
275.681199,-1685.410096,-2146.597232,11917.315666
275.681506,-1302.362347,-1332.370696,11917.315666
275.681814,459.657299,-0.000000,10807.006753
275.682122,1762.019645,1554.432478,9400.615463
275.682430,2451.505594,2368.659014,7772.162391
275.682738,2757.943793,1998.556043,7994.224174
275.683045,2451.505594,1554.432478,7920.203579
275.683353,1532.190996,296.082377,9474.636058
275.683661,153.219100,-1258.350101,10732.986159
275.683969,-1685.410096,-2368.659014,12139.377449
275.684277,-2757.943793,-3108.864956,13619.789333
275.684584,-2757.943793,-3256.906145,12879.583391
275.684892,-2451.505594,-1480.411884,11769.274478
275.685200,-689.485948,-0.000000,10807.006753
275.685508,1532.190996,1850.514855,7994.224174
275.685816,3447.429741,3627.009116,5921.647536
275.686123,5362.668486,4515.256246,5181.441594
275.686431,5362.668486,4293.194464,4589.276840
275.686739,4519.963438,3182.885551,5625.565159
275.687047,3064.381992,1332.370696,7624.121203
275.687354,1072.533697,-518.144159,9844.739029
275.687662,0.000000,-2146.597232,11769.274478
275.687970,-2221.676944,-2590.720797,12213.398043
275.688278,-2451.505594,-2960.823768,12657.521608
275.688586,-1991.848295,-1776.494261,11917.315666
275.688893,-766.095498,-370.102971,11177.109724
275.689201,1149.143247,444.123565,9474.636058
275.689509,2298.286494,2368.659014,7994.224174
275.689817,3217.601092,2590.720797,7328.038826
275.690125,2911.162892,1924.535449,7550.100608
275.690432,2298.286494,1332.370696,8882.471304
275.690740,536.266849,-0.000000,10436.903782
275.691048,-1225.752797,-1998.556043,12287.418637
275.691356,-2834.553343,-3108.864956,13249.686362
275.691664,-4366.744339,-3256.906145,13619.789333
275.691971,-2834.553343,-2516.700203,12583.501014
275.692279,-1915.238745,-962.267725,11103.089130
275.692587,689.485948,740.205942,8882.471304
275.692895,2834.553343,2960.823768,6661.853478
275.693203,4290.134789,4293.194464,5107.421000
275.693510,4673.182538,3923.091493,5403.503377
275.693818,4596.572988,3256.906145,5477.523971
275.694126,3677.258390,2886.803174,7105.977043
275.694434,1378.971896,518.144159,9400.615463
275.694742,0.000000,-1480.411884,10807.006753
275.695049,-2221.676944,-2146.597232,12065.356855
275.695357,-2757.943793,-2442.679609,12509.480420
275.695665,-2604.724693,-1924.535449,12583.501014
275.695973,-1685.410096,-740.205942,11695.253884
275.696281,0.000000,592.164754,10066.800811
275.696588,1915.238745,1924.535449,8216.285956
275.696896,2451.505594,2072.576638,7328.038826
275.697204,2298.286494,1850.514855,8068.244768
275.697512,1455.581446,1036.288319,9178.553681
275.697820,766.095498,-444.123565,10362.883188
275.698127,-1378.971896,-2146.597232,11399.171507
275.698435,-2374.896044,-3108.864956,13027.624579
275.698743,-3217.601092,-3108.864956,13175.665768
275.699051,-2834.553343,-2442.679609,12435.459826
275.699359,-1149.143247,-592.164754,10881.027347
275.699666,1072.533697,666.185348,8734.430116
275.699974,2911.162892,2516.700203,6069.688724
275.700282,4519.963438,4071.132681,4737.318029
275.700590,5209.449386,3849.070898,4885.359217
275.700898,4596.572988,3330.926739,4885.359217
275.701205,3600.648841,1850.514855,6735.874072
275.701513,2298.286494,296.082377,9178.553681
275.701821,383.047749,-1554.432478,10955.047942
275.702129,-1838.629195,-2812.782580,11843.295072
275.702437,-2451.505594,-3256.906145,13397.727550
275.702744,-2757.943793,-2516.700203,12435.459826
275.703052,-1915.238745,-1480.411884,12287.418637
275.703360,0.000000,-0.000000,10881.027347
275.703668,1608.800546,1554.432478,8660.409521
275.703976,2834.553343,2738.761985,7105.977043
275.704283,3677.258390,2516.700203,7402.059420
275.704591,2681.334243,1480.411884,8438.347739
275.704899,1455.581446,518.144159,9400.615463
275.705207,76.609550,-1110.308913,11251.130318
275.705515,-1762.019645,-2442.679609,13027.624579
275.705822,-2681.334243,-3034.844362,13101.645173
275.706130,-3064.381992,-2368.659014,12657.521608
275.706438,-1915.238745,-962.267725,11917.315666
275.706746,689.485948,222.061783,10140.821405
275.707054,2451.505594,2368.659014,7698.141797
275.707361,3600.648841,3701.029710,5995.668130
275.707669,5132.839837,4441.235652,5551.544565
275.707977,5209.449386,4219.173869,5033.400406
275.708285,4290.134789,3849.070898,5699.585753
275.708593,3294.210641,1628.453072,8438.347739
275.708900,1072.533697,-222.061783,10510.924376
275.709208,-536.266849,-1554.432478,11917.315666
275.709516,-1838.629195,-2590.720797,12879.583391
275.709824,-2834.553343,-2738.761985,13175.665768
275.710132,-1991.848295,-1776.494261,12879.583391
275.710439,-1149.143247,-518.144159,11325.150913
275.710747,766.095498,888.247130,10066.800811
275.711055,2298.286494,2146.597232,8142.265362
275.711363,2681.334243,2812.782580,7698.141797
275.711671,3064.381992,1110.308913,7994.224174
275.711978,1072.533697,1110.308913,9030.512492
275.712286,383.047749,-740.205942,10436.903782
275.712594,-1072.533697,-2368.659014,12139.377449
275.712902,-2757.943793,-2886.803174,12213.398043
275.713210,-2911.162892,-2590.720797,12287.418637
275.713517,-1762.019645,-1998.556043,11843.295072
275.713825,-459.657299,-444.123565,9770.718434
275.714133,1532.190996,1628.453072,8216.285956
275.714441,3370.820191,3108.864956,6291.750507
275.714749,4290.134789,3849.070898,5329.482782
275.715056,4979.620737,3478.967927,4737.318029
275.715364,3983.696590,2960.823768,5699.585753
275.715672,3140.991542,1628.453072,7624.121203
275.715980,1302.362347,74.020594,9252.574275
275.716288,-919.314598,-1628.453072,11029.068536
275.716595,-2298.286494,-2516.700203,11473.192101
275.716903,-2681.334243,-2886.803174,12213.398043
275.717211,-2451.505594,-1110.308913,12065.356855
275.717519,-1072.533697,-444.123565,11029.068536
275.717827,229.828649,592.164754,9696.697840
275.718134,1532.190996,1554.432478,8290.306550
275.718442,2374.896044,1850.514855,7920.203579
275.718750,2221.676944,888.247130,8882.471304
275.719058,1378.971896,-148.041188,9696.697840
275.719366,0.000000,-1184.329507,10584.944971
275.719673,-1838.629195,-2664.741391,12657.521608
275.719981,-3064.381992,-3182.885551,13101.645173
275.720289,-3217.601092,-2368.659014,12435.459826
275.720597,-1991.848295,-1332.370696,11399.171507
275.720905,-612.876398,518.144159,9252.574275
275.721212,1762.019645,2146.597232,7624.121203
275.721520,3753.867940,3108.864956,5921.647536
275.721828,4903.011187,3923.091493,5255.462188
275.722136,5056.230287,3775.050304,5181.441594
275.722444,3907.087040,2960.823768,6217.729913
275.722752,2987.772442,1702.473667,8068.244768
275.723060,995.924147,-0.000000,10066.800811
275.723368,-612.876398,-1554.432478,11769.274478
275.723675,-2681.334243,-2738.761985,12361.439231
275.723983,-2987.772442,-1924.535449,12657.521608
275.724291,-2451.505594,-2146.597232,13175.665768
275.724599,-1302.362347,-518.144159,11769.274478
275.724907,383.047749,1184.329507,9844.739029
275.725215,2374.896044,1924.535449,8216.285956
275.725523,2987.772442,2442.679609,7550.100608
275.725831,3217.601092,2146.597232,8290.306550
275.726139,1991.848295,888.247130,9400.615463
275.726447,919.314598,-296.082377,10807.006753
275.726754,-995.924147,-2072.576638,12657.521608
275.727062,-2298.286494,-2664.741391,12879.583391
275.727370,-2987.772442,-2738.761985,13027.624579
275.727678,-1915.238745,-1776.494261,12213.398043
275.727986,-612.876398,-0.000000,10362.883188
275.728294,2298.286494,1702.473667,8216.285956
275.728602,4519.963438,2960.823768,6291.750507
275.728910,4826.401637,4145.153275,4737.318029
275.729218,5592.497135,4219.173869,5033.400406
275.729525,5286.058936,3404.947333,5921.647536
275.729833,3677.258390,2664.741391,7624.121203
275.730141,1302.362347,518.144159,9770.718434
275.730449,-689.485948,-1406.391290,11547.212695
275.730757,-2528.115143,-2664.741391,12435.459826
275.731065,-3677.258390,-2590.720797,13101.645173
275.731373,-2757.943793,-2442.679609,12879.583391
275.731681,-1608.800546,-1332.370696,12287.418637
275.731989,306.438199,-0.000000,10214.842000
275.732297,2068.457845,1628.453072,8290.306550
275.732604,2757.943793,2220.617826,7031.956449
275.732912,3217.601092,2294.638420,7328.038826
275.733220,2451.505594,1702.473667,8216.285956
275.733528,1302.362347,518.144159,10214.842000
275.733836,-919.314598,-1480.411884,11399.171507
275.734144,-2451.505594,-2738.761985,12213.398043
275.734452,-3370.820191,-3256.906145,12879.583391
275.734760,-2987.772442,-2960.823768,12509.480420
275.735068,-1378.971896,-1554.432478,10955.047942
275.735376,383.047749,444.123565,8512.368333
275.735683,2987.772442,2072.576638,7105.977043
275.735991,4979.620737,3627.009116,5625.565159
275.736299,5209.449386,4293.194464,5181.441594
275.736607,4673.182538,3330.926739,5033.400406
275.736915,4060.306139,2960.823768,6217.729913
275.737223,2068.457845,888.247130,8290.306550
275.737531,0.000000,-1480.411884,10510.924376
275.737839,-2145.067394,-2294.638420,11473.192101
275.738147,-2681.334243,-2812.782580,12509.480420
275.738454,-2757.943793,-2886.803174,13175.665768
275.738762,-2681.334243,-1628.453072,12435.459826
275.739070,229.828649,-1036.288319,12361.439231
275.739378,306.438199,1554.432478,7994.224174
275.739686,1915.238745,1924.535449,8438.347739
275.739994,2604.724693,1332.370696,8586.388927
275.740302,1455.581446,1554.432478,7179.997637
275.740610,536.266849,-1036.288319,10362.883188
275.740918,-919.314598,-1332.370696,10732.986159
275.741226,-2451.505594,-2886.803174,13027.624579
275.741533,-3600.648841,-3108.864956,13027.624579
275.741841,-2987.772442,-1702.473667,11917.315666
275.742149,-1302.362347,-1036.288319,11621.233289
275.742457,153.219100,888.247130,8808.450710
275.742765,2451.505594,2442.679609,7402.059420
275.743073,4060.306139,3849.070898,5329.482782
275.743381,5515.887586,4441.235652,5033.400406
275.743689,5515.887586,3256.906145,4959.379811
275.743997,4443.353888,2812.782580,6883.915261
275.744305,2757.943793,1036.288319,8734.430116
275.744612,383.047749,-222.061783,9844.739029
275.744920,-919.314598,-1924.535449,11991.336260
275.745228,-2681.334243,-2368.659014,12361.439231
275.745536,-3217.601092,-1850.514855,12509.480420
275.745844,-2298.286494,-1258.350101,12657.521608
275.746152,-766.095498,-0.000000,11177.109724
275.746460,689.485948,1184.329507,10140.821405
275.746768,2374.896044,2294.638420,8512.368333
275.747076,2604.724693,1924.535449,8364.327145
275.747383,1915.238745,962.267725,9030.512492
275.747691,1378.971896,296.082377,10214.842000
275.747999,-153.219100,-888.247130,11473.192101
275.748307,-1608.800546,-2886.803174,12435.459826
275.748615,-2757.943793,-3108.864956,12657.521608
275.748923,-2681.334243,-2664.741391,12065.356855
275.749231,-1455.581446,-1406.391290,11473.192101
275.749539,76.609550,-0.000000,9548.656652
275.749847,2298.286494,2294.638420,7254.018232
275.750155,4290.134789,3478.967927,5921.647536
275.750462,5209.449386,3997.112087,5181.441594
275.750770,5362.668486,3701.029710,4811.338623
275.751078,4749.792088,3478.967927,5255.462188
275.751386,3447.429741,1850.514855,7254.018232
275.751694,1225.752797,-0.000000,9696.697840
275.752002,-766.095498,-1702.473667,11399.171507
275.752310,-2451.505594,-1850.514855,11695.253884
275.752618,-2298.286494,-2368.659014,11917.315666
275.752926,-1991.848295,-1702.473667,11843.295072
275.753234,-842.705048,-666.185348,11177.109724
275.753541,689.485948,666.185348,9992.780217
275.753849,1915.238745,1554.432478,7920.203579
275.754157,2528.115143,1480.411884,8068.244768
275.754465,1838.629195,888.247130,8512.368333
275.754773,842.705048,-0.000000,9992.780217
275.755081,-766.095498,-962.267725,11177.109724
275.755389,-2298.286494,-2812.782580,11843.295072
275.755697,-2528.115143,-3849.070898,13619.789333
275.756005,-3600.648841,-3478.967927,13101.645173
275.756312,-2604.724693,-1924.535449,11695.253884
275.756620,-536.266849,-592.164754,9696.697840
275.756928,1838.629195,1480.411884,7328.038826
275.757236,3983.696590,3108.864956,5551.544565
275.757544,5439.278036,4071.132681,4293.194464
275.757852,5975.544884,4367.215058,4441.235652
275.758160,5439.278036,3552.988522,4885.359217
275.758468,3447.429741,2368.659014,6735.874072
275.758776,1762.019645,518.144159,9326.594869
275.759084,-766.095498,-1406.391290,11177.109724
275.759391,-2528.115143,-2294.638420,12139.377449
275.759699,-3140.991542,-2516.700203,12657.521608
275.760007,-2987.772442,-2368.659014,12287.418637
275.760315,-1302.362347,-814.226536,11917.315666
275.760623,995.924147,222.061783,10214.842000
275.760931,1838.629195,1406.391290,8586.388927
275.761239,2528.115143,1554.432478,8290.306550
275.761547,2145.067394,1110.308913,8512.368333
275.761855,1225.752797,592.164754,9770.718434
275.762163,-459.657299,-444.123565,11251.130318
275.762470,-1149.143247,-1480.411884,12805.562797
275.762778,-2757.943793,-2590.720797,13619.789333
275.763086,-3064.381992,-2960.823768,13249.686362
275.763394,-2604.724693,-1998.556043,12731.542202
275.763702,-612.876398,-518.144159,10732.986159
275.764010,1072.533697,1258.350101,8660.409521
275.764318,3447.429741,2960.823768,6661.853478
275.764626,5286.058936,3849.070898,5255.462188
275.764934,6128.763984,4515.256246,4589.276840
275.765241,5975.544884,3552.988522,5403.503377
275.765549,4060.306139,3404.947333,6735.874072
275.765857,2604.724693,1554.432478,8142.265362
275.766165,306.438199,-222.061783,10510.924376
275.766473,-1532.190996,-1110.308913,12139.377449
275.766781,-2451.505594,-1850.514855,12583.501014
275.767089,-2681.334243,-1628.453072,12139.377449
275.767397,-995.924147,-666.185348,11769.274478
275.767705,153.219100,222.061783,10881.027347
275.768013,1685.410096,1184.329507,8882.471304
275.768320,1685.410096,1480.411884,8438.347739
275.768628,2221.676944,888.247130,8956.491898
275.768936,306.438199,296.082377,9030.512492
275.769244,0.000000,-1110.308913,11399.171507
275.769552,-1225.752797,-2146.597232,11843.295072
275.769860,-2911.162892,-2442.679609,12953.603985
275.770168,-2374.896044,-3627.009116,13693.809927
275.770476,-1762.019645,-2294.638420,11399.171507
275.770784,-689.485948,-888.247130,10732.986159
275.771091,842.705048,740.205942,7994.224174
275.771399,3217.601092,2516.700203,6513.812290
275.771707,4596.572988,3627.009116,5551.544565
275.772015,5975.544884,3701.029710,4663.297435
275.772323,5669.106685,3775.050304,5107.421000
275.772631,4290.134789,1776.494261,5921.647536
275.772939,2221.676944,370.102971,7698.141797
275.773247,-383.047749,-1110.308913,10362.883188
275.773555,-1838.629195,-2368.659014,12361.439231
275.773863,-2528.115143,-2442.679609,12287.418637
275.774170,-2528.115143,-1702.473667,11547.212695
275.774478,-1378.971896,-1332.370696,11769.274478
275.774786,-459.657299,-0.000000,10066.800811
275.775094,2221.676944,1184.329507,8808.450710
275.775402,2451.505594,1184.329507,8142.265362
275.775710,2374.896044,1628.453072,8734.430116
275.776018,919.314598,740.205942,9178.553681
275.776326,-153.219100,-370.102971,10732.986159
275.776634,-1455.581446,-1702.473667,11473.192101
275.776942,-2604.724693,-2368.659014,12731.542202
275.777249,-2834.553343,-2738.761985,13249.686362
275.777557,-3140.991542,-2886.803174,12435.459826
275.777865,-1378.971896,-1924.535449,11843.295072
275.778173,0.000000,148.041188,9400.615463
275.778481,2451.505594,2072.576638,6883.915261
275.778789,4366.744339,3701.029710,5329.482782
275.779097,5822.325785,3923.091493,5107.421000
275.779405,5669.106685,4589.276840,4515.256246
275.779713,4903.011187,3478.967927,5699.585753
275.780020,3140.991542,1628.453072,7402.059420
275.780328,919.314598,-518.144159,9844.739029
275.780636,-995.924147,-2072.576638,11843.295072
275.780944,-2221.676944,-2368.659014,12213.398043
275.781252,-2681.334243,-2146.597232,12435.459826
275.781560,-1455.581446,-1184.329507,12213.398043
275.781868,153.219100,148.041188,10510.924376
275.782176,1149.143247,1406.391290,8734.430116
275.782484,2451.505594,2294.638420,8438.347739
275.782792,3294.210641,1480.411884,8660.409521
275.783099,1532.190996,666.185348,9030.512492
275.783407,459.657299,-148.041188,10732.986159
275.783715,-1225.752797,-1406.391290,11843.295072
275.784023,-2451.505594,-2664.741391,13471.748144
275.784331,-3217.601092,-3182.885551,13989.892304
275.784639,-3294.210641,-3034.844362,13323.706956
275.784947,-2604.724693,-2442.679609,11843.295072
275.785255,-383.047749,-148.041188,9770.718434
275.785563,2451.505594,1628.453072,7624.121203
275.785871,3983.696590,3330.926739,5625.565159
275.786178,5898.935335,4219.173869,4737.318029
275.786486,5822.325785,4441.235652,4293.194464
275.786794,5669.106685,4219.173869,4441.235652
275.787102,3907.087040,2516.700203,6439.791695
275.787410,1838.629195,740.205942,9104.533087
275.787718,153.219100,-814.226536,10584.944971
275.788026,-1838.629195,-2072.576638,11177.109724
275.788334,-2528.115143,-1998.556043,11991.336260
275.788642,-1762.019645,-1628.453072,11769.274478
275.788949,-536.266849,-444.123565,10955.047942
275.789257,766.095498,814.226536,9844.739029
275.789565,1762.019645,1406.391290,8882.471304
275.789873,2681.334243,1258.350101,8216.285956
275.790181,919.314598,740.205942,9326.594869
275.790489,689.485948,-0.000000,9696.697840
275.790797,-919.314598,-1406.391290,10955.047942
275.791105,-2757.943793,-2442.679609,12953.603985
275.791413,-3140.991542,-3849.070898,13767.830521
275.791721,-3983.696590,-2368.659014,13249.686362
275.792028,-2298.286494,-3034.844362,13397.727550
275.792336,-2068.457845,-740.205942,9622.677246
275.792644,1302.362347,518.144159,9622.677246
275.792952,2987.772442,2220.617826,6809.894666
275.793260,4136.915689,3923.091493,4367.215058
275.793568,5822.325785,3849.070898,5403.503377
275.793876,5209.449386,3404.947333,4737.318029
275.794184,4596.572988,2664.741391,6365.771101
275.794492,2145.067394,962.267725,7772.162391
275.794800,689.485948,-222.061783,9992.780217
275.795107,-1378.971896,-1184.329507,11103.089130
275.795415,-2145.067394,-1628.453072,11621.233289
275.795723,-1838.629195,-1184.329507,11843.295072
275.796031,-995.924147,-518.144159,10732.986159
275.796339,689.485948,1036.288319,9844.739029
275.796647,1915.238745,1850.514855,9178.553681
275.796955,2528.115143,1850.514855,8438.347739
275.797263,1302.362347,740.205942,8882.471304
275.797571,459.657299,740.205942,9696.697840
275.797878,-1149.143247,-888.247130,11695.253884
275.798186,-2528.115143,-2368.659014,12879.583391
275.798494,-3217.601092,-3256.906145,13767.830521
275.798802,-3753.867940,-2960.823768,13841.851115
275.799110,-2834.553343,-2442.679609,12953.603985
275.799418,-1455.581446,-666.185348,11325.150913
275.799726,766.095498,1184.329507,9252.574275
275.800034,3064.381992,2516.700203,6735.874072
275.800342,4979.620737,4145.153275,5477.523971
275.800650,5975.544884,4293.194464,4737.318029
275.800957,5592.497135,3923.091493,4811.338623
275.801265,4519.963438,3256.906145,6069.688724
275.801573,2834.553343,1184.329507,8142.265362
275.801881,766.095498,-444.123565,10658.965565
275.802189,-995.924147,-1924.535449,11251.130318
275.802497,-2298.286494,-2442.679609,11769.274478
275.802805,-1915.238745,-1480.411884,11843.295072
275.803113,-766.095498,-814.226536,11251.130318
275.803421,1302.362347,666.185348,9918.759623
275.803729,2145.067394,1850.514855,8882.471304
275.804036,2681.334243,1406.391290,8068.244768
275.804344,2528.115143,1554.432478,8512.368333
275.804652,1532.190996,518.144159,9992.780217
275.804960,-459.657299,-888.247130,10732.986159
275.805268,-2221.676944,-2072.576638,12509.480420
275.805576,-3064.381992,-3034.844362,13619.789333
275.805884,-3753.867940,-3330.926739,13619.789333
275.806192,-3370.820191,-2664.741391,12435.459826
275.806500,-1532.190996,-1332.370696,11325.150913
275.806807,306.438199,222.061783,8808.450710
275.807115,3294.210641,2664.741391,6143.709319
275.807423,4903.011187,3627.009116,5107.421000
275.807731,6205.373534,4367.215058,4959.379811
275.808039,5975.544884,4145.153275,4367.215058
275.808347,4519.963438,3182.885551,5625.565159
275.808655,2911.162892,962.267725,8290.306550
275.808963,689.485948,-1184.329507,10066.800811
275.809271,-1302.362347,-2294.638420,12065.356855
275.809579,-2068.457845,-2738.761985,12509.480420
275.809886,-2298.286494,-1850.514855,12065.356855
275.810194,-1378.971896,-962.267725,11473.192101
275.810502,612.876398,592.164754,9770.718434
275.810810,2374.896044,1776.494261,7994.224174
275.811118,2528.115143,1924.535449,7698.141797
275.811426,2145.067394,1628.453072,7846.182985
275.811734,1685.410096,962.267725,9252.574275
275.812042,0.000000,-592.164754,10881.027347
275.812350,-2145.067394,-2368.659014,12287.418637
275.812657,-3600.648841,-3330.926739,13915.871710
275.812965,-4519.963438,-3849.070898,14508.036463
275.813273,-4366.744339,-3627.009116,13397.727550
275.813581,-3064.381992,-2220.617826,12213.398043
275.813889,-383.047749,-444.123565,10288.862594
275.814197,2451.505594,2072.576638,7476.080014
275.814505,5286.058936,3108.864956,5625.565159
275.814813,5745.716235,4441.235652,4737.318029
275.815121,5975.544884,4441.235652,3923.091493
275.815429,4979.620737,3997.112087,4737.318029
275.815736,3447.429741,2146.597232,7179.997637
275.816044,1455.581446,222.061783,9474.636058
275.816352,-536.266849,-592.164754,11399.171507
275.816660,-1838.629195,-1776.494261,12731.542202
275.816968,-2451.505594,-2072.576638,11695.253884
275.817276,-1532.190996,-1184.329507,12065.356855
275.817584,-229.828649,-0.000000,11103.089130
275.817892,1532.190996,1332.370696,9548.656652
275.818200,1991.848295,1628.453072,8808.450710
275.818508,1762.019645,1480.411884,8660.409521
275.818815,1378.971896,666.185348,9400.615463
275.819123,0.000000,-0.000000,10658.965565
275.819431,-919.314598,-1554.432478,12213.398043
275.819739,-2834.553343,-2368.659014,12953.603985
275.820047,-3600.648841,-3330.926739,13915.871710
275.820355,-3677.258390,-3034.844362,13693.809927
275.820663,-2604.724693,-1776.494261,11991.336260
275.820971,-229.828649,-148.041188,10140.821405
275.821279,1838.629195,1924.535449,7476.080014
275.821586,4826.401637,3627.009116,5921.647536
275.821894,6205.373534,3775.050304,4737.318029
275.822202,6281.983084,4367.215058,4737.318029
275.822510,5056.230287,3034.844362,5107.421000
275.822818,3600.648841,2146.597232,6957.935855
275.823126,1762.019645,592.164754,9178.553681
275.823434,306.438199,-1110.308913,10955.047942
275.823742,-1302.362347,-1554.432478,11251.130318
275.824050,-1455.581446,-1702.473667,11769.274478
275.824358,-689.485948,-1332.370696,11103.089130
275.824666,0.000000,-296.082377,10510.924376
275.824974,1762.019645,1184.329507,8956.491898
275.825282,2451.505594,2072.576638,7772.162391
275.825590,2221.676944,1554.432478,8364.327145
275.825899,1302.362347,666.185348,9104.533087
275.826207,689.485948,-148.041188,9326.594869
275.826515,-1378.971896,-2146.597232,11769.274478
275.826823,-2911.162892,-3256.906145,13175.665768
275.827131,-4060.306139,-3701.029710,13989.892304
275.827439,-4673.182538,-3701.029710,14285.974681
275.827747,-3140.991542,-2960.823768,12583.501014
275.828055,-1455.581446,-296.082377,9992.780217
275.828363,1149.143247,1036.288319,7772.162391
275.828671,4060.306139,2368.659014,6365.771101
275.828979,5362.668486,3997.112087,4811.338623
275.829287,5439.278036,3775.050304,4885.359217
275.829595,4903.011187,3404.947333,4663.297435
275.829903,3524.039291,2146.597232,6439.791695
275.830211,1225.752797,518.144159,8808.450710
275.830519,-153.219100,-1036.288319,11177.109724
275.830828,-1225.752797,-2072.576638,11473.192101
275.831136,-2298.286494,-1998.556043,11547.212695
275.831444,-1225.752797,-1110.308913,10881.027347
275.831752,536.266849,-444.123565,11325.150913
275.832060,1685.410096,1480.411884,9474.636058
275.832368,2681.334243,1924.535449,8438.347739
275.832676,2757.943793,1702.473667,7772.162391
275.832984,1608.800546,1110.308913,9252.574275
275.833292,995.924147,148.041188,10288.862594
275.833600,-612.876398,-666.185348,11843.295072
275.833908,-2451.505594,-2146.597232,13989.892304
275.834216,-4519.963438,-3034.844362,14211.954086
275.834524,-4903.011187,-3108.864956,14730.098246
275.834832,-3830.477490,-2368.659014,13693.809927
275.835140,-1762.019645,-666.185348,11251.130318
275.835448,919.314598,1554.432478,8882.471304
275.835757,3600.648841,3108.864956,7105.977043
275.836065,5132.839837,3849.070898,5625.565159
275.836373,6052.154434,4145.153275,4737.318029
275.836681,5439.278036,4219.173869,4811.338623
275.836989,4213.525239,2738.761985,6217.729913
275.837297,2451.505594,1184.329507,8512.368333
275.837605,536.266849,-370.102971,10955.047942
275.837913,-1149.143247,-1184.329507,11251.130318
275.838221,-1225.752797,-2072.576638,11325.150913
275.838529,-1149.143247,-1850.514855,11399.171507
275.838837,536.266849,-222.061783,10955.047942
275.839145,2145.067394,740.205942,9770.718434
275.839453,2451.505594,1776.494261,8512.368333
275.839761,2987.772442,1850.514855,8216.285956
275.840069,2451.505594,1036.288319,8586.388927
275.840377,995.924147,592.164754,9326.594869
275.840685,-229.828649,-962.267725,10732.986159
275.840994,-1762.019645,-2220.617826,12361.439231
275.841302,-3064.381992,-3108.864956,13175.665768
275.841610,-2987.772442,-3478.967927,13027.624579
275.841918,-2451.505594,-2886.803174,12139.377449
275.842226,-1838.629195,-1184.329507,10658.965565
275.842534,1072.533697,-0.000000,8956.491898
275.842842,3217.601092,2146.597232,6957.935855
275.843150,5209.449386,2886.803174,5477.523971
275.843458,6052.154434,2664.741391,4737.318029
275.843766,4903.011187,3256.906145,4663.297435
275.844074,4749.792088,1776.494261,6735.874072
275.844382,2451.505594,888.247130,7476.080014
275.844690,383.047749,-222.061783,10288.862594
275.844998,-842.705048,-1776.494261,11547.212695
275.845306,-2298.286494,-1850.514855,11103.089130
275.845614,-1838.629195,-1628.453072,11843.295072
275.845923,0.000000,-1184.329507,11029.068536
275.846231,153.219100,222.061783,9548.656652
275.846539,2145.067394,1480.411884,8660.409521
275.846847,2604.724693,1924.535449,8068.244768
275.847155,1455.581446,1702.473667,8068.244768
275.847463,919.314598,740.205942,9104.533087
275.847771,-306.438199,-370.102971,10955.047942
275.848079,-2528.115143,-2072.576638,11917.315666
275.848387,-3140.991542,-3330.926739,14211.954086
275.848695,-4673.182538,-3182.885551,13471.748144
275.849003,-3524.039291,-2960.823768,12953.603985
275.849311,-2298.286494,-1628.453072,11843.295072
275.849619,-76.609550,962.267725,9326.594869
275.849927,2528.115143,2368.659014,7698.141797
275.850235,4366.744339,3775.050304,5773.606348
275.850543,5362.668486,3775.050304,4589.276840
275.850852,4903.011187,3627.009116,5329.482782
275.851160,3753.867940,2368.659014,6365.771101
275.851468,2068.457845,1332.370696,8438.347739
275.851776,0.000000,-74.020594,9992.780217
275.852084,-919.314598,-1628.453072,12065.356855
275.852392,-2757.943793,-1850.514855,11843.295072
275.852700,-2451.505594,-1702.473667,12361.439231
275.853008,-1455.581446,-1554.432478,12435.459826
275.853316,-153.219100,296.082377,10362.883188
275.853624,1378.971896,814.226536,9548.656652
275.853932,2757.943793,1554.432478,8364.327145
275.854240,2298.286494,1850.514855,8290.306550
275.854548,1455.581446,666.185348,8956.491898
275.854856,306.438199,-0.000000,9844.739029
275.855164,-1532.190996,-1628.453072,11621.233289
275.855472,-2987.772442,-3108.864956,13101.645173
275.855781,-3983.696590,-2664.741391,13989.892304
275.856089,-3677.258390,-3108.864956,13619.789333
275.856397,-2987.772442,-1850.514855,11251.130318
275.856705,0.000000,370.102971,9844.739029
275.857013,2451.505594,1924.535449,7698.141797
275.857321,4519.963438,3404.947333,5699.585753
275.857629,5745.716235,3775.050304,4811.338623
275.857937,5592.497135,3552.988522,4515.256246
275.858245,4903.011187,2960.823768,5477.523971
275.858553,2911.162892,1924.535449,7105.977043
275.858861,1455.581446,370.102971,9474.636058
275.859169,-459.657299,-1258.350101,10881.027347
275.859477,-1532.190996,-2072.576638,12065.356855
275.859785,-1838.629195,-2516.700203,11991.336260
275.860093,-1225.752797,-1850.514855,11843.295072
275.860401,306.438199,-666.185348,11103.089130
275.860710,919.314598,1110.308913,9400.615463
275.861018,3294.210641,2072.576638,8216.285956
275.861326,3600.648841,2146.597232,7402.059420
275.861634,3064.381992,1702.473667,7624.121203
275.861942,1915.238745,1258.350101,9104.533087
275.862250,229.828649,-592.164754,10807.006753
275.862558,-1608.800546,-1702.473667,12361.439231
275.862866,-2681.334243,-2516.700203,13471.748144
275.863174,-3600.648841,-2812.782580,13471.748144
275.863482,-2528.115143,-1702.473667,12361.439231
275.863790,-766.095498,-592.164754,10881.027347
275.864098,1302.362347,1184.329507,8586.388927
275.864406,3370.820191,2368.659014,6809.894666
275.864714,4903.011187,3182.885551,5847.626942
275.865022,5209.449386,3552.988522,4959.379811
275.865330,4136.915689,2886.803174,5995.668130
275.865639,3140.991542,2072.576638,7179.997637
275.865947,1608.800546,296.082377,9548.656652
275.866255,0.000000,-444.123565,11177.109724
275.866563,-1915.238745,-1036.288319,11769.274478
275.866871,-2528.115143,-1924.535449,12065.356855
275.867179,-2298.286494,-1480.411884,12287.418637
275.867487,-995.924147,-74.020594,11399.171507
275.867795,842.705048,740.205942,9844.739029
275.868103,2221.676944,1776.494261,9104.533087
275.868411,2604.724693,1776.494261,8068.244768
275.868719,1685.410096,592.164754,8956.491898
275.869027,842.705048,444.123565,9548.656652
275.869335,-536.266849,-1036.288319,10955.047942
275.869643,-1915.238745,-2368.659014,12435.459826
275.869951,-3064.381992,-2590.720797,13249.686362
275.870259,-3447.429741,-2886.803174,12879.583391
275.870567,-2374.896044,-1628.453072,12139.377449
275.870876,-995.924147,-222.061783,10288.862594
275.871184,1378.971896,1628.453072,8290.306550
275.871492,3217.601092,2886.803174,7105.977043
275.871800,4596.572988,3034.844362,5551.544565
275.872108,4596.572988,3404.947333,5181.441594
275.872416,4136.915689,2886.803174,5921.647536
275.872724,2911.162892,1776.494261,7772.162391
275.873032,1302.362347,-0.000000,9918.759623
275.873340,-459.657299,-1184.329507,11177.109724
275.873648,-2068.457845,-1850.514855,12065.356855
275.873956,-2528.115143,-1998.556043,12879.583391
275.874264,-2145.067394,-1924.535449,11769.274478
275.874572,-1072.533697,-444.123565,11251.130318
275.874880,766.095498,666.185348,10066.800811
275.875188,2604.724693,1480.411884,8142.265362
275.875496,1915.238745,2146.597232,7698.141797
275.875805,1991.848295,1480.411884,8142.265362
275.876113,1762.019645,518.144159,8586.388927
275.876421,0.000000,-444.123565,10436.903782
275.876729,-1685.410096,-2072.576638,12213.398043
275.877037,-2528.115143,-3330.926739,13027.624579
275.877345,-3600.648841,-2590.720797,12953.603985
275.877653,-2145.067394,-2368.659014,12361.439231
275.877961,-995.924147,-592.164754,10066.800811
275.878269,1685.410096,1776.494261,8956.491898
275.878577,4136.915689,2812.782580,6439.791695
275.878885,5362.668486,4219.173869,4737.318029
275.879193,5822.325785,3849.070898,5107.421000
275.879501,5286.058936,3478.967927,4737.318029
275.879809,4519.963438,2738.761985,6291.750507
275.880117,2451.505594,592.164754,8586.388927
275.880425,153.219100,-962.267725,10881.027347
275.880734,-1302.362347,-2072.576638,12065.356855
275.881042,-2681.334243,-2368.659014,12731.542202
275.881350,-2068.457845,-2220.617826,12509.480420
275.881658,-1149.143247,-1110.308913,11769.274478
275.881966,689.485948,370.102971,10436.903782
275.882274,2221.676944,1406.391290,8586.388927
275.882582,3064.381992,2294.638420,7994.224174
275.882890,2298.286494,1332.370696,8216.285956
275.883198,2145.067394,518.144159,9400.615463
275.883506,536.266849,-444.123565,10584.944971
275.883814,-1685.410096,-1554.432478,11917.315666
275.884122,-2528.115143,-2812.782580,13249.686362
275.884430,-3447.429741,-2664.741391,13397.727550
275.884738,-3140.991542,-2590.720797,13249.686362
275.885046,-1685.410096,-1184.329507,11103.089130
275.885354,842.705048,592.164754,9326.594869
275.885663,3217.601092,2738.761985,6735.874072
275.885971,4903.011187,4071.132681,5255.462188
275.886279,5745.716235,4293.194464,4885.359217
275.886587,5439.278036,4219.173869,4811.338623
275.886895,3983.696590,3404.947333,5403.503377
275.887203,2528.115143,1702.473667,8142.265362
275.887511,536.266849,-74.020594,10732.986159
275.887819,-1762.019645,-1776.494261,12139.377449
275.888127,-2757.943793,-2664.741391,12879.583391
275.888435,-3064.381992,-2590.720797,13175.665768
275.888743,-2757.943793,-1628.453072,12287.418637
275.889051,-612.876398,-0.000000,11177.109724
275.889359,1225.752797,1332.370696,9474.636058
275.889667,2374.896044,1924.535449,8438.347739
275.889975,2068.457845,1554.432478,8142.265362
275.890283,1608.800546,592.164754,9030.512492
275.890592,0.000000,-370.102971,10362.883188
275.890900,-1302.362347,-1628.453072,11917.315666
275.891208,-2834.553343,-2886.803174,13175.665768
275.891516,-3677.258390,-3256.906145,13471.748144
275.891824,-3600.648841,-3182.885551,12953.603985
275.892132,-2604.724693,-1998.556043,11325.150913
275.892440,76.609550,-296.082377,9548.656652
275.892748,2528.115143,2220.617826,7179.997637
275.893056,5132.839837,3552.988522,5403.503377
275.893364,6205.373534,4145.153275,4145.153275
275.893672,5362.668486,4071.132681,4367.215058
275.893980,4979.620737,3330.926739,5033.400406
275.894288,3140.991542,2220.617826,6661.853478
275.894596,1225.752797,518.144159,9474.636058
275.894904,-612.876398,-1332.370696,11103.089130
275.895212,-2145.067394,-1924.535449,12287.418637
275.895520,-2757.943793,-2368.659014,12805.562797
275.895829,-2145.067394,-1924.535449,12361.439231
275.896137,-689.485948,-518.144159,10807.006753
275.896445,766.095498,666.185348,9770.718434
275.896753,2068.457845,1628.453072,8586.388927
275.897061,2681.334243,888.247130,8586.388927
275.897369,1838.629195,962.267725,8734.430116
275.897677,612.876398,-222.061783,10066.800811
275.897985,-536.266849,-1036.288319,11917.315666
275.898293,-1991.848295,-2368.659014,12731.542202
275.898601,-2681.334243,-2516.700203,13249.686362
275.898909,-2451.505594,-2516.700203,12657.521608
275.899217,-1608.800546,-1554.432478,11251.130318
275.899525,383.047749,-370.102971,9252.574275
275.899833,2911.162892,1628.453072,7550.100608
275.900141,5056.230287,3034.844362,5477.523971
275.900449,6052.154434,4515.256246,4441.235652
275.900758,6128.763984,4145.153275,4589.276840
275.901066,4596.572988,3256.906145,5477.523971
275.901374,2911.162892,2220.617826,7105.977043
275.901682,1378.971896,148.041188,9400.615463
275.901990,-842.705048,-814.226536,11251.130318
275.902298,-1532.190996,-1924.535449,12657.521608
275.902606,-2987.772442,-2368.659014,12287.418637
275.902914,-2451.505594,-1776.494261,12805.562797
275.903222,-766.095498,-222.061783,11769.274478
275.903530,919.314598,1332.370696,9770.718434
275.903838,2374.896044,2294.638420,8512.368333
275.904146,2604.724693,2146.597232,8364.327145
275.904454,2068.457845,1184.329507,8956.491898
275.904762,153.219100,-0.000000,9918.759623
275.905070,-995.924147,-1406.391290,11399.171507
275.905378,-2451.505594,-2590.720797,13175.665768
275.905687,-3677.258390,-3256.906145,13915.871710
275.905995,-3600.648841,-2960.823768,13693.809927
275.906303,-2451.505594,-2220.617826,12065.356855
275.906611,-383.047749,-0.000000,9622.677246
275.906919,2068.457845,2072.576638,7624.121203
275.907227,4290.134789,3478.967927,5773.606348
275.907535,5592.497135,4663.297435,5773.606348
275.907843,5898.935335,4219.173869,4441.235652
275.908151,4673.182538,3849.070898,4811.338623
275.908459,3064.381992,2220.617826,7179.997637
275.908767,766.095498,-0.000000,9474.636058
275.909075,-1302.362347,-1480.411884,11473.192101
275.909383,-2451.505594,-2664.741391,12213.398043
275.909691,-3600.648841,-3404.947333,12879.583391
275.909999,-3447.429741,-2368.659014,12657.521608
275.910307,-1302.362347,-888.247130,11547.212695
275.910616,919.314598,592.164754,9696.697840
275.910924,2298.286494,1924.535449,7772.162391
275.911232,2987.772442,2072.576638,7624.121203
275.911540,2451.505594,1480.411884,7920.203579
275.911848,1608.800546,296.082377,8734.430116
275.912156,0.000000,-1332.370696,10732.986159
275.912464,-1685.410096,-2516.700203,12361.439231
275.912772,-3677.258390,-3330.926739,13619.789333
275.913080,-3217.601092,-3182.885551,13101.645173
275.913388,-2374.896044,-2738.761985,12139.377449
275.913696,-995.924147,-1110.308913,10288.862594
275.914004,1532.190996,740.205942,8734.430116
275.914312,3907.087040,2516.700203,6661.853478
275.914620,5669.106685,3552.988522,4441.235652
275.914928,6435.202183,3923.091493,3997.112087
275.915236,5822.325785,3627.009116,4367.215058
275.915545,4213.525239,3034.844362,5477.523971
275.915853,2374.896044,962.267725,7846.182985
275.916161,153.219100,-666.185348,11029.068536
275.916469,-1838.629195,-1924.535449,11991.336260
275.916777,-2298.286494,-3108.864956,12509.480420
275.917085,-3064.381992,-2812.782580,12805.562797
275.917393,-995.924147,-1628.453072,12139.377449
275.917701,919.314598,962.267725,9918.759623
275.918009,2298.286494,1998.556043,8438.347739
275.918317,2757.943793,1850.514855,8068.244768
275.918625,2451.505594,1258.350101,8512.368333
275.918933,689.485948,592.164754,9474.636058
275.919241,306.438199,-962.267725,10955.047942
275.919549,-1608.800546,-1998.556043,12657.521608
275.919857,-2911.162892,-2590.720797,13693.809927
275.920165,-3294.210641,-2960.823768,13915.871710
275.920474,-2681.334243,-2294.638420,12583.501014
275.920782,-1532.190996,-1036.288319,11177.109724
275.921090,1072.533697,666.185348,9474.636058
275.921398,3524.039291,2960.823768,6883.915261
275.921706,5822.325785,4145.153275,5551.544565
275.922014,6665.030833,4441.235652,4293.194464
275.922322,5056.230287,4219.173869,4811.338623
275.922630,4443.353888,3256.906145,6069.688724
275.922938,2528.115143,2072.576638,7550.100608
275.923246,459.657299,296.082377,9770.718434
275.923554,-1455.581446,-1110.308913,11843.295072
275.923862,-2451.505594,-1628.453072,12435.459826
275.924170,-2604.724693,-1998.556043,12213.398043
275.924478,-1762.019645,-1258.350101,12361.439231
275.924786,-459.657299,-74.020594,10955.047942
275.925094,1762.019645,1258.350101,9474.636058
275.925402,2068.457845,1776.494261,8734.430116
275.925711,1685.410096,1110.308913,8956.491898
275.926019,306.438199,222.061783,9696.697840
275.926327,-766.095498,-888.247130,11473.192101
275.926635,-2145.067394,-2368.659014,13323.706956
275.926943,-3753.867940,-3034.844362,13323.706956
275.927251,-3447.429741,-3701.029710,13249.686362
275.927559,-3064.381992,-2738.761985,12731.542202
275.927867,-1838.629195,-1554.432478,10658.965565
275.928175,766.095498,962.267725,8364.327145
275.928483,3677.258390,2516.700203,6661.853478
275.928791,5822.325785,3997.112087,4515.256246
275.929099,6741.640382,4589.276840,3849.070898
275.929407,6741.640382,4441.235652,4737.318029
275.929715,4366.744339,2960.823768,5477.523971
275.930023,2757.943793,1702.473667,7105.977043
275.930331,689.485948,-814.226536,9770.718434
275.930639,-1072.533697,-2072.576638,11251.130318
275.930948,-2528.115143,-2738.761985,11769.274478
275.931256,-2604.724693,-2664.741391,12065.356855
275.931564,-1991.848295,-1850.514855,12139.377449
275.931872,-383.047749,-0.000000,11177.109724
275.932180,1838.629195,1332.370696,8882.471304
275.932488,2451.505594,1850.514855,7994.224174
275.932796,2451.505594,1480.411884,8216.285956
275.933104,1072.533697,888.247130,8956.491898
275.933412,-229.828649,-148.041188,10955.047942
275.933720,-1608.800546,-2072.576638,12139.377449
275.934028,-2451.505594,-2886.803174,13323.706956
275.934336,-4366.744339,-3404.947333,13545.768739
275.934644,-2681.334243,-2664.741391,13619.789333
275.934952,-2145.067394,-1998.556043,11917.315666
275.935260,76.609550,-0.000000,9770.718434
275.935568,2604.724693,1628.453072,7402.059420
275.935876,5056.230287,3330.926739,5625.565159
275.936185,5975.544884,3627.009116,4367.215058
275.936493,6511.811733,4441.235652,4145.153275
275.936801,5056.230287,3849.070898,5255.462188
275.937109,4060.306139,2368.659014,6883.915261
275.937417,1838.629195,888.247130,9030.512492
275.937725,0.000000,-962.267725,10955.047942
275.938033,-1762.019645,-1850.514855,11695.253884
275.938341,-2374.896044,-2146.597232,12509.480420
275.938649,-1685.410096,-1554.432478,12657.521608
275.938957,0.000000,-518.144159,11547.212695
275.939265,1608.800546,1110.308913,9474.636058
275.939573,2145.067394,1850.514855,8512.368333
275.939881,2604.724693,1628.453072,8438.347739
275.940189,1532.190996,1036.288319,8882.471304
275.940497,0.000000,-0.000000,10140.821405
275.940805,-1378.971896,-1258.350101,12213.398043
275.941114,-2987.772442,-2368.659014,13545.768739
275.941422,-3294.210641,-2960.823768,13767.830521
275.941730,-3370.820191,-3182.885551,13249.686362
275.942038,-2451.505594,-1924.535449,12213.398043
275.942346,-766.095498,-740.205942,10658.965565
275.942654,1762.019645,1332.370696,8438.347739
275.942962,3677.258390,3034.844362,6587.832884
275.943270,5362.668486,4145.153275,5699.585753
275.943578,5745.716235,4145.153275,4071.132681
275.943886,5286.058936,3775.050304,4663.297435
275.944194,4213.525239,2442.679609,6661.853478
275.944502,1915.238745,1406.391290,8216.285956
275.944810,0.000000,-296.082377,10881.027347
275.945118,-1838.629195,-1480.411884,11917.315666
275.945426,-2834.553343,-1776.494261,12287.418637
275.945734,-2145.067394,-1776.494261,12287.418637
275.946042,-1455.581446,-814.226536,11695.253884
275.946351,689.485948,370.102971,10140.821405
275.946659,1762.019645,1554.432478,8956.491898
275.946967,1838.629195,888.247130,8216.285956
275.947275,995.924147,370.102971,8882.471304
275.947583,0.000000,-666.185348,10288.862594
275.947891,-1532.190996,-1406.391290,11325.150913
275.948199,-2451.505594,-2886.803174,12583.501014
275.948507,-2834.553343,-3108.864956,12435.459826
275.948815,-3907.087040,-3182.885551,13027.624579
275.949123,-1685.410096,-2516.700203,12213.398043
275.949431,-1455.581446,-740.205942,9918.759623
275.949739,1378.971896,666.185348,8734.430116
275.950047,3677.258390,2516.700203,6143.709319
275.950355,5592.497135,3552.988522,5477.523971
275.950663,5745.716235,4367.215058,3701.029710
275.950971,5515.887586,3923.091493,4145.153275
275.951279,3907.087040,2886.803174,6439.791695
275.951588,2451.505594,1110.308913,7698.141797
275.951896,0.000000,-740.205942,10362.883188
275.952204,-1532.190996,-1924.535449,11695.253884
275.952512,-2451.505594,-1924.535449,12583.501014
275.952820,-1991.848295,-1702.473667,12213.398043
275.953128,-842.705048,-296.082377,11177.109724
275.953436,689.485948,666.185348,9918.759623
275.953744,2221.676944,1628.453072,9104.533087
275.954052,2834.553343,1776.494261,9030.512492
275.954360,1378.971896,1110.308913,8882.471304
275.954668,536.266849,370.102971,9252.574275
275.954976,-612.876398,-740.205942,11473.192101
275.955284,-1762.019645,-1924.535449,12361.439231
275.955592,-2834.553343,-2442.679609,12879.583391
275.955900,-3447.429741,-2442.679609,13915.871710
275.956208,-2298.286494,-2590.720797,13101.645173
275.956516,-1149.143247,-1554.432478,11251.130318
275.956825,612.876398,740.205942,9030.512492
275.957133,3524.039291,2368.659014,7624.121203
275.957441,5286.058936,3775.050304,5477.523971
275.957749,6052.154434,4663.297435,4441.235652
275.958057,6741.640382,4145.153275,4737.318029
275.958365,5592.497135,3182.885551,5699.585753
275.958673,2681.334243,1776.494261,7624.121203
275.958981,919.314598,-222.061783,9474.636058
275.959289,-536.266849,-1184.329507,11695.253884
275.959597,-2528.115143,-2590.720797,12657.521608
275.959905,-2604.724693,-1776.494261,12213.398043
275.960213,-1225.752797,-1036.288319,11695.253884
275.960521,0.000000,-0.000000,10881.027347
275.960829,1302.362347,1406.391290,9178.553681
275.961137,2298.286494,1998.556043,8364.327145
275.961445,2145.067394,1184.329507,9474.636058
275.961754,995.924147,518.144159,9696.697840
275.962062,-689.485948,-0.000000,10584.944971
275.962370,-1915.238745,-1480.411884,12287.418637
275.962678,-3294.210641,-2738.761985,12657.521608
275.962986,-3064.381992,-2960.823768,13693.809927
275.963294,-3294.210641,-2960.823768,13027.624579
275.963602,-2911.162892,-1776.494261,10955.047942
275.963910,0.000000,-0.000000,9104.533087
275.964218,2757.943793,1480.411884,6809.894666
275.964526,4673.182538,3330.926739,5329.482782
275.964834,6128.763984,3849.070898,4663.297435
275.965142,6052.154434,3997.112087,3849.070898
275.965450,4903.011187,2886.803174,4811.338623
275.965758,3370.820191,962.267725,7031.956449
275.966066,612.876398,-296.082377,9696.697840
275.966374,-1302.362347,-2442.679609,11843.295072
275.966682,-2451.505594,-2590.720797,12213.398043
275.966991,-2834.553343,-2516.700203,12509.480420
275.967299,-2145.067394,-1850.514855,11843.295072
275.967607,-383.047749,-148.041188,10510.924376
275.967915,1532.190996,1036.288319,8882.471304
275.968223,2451.505594,1998.556043,7994.224174
275.968531,2298.286494,1628.453072,7994.224174
275.968839,1225.752797,1184.329507,8364.327145
275.969147,0.000000,518.144159,9992.780217
275.969455,-1455.581446,-1110.308913,11473.192101
275.969763,-2681.334243,-2368.659014,12953.603985
275.970071,-3830.477490,-2812.782580,13841.851115
275.970379,-3294.210641,-3552.988522,13619.789333
275.970687,-2834.553343,-2590.720797,11991.336260
275.970995,-766.095498,-962.267725,10658.965565
275.971303,2068.457845,444.123565,8660.409521
275.971611,4366.744339,2664.741391,6143.709319
275.971919,5592.497135,3997.112087,5255.462188
275.972228,5975.544884,3627.009116,4293.194464
275.972536,5056.230287,3478.967927,4959.379811
275.972844,4213.525239,2294.638420,6957.935855
275.973152,2451.505594,666.185348,8660.409521
275.973460,-459.657299,-666.185348,10584.944971
275.973768,-1225.752797,-1406.391290,11769.274478
275.974076,-1991.848295,-1480.411884,11843.295072
275.974384,-1225.752797,-1332.370696,12139.377449
275.974692,-153.219100,-0.000000,10658.965565
275.975000,1838.629195,1554.432478,9252.574275
275.975308,3064.381992,2294.638420,8290.306550
275.975616,3217.601092,1776.494261,8068.244768
275.975924,1532.190996,888.247130,8734.430116
275.976232,76.609550,-370.102971,10584.944971
275.976540,-1378.971896,-888.247130,11621.233289
275.976848,-1991.848295,-2220.617826,13545.768739
275.977156,-3447.429741,-2516.700203,13545.768739
275.977465,-3830.477490,-3108.864956,13767.830521
275.977773,-2604.724693,-2294.638420,13323.706956
275.978081,-1149.143247,-1036.288319,10807.006753
275.978389,1149.143247,1036.288319,8956.491898
275.978697,3907.087040,3108.864956,6365.771101
275.979005,4979.620737,4219.173869,5477.523971
275.979313,5592.497135,4145.153275,4219.173869
275.979621,4979.620737,3627.009116,5255.462188
275.979929,3447.429741,2220.617826,6587.832884
275.980237,1762.019645,296.082377,8438.347739
275.980545,-229.828649,-1036.288319,10584.944971
275.980853,-1685.410096,-1702.473667,11843.295072
275.981161,-2068.457845,-1776.494261,12287.418637
275.981469,-1685.410096,-1184.329507,11547.212695
275.981777,-153.219100,-222.061783,10510.924376
275.982085,1455.581446,1258.350101,9030.512492
275.982394,2451.505594,1998.556043,8216.285956
275.982702,3140.991542,1702.473667,8216.285956
275.983010,1149.143247,814.226536,8956.491898
275.983318,76.609550,-296.082377,9770.718434
275.983626,-1149.143247,-1110.308913,11473.192101
275.983934,-2604.724693,-2738.761985,13027.624579
275.984242,-3983.696590,-3627.009116,13915.871710
275.984550,-4443.353888,-3701.029710,14063.912898
275.984858,-3370.820191,-3034.844362,12435.459826
275.985166,-1915.238745,-1628.453072,10881.027347
275.985474,766.095498,740.205942,8586.388927
275.985782,3983.696590,3108.864956,7402.059420
275.986090,5132.839837,4219.173869,4071.132681
275.986398,5898.935335,4367.215058,3552.988522
275.986706,5898.935335,3330.926739,5107.421000
275.987014,4136.915689,2516.700203,5773.606348
275.987322,1915.238745,222.061783,8586.388927
275.987631,536.266849,-1924.535449,9992.780217
275.987939,-1608.800546,-2220.617826,11547.212695
275.988247,-2528.115143,-2516.700203,11917.315666
275.988555,-1149.143247,-1776.494261,12139.377449
275.988863,0.000000,-444.123565,11103.089130
275.989171,1225.752797,1480.411884,9030.512492
275.989479,2987.772442,2220.617826,8142.265362
275.989787,3294.210641,2516.700203,7624.121203
275.990095,2145.067394,1776.494261,9178.553681
275.990403,1225.752797,518.144159,9622.677246
275.990711,-766.095498,-370.102971,10955.047942
275.991019,-2528.115143,-2368.659014,13323.706956
275.991327,-3677.258390,-3182.885551,13619.789333
275.991635,-4673.182538,-3404.947333,14434.015869
275.991943,-3983.696590,-3849.070898,14211.954086
275.992251,-2451.505594,-2146.597232,12065.356855
275.992559,0.000000,666.185348,9844.739029
275.992868,3217.601092,2220.617826,7328.038826
275.993176,5132.839837,4515.256246,5551.544565
275.993484,6511.811733,4885.359217,4589.276840
275.993792,6511.811733,4811.338623,3849.070898
275.994100,5515.887586,3775.050304,5255.462188
275.994408,3600.648841,2590.720797,7254.018232
275.994716,1378.971896,814.226536,9326.594869
275.995024,-689.485948,-1110.308913,10658.965565
275.995332,-1685.410096,-1702.473667,12361.439231
275.995640,-1915.238745,-1776.494261,12879.583391
275.995948,-1072.533697,-888.247130,11917.315666
275.996256,229.828649,518.144159,10288.862594
275.996564,1991.848295,1702.473667,9474.636058
275.996872,2374.896044,2072.576638,8142.265362
275.997180,1915.238745,1776.494261,8808.450710
275.997488,1072.533697,666.185348,9474.636058
275.997797,0.000000,-444.123565,10214.842000
275.998105,-1991.848295,-1702.473667,12213.398043
275.998413,-2834.553343,-2664.741391,13323.706956
275.998721,-3907.087040,-3404.947333,13841.851115
275.999029,-3830.477490,-3552.988522,13767.830521
275.999337,-2911.162892,-2738.761985,11917.315666
275.999645,-995.924147,-666.185348,10066.800811
275.999953,1762.019645,1036.288319,7920.203579
276.000261,4366.744339,2812.782580,5699.585753
276.000569,5745.716235,4071.132681,4441.235652
276.000877,5515.887586,3849.070898,4293.194464
276.001185,4749.792088,3256.906145,5033.400406
276.001493,3447.429741,2072.576638,6365.771101
276.001801,1762.019645,-0.000000,8956.491898
276.002109,-306.438199,-962.267725,10881.027347
276.002417,-1378.971896,-1998.556043,11251.130318
276.002725,-1532.190996,-2738.761985,11695.253884
276.003034,-1072.533697,-1406.391290,11103.089130
276.003342,-229.828649,-0.000000,9844.739029
276.003650,1455.581446,1332.370696,9030.512492
276.003958,2298.286494,1924.535449,7772.162391
276.004266,2068.457845,1628.453072,7920.203579
276.004574,919.314598,-0.000000,9252.574275
276.004882,-153.219100,-814.226536,10584.944971
276.005190,-1685.410096,-2368.659014,12583.501014
276.005498,-3294.210641,-3108.864956,13471.748144
276.005806,-3830.477490,-3478.967927,13619.789333
276.006114,-3830.477490,-3108.864956,13619.789333
276.006422,-2451.505594,-1998.556043,12139.377449
276.006730,-919.314598,-0.000000,10066.800811
276.007038,2221.676944,1702.473667,8216.285956
276.007346,4979.620737,3627.009116,5773.606348
276.007654,5822.325785,4737.318029,4737.318029
276.007962,5822.325785,4441.235652,4293.194464
276.008271,4826.401637,3478.967927,4959.379811
276.008579,2451.505594,1850.514855,7328.038826
276.008887,766.095498,-74.020594,9844.739029
276.009195,-995.924147,-1036.288319,11251.130318
276.009503,-2221.676944,-2294.638420,12065.356855
276.009811,-1762.019645,-2220.617826,12509.480420
276.010119,-1685.410096,-1850.514855,11843.295072
276.010427,76.609550,-0.000000,11325.150913
276.010735,1378.971896,1258.350101,8956.491898
276.011043,3064.381992,2368.659014,8364.327145
276.011351,2911.162892,2368.659014,7920.203579
276.011659,2298.286494,1998.556043,8142.265362
276.011967,1302.362347,-0.000000,10066.800811
276.012275,-306.438199,-1184.329507,11843.295072
276.012583,-2068.457845,-2368.659014,12731.542202
276.012891,-3447.429741,-3627.009116,14063.912898
276.013199,-3753.867940,-3552.988522,13989.892304
276.013508,-3294.210641,-2664.741391,12435.459826
276.013816,-1225.752797,-1110.308913,11029.068536
276.014124,1455.581446,1332.370696,8586.388927
276.014432,4443.353888,3034.844362,6439.791695
276.014740,6128.763984,3849.070898,5033.400406
276.015048,5592.497135,4145.153275,4811.338623
276.015356,4903.011187,3034.844362,4811.338623
276.015664,2987.772442,2368.659014,6957.935855
276.015972,1302.362347,814.226536,8956.491898
276.016280,0.000000,-740.205942,11177.109724
276.016588,-1991.848295,-1702.473667,11399.171507
276.016896,-1762.019645,-2368.659014,11843.295072
276.017204,-2298.286494,-2368.659014,12065.356855
276.017512,0.000000,-814.226536,11029.068536
276.017820,1149.143247,814.226536,9474.636058
276.018128,2221.676944,2072.576638,8216.285956
276.018437,2911.162892,1554.432478,8142.265362
276.018745,1991.848295,1554.432478,8068.244768
276.019053,995.924147,740.205942,9474.636058
276.019361,0.000000,-740.205942,10584.944971
276.019669,-1685.410096,-1406.391290,11695.253884
276.019977,-2757.943793,-2812.782580,13619.789333
276.020285,-2834.553343,-3034.844362,12953.603985
276.020593,-2757.943793,-2368.659014,12731.542202
276.020901,-1378.971896,-1110.308913,10881.027347
276.021209,1072.533697,962.267725,8438.347739
276.021517,3294.210641,2516.700203,6883.915261
276.021825,5439.278036,3404.947333,5477.523971
276.022133,5209.449386,3923.091493,4441.235652
276.022441,4673.182538,2738.761985,5699.585753
276.022749,3217.601092,1332.370696,7179.997637
276.023057,1072.533697,814.226536,8734.430116
276.023365,0.000000,-1110.308913,11473.192101
276.023665,-1608.800546,-1998.556043,11917.315666
276.023973,-2451.505594,-2220.617826,11991.336260
276.024281,-1455.581446,-1776.494261,12213.398043
276.024589,-1149.143247,-740.205942,11177.109724
276.024897,383.047749,740.205942,9992.780217
276.025205,2221.676944,1998.556043,8734.430116
276.025513,2451.505594,2368.659014,8216.285956
276.025821,2068.457845,1554.432478,8142.265362
276.026129,1225.752797,592.164754,9104.533087
276.026437,-459.657299,-444.123565,10436.903782
276.026745,-1762.019645,-2146.597232,12065.356855
276.027053,-2681.334243,-2368.659014,12805.562797
276.027361,-3064.381992,-3478.967927,13323.706956
276.027669,-2374.896044,-2664.741391,12657.521608
276.027977,-1302.362347,-518.144159,11177.109724
276.028285,306.438199,1332.370696,8734.430116
276.028593,3447.429741,2738.761985,7402.059420
276.028902,4826.401637,4441.235652,5921.647536
276.029210,5745.716235,4219.173869,4663.297435
276.029518,4749.792088,3478.967927,5181.441594
276.029826,3140.991542,2516.700203,6661.853478
276.030134,1685.410096,296.082377,9326.594869
276.030442,0.000000,-518.144159,10807.006753
276.030750,-1225.752797,-1850.514855,11991.336260
276.031058,-2604.724693,-2146.597232,12361.439231
276.031366,-1455.581446,-2220.617826,12065.356855
276.031674,-842.705048,-962.267725,11695.253884
276.031982,383.047749,592.164754,10362.883188
276.032290,2298.286494,1924.535449,8882.471304
276.032598,3370.820191,1998.556043,7698.141797
276.032906,2221.676944,1924.535449,7994.224174
276.033214,1991.848295,888.247130,8882.471304
276.033522,229.828649,-0.000000,10436.903782
276.033830,-1532.190996,-1628.453072,11547.212695
276.034138,-2987.772442,-2886.803174,12583.501014
276.034447,-3140.991542,-3182.885551,13323.706956
276.034755,-2987.772442,-2960.823768,13619.789333
276.035063,-2451.505594,-1480.411884,11251.130318
276.035371,76.609550,592.164754,8882.471304
276.035679,2528.115143,2220.617826,7402.059420
276.035987,4290.134789,3404.947333,4885.359217
276.036295,5286.058936,4293.194464,4663.297435
276.036603,4596.572988,3108.864956,4811.338623
276.036911,3600.648841,2220.617826,6365.771101
276.037219,1302.362347,814.226536,8586.388927
276.037527,0.000000,-740.205942,10436.903782
276.037835,-1532.190996,-1924.535449,11695.253884
276.038143,-1685.410096,-2516.700203,11991.336260
276.038451,-2221.676944,-2294.638420,12139.377449
276.038759,-1455.581446,-1406.391290,11103.089130
276.039067,1149.143247,-0.000000,10140.821405
276.039375,2145.067394,1554.432478,8364.327145
276.039683,3370.820191,2072.576638,7698.141797
276.039991,3140.991542,1850.514855,7328.038826
276.040300,1915.238745,814.226536,8290.306550
276.040608,689.485948,-0.000000,9474.636058
276.040916,-995.924147,-1332.370696,11029.068536
276.041224,-2911.162892,-2886.803174,13101.645173
276.041532,-3753.867940,-3478.967927,13471.748144
276.041840,-3524.039291,-2590.720797,12879.583391
276.042148,-2681.334243,-1776.494261,12361.439231
276.042456,-612.876398,518.144159,9252.574275
276.042764,2374.896044,2368.659014,7476.080014
276.043072,3983.696590,3923.091493,5847.626942
276.043380,5056.230287,3997.112087,5033.400406
276.043688,4673.182538,3849.070898,5255.462188
276.043996,3140.991542,2294.638420,6365.771101
276.044304,1991.848295,1184.329507,7624.121203
276.044612,459.657299,-74.020594,9696.697840
276.044920,-1302.362347,-1332.370696,11769.274478
276.045228,-2528.115143,-2294.638420,12509.480420
276.045536,-2451.505594,-1998.556043,11991.336260
276.045844,-1838.629195,-1406.391290,11843.295072
276.046153,153.219100,-296.082377,10658.965565
276.046461,1991.848295,1184.329507,9178.553681
276.046769,2834.553343,2220.617826,8364.327145
276.047077,3140.991542,1850.514855,7994.224174
276.047385,2528.115143,962.267725,8512.368333
276.047693,1149.143247,518.144159,9696.697840
276.048001,-306.438199,-1110.308913,11103.089130
276.048309,-1915.238745,-2442.679609,12435.459826
276.048617,-2681.334243,-3108.864956,13323.706956
276.048925,-3140.991542,-2960.823768,12805.562797
276.049233,-2451.505594,-2072.576638,11695.253884
276.049541,-383.047749,222.061783,10658.965565
276.049849,1225.752797,1998.556043,7105.977043
276.050157,4060.306139,3775.050304,5995.668130
276.050465,5209.449386,4219.173869,5033.400406
276.050773,4519.963438,4293.194464,4441.235652
276.051081,4136.915689,2812.782580,6513.812290
276.051389,2451.505594,1776.494261,8068.244768
276.051698,-153.219100,-0.000000,10214.842000
276.052006,-766.095498,-2072.576638,11843.295072
276.052314,-2068.457845,-2368.659014,12213.398043
276.052622,-2451.505594,-2516.700203,13249.686362
276.052930,-1762.019645,-1924.535449,11917.315666
276.053238,0.000000,-444.123565,10881.027347
276.053546,1455.581446,888.247130,9252.574275
276.053854,3140.991542,2072.576638,8142.265362
276.054162,4366.744339,2368.659014,7179.997637
276.054470,3907.087040,1554.432478,7698.141797
276.054778,1991.848295,888.247130,8438.347739
276.055086,536.266849,-592.164754,10140.821405
276.055394,-1532.190996,-1998.556043,12361.439231
276.055702,-3140.991542,-3034.844362,13471.748144
276.056010,-3447.429741,-3256.906145,13323.706956
276.056318,-2145.067394,-1850.514855,12361.439231
276.056626,-995.924147,-296.082377,10288.862594
276.056934,2145.067394,1184.329507,8808.450710
276.057242,3524.039291,2960.823768,6439.791695
276.057551,5132.839837,4071.132681,4885.359217
276.057859,5132.839837,4071.132681,4663.297435
276.058167,4136.915689,3404.947333,5551.544565
276.058475,2681.334243,1628.453072,7254.018232
276.058783,536.266849,592.164754,9326.594869
276.059091,-766.095498,-1184.329507,11843.295072
276.059399,-2451.505594,-2664.741391,12657.521608
276.059707,-2834.553343,-2664.741391,13101.645173
276.060015,-2987.772442,-2442.679609,12509.480420
276.060323,-1302.362347,-1332.370696,11917.315666
276.060631,459.657299,592.164754,10140.821405
276.060939,2145.067394,1554.432478,8364.327145
276.061247,2987.772442,1924.535449,7402.059420
276.061555,2987.772442,1110.308913,7772.162391
276.061863,1532.190996,518.144159,8956.491898
276.062171,153.219100,-370.102971,10584.944971
276.062479,-1685.410096,-1776.494261,11843.295072
276.062787,-3140.991542,-2960.823768,12953.603985
276.063095,-3524.039291,-2960.823768,13249.686362
276.063404,-2681.334243,-2368.659014,12361.439231
276.063712,-1378.971896,-592.164754,10955.047942
276.064020,1378.971896,1554.432478,8956.491898
276.064328,3447.429741,3108.864956,6217.729913
276.064636,4903.011187,4589.276840,5181.441594
276.064944,4903.011187,4219.173869,5107.421000
276.065252,4366.744339,3404.947333,5255.462188
276.065560,3064.381992,2294.638420,6883.915261
276.065868,1072.533697,962.267725,9030.512492
276.066176,-1225.752797,-1036.288319,11547.212695
276.066484,-2374.896044,-1924.535449,13027.624579
276.066792,-2834.553343,-2516.700203,12657.521608
276.067100,-2528.115143,-1998.556043,12879.583391
276.067408,-1225.752797,-1184.329507,11695.253884
276.067716,229.828649,518.144159,10362.883188
276.068024,2298.286494,1776.494261,9104.533087
276.068332,3524.039291,1998.556043,7994.224174
276.068640,3217.601092,1924.535449,8068.244768
276.068949,1532.190996,-0.000000,9178.553681
276.069257,459.657299,-370.102971,9992.780217
276.069565,-1532.190996,-1776.494261,11843.295072
276.069873,-2451.505594,-2738.761985,12879.583391
276.070181,-2911.162892,-2960.823768,13175.665768
276.070489,-2451.505594,-2146.597232,12065.356855
276.070797,-1225.752797,-1406.391290,10510.924376
276.071105,1378.971896,1036.288319,8808.450710
276.071413,4060.306139,3108.864956,6513.812290
276.071721,5439.278036,3923.091493,4589.276840
276.072029,6281.983084,4071.132681,4515.256246
276.072337,5209.449386,3552.988522,4737.318029
276.072645,3753.867940,2368.659014,5995.668130
276.072953,1991.848295,888.247130,7920.203579
276.073261,76.609550,-888.247130,10658.965565
276.073569,-1378.971896,-2294.638420,12583.501014
276.073877,-2757.943793,-2516.700203,12583.501014
276.074185,-2374.896044,-2368.659014,12509.480420
276.074493,-1532.190996,-1702.473667,11917.315666
276.074802,0.000000,370.102971,10214.842000
276.075110,2451.505594,1776.494261,8882.471304
276.075418,3064.381992,2368.659014,7624.121203
276.075726,3217.601092,2072.576638,7846.182985
276.076034,2298.286494,814.226536,8512.368333
276.076342,536.266849,-222.061783,10436.903782
276.076650,-1378.971896,-1998.556043,12065.356855
276.076958,-3140.991542,-2812.782580,12805.562797
276.077266,-3524.039291,-2960.823768,14211.954086
276.077574,-3217.601092,-2738.761985,13101.645173
276.077882,-2221.676944,-1184.329507,11325.150913
276.078190,766.095498,592.164754,9252.574275
276.078498,3140.991542,2442.679609,6883.915261
276.078806,4979.620737,4145.153275,5329.482782
276.079114,5669.106685,4293.194464,4885.359217
276.079422,4749.792088,3997.112087,4737.318029
276.079730,3677.258390,3108.864956,6143.709319
276.080038,1991.848295,1776.494261,7772.162391
276.080346,0.000000,-370.102971,10066.800811
276.080655,-2451.505594,-2072.576638,11991.336260
276.080963,-2451.505594,-2442.679609,12805.562797
276.081271,-2911.162892,-2590.720797,12583.501014
276.081579,-2374.896044,-1850.514855,11695.253884
276.081887,-383.047749,-444.123565,10807.006753
276.082195,1608.800546,1036.288319,9030.512492
276.082503,2911.162892,1998.556043,7698.141797
276.082811,3217.601092,1628.453072,7920.203579
276.083119,2374.896044,962.267725,8734.430116
276.083427,689.485948,-518.144159,9844.739029
276.083735,-919.314598,-2146.597232,11177.109724
276.084043,-2681.334243,-3034.844362,12657.521608
276.084351,-3447.429741,-3997.112087,13693.809927
276.084659,-2987.772442,-3256.906145,12805.562797
276.084967,-2221.676944,-1998.556043,11103.089130
276.085275,153.219100,-222.061783,9400.615463
276.085583,2987.772442,2368.659014,7698.141797
276.085891,4443.353888,3552.988522,5403.503377
276.086200,5439.278036,4663.297435,5033.400406
276.086508,5056.230287,4219.173869,5181.441594
276.086816,4136.915689,3849.070898,5551.544565
276.087124,2068.457845,1850.514855,7698.141797
276.087432,306.438199,148.041188,10214.842000
276.087740,-1225.752797,-1850.514855,11769.274478
276.088048,-2757.943793,-3034.844362,12805.562797
276.088356,-2604.724693,-3034.844362,12657.521608
276.088664,-1915.238745,-2072.576638,12213.398043
276.088972,-229.828649,-0.000000,10807.006753
276.089280,1455.581446,1702.473667,9104.533087
276.089588,3064.381992,2146.597232,7920.203579
276.089896,3447.429741,2368.659014,7476.080014
276.090204,2451.505594,1332.370696,8660.409521
276.090512,1149.143247,444.123565,10436.903782
276.090820,-612.876398,-888.247130,11177.109724
276.091128,-1838.629195,-2368.659014,13545.768739
276.091436,-2757.943793,-3330.926739,14211.954086
276.091744,-2987.772442,-2664.741391,12583.501014
276.092053,-1762.019645,-1554.432478,11177.109724
276.092361,536.266849,148.041188,9548.656652
276.092669,2911.162892,1554.432478,7550.100608
276.092977,4596.572988,3404.947333,5921.647536
276.093285,5898.935335,4441.235652,4515.256246
276.093593,5745.716235,4293.194464,4293.194464
276.093901,4519.963438,3627.009116,5255.462188
276.094209,3524.039291,2368.659014,7624.121203
276.094517,1455.581446,814.226536,8882.471304
276.094825,-919.314598,-1184.329507,11103.089130
276.095133,-2451.505594,-2886.803174,12583.501014
276.095441,-2604.724693,-3256.906145,13101.645173
276.095749,-2528.115143,-2738.761985,12583.501014
276.096057,-1072.533697,-1406.391290,11473.192101
276.096365,1302.362347,740.205942,9844.739029
276.096673,2068.457845,1850.514855,8364.327145
276.096981,2757.943793,1924.535449,8290.306550
276.097289,2604.724693,888.247130,8586.388927
276.097598,1149.143247,-0.000000,9622.677246
276.097906,-1378.971896,-1702.473667,11473.192101
276.098214,-2221.676944,-3330.926739,12731.542202
276.098522,-3447.429741,-3701.029710,13249.686362
276.098830,-3447.429741,-3478.967927,12879.583391
276.099138,-2221.676944,-2368.659014,11547.212695
276.099446,-766.095498,-592.164754,10214.842000
276.099754,1685.410096,1702.473667,8290.306550
276.100062,3983.696590,3404.947333,6513.812290
276.100370,6205.373534,4663.297435,5181.441594
276.100678,5745.716235,4663.297435,3997.112087
276.100986,5056.230287,3849.070898,4663.297435
276.101294,3217.601092,2664.741391,6735.874072
276.101602,1455.581446,1184.329507,8142.265362
276.101910,-766.095498,-962.267725,10955.047942
276.102218,-2374.896044,-2072.576638,12213.398043
276.102526,-2757.943793,-2368.659014,12731.542202
276.102834,-2757.943793,-2072.576638,12361.439231
276.103142,-842.705048,-814.226536,11769.274478
276.103451,536.266849,370.102971,10510.924376
276.103759,1762.019645,2072.576638,8660.409521
276.104067,2451.505594,1850.514855,8216.285956
276.104375,1991.848295,1332.370696,8734.430116
276.104683,612.876398,-0.000000,10140.821405
276.104991,-1149.143247,-1554.432478,11695.253884
276.105299,-2604.724693,-2516.700203,13027.624579
276.105607,-3064.381992,-3552.988522,13693.809927
276.105915,-3294.210641,-3701.029710,13027.624579
276.106223,-2451.505594,-2220.617826,12509.480420
276.106531,-1072.533697,-592.164754,10510.924376
276.106839,1608.800546,1332.370696,8142.265362
276.107147,4060.306139,3330.926739,6217.729913
276.107455,5822.325785,4071.132681,4959.379811
276.107763,6205.373534,4441.235652,4589.276840
276.108071,5669.106685,3552.988522,4885.359217
276.108379,4060.306139,2590.720797,5995.668130
276.108687,2298.286494,1110.308913,7994.224174
276.108995,229.828649,-370.102971,10510.924376
276.109304,-1378.971896,-1850.514855,11473.192101
276.109612,-2068.457845,-2146.597232,11991.336260
276.109920,-1838.629195,-1406.391290,11695.253884
276.110228,-459.657299,-814.226536,11695.253884
276.110536,612.876398,888.247130,10214.842000
276.110844,2068.457845,1776.494261,8660.409521
276.111152,2834.553343,2146.597232,8068.244768
276.111460,2221.676944,1406.391290,8290.306550
276.111768,842.705048,-0.000000,9918.759623
276.112076,-766.095498,-1258.350101,11621.233289
276.112384,-2681.334243,-2516.700203,12657.521608
276.112692,-3140.991542,-3404.947333,13767.830521
276.113000,-3983.696590,-3775.050304,13619.789333
276.113308,-2757.943793,-2960.823768,12509.480420
276.113616,-1149.143247,-1036.288319,10955.047942
276.113924,766.095498,888.247130,8734.430116
276.114232,3370.820191,2960.823768,6365.771101
276.114540,6052.154434,4441.235652,4885.359217
276.114849,5898.935335,4811.338623,4145.153275
276.115157,6205.373534,3775.050304,4515.256246
276.115465,4596.572988,3108.864956,5403.503377
276.115773,2298.286494,1776.494261,7994.224174
276.116081,76.609550,-592.164754,10288.862594
276.116389,-1838.629195,-1924.535449,11547.212695
276.116697,-2757.943793,-2590.720797,12583.501014
276.117005,-3370.820191,-2886.803174,12361.439231
276.117313,-1608.800546,-1850.514855,12065.356855
276.117621,-459.657299,-222.061783,11399.171507
276.117929,1685.410096,1406.391290,9770.718434
276.118237,2451.505594,1480.411884,7994.224174
276.118545,2451.505594,1998.556043,7920.203579
276.118853,1149.143247,814.226536,9030.512492
276.119161,-306.438199,-148.041188,10362.883188
276.119469,-1762.019645,-1480.411884,12213.398043
276.119777,-2757.943793,-2886.803174,12731.542202
276.120085,-3600.648841,-3034.844362,13249.686362
276.120393,-3294.210641,-2886.803174,13471.748144
276.120702,-2834.553343,-2072.576638,11917.315666
276.121010,-766.095498,-444.123565,10510.924376
276.121318,1762.019645,1776.494261,7624.121203
276.121626,3677.258390,3034.844362,6069.688724
276.121934,5745.716235,4219.173869,5403.503377
276.122242,5745.716235,4367.215058,4589.276840
276.122550,5056.230287,3478.967927,5403.503377
276.122858,2987.772442,2442.679609,6661.853478
276.123166,1378.971896,296.082377,9104.533087
276.123474,-995.924147,-518.144159,10732.986159
276.123782,-1608.800546,-1702.473667,12139.377449
276.124090,-2451.505594,-1628.453072,12065.356855
276.124398,-1915.238745,-1332.370696,11843.295072
276.124706,-306.438199,-148.041188,11177.109724
276.125014,1685.410096,1184.329507,9622.677246
276.125322,2757.943793,1480.411884,8142.265362
276.125630,2451.505594,1628.453072,8216.285956
276.125938,1838.629195,592.164754,8734.430116
276.126246,0.000000,-888.247130,10362.883188
276.126554,-1685.410096,-1702.473667,11843.295072
276.126862,-2681.334243,-3256.906145,13397.727550
276.127170,-2604.724693,-3256.906145,13101.645173
276.127478,-2911.162892,-3108.864956,12879.583391
276.127786,-1762.019645,-2146.597232,12139.377449
276.128094,229.828649,-814.226536,10584.944971
276.128402,2068.457845,1332.370696,7994.224174
276.128710,4366.744339,3108.864956,6217.729913
276.129018,5592.497135,4293.194464,5033.400406
276.129326,6205.373534,4219.173869,4737.318029
276.129634,5362.668486,3923.091493,5107.421000
276.129942,3294.210641,2516.700203,6513.812290
276.130250,919.314598,814.226536,9178.553681
276.130559,0.000000,-592.164754,10436.903782
276.130867,-1378.971896,-1406.391290,11325.150913
276.131175,-1915.238745,-1850.514855,11547.212695
276.131483,-1225.752797,-1258.350101,11177.109724
276.131791,229.828649,-148.041188,10732.986159
276.132099,1915.238745,1332.370696,9696.697840
276.132407,2681.334243,2738.761985,8512.368333
276.132715,3294.210641,1924.535449,7994.224174
276.133023,1378.971896,962.267725,8512.368333
276.133331,0.000000,-740.205942,10362.883188
276.133639,-1455.581446,-1998.556043,11843.295072
276.133947,-3370.820191,-2812.782580,13101.645173
276.134255,-4290.134789,-3997.112087,14063.912898
276.134563,-3370.820191,-3997.112087,13989.892304
276.134871,-2834.553343,-2072.576638,12139.377449
276.135179,-536.266849,-1406.391290,11325.150913
276.135487,1915.238745,962.267725,8142.265362
276.135795,3600.648841,3182.885551,6587.832884
276.136103,5515.887586,3997.112087,5403.503377
276.136411,5592.497135,5033.400406,3997.112087
276.136719,6128.763984,4367.215058,5181.441594
276.137027,4596.572988,2960.823768,5403.503377
276.137335,2374.896044,1480.411884,7994.224174
276.137643,76.609550,-518.144159,10066.800811
276.137951,-1302.362347,-1406.391290,11621.233289
276.138259,-2374.896044,-2146.597232,11843.295072
276.138567,-2298.286494,-2146.597232,11917.315666
276.138875,-842.705048,-666.185348,11473.192101
276.139183,612.876398,740.205942,9770.718434
276.139491,1762.019645,1702.473667,9030.512492
276.139799,1991.848295,1924.535449,8364.327145
276.140107,1838.629195,1184.329507,9474.636058
276.140415,459.657299,-74.020594,10881.027347
276.140723,-1455.581446,-888.247130,11103.089130
276.141031,-2451.505594,-2590.720797,13323.706956
276.141339,-3217.601092,-2886.803174,13471.748144
276.141647,-3677.258390,-3256.906145,13693.809927
276.141955,-3140.991542,-2442.679609,12953.603985
276.142263,-1762.019645,-1184.329507,11177.109724
276.142571,612.876398,296.082377,9252.574275
276.142879,2528.115143,2516.700203,6291.750507
276.143187,5209.449386,3923.091493,5255.462188
276.143495,6052.154434,4367.215058,4663.297435
276.143803,5822.325785,3923.091493,4663.297435
276.144111,4443.353888,2664.741391,5847.626942
276.144419,2757.943793,1332.370696,7846.182985
276.144727,766.095498,-888.247130,9474.636058
276.145035,-995.924147,-1480.411884,11177.109724
276.145343,-1532.190996,-1998.556043,11843.295072
276.145651,-1532.190996,-1998.556043,11621.233289
276.145959,-612.876398,-666.185348,11103.089130
276.146267,1072.533697,962.267725,9844.739029
276.146575,2374.896044,2072.576638,7772.162391
276.146883,3217.601092,2368.659014,8142.265362
276.147191,2068.457845,1480.411884,7031.956449
276.147499,1455.581446,-0.000000,9622.677246
276.147807,0.000000,-1110.308913,11177.109724
276.148115,-2528.115143,-2220.617826,11621.233289
276.148423,-3217.601092,-3923.091493,13767.830521
276.148731,-3600.648841,-3627.009116,13397.727550
276.149039,-3753.867940,-3478.967927,13915.871710
276.149347,-2221.676944,-2590.720797,11917.315666
276.149655,689.485948,-518.144159,9400.615463
276.149963,2451.505594,1998.556043,7179.997637
276.150271,4596.572988,3627.009116,6365.771101
276.150579,5898.935335,4219.173869,5033.400406
276.150887,5439.278036,4219.173869,4589.276840
276.151195,4596.572988,3256.906145,5847.626942
276.151503,2681.334243,1998.556043,6957.935855
276.151811,459.657299,-0.000000,9474.636058
276.152119,-842.705048,-1184.329507,11695.253884
276.152427,-1685.410096,-1628.453072,11473.192101
276.152735,-2145.067394,-1406.391290,11473.192101
276.153043,-842.705048,-1036.288319,11103.089130
276.153351,612.876398,666.185348,10140.821405
276.153659,2145.067394,1998.556043,8512.368333
276.153967,2834.553343,2516.700203,7772.162391
276.154276,2221.676944,2294.638420,7846.182985
276.154584,1455.581446,518.144159,9104.533087
276.154892,0.000000,-296.082377,10955.047942
276.155200,-2451.505594,-1924.535449,12287.418637
276.155508,-3294.210641,-3182.885551,13693.809927
276.155816,-4366.744339,-3775.050304,14359.995275
276.156124,-3830.477490,-3627.009116,14211.954086
276.156432,-2528.115143,-2664.741391,12657.521608
276.156740,-919.314598,-666.185348,10955.047942
276.157048,1685.410096,1036.288319,8586.388927
276.157356,4213.525239,3627.009116,6439.791695
276.157664,4673.182538,4737.318029,5255.462188
276.157972,5898.935335,4367.215058,4589.276840
276.158280,4903.011187,3701.029710,4959.379811
276.158588,3370.820191,2368.659014,6809.894666
276.158896,1149.143247,148.041188,9252.574275
276.159204,-383.047749,-1480.411884,11325.150913
276.159512,-1608.800546,-1850.514855,12213.398043
276.159820,-1838.629195,-1998.556043,11843.295072
276.160128,-1225.752797,-1776.494261,11103.089130
276.160436,229.828649,-0.000000,10658.965565
276.160744,2068.457845,1628.453072,9178.553681
276.161052,2451.505594,2442.679609,6809.894666
276.161360,2987.772442,2664.741391,7254.018232
276.161668,1838.629195,1480.411884,8216.285956
276.161976,919.314598,222.061783,10881.027347
276.162284,-1225.752797,-1628.453072,11917.315666
276.162592,-2681.334243,-2368.659014,13101.645173
276.162900,-3983.696590,-3775.050304,13545.768739
276.163208,-4596.572988,-3849.070898,13619.789333
276.163516,-3294.210641,-3108.864956,13471.748144
276.163824,-1532.190996,-1184.329507,11251.130318
276.164132,1685.410096,370.102971,8586.388927
276.164440,3677.258390,2590.720797,6069.688724
276.164748,5975.544884,3552.988522,4959.379811
276.165056,6052.154434,4293.194464,4145.153275
276.165364,5439.278036,3775.050304,4515.256246
276.165672,4366.744339,2442.679609,6439.791695
276.165980,2451.505594,444.123565,8364.327145
276.166288,383.047749,-740.205942,9918.759623
276.166596,-612.876398,-2368.659014,11621.233289
276.166904,-1225.752797,-1998.556043,11547.212695
276.167212,-1608.800546,-1776.494261,11547.212695
276.167520,-536.266849,-444.123565,10436.903782
276.167828,1762.019645,1332.370696,8956.491898
276.168136,2911.162892,2516.700203,7846.182985
276.168444,2987.772442,2516.700203,7254.018232
276.168752,2451.505594,1998.556043,8216.285956
276.169060,459.657299,-0.000000,10288.862594
276.169368,-1149.143247,-1924.535449,11843.295072
276.169676,-2987.772442,-2960.823768,13249.686362
276.169984,-4826.401637,-3552.988522,14359.995275
276.170292,-4903.011187,-3997.112087,14211.954086
276.170600,-4060.306139,-3256.906145,13619.789333
276.170908,-1838.629195,-1184.329507,11917.315666
276.171216,-153.219100,740.205942,9548.656652
276.171524,3447.429741,2442.679609,7550.100608
276.171832,5056.230287,4293.194464,5625.565159
276.172140,5822.325785,5033.400406,4219.173869
276.172448,5286.058936,3701.029710,4737.318029
276.172756,4596.572988,3108.864956,5921.647536
276.173064,2528.115143,1776.494261,7846.182985
276.173372,536.266849,-0.000000,9992.780217
276.173680,-383.047749,-1036.288319,10807.006753
276.173988,-1302.362347,-1406.391290,11325.150913
276.174296,-1149.143247,-1406.391290,11251.130318
276.174604,-919.314598,-592.164754,11621.233289
276.174912,1149.143247,1258.350101,10140.821405
276.175220,2145.067394,2146.597232,8142.265362
276.175528,2068.457845,2516.700203,7920.203579
276.175836,2068.457845,1184.329507,9178.553681
276.176144,0.000000,-0.000000,10288.862594
276.176452,-1302.362347,-1332.370696,11695.253884
276.176760,-2451.505594,-3108.864956,13323.706956
276.177068,-4060.306139,-3552.988522,13915.871710
276.177376,-4060.306139,-3775.050304,14211.954086
276.177684,-3294.210641,-3330.926739,13471.748144
276.177993,-1915.238745,-1184.329507,11103.089130
276.178301,536.266849,666.185348,8956.491898
276.178609,2834.553343,2368.659014,6957.935855
276.178917,5132.839837,3849.070898,5033.400406
276.179225,6435.202183,4515.256246,4145.153275
276.179533,5898.935335,3627.009116,4589.276840
276.179841,4443.353888,2368.659014,6069.688724
276.180149,2451.505594,962.267725,7994.224174
276.180457,766.095498,-518.144159,9918.759623
276.180765,-383.047749,-1850.514855,11103.089130
276.181073,-1149.143247,-1258.350101,11325.150913
276.181381,-766.095498,-2072.576638,11029.068536
276.181689,229.828649,-1110.308913,10510.924376
276.181997,1762.019645,1036.288319,9252.574275
276.182305,2757.943793,2442.679609,7994.224174
276.182613,3140.991542,2738.761985,7328.038826
276.182921,2528.115143,2072.576638,7624.121203
276.183229,1455.581446,814.226536,9326.594869
276.183537,0.000000,-666.185348,10955.047942
276.183845,-2145.067394,-2590.720797,12361.439231
276.184153,-4060.306139,-4219.173869,13841.851115
276.184461,-4673.182538,-4663.297435,14359.995275
276.184769,-4136.915689,-4219.173869,14508.036463
276.185077,-2834.553343,-2368.659014,11843.295072
276.185385,-766.095498,-222.061783,10214.842000
276.185693,2757.943793,1776.494261,8068.244768
276.186001,4596.572988,4071.132681,5625.565159
276.186309,5898.935335,4811.338623,4589.276840
276.186617,5822.325785,4441.235652,4219.173869
276.186925,4903.011187,3256.906145,5403.503377
276.187233,2681.334243,1924.535449,7179.997637
276.187541,995.924147,-74.020594,9474.636058
276.187849,-919.314598,-1480.411884,10807.006753
276.188157,-2068.457845,-2146.597232,11473.192101
276.188465,-2068.457845,-1184.329507,11695.253884
276.188773,-842.705048,-1258.350101,11473.192101
276.189081,0.000000,-0.000000,10436.903782
276.189389,2298.286494,1776.494261,8512.368333
276.189697,3140.991542,2146.597232,7624.121203
276.190005,2911.162892,1924.535449,7920.203579
276.190313,1378.971896,1332.370696,8956.491898
276.190621,0.000000,-518.144159,11029.068536
276.190929,-2145.067394,-1924.535449,12213.398043
276.191237,-3370.820191,-3108.864956,13841.851115
276.191545,-4596.572988,-4145.153275,14359.995275
276.191853,-4673.182538,-3330.926739,14137.933492
276.192161,-3677.258390,-2220.617826,12731.542202
276.192469,-1455.581446,-370.102971,11399.171507
276.192777,1302.362347,1554.432478,8808.450710
276.193085,3907.087040,3849.070898,6291.750507
276.193393,5132.839837,4959.379811,5181.441594
276.193701,5439.278036,4145.153275,5033.400406
276.194009,4519.963438,3552.988522,5625.565159
276.194317,2528.115143,2368.659014,7476.080014
276.194625,1455.581446,592.164754,9326.594869
276.194933,-306.438199,-888.247130,10658.965565
276.195241,-1532.190996,-1776.494261,11621.233289
276.195549,-1302.362347,-1924.535449,11843.295072
276.195857,-459.657299,-1036.288319,11473.192101
276.196165,459.657299,-0.000000,10362.883188
276.196473,2451.505594,1406.391290,8956.491898
276.196781,3140.991542,2072.576638,7254.018232
276.197089,2757.943793,2368.659014,7624.121203
276.197397,2298.286494,1184.329507,8882.471304
276.197705,842.705048,-296.082377,10066.800811
276.198013,-1455.581446,-1776.494261,11695.253884
276.198321,-2145.067394,-2960.823768,13175.665768
276.198629,-3140.991542,-3478.967927,13545.768739
276.198937,-3447.429741,-3404.947333,13767.830521
276.199245,-2451.505594,-2664.741391,12287.418637
276.199553,-842.705048,-740.205942,10362.883188
276.199861,1455.581446,1184.329507,9178.553681
276.200169,4290.134789,2738.761985,6883.915261
276.200477,5286.058936,3997.112087,4737.318029
276.200785,6128.763984,4293.194464,4737.318029
276.201093,5439.278036,2590.720797,4737.318029
276.201401,3677.258390,1924.535449,6883.915261
276.201710,1762.019645,-0.000000,8956.491898
276.202018,0.000000,-666.185348,9548.656652
276.202326,-1149.143247,-1924.535449,11769.274478
276.202634,-1532.190996,-1850.514855,11917.315666
276.202942,-1225.752797,-2072.576638,11621.233289
276.203250,-383.047749,-296.082377,11843.295072
276.203558,842.705048,1258.350101,9844.739029
276.203866,2681.334243,2812.782580,8734.430116
276.204174,2834.553343,2442.679609,7846.182985
276.204482,1838.629195,1850.514855,8586.388927
276.204790,612.876398,518.144159,9770.718434
276.205098,-766.095498,-888.247130,11621.233289
276.205406,-2757.943793,-2368.659014,12583.501014
276.205714,-3907.087040,-2960.823768,13841.851115
276.206022,-3447.429741,-3701.029710,13619.789333
276.206330,-3447.429741,-2442.679609,12139.377449
276.206638,-1455.581446,-1480.411884,11621.233289
276.206946,995.924147,666.185348,9178.553681
276.207254,3370.820191,2960.823768,6513.812290
276.207562,5056.230287,4071.132681,5107.421000
276.207870,5669.106685,4219.173869,4071.132681
276.208178,4826.401637,3108.864956,5181.441594
276.208486,3217.601092,2368.659014,6365.771101
276.208794,1685.410096,888.247130,8734.430116
276.209102,-383.047749,-1184.329507,10362.883188
276.209410,-1225.752797,-1628.453072,11177.109724
276.209718,-1915.238745,-2442.679609,11547.212695
276.210026,-1838.629195,-2072.576638,11917.315666
276.210334,-459.657299,-1702.473667,11251.130318
276.210642,1072.533697,444.123565,9548.656652
276.210950,2604.724693,1554.432478,8142.265362
276.211258,2911.162892,1776.494261,6957.935855
276.211566,2451.505594,888.247130,8290.306550
276.211874,1072.533697,-0.000000,9548.656652
276.212182,-612.876398,-1554.432478,10436.903782
276.212490,-2374.896044,-2442.679609,12361.439231
276.212798,-3830.477490,-3627.009116,12731.542202
276.213106,-4213.525239,-3775.050304,13323.706956
276.213414,-3524.039291,-2738.761985,13027.624579
276.213722,-1532.190996,-1036.288319,11251.130318
276.214030,383.047749,888.247130,9474.636058
276.214338,2987.772442,2664.741391,7031.956449
276.214646,4979.620737,4367.215058,5033.400406
276.214954,5439.278036,4737.318029,4737.318029
276.215262,5439.278036,3627.009116,4885.359217
276.215570,3983.696590,2812.782580,6661.853478
276.215878,2757.943793,1332.370696,8512.368333
276.216186,229.828649,-962.267725,10510.924376
276.216494,-689.485948,-1628.453072,11177.109724
276.216802,-1685.410096,-1850.514855,11695.253884
276.217110,-1378.971896,-1776.494261,11991.336260
276.217418,-153.219100,-888.247130,11325.150913
276.217726,995.924147,888.247130,10288.862594
276.218034,2604.724693,2220.617826,8882.471304
276.218342,2911.162892,3256.906145,6809.894666
276.218650,3217.601092,2368.659014,9326.594869
276.218958,2451.505594,1184.329507,9474.636058
276.219266,-459.657299,296.082377,9918.759623
276.219574,-1838.629195,-1776.494261,13397.727550
276.219882,-2681.334243,-3256.906145,13471.748144
276.220190,-4903.011187,-3256.906145,14137.933492
276.220498,-3600.648841,-3701.029710,14285.974681
276.220806,-1378.971896,-1998.556043,11547.212695
276.221114,0.000000,-666.185348,10288.862594
276.221422,2604.724693,2146.597232,7772.162391
276.221730,5362.668486,3552.988522,6069.688724
276.222038,5592.497135,4293.194464,4441.235652
276.222346,5362.668486,4293.194464,4811.338623
276.222654,4366.744339,2664.741391,6217.729913
276.222962,2528.115143,1554.432478,7994.224174
276.223270,1455.581446,-0.000000,9992.780217
276.223578,-383.047749,-1110.308913,10732.986159
276.223886,-1685.410096,-2146.597232,12287.418637
276.224194,-2221.676944,-2220.617826,11991.336260
276.224502,-1455.581446,-1110.308913,11325.150913
276.224810,229.828649,-370.102971,11325.150913
276.225118,1762.019645,1480.411884,8142.265362
276.225427,2911.162892,2886.803174,7402.059420
276.225735,2987.772442,1702.473667,8142.265362
276.226043,2068.457845,1332.370696,8438.347739
276.226351,459.657299,-0.000000,9770.718434
276.226659,-1072.533697,-1628.453072,11695.253884
276.226966,-2834.553343,-2960.823768,12287.418637
276.227274,-3983.696590,-2960.823768,13101.645173
276.227582,-2911.162892,-3256.906145,14211.954086
276.227890,-2374.896044,-2368.659014,11917.315666
276.228198,-536.266849,-444.123565,10362.883188
276.228506,1685.410096,1554.432478,8512.368333
276.228814,3677.258390,3034.844362,6439.791695
276.229122,4979.620737,4663.297435,4589.276840
276.229430,5209.449386,3997.112087,4811.338623
276.229737,4366.744339,3034.844362,6069.688724
276.230045,2528.115143,2220.617826,7476.080014
276.230353,842.705048,-0.000000,9622.677246
276.230661,-229.828649,-1628.453072,10584.944971
276.230969,-1762.019645,-1776.494261,11325.150913
276.231277,-2451.505594,-2294.638420,12139.377449
276.231585,-1608.800546,-1850.514855,12065.356855
276.231893,-995.924147,-296.082377,10807.006753
276.232201,842.705048,1184.329507,9326.594869
276.232508,2374.896044,1776.494261,8068.244768
276.232816,2528.115143,2072.576638,7920.203579
276.233124,2374.896044,592.164754,9696.697840
276.233432,229.828649,-148.041188,9992.780217
276.233740,-1532.190996,-1554.432478,11547.212695
276.234048,-2451.505594,-2590.720797,12583.501014
276.234356,-3294.210641,-2664.741391,12805.562797
276.234664,-3140.991542,-2516.700203,12731.542202
276.234972,-1532.190996,-1998.556043,11399.171507
276.235280,-612.876398,-222.061783,9844.739029
276.235587,1838.629195,1332.370696,7624.121203
276.235895,4213.525239,3256.906145,5625.565159
276.236203,5669.106685,4885.359217,3849.070898
276.236511,5669.106685,4293.194464,4811.338623
276.236819,4673.182538,3330.926739,5847.626942
276.237127,2757.943793,1998.556043,7402.059420
276.237435,919.314598,-0.000000,10214.842000
276.237743,-1149.143247,-1332.370696,11103.089130
276.238051,-1685.410096,-2220.617826,12509.480420
276.238358,-2604.724693,-2886.803174,12657.521608
276.238666,-2145.067394,-2220.617826,12657.521608
276.238974,-536.266849,-592.164754,11473.192101
276.239282,1302.362347,814.226536,9622.677246
276.239590,2528.115143,1850.514855,7994.224174
276.239898,3830.477490,1776.494261,7698.141797
276.240206,2681.334243,962.267725,8734.430116
276.240514,1302.362347,-0.000000,9844.739029
276.240822,76.609550,-1184.329507,11399.171507
276.241129,-1991.848295,-2294.638420,12139.377449
276.241437,-3447.429741,-2812.782580,12583.501014
276.241745,-3524.039291,-3256.906145,13471.748144
276.242053,-2298.286494,-2146.597232,12435.459826
276.242361,-612.876398,-444.123565,9918.759623
276.242669,1149.143247,1184.329507,8216.285956
276.242977,4213.525239,3849.070898,6735.874072
276.243285,5362.668486,4589.276840,4959.379811
276.243593,5975.544884,4737.318029,5033.400406
276.243900,5132.839837,4219.173869,5181.441594
276.244208,3064.381992,2886.803174,6439.791695
276.244516,1378.971896,1110.308913,9104.533087
276.244824,-612.876398,-814.226536,11621.233289
276.245132,-2068.457845,-1850.514855,12435.459826
276.245440,-2987.772442,-2812.782580,12879.583391
276.245748,-2451.505594,-2368.659014,13027.624579
276.246056,-1378.971896,-1554.432478,11917.315666
276.246364,459.657299,-0.000000,10214.842000
276.246671,2374.896044,1554.432478,8660.409521
276.246979,2911.162892,2220.617826,7772.162391
276.247287,2068.457845,1554.432478,8586.388927
276.247595,1991.848295,370.102971,9770.718434
276.247903,0.000000,-740.205942,10732.986159
276.248211,-2298.286494,-1924.535449,11991.336260
276.248519,-3140.991542,-2960.823768,13249.686362
276.248827,-3907.087040,-2960.823768,13545.768739
276.249135,-3447.429741,-2294.638420,12361.439231
276.249443,-1378.971896,-814.226536,10732.986159
276.249750,1072.533697,1332.370696,8290.306550
276.250058,2834.553343,3034.844362,6661.853478
276.250366,5822.325785,4293.194464,4737.318029
276.250674,5898.935335,4441.235652,4145.153275
276.250982,5515.887586,3849.070898,4811.338623
276.251290,4060.306139,2516.700203,6143.709319
276.251598,1762.019645,740.205942,8068.244768
276.251906,-306.438199,-1332.370696,10807.006753
276.252214,-1838.629195,-2368.659014,11695.253884
276.252521,-3447.429741,-3034.844362,12805.562797
276.252829,-2681.334243,-3108.864956,12805.562797
276.253137,-2068.457845,-1924.535449,11843.295072
276.253445,383.047749,-0.000000,10362.883188
276.253753,2221.676944,1702.473667,8586.388927
276.254061,3140.991542,2516.700203,7328.038826
276.254369,3217.601092,2072.576638,7698.141797
276.254677,1762.019645,370.102971,8882.471304
276.254985,229.828649,-370.102971,10362.883188
276.255292,-1685.410096,-1776.494261,11621.233289
276.255600,-2911.162892,-3034.844362,13175.665768
276.255908,-3830.477490,-3034.844362,13101.645173
276.256216,-3294.210641,-2664.741391,13027.624579
276.256524,-1378.971896,-1776.494261,11769.274478
276.256832,612.876398,296.082377,8438.347739
276.257140,3370.820191,2738.761985,7031.956449
276.257448,5975.544884,4071.132681,5403.503377
276.257756,6971.469032,4663.297435,4663.297435
276.258063,5822.325785,3923.091493,4737.318029
276.258371,4443.353888,2960.823768,5847.626942
276.258679,2221.676944,1258.350101,8290.306550
276.258987,0.000000,-814.226536,10732.986159
276.259295,-1608.800546,-1702.473667,11991.336260
276.259603,-2528.115143,-2368.659014,13397.727550
276.259911,-2911.162892,-2886.803174,13027.624579
276.260219,-2451.505594,-1702.473667,11991.336260
276.260527,153.219100,-148.041188,10881.027347
276.260834,2145.067394,1776.494261,8216.285956
276.261142,3447.429741,2664.741391,7179.997637
276.261450,4060.306139,2368.659014,7328.038826
276.261758,2757.943793,814.226536,8142.265362
276.262066,383.047749,-740.205942,10140.821405
276.262374,-1149.143247,-1776.494261,11547.212695
276.262682,-2451.505594,-2664.741391,12583.501014
276.262990,-3753.867940,-3478.967927,13101.645173
276.263298,-3294.210641,-2812.782580,13027.624579
276.263606,-2221.676944,-1332.370696,11473.192101
276.263913,0.000000,148.041188,9844.739029
276.264221,2451.505594,2368.659014,7402.059420
276.264529,4749.792088,3849.070898,6143.709319
276.264837,5286.058936,4515.256246,5551.544565
276.265145,5592.497135,3997.112087,5329.482782
276.265453,4060.306139,3256.906145,6365.771101
276.265761,1838.629195,1480.411884,8290.306550
276.266069,153.219100,-518.144159,10362.883188
276.266377,-1685.410096,-1332.370696,11473.192101
276.266684,-2298.286494,-2738.761985,13175.665768
276.266992,-2834.553343,-3034.844362,13471.748144
276.267300,-2145.067394,-2220.617826,12657.521608
276.267608,-306.438199,-740.205942,11177.109724
276.267916,1838.629195,1184.329507,8808.450710
276.268224,3600.648841,2590.720797,7624.121203
276.268532,3447.429741,2368.659014,7254.018232
276.268840,2757.943793,1776.494261,8068.244768
276.269148,1149.143247,-0.000000,10066.800811
276.269455,-995.924147,-1480.411884,11251.130318
276.269763,-2451.505594,-2738.761985,12731.542202
276.270071,-2834.553343,-3182.885551,13767.830521
276.270379,-2911.162892,-2812.782580,12953.603985
276.270687,-2221.676944,-1776.494261,10807.006753
276.270995,383.047749,-370.102971,9696.697840
276.271303,2451.505594,1776.494261,7328.038826
276.271611,3677.258390,3108.864956,5477.523971
276.271919,6128.763984,4071.132681,4959.379811
276.272226,6281.983084,4145.153275,4811.338623
276.272534,4826.401637,2368.659014,5847.626942
276.272842,2911.162892,1480.411884,7476.080014
276.273150,842.705048,-296.082377,9622.677246
276.273458,-1532.190996,-1850.514855,10955.047942
276.273766,-2451.505594,-2590.720797,11991.336260
276.274074,-2604.724693,-2738.761985,12953.603985
276.274382,-3064.381992,-2664.741391,12805.562797
276.274690,-306.438199,-962.267725,10807.006753
276.274997,1455.581446,814.226536,8882.471304
276.275305,2604.724693,2368.659014,7994.224174
276.275613,2604.724693,2738.761985,7031.956449
276.275921,3524.039291,1554.432478,9474.636058
276.276229,1455.581446,296.082377,8142.265362
276.276537,-2145.067394,-666.185348,9844.739029
276.276845,-1225.752797,-3997.112087,14211.954086
276.277153,-4673.182538,-3182.885551,12583.501014
276.277461,-4136.915689,-3923.091493,14434.015869
276.277769,-2068.457845,-1998.556043,11843.295072
276.278076,-995.924147,-740.205942,10362.883188
276.278384,1378.971896,888.247130,8956.491898
276.278692,4749.792088,4145.153275,5255.462188
276.279000,6052.154434,4737.318029,5033.400406
276.279308,6205.373534,4293.194464,3701.029710
276.279616,5669.106685,4367.215058,5255.462188
276.279924,3370.820191,2368.659014,7031.956449
276.280232,766.095498,-222.061783,9696.697840
276.280540,-842.705048,-1110.308913,11177.109724
276.280847,-2528.115143,-1998.556043,13027.624579
276.281155,-2987.772442,-2812.782580,13545.768739
276.281463,-2987.772442,-1776.494261,12657.521608
276.281771,-995.924147,-592.164754,12213.398043
276.282079,536.266849,222.061783,9474.636058
276.282387,2374.896044,1850.514855,7920.203579
276.282695,3217.601092,2368.659014,7994.224174
276.283003,2451.505594,1998.556043,8290.306550
276.283311,1072.533697,740.205942,9474.636058
276.283618,-689.485948,-518.144159,11103.089130
276.283926,-2221.676944,-2442.679609,12065.356855
276.284234,-3370.820191,-2738.761985,13175.665768
276.284542,-3600.648841,-3108.864956,13249.686362
276.284850,-1991.848295,-2886.803174,12139.377449
276.285158,-995.924147,-1110.308913,10510.924376
276.285466,1378.971896,592.164754,8808.450710
276.285774,4060.306139,2368.659014,6661.853478
276.286082,5286.058936,3775.050304,4885.359217
276.286389,6435.202183,4071.132681,4663.297435
276.286697,5362.668486,3330.926739,4367.215058
276.287005,4213.525239,2516.700203,5995.668130
276.287313,2374.896044,296.082377,8142.265362
276.287621,229.828649,-740.205942,10140.821405
276.287929,-1838.629195,-1850.514855,11843.295072
276.288237,-2681.334243,-2516.700203,12287.418637
276.288545,-2451.505594,-2072.576638,12657.521608
276.288853,-1302.362347,-1776.494261,12139.377449
276.289160,842.705048,-0.000000,9992.780217
276.289468,1991.848295,1850.514855,9030.512492
276.289776,3370.820191,2368.659014,8364.327145
276.290084,2528.115143,1480.411884,8364.327145
276.290392,1302.362347,518.144159,9400.615463
276.290700,0.000000,-1036.288319,10510.924376
276.291008,-1685.410096,-1776.494261,11547.212695
276.291316,-2451.505594,-3034.844362,12805.562797
276.291624,-2451.505594,-2960.823768,13101.645173
276.291932,-1991.848295,-2590.720797,12213.398043
276.292239,-919.314598,-1258.350101,10732.986159
276.292547,1225.752797,962.267725,8660.409521
276.292855,3217.601092,2442.679609,6661.853478
276.293163,4903.011187,4367.215058,5477.523971
276.293471,6128.763984,4441.235652,5033.400406
276.293779,5515.887586,4293.194464,4441.235652
276.294087,4519.963438,2220.617826,6217.729913
276.294395,2451.505594,1184.329507,8438.347739
276.294703,229.828649,-740.205942,10658.965565
276.295010,-2145.067394,-1702.473667,11843.295072
276.295318,-3064.381992,-2368.659014,12879.583391
276.295626,-2911.162892,-2442.679609,13471.748144
276.295934,-1532.190996,-1702.473667,11917.315666
276.296242,0.000000,592.164754,10658.965565
276.296550,2298.286494,2146.597232,8734.430116
276.296858,2757.943793,2442.679609,7698.141797
276.297166,2604.724693,1924.535449,8290.306550
276.297474,1608.800546,740.205942,9400.615463
276.297781,0.000000,-222.061783,10510.924376
276.298089,-2221.676944,-1554.432478,11843.295072
276.298397,-3600.648841,-3034.844362,13249.686362
276.298705,-3677.258390,-3552.988522,13545.768739
276.299013,-2681.334243,-2516.700203,13027.624579
276.299321,-2145.067394,-1258.350101,11621.233289
276.299629,-306.438199,370.102971,9178.553681
276.299937,2451.505594,2220.617826,7550.100608
276.300245,4366.744339,4441.235652,5773.606348
276.300552,6052.154434,4737.318029,4737.318029
276.300860,5745.716235,4737.318029,4737.318029
276.301168,4673.182538,3330.926739,5551.544565
276.301476,2911.162892,1480.411884,7698.141797
276.301784,459.657299,-222.061783,10288.862594
276.302092,-1915.238745,-1554.432478,11695.253884
276.302400,-3294.210641,-2368.659014,12509.480420
276.302708,-2987.772442,-2442.679609,13101.645173
276.303016,-2451.505594,-1998.556043,12953.603985
276.303323,-766.095498,-592.164754,11029.068536
276.303631,1225.752797,1332.370696,8882.471304
276.303939,2374.896044,1702.473667,8438.347739
276.304247,2834.553343,1184.329507,8438.347739
276.304555,1532.190996,666.185348,8660.409521
276.304863,383.047749,-370.102971,10510.924376
276.305171,-1149.143247,-1554.432478,10881.027347
276.305479,-2451.505594,-2072.576638,12139.377449
276.305787,-2987.772442,-3034.844362,13027.624579
276.306095,-2451.505594,-2590.720797,11917.315666
276.306402,-1072.533697,-1628.453072,11029.068536
276.306710,842.705048,-518.144159,9104.533087
276.307018,2374.896044,1850.514855,7031.956449
276.307326,4903.011187,3108.864956,5625.565159
276.307634,5822.325785,4367.215058,4663.297435
276.307942,6052.154434,4367.215058,4441.235652
276.308250,6205.373534,3034.844362,5107.421000
276.308558,3524.039291,1554.432478,6735.874072
276.308866,1225.752797,-0.000000,9474.636058
276.309173,-612.876398,-2072.576638,10658.965565
276.309481,-2604.724693,-2220.617826,12509.480420
276.309789,-2528.115143,-2886.803174,13175.665768
276.310097,-2374.896044,-1998.556043,12509.480420
276.310405,-1149.143247,-888.247130,11843.295072
276.310713,995.924147,444.123565,9696.697840
276.311021,2681.334243,1924.535449,8216.285956
276.311329,2528.115143,1406.391290,8808.450710
276.311637,1991.848295,1036.288319,8512.368333
276.311944,689.485948,666.185348,9844.739029
276.312252,-766.095498,-962.267725,11251.130318
276.312560,-2221.676944,-2072.576638,11843.295072
276.312868,-2451.505594,-2368.659014,12879.583391
276.313176,-2681.334243,-1850.514855,12583.501014
276.313484,-1762.019645,-1998.556043,11843.295072
276.313792,153.219100,-222.061783,9992.780217
276.314100,2451.505594,1258.350101,8364.327145
276.314408,3907.087040,3256.906145,5921.647536
276.314715,5592.497135,4515.256246,4811.338623
276.315023,6358.592633,4515.256246,4811.338623
276.315331,4903.011187,3997.112087,4663.297435
276.315639,4060.306139,1924.535449,7105.977043
276.315947,919.314598,888.247130,9178.553681
276.316255,-919.314598,-1258.350101,11399.171507
276.316563,-2757.943793,-2294.638420,12509.480420
276.316871,-3064.381992,-2442.679609,13249.686362
276.317179,-2451.505594,-1998.556043,13027.624579
276.317486,-1762.019645,-740.205942,11843.295072
276.317794,536.266849,592.164754,10881.027347
276.318102,1838.629195,2368.659014,8586.388927
276.318410,2834.553343,2220.617826,8586.388927
276.318718,2451.505594,1480.411884,8882.471304
276.319026,1072.533697,592.164754,9548.656652
276.319334,-689.485948,-592.164754,11103.089130
