#time,accel_x,accel_y,accel_z
99.256312,459.657299,-1036.288319,10436.903782
99.256620,383.047749,-888.247130,10362.883188
99.256929,689.485948,-888.247130,9918.759623
99.257237,1302.362347,-666.185348,9844.739029
99.257545,1762.019645,-592.164754,10214.842000
99.257853,1915.238745,-296.082377,9178.553681
99.258161,2145.067394,-370.102971,9326.594869
99.258469,2604.724693,-592.164754,9326.594869
99.258778,2298.286494,-296.082377,9030.512492
99.259086,2451.505594,-74.020594,9252.574275
99.259394,2451.505594,-0.000000,9104.533087
99.259702,2681.334243,148.041188,9252.574275
99.260010,2757.943793,-74.020594,9474.636058
99.260318,2834.553343,-74.020594,9622.677246
99.260627,2145.067394,-0.000000,9252.574275
99.260935,2298.286494,-0.000000,9622.677246
99.261243,2298.286494,-0.000000,9474.636058
99.261551,2145.067394,222.061783,9696.697840
99.261859,2528.115143,740.205942,9474.636058
99.262168,2528.115143,1184.329507,9474.636058
99.262476,2604.724693,888.247130,8882.471304
99.262784,2145.067394,1184.329507,9474.636058
99.263092,2374.896044,1258.350101,9474.636058
99.263400,1608.800546,962.267725,9548.656652
99.263708,1149.143247,592.164754,9696.697840
99.264017,1072.533697,444.123565,10066.800811
99.264325,919.314598,222.061783,10288.862594
99.264633,1225.752797,296.082377,10288.862594
99.264941,1149.143247,-0.000000,10288.862594
99.265249,1378.971896,-0.000000,10584.944971
99.265558,1608.800546,148.041188,10510.924376
99.265866,1455.581446,-0.000000,9992.780217
99.266174,1991.848295,296.082377,9474.636058
99.266482,2374.896044,666.185348,8808.450710
99.266790,2221.676944,814.226536,8586.388927
99.267098,2757.943793,814.226536,8808.450710
99.267407,2374.896044,518.144159,9030.512492
99.267715,2145.067394,-0.000000,9104.533087
99.268023,1991.848295,-222.061783,9400.615463
99.268331,1072.533697,-74.020594,9844.739029
99.268639,919.314598,-296.082377,9992.780217
99.268948,919.314598,-370.102971,9918.759623
99.269256,766.095498,-148.041188,9918.759623
99.269564,995.924147,-222.061783,10288.862594
99.269872,919.314598,-0.000000,10140.821405
99.270180,1378.971896,222.061783,10066.800811
99.270488,1072.533697,296.082377,9474.636058
99.270797,1455.581446,-0.000000,9474.636058
99.271105,1225.752797,296.082377,9400.615463
99.271413,1532.190996,148.041188,9474.636058
99.271721,1455.581446,148.041188,9696.697840
99.272029,1455.581446,-370.102971,9622.677246
99.272337,1378.971896,-296.082377,9918.759623
99.272646,1608.800546,-444.123565,9992.780217
99.272954,1608.800546,-148.041188,9696.697840
99.273262,1532.190996,-148.041188,9844.739029
99.273570,1685.410096,-74.020594,9696.697840
99.273878,1991.848295,222.061783,9400.615463
99.274187,1762.019645,370.102971,9474.636058
99.274495,1532.190996,444.123565,9178.553681
99.274803,1685.410096,370.102971,9178.553681
99.275111,995.924147,666.185348,9104.533087
99.275419,1838.629195,370.102971,9178.553681
99.275727,1072.533697,518.144159,9400.615463
99.276036,1532.190996,518.144159,9474.636058
99.276344,1225.752797,444.123565,9622.677246
99.276652,1302.362347,518.144159,9770.718434
99.276960,842.705048,-0.000000,9696.697840
99.277268,1378.971896,148.041188,9992.780217
99.277577,612.876398,444.123565,9844.739029
99.277885,766.095498,444.123565,10140.821405
99.278193,689.485948,-0.000000,9474.636058
99.278501,689.485948,370.102971,9548.656652
99.278809,689.485948,370.102971,9474.636058
99.279117,306.438199,518.144159,9696.697840
99.279426,842.705048,370.102971,9474.636058
99.279734,459.657299,518.144159,9844.739029
99.280042,306.438199,222.061783,9696.697840
99.280350,76.609550,518.144159,9918.759623
99.280658,306.438199,444.123565,9992.780217
99.280967,536.266849,370.102971,9696.697840
99.281275,153.219100,370.102971,9548.656652
99.281583,306.438199,444.123565,9474.636058
99.281891,306.438199,-74.020594,9548.656652
99.282199,689.485948,148.041188,9622.677246
99.282507,459.657299,-296.082377,9474.636058
99.282816,229.828649,-296.082377,9400.615463
99.283124,0.000000,-0.000000,9548.656652
99.283432,-689.485948,-0.000000,9770.718434
99.283740,-306.438199,-0.000000,9992.780217
99.284048,-306.438199,148.041188,9918.759623
99.284357,0.000000,-0.000000,10214.842000
99.284665,-536.266849,-296.082377,9992.780217
99.284973,-766.095498,-0.000000,10066.800811
99.285281,-612.876398,-296.082377,10140.821405
99.285589,-612.876398,-74.020594,9770.718434
99.285897,-383.047749,-0.000000,9548.656652
99.286206,-459.657299,-0.000000,9696.697840
99.286514,-229.828649,-0.000000,9474.636058
99.286822,0.000000,222.061783,9400.615463
99.287130,229.828649,222.061783,9474.636058
99.287438,536.266849,-0.000000,9326.594869
99.287746,153.219100,222.061783,9400.615463
99.288055,229.828649,370.102971,9474.636058
99.288363,76.609550,296.082377,9400.615463
99.288671,0.000000,296.082377,9474.636058
99.288979,0.000000,296.082377,9622.677246
99.289287,76.609550,-74.020594,9770.718434
99.289596,-229.828649,-74.020594,9992.780217
99.289904,-229.828649,-148.041188,9844.739029
99.290212,-459.657299,-74.020594,9548.656652
99.290520,76.609550,-0.000000,9696.697840
99.290828,76.609550,148.041188,9696.697840
99.291136,0.000000,-74.020594,9548.656652
99.291445,229.828649,-0.000000,9622.677246
99.291753,306.438199,-0.000000,10140.821405
99.292061,459.657299,-0.000000,9844.739029
99.292369,536.266849,-296.082377,9474.636058
99.292677,689.485948,-0.000000,9622.677246
99.292986,766.095498,-0.000000,9622.677246
99.293294,689.485948,-0.000000,9622.677246
99.293602,995.924147,-0.000000,9474.636058
99.293910,1225.752797,222.061783,9252.574275
99.294218,1225.752797,592.164754,9252.574275
99.294526,1455.581446,296.082377,9400.615463
99.294835,1149.143247,444.123565,9252.574275
99.295143,1455.581446,592.164754,9326.594869
99.295451,1455.581446,518.144159,9622.677246
99.295759,1225.752797,370.102971,9474.636058
99.296067,1378.971896,370.102971,9548.656652
99.296376,1608.800546,296.082377,9770.718434
99.296684,1685.410096,-0.000000,9474.636058
99.296992,1302.362347,-296.082377,9696.697840
99.297300,1378.971896,-222.061783,9622.677246
99.297608,1378.971896,-222.061783,10066.800811
99.297917,1608.800546,-0.000000,9696.697840
99.298225,1762.019645,-0.000000,9622.677246
99.298533,1532.190996,370.102971,9474.636058
99.298841,1838.629195,370.102971,9474.636058
99.299149,1991.848295,148.041188,9474.636058
99.299457,1532.190996,814.226536,9030.512492
99.299766,1915.238745,814.226536,9474.636058
99.300074,2145.067394,740.205942,9400.615463
99.300382,1838.629195,370.102971,9474.636058
99.300690,1532.190996,592.164754,9696.697840
99.300998,1532.190996,370.102971,9770.718434
99.301307,1455.581446,296.082377,9844.739029
99.301615,1455.581446,-74.020594,9770.718434
99.301923,1608.800546,-0.000000,9696.697840
99.302231,1378.971896,222.061783,9696.697840
99.302539,1378.971896,518.144159,9770.718434
99.302847,1532.190996,444.123565,9474.636058
99.303156,1455.581446,518.144159,9474.636058
99.303464,1378.971896,962.267725,9548.656652
99.303772,2145.067394,814.226536,9326.594869
99.304080,1302.362347,666.185348,9622.677246
99.304388,919.314598,444.123565,9696.697840
99.304697,1302.362347,444.123565,9548.656652
99.305005,612.876398,222.061783,9918.759623
99.305313,536.266849,222.061783,9844.739029
99.305621,536.266849,148.041188,9918.759623
99.305929,229.828649,-0.000000,10066.800811
99.306237,689.485948,-74.020594,10066.800811
99.306546,383.047749,-222.061783,9918.759623
99.306854,383.047749,-0.000000,9918.759623
99.307162,383.047749,-222.061783,9548.656652
99.307470,459.657299,-0.000000,9696.697840
99.307778,536.266849,-0.000000,9474.636058
99.308087,153.219100,-0.000000,9474.636058
99.308395,76.609550,222.061783,9326.594869
99.308703,153.219100,518.144159,9622.677246
99.309011,0.000000,-296.082377,9770.718434
99.309319,0.000000,-148.041188,9622.677246
99.309628,229.828649,-74.020594,9770.718434
99.309936,76.609550,-148.041188,9770.718434
99.310244,306.438199,-74.020594,9622.677246
99.310552,0.000000,-0.000000,9400.615463
99.310860,0.000000,222.061783,9400.615463
99.311168,306.438199,370.102971,9178.553681
99.311477,383.047749,518.144159,9326.594869
99.311785,383.047749,148.041188,9548.656652
99.312093,153.219100,-0.000000,9400.615463
99.312401,0.000000,-0.000000,9326.594869
99.312709,-229.828649,148.041188,9474.636058
99.313018,-229.828649,-74.020594,9696.697840
99.313326,0.000000,-148.041188,9770.718434
99.313634,-229.828649,-444.123565,9918.759623
99.313942,-306.438199,-370.102971,9770.718434
99.314250,-383.047749,-222.061783,9992.780217
99.314558,-306.438199,-0.000000,10214.842000
99.314867,153.219100,-0.000000,9548.656652
99.315175,229.828649,370.102971,9400.615463
99.315483,459.657299,296.082377,9326.594869
99.315791,383.047749,592.164754,9474.636058
99.316099,919.314598,-0.000000,9400.615463
99.316408,689.485948,592.164754,9474.636058
99.316716,459.657299,222.061783,9178.553681
99.317024,306.438199,148.041188,9474.636058
99.317332,0.000000,148.041188,9696.697840
99.317640,76.609550,-74.020594,9696.697840
99.317948,0.000000,-0.000000,9696.697840
99.318257,153.219100,-0.000000,9770.718434
99.318565,229.828649,-74.020594,9918.759623
99.318873,689.485948,-0.000000,9548.656652
99.319181,459.657299,148.041188,9918.759623
99.319489,383.047749,296.082377,9844.739029
99.319798,459.657299,444.123565,9770.718434
99.320106,459.657299,666.185348,9548.656652
99.320414,536.266849,518.144159,9474.636058
99.320722,306.438199,444.123565,9548.656652
99.321030,383.047749,592.164754,9918.759623
99.321339,153.219100,-0.000000,10140.821405
99.321647,153.219100,-592.164754,9844.739029
99.321955,612.876398,-296.082377,10140.821405
99.322263,0.000000,-0.000000,9992.780217
99.322571,76.609550,-148.041188,9770.718434
99.322879,536.266849,-0.000000,9548.656652
99.323188,612.876398,222.061783,9548.656652
99.323496,842.705048,-0.000000,9844.739029
99.323804,459.657299,-0.000000,9474.636058
99.324112,1149.143247,370.102971,9474.636058
99.324420,995.924147,222.061783,9548.656652
99.324729,919.314598,370.102971,9474.636058
99.325037,842.705048,222.061783,9548.656652
99.325345,766.095498,148.041188,9474.636058
99.325653,919.314598,-0.000000,9400.615463
99.325961,1149.143247,-222.061783,9622.677246
99.326269,1149.143247,-444.123565,9918.759623
99.326578,919.314598,-148.041188,10066.800811
99.326886,842.705048,-0.000000,9992.780217
99.327194,919.314598,-0.000000,9770.718434
99.327502,1149.143247,-0.000000,9622.677246
99.327810,1072.533697,-0.000000,9548.656652
99.328119,1302.362347,74.020594,9474.636058
99.328427,766.095498,-74.020594,9252.574275
99.328735,1455.581446,370.102971,9252.574275
99.329043,1915.238745,222.061783,9178.553681
99.329351,1149.143247,148.041188,9030.512492
99.329659,1455.581446,444.123565,9326.594869
99.329968,1149.143247,296.082377,9400.615463
99.330276,995.924147,-0.000000,9548.656652
99.330584,995.924147,-0.000000,9696.697840
99.330892,995.924147,-0.000000,9548.656652
99.331200,919.314598,-74.020594,9918.759623
99.331509,1149.143247,148.041188,9548.656652
99.331817,1608.800546,222.061783,9474.636058
99.332125,1455.581446,518.144159,9474.636058
99.332433,1608.800546,592.164754,9548.656652
99.332741,1532.190996,592.164754,9474.636058
99.333050,1762.019645,740.205942,9474.636058
99.333358,1378.971896,296.082377,9474.636058
99.333666,1225.752797,148.041188,9548.656652
99.333974,1149.143247,814.226536,9918.759623
99.334282,459.657299,-0.000000,9474.636058
99.334590,842.705048,370.102971,9992.780217
99.334899,919.314598,222.061783,9770.718434
99.335207,612.876398,-0.000000,9992.780217
99.335515,612.876398,-0.000000,9770.718434
99.335823,536.266849,296.082377,9918.759623
99.336131,459.657299,-0.000000,9474.636058
99.336440,995.924147,592.164754,9770.718434
99.336748,1149.143247,814.226536,9770.718434
99.337056,842.705048,370.102971,9474.636058
99.337364,689.485948,592.164754,9474.636058
99.337672,842.705048,666.185348,9474.636058
99.337980,919.314598,518.144159,9474.636058
99.338289,766.095498,148.041188,9326.594869
99.338597,1225.752797,296.082377,9696.697840
99.338905,536.266849,222.061783,9474.636058
99.339213,383.047749,370.102971,9548.656652
99.339521,229.828649,-0.000000,9918.759623
99.339830,0.000000,-0.000000,9992.780217
99.340138,0.000000,-0.000000,9992.780217
99.340446,0.000000,-0.000000,9770.718434
99.340754,0.000000,-0.000000,9918.759623
99.341062,76.609550,148.041188,9770.718434
99.341370,0.000000,666.185348,9844.739029
99.341679,0.000000,222.061783,9252.574275
99.341987,0.000000,-0.000000,9474.636058
99.342295,0.000000,-0.000000,9622.677246
99.342603,0.000000,-0.000000,9696.697840
99.342911,-383.047749,-296.082377,9548.656652
99.343220,-383.047749,-222.061783,9696.697840
99.343528,0.000000,-444.123565,9622.677246
99.343836,0.000000,-0.000000,9548.656652
99.344144,-306.438199,222.061783,9548.656652
99.344452,383.047749,-0.000000,9030.512492
99.344761,383.047749,296.082377,9030.512492
99.345069,229.828649,518.144159,8882.471304
99.345377,0.000000,370.102971,9104.533087
99.345685,306.438199,370.102971,8956.491898
99.345993,153.219100,222.061783,9326.594869
99.346301,153.219100,296.082377,9474.636058
99.346610,0.000000,222.061783,9992.780217
99.346918,-306.438199,-0.000000,9622.677246
99.347226,-536.266849,-222.061783,9918.759623
99.347534,-306.438199,-518.144159,10066.800811
99.347842,-459.657299,-518.144159,10066.800811
99.348151,0.000000,-296.082377,9992.780217
99.348459,-536.266849,-222.061783,10214.842000
99.348767,-153.219100,-0.000000,9992.780217
99.349075,153.219100,-74.020594,9622.677246
99.349383,306.438199,296.082377,9400.615463
99.349691,383.047749,666.185348,9400.615463
99.350000,459.657299,666.185348,9178.553681
99.350308,1225.752797,518.144159,9104.533087
99.350616,306.438199,518.144159,9474.636058
99.350924,766.095498,-0.000000,9326.594869
99.351232,612.876398,296.082377,9844.739029
99.351541,459.657299,-0.000000,9770.718434
99.351849,153.219100,-0.000000,9770.718434
99.352157,229.828649,-0.000000,10066.800811
99.352465,766.095498,222.061783,9622.677246
99.352773,459.657299,-0.000000,9696.697840
99.353081,536.266849,-0.000000,9622.677246
99.353390,919.314598,-0.000000,9696.697840
99.353698,536.266849,-0.000000,9474.636058
99.354006,842.705048,444.123565,9474.636058
99.354314,842.705048,370.102971,9474.636058
99.354622,766.095498,222.061783,9622.677246
99.354931,612.876398,-0.000000,9844.739029
99.355239,612.876398,-0.000000,9992.780217
99.355547,842.705048,-0.000000,10140.821405
99.355855,842.705048,222.061783,10362.883188
99.356163,919.314598,-148.041188,10214.842000
99.356472,1149.143247,370.102971,9696.697840
99.356780,1149.143247,592.164754,9474.636058
99.357088,1455.581446,666.185348,9326.594869
99.357396,1608.800546,888.247130,9252.574275
99.357704,1302.362347,740.205942,9252.574275
99.358012,1378.971896,740.205942,9474.636058
99.358321,1225.752797,740.205942,9474.636058
99.358629,1225.752797,444.123565,9326.594869
99.358937,1225.752797,444.123565,9696.697840
99.359245,1225.752797,-0.000000,9696.697840
99.359553,842.705048,-74.020594,10066.800811
99.359862,766.095498,-0.000000,10214.842000
99.360170,1225.752797,-74.020594,10214.842000
99.360478,1302.362347,222.061783,10140.821405
99.360786,1149.143247,-0.000000,9548.656652
99.361094,1302.362347,592.164754,9474.636058
99.361402,1302.362347,518.144159,9252.574275
99.361711,1378.971896,518.144159,9178.553681
99.362019,1225.752797,518.144159,9252.574275
99.362327,1378.971896,518.144159,9474.636058
99.362635,766.095498,-148.041188,9474.636058
99.362943,1225.752797,296.082377,9770.718434
99.363252,1072.533697,-0.000000,9548.656652
99.363560,919.314598,74.020594,9696.697840
99.363868,766.095498,-148.041188,9918.759623
99.364176,766.095498,-74.020594,9696.697840
99.364484,1378.971896,-0.000000,9548.656652
99.364792,1072.533697,-0.000000,9696.697840
99.365101,1225.752797,148.041188,9474.636058
99.365409,383.047749,592.164754,9696.697840
99.365717,1915.238745,-0.000000,8734.430116
99.366025,1455.581446,814.226536,9400.615463
99.366333,1072.533697,592.164754,9326.594869
99.366642,995.924147,444.123565,9400.615463
99.366950,919.314598,296.082377,9474.636058
99.367258,766.095498,296.082377,9696.697840
99.367566,229.828649,-148.041188,9918.759623
99.367874,306.438199,-222.061783,10214.842000
99.368183,-229.828649,-0.000000,10362.883188
99.368491,0.000000,-592.164754,10066.800811
99.368799,153.219100,-0.000000,10140.821405
99.369107,0.000000,-0.000000,9770.718434
99.369415,383.047749,-0.000000,9696.697840
99.369723,536.266849,296.082377,9400.615463
99.370032,842.705048,370.102971,9400.615463
99.370340,995.924147,666.185348,9400.615463
99.370648,842.705048,962.267725,9326.594869
99.370956,766.095498,740.205942,9178.553681
99.371264,689.485948,666.185348,9178.553681
99.371573,306.438199,592.164754,9474.636058
99.371881,306.438199,-0.000000,9474.636058
99.372189,229.828649,-0.000000,9696.697840
99.372497,76.609550,-74.020594,10288.862594
99.372805,153.219100,-592.164754,9918.759623
99.373113,0.000000,-592.164754,9992.780217
99.373422,-229.828649,-0.000000,9770.718434
99.373730,76.609550,-74.020594,9770.718434
99.374038,0.000000,222.061783,9696.697840
99.374346,0.000000,296.082377,9622.677246
99.374654,229.828649,222.061783,9622.677246
99.374963,0.000000,-0.000000,9474.636058
99.375271,612.876398,592.164754,9918.759623
99.375579,459.657299,370.102971,9770.718434
99.375887,306.438199,148.041188,9696.697840
99.376195,0.000000,-222.061783,9622.677246
99.376503,229.828649,-222.061783,10066.800811
99.376812,153.219100,-222.061783,9770.718434
99.377120,766.095498,-148.041188,9474.636058
99.377428,459.657299,-0.000000,9696.697840
99.377736,842.705048,-0.000000,9326.594869
99.378044,842.705048,296.082377,9030.512492
99.378353,842.705048,666.185348,9400.615463
99.378661,842.705048,592.164754,8956.491898
99.378969,995.924147,444.123565,8956.491898
99.379277,842.705048,814.226536,9030.512492
99.379585,1149.143247,592.164754,9178.553681
99.379894,766.095498,370.102971,9474.636058
99.380202,995.924147,-0.000000,9992.780217
99.380510,383.047749,-444.123565,9844.739029
99.380818,0.000000,-222.061783,10066.800811
99.381126,76.609550,-148.041188,10140.821405
99.381434,383.047749,-222.061783,9992.780217
99.381743,153.219100,-222.061783,9844.739029
99.382051,612.876398,-0.000000,10288.862594
99.382359,612.876398,-148.041188,9622.677246
99.382667,1225.752797,592.164754,9400.615463
99.382975,766.095498,444.123565,9178.553681
99.383284,1455.581446,666.185348,8808.450710
99.383592,1149.143247,962.267725,9104.533087
99.383900,1455.581446,666.185348,9030.512492
99.384208,842.705048,592.164754,9474.636058
99.384516,1149.143247,296.082377,9474.636058
99.384824,459.657299,296.082377,9622.677246
99.385133,842.705048,-0.000000,9844.739029
99.385441,0.000000,-0.000000,10140.821405
99.385749,306.438199,-0.000000,9918.759623
99.386057,383.047749,222.061783,9844.739029
99.386365,383.047749,-0.000000,9548.656652
99.386674,459.657299,222.061783,9622.677246
99.386982,383.047749,-0.000000,9696.697840
99.387290,842.705048,518.144159,9400.615463
99.387598,842.705048,296.082377,8956.491898
99.387906,536.266849,666.185348,9326.594869
99.388214,612.876398,296.082377,9400.615463
99.388523,306.438199,-148.041188,9770.718434
99.388831,459.657299,-0.000000,9844.739029
99.389139,229.828649,-0.000000,9770.718434
99.389447,229.828649,-222.061783,9770.718434
99.389755,153.219100,-222.061783,10214.842000
99.390064,229.828649,-222.061783,9770.718434
99.390372,612.876398,-0.000000,9474.636058
99.390680,383.047749,296.082377,9622.677246
99.390988,612.876398,370.102971,9474.636058
99.391296,612.876398,444.123565,9474.636058
99.391604,766.095498,592.164754,9252.574275
99.391913,306.438199,370.102971,9326.594869
99.392221,919.314598,-0.000000,9400.615463
99.392529,766.095498,-0.000000,9474.636058
99.392837,536.266849,-222.061783,9622.677246
99.393145,459.657299,-222.061783,9844.739029
99.393454,229.828649,-74.020594,9770.718434
99.393762,536.266849,148.041188,9770.718434
99.394070,306.438199,-0.000000,9918.759623
99.394378,536.266849,-0.000000,9844.739029
99.394686,612.876398,-148.041188,9104.533087
99.394994,689.485948,444.123565,9696.697840
99.395303,1149.143247,444.123565,9696.697840
99.395611,766.095498,592.164754,9474.636058
99.395919,1072.533697,444.123565,9326.594869
99.396227,919.314598,444.123565,9474.636058
99.396535,766.095498,-0.000000,9474.636058
99.396843,1608.800546,-444.123565,9400.615463
99.397152,1608.800546,-0.000000,9548.656652
99.397460,766.095498,-74.020594,9622.677246
99.397768,1225.752797,-370.102971,9770.718434
99.398076,1149.143247,-0.000000,9548.656652
99.398384,1302.362347,222.061783,9696.697840
99.398693,995.924147,222.061783,9474.636058
99.399001,1149.143247,444.123565,9474.636058
99.399309,1225.752797,518.144159,9474.636058
99.399617,1762.019645,666.185348,9548.656652
99.399925,1685.410096,740.205942,9400.615463
99.400233,1378.971896,962.267725,9326.594869
99.400542,1225.752797,592.164754,9178.553681
99.400850,1149.143247,444.123565,9622.677246
99.401158,689.485948,-0.000000,9622.677246
99.401466,612.876398,-0.000000,9918.759623
99.401774,76.609550,-222.061783,9770.718434
99.402082,766.095498,-444.123565,10288.862594
99.402391,766.095498,-222.061783,10140.821405
99.402699,612.876398,-0.000000,10066.800811
99.403007,995.924147,-0.000000,9696.697840
99.403315,995.924147,592.164754,9548.656652
99.403623,1149.143247,518.144159,9400.615463
99.403932,1302.362347,888.247130,9030.512492
99.404240,1302.362347,444.123565,8808.450710
99.404548,1378.971896,592.164754,9030.512492
99.404856,995.924147,518.144159,9178.553681
99.405164,995.924147,518.144159,9400.615463
99.405472,689.485948,222.061783,9548.656652
99.405781,306.438199,-0.000000,9770.718434
99.406089,229.828649,-222.061783,9992.780217
99.406397,0.000000,-222.061783,10066.800811
99.406705,306.438199,-222.061783,9918.759623
99.407013,0.000000,-444.123565,10214.842000
99.407321,536.266849,-148.041188,9548.656652
99.407630,383.047749,-0.000000,9622.677246
99.407938,536.266849,370.102971,9474.636058
99.408246,306.438199,370.102971,9474.636058
99.408554,536.266849,370.102971,9474.636058
99.408862,536.266849,444.123565,9474.636058
99.409170,229.828649,-0.000000,9474.636058
99.409479,0.000000,-222.061783,9474.636058
99.409787,536.266849,-0.000000,9992.780217
99.410095,0.000000,-222.061783,10066.800811
99.410403,76.609550,-296.082377,9770.718434
99.410711,0.000000,-148.041188,9696.697840
99.411020,229.828649,-222.061783,9548.656652
99.411328,229.828649,-0.000000,9548.656652
99.411636,536.266849,444.123565,9252.574275
99.411944,766.095498,296.082377,8734.430116
99.412252,766.095498,592.164754,8956.491898
99.412560,1225.752797,814.226536,9178.553681
99.412869,995.924147,740.205942,8956.491898
99.413177,536.266849,518.144159,9252.574275
99.413485,383.047749,-0.000000,9400.615463
99.413793,306.438199,-148.041188,9548.656652
99.414101,76.609550,-592.164754,10214.842000
99.414409,306.438199,-444.123565,10140.821405
99.414718,459.657299,-592.164754,10288.862594
99.415026,153.219100,-148.041188,10288.862594
99.415334,229.828649,-0.000000,10140.821405
99.415642,306.438199,-0.000000,9770.718434
99.415950,459.657299,444.123565,9770.718434
99.416259,842.705048,814.226536,9622.677246
99.416567,919.314598,518.144159,9252.574275
99.416875,1532.190996,518.144159,9178.553681
99.417183,612.876398,370.102971,9252.574275
99.417491,842.705048,444.123565,9474.636058
99.417799,536.266849,-0.000000,9474.636058
99.418108,459.657299,-0.000000,9548.656652
99.418416,306.438199,-0.000000,9622.677246
99.418724,153.219100,-74.020594,9918.759623
99.419032,383.047749,-74.020594,9918.759623
99.419340,689.485948,-222.061783,9696.697840
99.419648,689.485948,222.061783,9474.636058
99.419957,1072.533697,296.082377,9474.636058
99.420265,689.485948,592.164754,9548.656652
99.420573,689.485948,666.185348,9400.615463
99.420881,842.705048,814.226536,9252.574275
99.421189,842.705048,666.185348,9400.615463
99.421498,612.876398,370.102971,9474.636058
99.421806,1072.533697,-0.000000,9918.759623
99.422114,459.657299,-296.082377,9844.739029
99.422422,229.828649,-148.041188,10288.862594
99.422730,229.828649,-74.020594,10066.800811
99.423038,153.219100,-0.000000,9992.780217
99.423347,153.219100,148.041188,10066.800811
99.423655,689.485948,222.061783,9696.697840
99.423963,919.314598,740.205942,9622.677246
99.424271,1378.971896,740.205942,9696.697840
99.424579,1455.581446,592.164754,9474.636058
99.424887,1225.752797,592.164754,9326.594869
99.425196,842.705048,370.102971,9326.594869
99.425504,919.314598,296.082377,9474.636058
99.425812,612.876398,222.061783,9770.718434
99.426120,459.657299,-74.020594,9622.677246
99.426428,919.314598,-148.041188,10066.800811
99.426736,766.095498,-222.061783,9844.739029
99.427045,766.095498,-370.102971,9696.697840
99.427353,766.095498,-74.020594,9770.718434
99.427661,766.095498,-0.000000,9474.636058
99.427969,919.314598,296.082377,9326.594869
99.428277,766.095498,296.082377,9326.594869
99.428586,919.314598,370.102971,9474.636058
99.428894,1225.752797,370.102971,9696.697840
99.429202,995.924147,296.082377,9474.636058
99.429510,766.095498,444.123565,9474.636058
99.429818,689.485948,148.041188,9770.718434
99.430126,689.485948,-148.041188,9696.697840
99.430435,766.095498,-148.041188,9548.656652
99.430743,919.314598,-74.020594,9770.718434
99.431051,766.095498,-148.041188,9696.697840
99.431359,919.314598,148.041188,9918.759623
99.431667,995.924147,-0.000000,9622.677246
99.431975,995.924147,-0.000000,9474.636058
99.432284,1378.971896,-0.000000,9400.615463
99.432592,1302.362347,592.164754,9178.553681
99.432900,1455.581446,592.164754,9400.615463
99.433208,1225.752797,296.082377,9400.615463
99.433516,1225.752797,592.164754,9400.615463
99.433825,1225.752797,814.226536,9474.636058
99.434133,1225.752797,-0.000000,9696.697840
99.434441,842.705048,-0.000000,9622.677246
99.434749,612.876398,-0.000000,10066.800811
99.435057,536.266849,-0.000000,9992.780217
99.435365,536.266849,-518.144159,9844.739029
99.435674,766.095498,-148.041188,10066.800811
99.435982,1072.533697,-0.000000,9548.656652
99.436290,1302.362347,-74.020594,9918.759623
99.436598,842.705048,222.061783,9622.677246
99.436906,1302.362347,-0.000000,9474.636058
99.437214,842.705048,148.041188,9548.656652
99.437523,1149.143247,740.205942,9326.594869
99.437831,919.314598,740.205942,9474.636058
99.438139,1149.143247,666.185348,9548.656652
99.438447,766.095498,444.123565,9548.656652
99.438755,459.657299,-0.000000,9474.636058
99.439064,1072.533697,148.041188,10140.821405
99.439372,383.047749,-148.041188,9992.780217
99.439680,459.657299,-0.000000,9770.718434
99.439988,459.657299,148.041188,9770.718434
99.440296,459.657299,222.061783,9770.718434
99.440604,383.047749,296.082377,9622.677246
99.440913,383.047749,296.082377,9918.759623
99.441221,459.657299,222.061783,9474.636058
99.441529,-459.657299,222.061783,9844.739029
99.441837,459.657299,296.082377,9844.739029
99.442145,842.705048,-0.000000,9992.780217
99.442453,306.438199,148.041188,9622.677246
99.442762,76.609550,222.061783,9696.697840
99.443070,689.485948,-74.020594,9696.697840
99.443378,383.047749,-222.061783,9474.636058
99.443686,0.000000,-74.020594,9622.677246
99.443994,229.828649,-148.041188,9548.656652
99.444302,842.705048,-0.000000,9548.656652
99.444611,919.314598,-0.000000,9548.656652
99.444919,919.314598,296.082377,9326.594869
99.445227,842.705048,370.102971,9178.553681
99.445535,536.266849,592.164754,9326.594869
99.445843,612.876398,296.082377,9474.636058
99.446152,229.828649,222.061783,9474.636058
99.446460,306.438199,-370.102971,9622.677246
99.446768,766.095498,-148.041188,9770.718434
99.447076,153.219100,-296.082377,9548.656652
99.447384,383.047749,-0.000000,9992.780217
99.447692,306.438199,-0.000000,9844.739029
99.448001,383.047749,-0.000000,9326.594869
99.448309,459.657299,-0.000000,9474.636058
99.448617,229.828649,666.185348,10066.800811
99.448925,842.705048,-74.020594,9622.677246
99.449233,153.219100,666.185348,9548.656652
99.449541,995.924147,370.102971,9326.594869
99.449850,536.266849,666.185348,9474.636058
99.450158,306.438199,444.123565,9474.636058
99.450466,383.047749,222.061783,9474.636058
99.450774,229.828649,-0.000000,9548.656652
99.451082,76.609550,-74.020594,9622.677246
99.451391,0.000000,-0.000000,9770.718434
99.451699,689.485948,-296.082377,10288.862594
99.452007,-153.219100,148.041188,9622.677246
99.452315,536.266849,222.061783,9474.636058
99.452623,536.266849,222.061783,9400.615463
99.452931,383.047749,370.102971,9474.636058
99.453240,536.266849,592.164754,9474.636058
99.453548,76.609550,370.102971,9474.636058
99.453856,536.266849,1036.288319,9622.677246
99.454164,689.485948,-0.000000,9474.636058
99.454472,689.485948,148.041188,9474.636058
99.454780,229.828649,296.082377,9696.697840
99.455089,153.219100,222.061783,9918.759623
99.455397,0.000000,-296.082377,9770.718434
99.455705,0.000000,-222.061783,9918.759623
99.456013,0.000000,-0.000000,10214.842000
99.456321,153.219100,-0.000000,9918.759623
99.456630,536.266849,222.061783,9992.780217
99.456938,383.047749,-0.000000,9770.718434
99.457246,459.657299,370.102971,9474.636058
99.457554,459.657299,666.185348,9474.636058
99.457862,459.657299,444.123565,9622.677246
99.458170,536.266849,296.082377,9548.656652
99.458479,306.438199,370.102971,9326.594869
99.458787,229.828649,-74.020594,9326.594869
99.459095,229.828649,-0.000000,9844.739029
99.459403,689.485948,-0.000000,9622.677246
99.459711,612.876398,-0.000000,9696.697840
99.460019,689.485948,-0.000000,9548.656652
99.460328,919.314598,-0.000000,9548.656652
99.460636,689.485948,222.061783,9622.677246
99.460944,1225.752797,-0.000000,9474.636058
99.461252,1302.362347,-0.000000,9326.594869
99.461560,1225.752797,222.061783,9474.636058
99.461868,1072.533697,370.102971,9696.697840
99.462177,919.314598,296.082377,9474.636058
99.462485,1149.143247,222.061783,9474.636058
99.462793,1225.752797,296.082377,9400.615463
99.463101,842.705048,740.205942,9400.615463
99.463409,1608.800546,-222.061783,9474.636058
99.463718,1225.752797,-74.020594,9548.656652
99.464026,1225.752797,-74.020594,9548.656652
99.464334,1302.362347,-0.000000,9696.697840
99.464642,1072.533697,-0.000000,9696.697840
99.464950,1072.533697,222.061783,9622.677246
99.465258,1378.971896,222.061783,9474.636058
99.465567,1455.581446,518.144159,9400.615463
99.465875,1685.410096,814.226536,9548.656652
99.466183,1685.410096,518.144159,9400.615463
99.466491,1378.971896,666.185348,9474.636058
99.466799,1685.410096,518.144159,9474.636058
99.467107,1455.581446,592.164754,9622.677246
99.467416,1302.362347,296.082377,9548.656652
99.467724,1225.752797,296.082377,9770.718434
99.468032,1072.533697,296.082377,9844.739029
99.468340,995.924147,370.102971,10140.821405
99.468648,842.705048,-370.102971,9844.739029
99.468957,766.095498,-222.061783,9844.739029
99.469265,1149.143247,296.082377,9992.780217
99.469573,919.314598,444.123565,9548.656652
99.469881,1149.143247,444.123565,9474.636058
99.470189,1149.143247,740.205942,9400.615463
99.470497,1302.362347,962.267725,9326.594869
99.470806,1532.190996,666.185348,9104.533087
99.471114,1072.533697,-0.000000,9178.553681
99.471422,1225.752797,222.061783,9474.636058
99.471730,689.485948,222.061783,9474.636058
99.472038,229.828649,148.041188,9770.718434
99.472346,306.438199,-74.020594,9992.780217
99.472655,0.000000,-296.082377,9992.780217
99.472963,229.828649,-296.082377,9992.780217
99.473271,-306.438199,-148.041188,10214.842000
99.473579,536.266849,-0.000000,9918.759623
99.473887,536.266849,-296.082377,9696.697840
99.474196,383.047749,-0.000000,9548.656652
99.474504,459.657299,444.123565,9474.636058
99.474812,383.047749,370.102971,9252.574275
99.475120,459.657299,222.061783,9326.594869
99.475428,536.266849,518.144159,9474.636058
99.475736,76.609550,-148.041188,9474.636058
99.476045,76.609550,-296.082377,9622.677246
99.476353,229.828649,-148.041188,9770.718434
99.476661,-153.219100,-370.102971,9770.718434
99.476969,0.000000,-222.061783,9844.739029
99.477277,-153.219100,-222.061783,9696.697840
99.477585,0.000000,-0.000000,9474.636058
99.477894,383.047749,222.061783,9770.718434
99.478202,306.438199,-0.000000,9474.636058
99.478510,766.095498,-0.000000,9548.656652
99.478818,229.828649,518.144159,9400.615463
99.479126,0.000000,296.082377,9326.594869
99.479434,153.219100,740.205942,9474.636058
99.479743,0.000000,222.061783,9400.615463
99.480051,0.000000,518.144159,9548.656652
99.480359,0.000000,-0.000000,9622.677246
99.480667,-229.828649,-0.000000,9918.759623
99.480975,-229.828649,-222.061783,10140.821405
99.481284,0.000000,-222.061783,10066.800811
99.481592,0.000000,-0.000000,9844.739029
99.481900,0.000000,-0.000000,10214.842000
99.482208,76.609550,-0.000000,9622.677246
99.482516,0.000000,370.102971,9474.636058
99.482824,842.705048,518.144159,9474.636058
99.483133,766.095498,370.102971,9622.677246
99.483441,842.705048,148.041188,9622.677246
99.483749,153.219100,666.185348,9474.636058
99.484057,536.266849,370.102971,9326.594869
99.484365,536.266849,444.123565,9622.677246
99.484673,536.266849,148.041188,9770.718434
99.484982,306.438199,-0.000000,9770.718434
99.485290,0.000000,-0.000000,10140.821405
99.485598,459.657299,-148.041188,9474.636058
99.485906,766.095498,-0.000000,9696.697840
99.486214,612.876398,-0.000000,9622.677246
99.486523,536.266849,296.082377,9400.615463
99.486831,766.095498,592.164754,9474.636058
99.487139,766.095498,666.185348,9474.636058
99.487447,995.924147,518.144159,9326.594869
99.487755,689.485948,296.082377,9622.677246
99.488063,1072.533697,592.164754,9696.697840
99.488372,306.438199,-222.061783,9548.656652
99.488680,229.828649,-0.000000,10066.800811
99.488988,612.876398,-0.000000,9770.718434
99.489296,612.876398,-0.000000,9770.718434
99.489604,612.876398,296.082377,9770.718434
99.489912,459.657299,-0.000000,9622.677246
99.490221,459.657299,-0.000000,9474.636058
99.490529,1149.143247,666.185348,9844.739029
99.490837,536.266849,444.123565,9696.697840
99.491145,919.314598,-0.000000,9474.636058
99.491453,995.924147,444.123565,9474.636058
99.491762,842.705048,370.102971,9548.656652
99.492070,995.924147,148.041188,9474.636058
99.492378,995.924147,296.082377,9474.636058
99.492686,1072.533697,-0.000000,9474.636058
99.492994,995.924147,-74.020594,9770.718434
99.493302,919.314598,-148.041188,9992.780217
99.493610,612.876398,-0.000000,9918.759623
99.493918,766.095498,-0.000000,9622.677246
99.494227,689.485948,-74.020594,9548.656652
99.494535,1072.533697,-0.000000,9622.677246
99.494843,1302.362347,296.082377,9326.594869
99.495151,919.314598,-0.000000,9178.553681
99.495459,995.924147,666.185348,9548.656652
99.495767,1225.752797,-0.000000,9474.636058
99.496075,995.924147,370.102971,9400.615463
99.496383,766.095498,222.061783,9474.636058
99.496691,1072.533697,148.041188,9548.656652
99.496999,689.485948,-74.020594,9622.677246
99.497308,842.705048,-74.020594,9918.759623
99.497616,459.657299,-148.041188,9770.718434
99.497924,689.485948,-148.041188,10066.800811
99.498232,1378.971896,-222.061783,9770.718434
99.498540,1072.533697,222.061783,9474.636058
99.498848,995.924147,296.082377,9400.615463
99.499156,995.924147,518.144159,9474.636058
99.499464,1149.143247,666.185348,9326.594869
99.499772,1378.971896,740.205942,9474.636058
99.500081,1455.581446,740.205942,9474.636058
99.500389,1455.581446,444.123565,9622.677246
99.500697,1225.752797,-0.000000,9696.697840
99.501005,383.047749,592.164754,10362.883188
99.501313,383.047749,-0.000000,9918.759623
99.501621,383.047749,-74.020594,10066.800811
99.501929,153.219100,-74.020594,10362.883188
99.502237,0.000000,-148.041188,10214.842000
99.502545,153.219100,-0.000000,9992.780217
99.502853,842.705048,518.144159,10140.821405
99.503162,919.314598,518.144159,9844.739029
99.503470,1225.752797,296.082377,9326.594869
99.503778,919.314598,666.185348,9400.615463
99.504086,1225.752797,666.185348,9474.636058
99.504394,1072.533697,814.226536,9178.553681
99.504702,1225.752797,518.144159,9252.574275
99.505010,766.095498,814.226536,9400.615463
99.505318,919.314598,222.061783,9696.697840
99.505626,842.705048,-0.000000,9696.697840
99.505934,383.047749,-0.000000,9844.739029
99.506243,153.219100,-222.061783,9622.677246
99.506551,153.219100,-0.000000,9770.718434
99.506859,383.047749,-0.000000,9696.697840
99.507167,689.485948,-0.000000,9474.636058
99.507475,459.657299,-0.000000,9622.677246
99.507783,536.266849,222.061783,9326.594869
99.508091,766.095498,370.102971,9474.636058
99.508399,383.047749,222.061783,9696.697840
99.508707,459.657299,-0.000000,9548.656652
99.509016,229.828649,-0.000000,9548.656652
99.509324,536.266849,-148.041188,9696.697840
99.509632,0.000000,-148.041188,10214.842000
99.509940,536.266849,-814.226536,9844.739029
99.510248,0.000000,-296.082377,9622.677246
99.510556,766.095498,-444.123565,9104.533087
99.510864,306.438199,-0.000000,9474.636058
99.511172,766.095498,370.102971,9104.533087
99.511480,919.314598,444.123565,9030.512492
99.511788,919.314598,666.185348,8956.491898
99.512097,919.314598,444.123565,9178.553681
99.512405,689.485948,222.061783,9326.594869
99.512713,459.657299,296.082377,9400.615463
99.513021,383.047749,-0.000000,9400.615463
99.513329,153.219100,-0.000000,9696.697840
99.513637,0.000000,-222.061783,9992.780217
99.513945,0.000000,-74.020594,9992.780217
99.514253,-229.828649,-370.102971,9992.780217
99.514561,306.438199,-148.041188,10066.800811
99.514869,-153.219100,-518.144159,9474.636058
99.515178,306.438199,-0.000000,9844.739029
99.515486,536.266849,222.061783,9696.697840
99.515794,612.876398,740.205942,9400.615463
99.516102,842.705048,592.164754,9474.636058
99.516410,766.095498,740.205942,9400.615463
99.516718,536.266849,518.144159,9326.594869
99.517026,306.438199,222.061783,9474.636058
99.517334,689.485948,-0.000000,9474.636058
99.517642,153.219100,-222.061783,9622.677246
99.517951,383.047749,-0.000000,10140.821405
99.518259,76.609550,-74.020594,9844.739029
99.518567,153.219100,-0.000000,9844.739029
99.518875,306.438199,-0.000000,9918.759623
99.519183,536.266849,296.082377,9844.739029
99.519491,76.609550,518.144159,9696.697840
99.519799,1149.143247,518.144159,9696.697840
99.520107,689.485948,-0.000000,9326.594869
99.520415,612.876398,740.205942,9548.656652
99.520723,383.047749,444.123565,9548.656652
99.521032,689.485948,444.123565,9474.636058
99.521340,689.485948,296.082377,9548.656652
99.521648,306.438199,-0.000000,9918.759623
99.521956,229.828649,-296.082377,10066.800811
99.522264,-306.438199,-74.020594,9992.780217
99.522572,229.828649,-222.061783,10140.821405
99.522880,612.876398,-370.102971,9548.656652
99.523188,383.047749,-0.000000,9548.656652
99.523496,383.047749,222.061783,9548.656652
99.523804,842.705048,444.123565,9622.677246
99.524113,689.485948,592.164754,9474.636058
99.524421,995.924147,444.123565,9252.574275
99.524729,1225.752797,592.164754,9548.656652
99.525037,842.705048,296.082377,9474.636058
99.525345,995.924147,-0.000000,9474.636058
99.525653,766.095498,-0.000000,9474.636058
99.525961,842.705048,-74.020594,9474.636058
99.526269,766.095498,-74.020594,9696.697840
99.526577,842.705048,-222.061783,9696.697840
99.526886,689.485948,-444.123565,9770.718434
99.527194,1302.362347,-148.041188,9548.656652
99.527502,1225.752797,-0.000000,9696.697840
99.527810,1149.143247,222.061783,9548.656652
99.528118,1149.143247,518.144159,9400.615463
99.528426,1149.143247,518.144159,9178.553681
99.528734,1072.533697,296.082377,9326.594869
99.529042,1378.971896,666.185348,9474.636058
99.529350,1072.533697,-0.000000,9622.677246
99.529658,995.924147,148.041188,9548.656652
99.529967,919.314598,-0.000000,9548.656652
99.530275,919.314598,-222.061783,9622.677246
99.530583,612.876398,-148.041188,9770.718434
99.530891,919.314598,-222.061783,9844.739029
99.531199,995.924147,-0.000000,9770.718434
99.531507,1225.752797,-0.000000,9326.594869
99.531815,1378.971896,-0.000000,9474.636058
99.532123,1608.800546,444.123565,9178.553681
99.532431,1685.410096,518.144159,9252.574275
99.532739,1455.581446,814.226536,9474.636058
99.533048,1302.362347,814.226536,9326.594869
99.533356,1302.362347,814.226536,9400.615463
99.533664,995.924147,666.185348,9548.656652
99.533972,1302.362347,444.123565,9474.636058
99.534280,766.095498,-0.000000,9622.677246
99.534588,536.266849,-0.000000,9696.697840
99.534896,842.705048,-148.041188,9844.739029
99.535204,76.609550,-0.000000,10288.862594
99.535512,536.266849,-0.000000,10140.821405
99.535821,459.657299,-74.020594,10066.800811
99.536129,459.657299,-0.000000,10066.800811
99.536437,306.438199,148.041188,9918.759623
99.536745,689.485948,148.041188,9696.697840
99.537053,766.095498,518.144159,9474.636058
99.537361,766.095498,1184.329507,9548.656652
99.537669,766.095498,666.185348,9104.533087
99.537977,919.314598,740.205942,9178.553681
99.538285,1072.533697,518.144159,9252.574275
99.538593,766.095498,296.082377,9400.615463
99.538902,689.485948,-0.000000,9474.636058
99.539210,383.047749,-222.061783,9770.718434
99.539518,689.485948,-518.144159,10214.842000
99.539826,229.828649,-222.061783,9918.759623
99.540134,0.000000,-0.000000,10140.821405
99.540442,229.828649,-0.000000,9696.697840
99.540750,306.438199,296.082377,9696.697840
99.541058,536.266849,370.102971,9474.636058
99.541366,1072.533697,222.061783,9252.574275
99.541675,612.876398,222.061783,9548.656652
99.541983,536.266849,222.061783,9400.615463
99.542291,229.828649,-0.000000,9400.615463
99.542599,229.828649,-74.020594,9474.636058
99.542907,76.609550,-0.000000,9696.697840
99.543215,0.000000,-370.102971,9696.697840
99.543523,0.000000,-444.123565,9992.780217
99.543831,0.000000,-296.082377,9992.780217
99.544139,153.219100,-148.041188,9622.677246
99.544447,689.485948,-0.000000,9474.636058
99.544756,766.095498,-0.000000,9104.533087
99.545064,842.705048,740.205942,9252.574275
99.545372,919.314598,592.164754,8808.450710
99.545680,689.485948,592.164754,8882.471304
99.545988,612.876398,296.082377,9030.512492
99.546296,459.657299,296.082377,9104.533087
99.546604,383.047749,-0.000000,9474.636058
99.546912,306.438199,-0.000000,9770.718434
99.547220,76.609550,-370.102971,9696.697840
99.547528,-229.828649,-148.041188,9918.759623
99.547837,0.000000,-296.082377,10214.842000
99.548145,0.000000,-222.061783,9918.759623
99.548453,0.000000,-0.000000,10066.800811
99.548761,383.047749,-222.061783,10214.842000
99.549069,-153.219100,-0.000000,9696.697840
99.549377,536.266849,370.102971,9548.656652
99.549685,612.876398,296.082377,9770.718434
99.549993,459.657299,518.144159,9326.594869
99.550301,383.047749,518.144159,9474.636058
99.550610,536.266849,370.102971,9474.636058
99.550918,689.485948,370.102971,9178.553681
99.551226,306.438199,296.082377,9548.656652
99.551534,536.266849,-0.000000,9696.697840
99.551842,-536.266849,444.123565,9770.718434
99.552150,153.219100,-0.000000,9918.759623
99.552458,612.876398,-0.000000,9696.697840
99.552766,459.657299,444.123565,9622.677246
99.553074,306.438199,444.123565,9770.718434
99.553382,612.876398,518.144159,9548.656652
99.553691,306.438199,296.082377,9474.636058
99.553999,-76.609550,370.102971,9844.739029
99.554307,153.219100,740.205942,9696.697840
99.554615,612.876398,222.061783,9770.718434
99.554923,689.485948,370.102971,9622.677246
99.555231,612.876398,-0.000000,9696.697840
99.555539,536.266849,-0.000000,9770.718434
99.555847,459.657299,-222.061783,9918.759623
99.556155,612.876398,-0.000000,9844.739029
99.556463,306.438199,-0.000000,9992.780217
99.556772,766.095498,222.061783,9918.759623
99.557080,689.485948,518.144159,9474.636058
99.557388,842.705048,444.123565,9400.615463
99.557696,919.314598,444.123565,9474.636058
99.558004,919.314598,666.185348,9326.594869
99.558312,1072.533697,666.185348,9400.615463
99.558620,842.705048,370.102971,9326.594869
99.558928,689.485948,370.102971,9548.656652
99.559236,536.266849,222.061783,9400.615463
99.559545,459.657299,296.082377,9696.697840
99.559853,842.705048,-0.000000,9622.677246
99.560161,766.095498,-74.020594,9844.739029
99.560469,459.657299,-148.041188,9770.718434
99.560777,689.485948,-148.041188,9696.697840
99.561085,383.047749,-0.000000,9696.697840
99.561393,612.876398,-0.000000,9474.636058
99.561701,842.705048,296.082377,9548.656652
99.562009,1149.143247,296.082377,9400.615463
99.562317,1149.143247,370.102971,9326.594869
99.562626,1149.143247,370.102971,9252.574275
99.562934,1072.533697,296.082377,9474.636058
99.563242,842.705048,148.041188,9474.636058
99.563550,689.485948,-222.061783,9400.615463
99.563858,1302.362347,-0.000000,9918.759623
99.564166,842.705048,-148.041188,9474.636058
99.564474,842.705048,-0.000000,9844.739029
99.564782,995.924147,-0.000000,9474.636058
99.565090,1302.362347,-0.000000,9548.656652
99.565398,1302.362347,222.061783,9474.636058
99.565707,1072.533697,148.041188,9326.594869
99.566015,1225.752797,222.061783,9474.636058
99.566323,919.314598,518.144159,9400.615463
99.566631,1225.752797,518.144159,9326.594869
99.566939,1455.581446,444.123565,9326.594869
99.567247,1072.533697,592.164754,9548.656652
99.567555,919.314598,370.102971,9548.656652
99.567863,612.876398,-74.020594,9770.718434
99.568171,689.485948,-0.000000,10362.883188
99.568480,612.876398,-74.020594,10066.800811
99.568788,689.485948,-296.082377,9918.759623
99.569096,536.266849,-74.020594,10362.883188
99.569404,383.047749,-0.000000,9918.759623
99.569712,842.705048,296.082377,9548.656652
99.570020,842.705048,518.144159,9548.656652
99.570328,1149.143247,740.205942,9326.594869
99.570636,1149.143247,888.247130,9622.677246
99.570944,536.266849,592.164754,9400.615463
99.571252,1072.533697,888.247130,9400.615463
99.571561,1072.533697,370.102971,9326.594869
99.571869,612.876398,444.123565,9548.656652
99.572177,383.047749,-0.000000,9622.677246
99.572485,0.000000,-0.000000,9992.780217
99.572793,76.609550,-0.000000,10140.821405
99.573101,383.047749,-296.082377,9992.780217
99.573409,0.000000,-222.061783,9918.759623
99.573717,612.876398,-0.000000,9844.739029
99.574025,536.266849,-0.000000,9770.718434
99.574333,0.000000,444.123565,9992.780217
99.574642,229.828649,444.123565,9622.677246
99.574950,459.657299,444.123565,9252.574275
99.575258,459.657299,296.082377,9326.594869
99.575566,766.095498,-0.000000,9474.636058
99.575874,536.266849,-74.020594,9474.636058
99.576182,842.705048,-148.041188,9622.677246
99.576490,0.000000,-222.061783,9770.718434
99.576798,153.219100,-296.082377,9918.759623
99.577106,153.219100,-222.061783,9770.718434
99.577415,153.219100,-74.020594,9474.636058
99.577723,459.657299,-0.000000,9474.636058
99.578031,766.095498,-0.000000,9326.594869
99.578339,919.314598,444.123565,8734.430116
99.578647,766.095498,592.164754,9178.553681
99.578955,1072.533697,444.123565,9400.615463
99.579263,842.705048,592.164754,9104.533087
99.579571,536.266849,444.123565,9326.594869
99.579879,229.828649,148.041188,9400.615463
99.580187,229.828649,-0.000000,9548.656652
99.580496,153.219100,-296.082377,9548.656652
99.580804,-459.657299,-296.082377,9992.780217
99.581112,306.438199,-296.082377,10288.862594
99.581420,-612.876398,-222.061783,10066.800811
99.581728,383.047749,-0.000000,9918.759623
99.582036,383.047749,222.061783,9696.697840
99.582344,536.266849,296.082377,9474.636058
99.582652,689.485948,518.144159,9178.553681
99.582960,1149.143247,740.205942,9400.615463
99.583268,1072.533697,666.185348,9474.636058
99.583577,689.485948,370.102971,9104.533087
99.583885,1378.971896,740.205942,9326.594869
99.584193,689.485948,148.041188,9400.615463
99.584501,306.438199,148.041188,9548.656652
99.584809,229.828649,-74.020594,9918.759623
99.585117,0.000000,-222.061783,9844.739029
99.585425,153.219100,-592.164754,9770.718434
99.585733,459.657299,-370.102971,10214.842000
99.586041,153.219100,-592.164754,10140.821405
99.586350,153.219100,-74.020594,9992.780217
99.586658,229.828649,296.082377,9548.656652
99.586966,459.657299,518.144159,9696.697840
99.587274,536.266849,592.164754,9474.636058
99.587582,612.876398,518.144159,9474.636058
99.587890,842.705048,888.247130,9548.656652
99.588198,612.876398,592.164754,9622.677246
99.588506,459.657299,370.102971,9770.718434
99.588814,536.266849,-74.020594,9474.636058
99.589122,76.609550,-0.000000,9770.718434
99.589431,76.609550,-0.000000,9992.780217
99.589739,153.219100,-148.041188,9844.739029
99.590047,459.657299,-0.000000,9770.718434
99.590355,612.876398,-148.041188,9918.759623
99.590663,383.047749,-0.000000,9474.636058
99.590971,1072.533697,518.144159,9548.656652
99.591279,919.314598,592.164754,9474.636058
99.591584,766.095498,592.164754,9474.636058
99.591892,612.876398,666.185348,9548.656652
99.592200,612.876398,370.102971,9548.656652
99.592508,459.657299,148.041188,9622.677246
99.592816,153.219100,-74.020594,9770.718434
99.593124,0.000000,-296.082377,10066.800811
99.593432,459.657299,-370.102971,10066.800811
99.593740,383.047749,-592.164754,9844.739029
99.594048,766.095498,-74.020594,9696.697840
99.594356,689.485948,-0.000000,9548.656652
99.594664,1225.752797,-74.020594,9474.636058
99.594972,1302.362347,444.123565,9252.574275
99.595279,1532.190996,740.205942,9474.636058
99.595587,1532.190996,296.082377,9178.553681
99.595895,1608.800546,444.123565,9178.553681
99.596203,1149.143247,518.144159,9030.512492
99.596511,1072.533697,370.102971,9326.594869
99.596819,995.924147,296.082377,9474.636058
99.597127,842.705048,-148.041188,9770.718434
99.597435,995.924147,-0.000000,9918.759623
99.597743,766.095498,-148.041188,10066.800811
99.598051,1072.533697,-370.102971,9696.697840
99.598359,995.924147,-222.061783,9474.636058
99.598666,1225.752797,-0.000000,9548.656652
99.598974,1302.362347,518.144159,9474.636058
99.599282,1149.143247,666.185348,9474.636058
99.599590,1532.190996,740.205942,9474.636058
99.599898,1378.971896,740.205942,9474.636058
99.600206,1532.190996,444.123565,9474.636058
99.600514,1149.143247,296.082377,9178.553681
99.600822,1225.752797,-0.000000,9474.636058
99.601130,919.314598,518.144159,9992.780217
99.601438,612.876398,-0.000000,9992.780217
99.601746,536.266849,-74.020594,9918.759623
99.602054,459.657299,-0.000000,10140.821405
99.602361,842.705048,-0.000000,10066.800811
99.602669,1072.533697,-0.000000,9918.759623
99.602977,919.314598,370.102971,9548.656652
99.603285,1455.581446,370.102971,9474.636058
99.603593,995.924147,962.267725,9400.615463
99.603901,1302.362347,1036.288319,9400.615463
99.604209,1302.362347,962.267725,9178.553681
99.604517,919.314598,814.226536,9104.533087
99.604825,1149.143247,592.164754,9474.636058
99.605133,536.266849,370.102971,9474.636058
99.605441,229.828649,296.082377,10214.842000
99.605748,76.609550,-222.061783,10214.842000
99.606056,-459.657299,-74.020594,10140.821405
99.606364,-229.828649,-296.082377,10436.903782
99.606672,0.000000,-74.020594,10214.842000
99.606980,76.609550,222.061783,9844.739029
99.607288,306.438199,148.041188,9548.656652
99.607596,0.000000,296.082377,9622.677246
99.607904,689.485948,296.082377,9474.636058
99.608212,842.705048,666.185348,9326.594869
99.608520,612.876398,888.247130,9326.594869
99.608828,459.657299,592.164754,9474.636058
99.609135,459.657299,148.041188,9548.656652
99.609443,536.266849,-0.000000,9474.636058
99.609751,459.657299,-222.061783,9696.697840
99.610059,0.000000,-444.123565,9844.739029
99.610367,229.828649,-444.123565,9844.739029
99.610675,0.000000,-222.061783,9918.759623
99.610983,0.000000,-370.102971,9474.636058
99.611291,383.047749,296.082377,9326.594869
99.611599,383.047749,370.102971,9030.512492
99.611907,842.705048,518.144159,8882.471304
99.612215,919.314598,518.144159,8882.471304
99.612523,689.485948,592.164754,9400.615463
99.612830,536.266849,-0.000000,9030.512492
99.613138,842.705048,-0.000000,9622.677246
99.613446,0.000000,-0.000000,9770.718434
99.613754,153.219100,-370.102971,9770.718434
99.614062,-153.219100,-444.123565,9918.759623
99.614370,-153.219100,-296.082377,10066.800811
99.614678,459.657299,-370.102971,9992.780217
99.614986,383.047749,-0.000000,9844.739029
99.615294,842.705048,-444.123565,9770.718434
99.615602,383.047749,-296.082377,9104.533087
99.615910,459.657299,296.082377,9474.636058
99.616217,536.266849,518.144159,8956.491898
99.616525,842.705048,518.144159,9178.553681
99.616833,383.047749,518.144159,9252.574275
99.617141,842.705048,444.123565,9326.594869
99.617449,1149.143247,148.041188,9474.636058
99.617757,766.095498,-0.000000,9326.594869
99.618065,229.828649,-74.020594,9474.636058
99.618373,383.047749,-0.000000,9770.718434
99.618681,229.828649,-74.020594,9918.759623
99.618989,76.609550,-74.020594,9844.739029
99.619297,306.438199,-0.000000,9696.697840
99.619605,689.485948,222.061783,9400.615463
99.619912,612.876398,518.144159,9696.697840
99.620220,612.876398,370.102971,9474.636058
99.620528,1149.143247,296.082377,9622.677246
99.620836,612.876398,370.102971,9474.636058
99.621144,766.095498,296.082377,9474.636058
99.621452,459.657299,444.123565,9548.656652
99.621760,383.047749,370.102971,9844.739029
99.622068,1149.143247,-0.000000,10066.800811
99.622376,919.314598,-222.061783,9918.759623
99.622684,383.047749,-74.020594,10140.821405
99.622992,612.876398,-148.041188,9696.697840
99.623299,689.485948,444.123565,9622.677246
99.623607,459.657299,518.144159,9696.697840
99.623915,766.095498,740.205942,9548.656652
99.624223,842.705048,740.205942,9474.636058
99.624531,842.705048,888.247130,9474.636058
99.624839,842.705048,444.123565,9844.739029
99.625147,1072.533697,592.164754,10066.800811
99.625455,689.485948,-0.000000,9844.739029
99.625763,689.485948,-74.020594,9992.780217
99.626071,689.485948,-148.041188,9844.739029
99.626379,689.485948,-74.020594,9992.780217
99.626687,919.314598,-0.000000,9992.780217
99.626994,689.485948,-74.020594,9844.739029
99.627302,1149.143247,-148.041188,9696.697840
99.627610,842.705048,518.144159,9622.677246
99.627918,1302.362347,222.061783,9474.636058
99.628226,1072.533697,592.164754,9252.574275
99.628534,1225.752797,592.164754,9178.553681
99.628842,1072.533697,592.164754,9252.574275
99.629150,1149.143247,444.123565,9252.574275
99.629458,1378.971896,-0.000000,9474.636058
99.629766,383.047749,-0.000000,9400.615463
99.630074,1302.362347,-0.000000,9474.636058
99.630381,842.705048,-148.041188,9844.739029
99.630689,995.924147,-296.082377,9770.718434
99.630997,919.314598,-148.041188,9844.739029
99.631305,612.876398,-222.061783,9548.656652
99.631613,689.485948,-0.000000,9326.594869
99.631921,1149.143247,-0.000000,9548.656652
99.632229,1455.581446,-0.000000,9252.574275
99.632537,1072.533697,370.102971,9474.636058
99.632845,1455.581446,444.123565,9474.636058
99.633153,995.924147,444.123565,9252.574275
99.633461,1225.752797,518.144159,9474.636058
99.633768,766.095498,444.123565,9474.636058
99.634076,919.314598,222.061783,9548.656652
99.634384,919.314598,-0.000000,9622.677246
99.634692,766.095498,-0.000000,9918.759623
99.635000,1072.533697,-296.082377,9622.677246
99.635308,689.485948,-74.020594,9844.739029
99.635616,766.095498,-0.000000,9844.739029
99.635924,766.095498,-74.020594,9696.697840
99.636232,766.095498,-0.000000,9622.677246
99.636540,689.485948,296.082377,9548.656652
99.636848,995.924147,444.123565,9622.677246
99.637156,1225.752797,-0.000000,9696.697840
99.637463,1378.971896,296.082377,9252.574275
99.637771,1072.533697,296.082377,9252.574275
99.638079,766.095498,444.123565,9474.636058
99.638387,612.876398,370.102971,9548.656652
99.638695,612.876398,-0.000000,9474.636058
99.639003,383.047749,-74.020594,9548.656652
99.639311,306.438199,-74.020594,9992.780217
99.639619,689.485948,-0.000000,9622.677246
99.639927,306.438199,-0.000000,9918.759623
99.640235,229.828649,148.041188,9474.636058
99.640543,536.266849,444.123565,9548.656652
99.640850,459.657299,518.144159,9548.656652
99.641158,536.266849,370.102971,9696.697840
99.641466,766.095498,222.061783,9474.636058
99.641774,383.047749,296.082377,9400.615463
99.642082,766.095498,-0.000000,9770.718434
99.642390,536.266849,-592.164754,9992.780217
99.642698,153.219100,-296.082377,9992.780217
99.643006,0.000000,-0.000000,9844.739029
99.643314,153.219100,-148.041188,9770.718434
99.643622,229.828649,-74.020594,9918.759623
99.643930,0.000000,-148.041188,9696.697840
99.644238,1072.533697,-0.000000,9474.636058
99.644545,1149.143247,74.020594,8956.491898
99.644853,919.314598,592.164754,9252.574275
99.645161,612.876398,518.144159,9474.636058
99.645469,766.095498,518.144159,9326.594869
99.645777,536.266849,518.144159,9400.615463
99.646085,306.438199,518.144159,9474.636058
99.646393,459.657299,296.082377,9474.636058
99.646701,229.828649,-0.000000,9474.636058
99.647009,306.438199,-74.020594,9696.697840
99.647317,0.000000,-296.082377,10066.800811
99.647625,0.000000,-444.123565,9918.759623
99.647932,153.219100,-296.082377,9918.759623
99.648240,229.828649,-148.041188,9918.759623
99.648548,229.828649,-0.000000,9548.656652
99.648856,919.314598,296.082377,9400.615463
99.649164,689.485948,370.102971,9326.594869
99.649472,1072.533697,444.123565,9474.636058
99.649780,995.924147,518.144159,9326.594869
99.650088,842.705048,444.123565,9326.594869
99.650396,612.876398,518.144159,9252.574275
99.650704,766.095498,222.061783,9326.594869
99.651012,536.266849,370.102971,9548.656652
99.651319,919.314598,222.061783,9474.636058
99.651627,459.657299,296.082377,9770.718434
99.651935,0.000000,-148.041188,9992.780217
99.652243,306.438199,222.061783,9844.739029
99.652551,229.828649,-0.000000,9696.697840
99.652859,383.047749,-0.000000,9474.636058
99.653167,383.047749,296.082377,9474.636058
99.653475,306.438199,296.082377,9474.636058
99.653783,612.876398,518.144159,9770.718434
99.654091,459.657299,296.082377,9474.636058
99.654399,689.485948,296.082377,9622.677246
99.654707,459.657299,518.144159,9844.739029
99.655014,459.657299,-0.000000,9696.697840
99.655322,229.828649,-0.000000,9622.677246
99.655630,229.828649,-0.000000,9918.759623
99.655938,229.828649,-0.000000,9992.780217
99.656246,229.828649,-74.020594,10140.821405
99.656554,0.000000,-370.102971,9918.759623
99.656862,76.609550,-0.000000,9696.697840
99.657170,383.047749,370.102971,9696.697840
99.657478,766.095498,296.082377,9474.636058
99.657786,689.485948,370.102971,9474.636058
99.658094,766.095498,222.061783,9326.594869
99.658401,766.095498,518.144159,9474.636058
99.658709,612.876398,296.082377,9474.636058
99.659017,76.609550,444.123565,9992.780217
99.659325,842.705048,-0.000000,9622.677246
99.659633,689.485948,-222.061783,9770.718434
99.659941,459.657299,-0.000000,9770.718434
99.660249,612.876398,-148.041188,9696.697840
99.660557,536.266849,-74.020594,9622.677246
99.660865,612.876398,-74.020594,9548.656652
99.661173,1302.362347,-0.000000,9622.677246
99.661481,1072.533697,-0.000000,9400.615463
99.661789,1378.971896,370.102971,9548.656652
99.662096,1225.752797,444.123565,9770.718434
99.662404,1149.143247,444.123565,9474.636058
99.662712,1149.143247,518.144159,9400.615463
99.663020,1149.143247,222.061783,9474.636058
99.663328,919.314598,296.082377,9696.697840
99.663636,842.705048,74.020594,10066.800811
99.663944,1225.752797,-148.041188,9696.697840
99.664252,1072.533697,-0.000000,9844.739029
99.664560,1225.752797,-0.000000,9696.697840
99.664868,1149.143247,222.061783,9548.656652
99.665176,1455.581446,444.123565,9474.636058
99.665483,1225.752797,592.164754,9548.656652
99.665791,1685.410096,444.123565,9474.636058
99.666099,1532.190996,740.205942,9474.636058
99.666407,1225.752797,222.061783,9548.656652
99.666715,1072.533697,222.061783,9474.636058
99.667023,842.705048,518.144159,9992.780217
99.667331,995.924147,-0.000000,9474.636058
99.667639,1149.143247,-0.000000,9770.718434
99.667947,919.314598,-0.000000,9992.780217
99.668255,766.095498,-0.000000,10288.862594
99.668563,536.266849,-222.061783,10140.821405
99.668871,766.095498,-0.000000,9918.759623
99.669178,306.438199,-74.020594,9770.718434
99.669486,1302.362347,-0.000000,9474.636058
99.669794,1149.143247,296.082377,9474.636058
99.670102,1149.143247,666.185348,9474.636058
99.670410,1225.752797,666.185348,9030.512492
99.670718,1225.752797,740.205942,9104.533087
99.671026,1455.581446,740.205942,8882.471304
99.671334,1225.752797,814.226536,9400.615463
99.671642,1532.190996,814.226536,9474.636058
99.671950,689.485948,148.041188,9400.615463
99.672258,459.657299,-0.000000,9548.656652
99.672565,76.609550,-74.020594,9918.759623
99.672873,0.000000,-222.061783,10288.862594
99.673181,0.000000,-296.082377,9770.718434
99.673489,229.828649,-296.082377,10288.862594
99.673797,0.000000,-74.020594,10214.842000
99.674105,76.609550,-0.000000,9696.697840
99.674413,383.047749,148.041188,9622.677246
99.674721,536.266849,296.082377,9326.594869
99.675029,229.828649,370.102971,9548.656652
99.675337,536.266849,444.123565,9474.636058
99.675645,689.485948,444.123565,9474.636058
99.675952,689.485948,222.061783,9252.574275
99.676260,612.876398,-0.000000,9474.636058
99.676568,76.609550,-0.000000,9770.718434
99.676876,0.000000,-74.020594,9844.739029
99.677184,76.609550,-0.000000,9622.677246
99.677492,76.609550,-74.020594,9622.677246
99.677800,229.828649,222.061783,9548.656652
99.678108,0.000000,296.082377,9548.656652
99.678416,536.266849,518.144159,9104.533087
99.678724,383.047749,444.123565,9474.636058
99.679032,459.657299,370.102971,9252.574275
99.679340,459.657299,444.123565,9696.697840
99.679647,153.219100,222.061783,9400.615463
99.679955,0.000000,-74.020594,9770.718434
99.680263,-153.219100,-0.000000,9918.759623
99.680571,0.000000,-74.020594,9992.780217
99.680879,-153.219100,-518.144159,9992.780217
99.681187,-612.876398,-296.082377,10436.903782
99.681495,0.000000,-370.102971,10288.862594
99.681803,76.609550,-148.041188,10066.800811
99.682111,229.828649,-0.000000,9548.656652
99.682419,459.657299,222.061783,9474.636058
99.682727,536.266849,592.164754,9474.636058
99.683034,919.314598,370.102971,9178.553681
99.683342,919.314598,518.144159,9252.574275
99.683650,919.314598,444.123565,9326.594869
99.683958,536.266849,296.082377,9400.615463
99.684266,689.485948,296.082377,9474.636058
99.684574,383.047749,148.041188,9548.656652
99.684882,306.438199,222.061783,9696.697840
99.685190,229.828649,-148.041188,9770.718434
99.685498,306.438199,-0.000000,10140.821405
99.685806,229.828649,-74.020594,9918.759623
99.686114,995.924147,-74.020594,9844.739029
99.686422,1072.533697,-222.061783,9548.656652
99.686729,766.095498,148.041188,9770.718434
99.687037,689.485948,370.102971,9400.615463
99.687345,842.705048,592.164754,9474.636058
99.687653,842.705048,592.164754,9400.615463
99.687961,1302.362347,444.123565,9474.636058
99.688269,995.924147,370.102971,9696.697840
99.688577,1149.143247,518.144159,9770.718434
99.688885,689.485948,-0.000000,9844.739029
99.689193,842.705048,-0.000000,9400.615463
99.689501,689.485948,-0.000000,9696.697840
99.689809,842.705048,-0.000000,9770.718434
99.690116,612.876398,-0.000000,9622.677246
99.690424,766.095498,222.061783,9474.636058
99.690732,919.314598,-0.000000,9400.615463
99.691040,995.924147,222.061783,9474.636058
99.691348,766.095498,518.144159,9548.656652
99.691656,919.314598,444.123565,9474.636058
99.691964,919.314598,296.082377,9548.656652
99.692272,919.314598,296.082377,9548.656652
99.692580,689.485948,222.061783,9918.759623
99.692888,1225.752797,-0.000000,9918.759623
99.693196,536.266849,-296.082377,10140.821405
99.693503,689.485948,-222.061783,10214.842000
99.693811,0.000000,-0.000000,10066.800811
99.694119,612.876398,-0.000000,9696.697840
99.694427,842.705048,-0.000000,9474.636058
99.694735,919.314598,296.082377,9326.594869
99.695043,1149.143247,592.164754,9252.574275
99.695351,1072.533697,444.123565,9474.636058
99.695658,1302.362347,444.123565,9178.553681
99.695966,1378.971896,370.102971,9474.636058
99.696274,919.314598,222.061783,9104.533087
99.696582,1149.143247,370.102971,9474.636058
99.696890,689.485948,-0.000000,9548.656652
99.697198,689.485948,-0.000000,9918.759623
99.697505,689.485948,-0.000000,9770.718434
99.697813,995.924147,-518.144159,9844.739029
99.698121,919.314598,-0.000000,9918.759623
99.698429,1072.533697,-222.061783,9474.636058
99.698737,919.314598,-148.041188,9696.697840
99.699045,689.485948,296.082377,9696.697840
99.699353,995.924147,518.144159,9548.656652
99.699660,766.095498,296.082377,9474.636058
99.699968,995.924147,666.185348,9548.656652
99.700276,1149.143247,222.061783,9326.594869
99.700584,919.314598,518.144159,9400.615463
99.700892,1072.533697,296.082377,9770.718434
99.701200,842.705048,-0.000000,10066.800811
99.701508,842.705048,74.020594,10214.842000
99.701815,459.657299,-74.020594,9918.759623
99.702123,536.266849,-0.000000,9992.780217
99.702431,459.657299,-74.020594,9918.759623
99.702739,766.095498,-148.041188,9770.718434
99.703047,1149.143247,370.102971,9622.677246
99.703355,1072.533697,518.144159,9548.656652
99.703663,842.705048,444.123565,9252.574275
99.703970,1072.533697,888.247130,9178.553681
99.704278,1225.752797,740.205942,9104.533087
99.704586,1225.752797,592.164754,9178.553681
99.704894,842.705048,592.164754,9400.615463
99.705202,612.876398,-0.000000,9696.697840
99.705510,995.924147,-0.000000,9918.759623
99.705818,459.657299,-0.000000,9844.739029
99.706125,306.438199,-74.020594,9918.759623
99.706433,153.219100,-74.020594,9918.759623
99.706741,229.828649,-0.000000,9992.780217
99.707049,306.438199,-0.000000,9770.718434
99.707357,536.266849,-148.041188,9770.718434
99.707665,842.705048,-148.041188,9548.656652
99.707973,919.314598,-0.000000,9548.656652
99.708280,536.266849,-74.020594,9474.636058
99.708588,306.438199,370.102971,9474.636058
99.708896,766.095498,148.041188,9326.594869
99.709204,689.485948,-0.000000,9474.636058
99.709512,536.266849,296.082377,9474.636058
99.709820,536.266849,-0.000000,9622.677246
99.710128,612.876398,-74.020594,9622.677246
99.710435,766.095498,-0.000000,9474.636058
99.710743,689.485948,-0.000000,9770.718434
99.711051,766.095498,-444.123565,9474.636058
99.711359,459.657299,-0.000000,9400.615463
99.711667,383.047749,592.164754,9178.553681
99.711975,689.485948,518.144159,9252.574275
99.712282,459.657299,518.144159,9474.636058
99.712590,766.095498,148.041188,9770.718434
99.712898,0.000000,-0.000000,9474.636058
99.713206,76.609550,-0.000000,10066.800811
99.713514,229.828649,-148.041188,10140.821405
99.713822,153.219100,-296.082377,9844.739029
99.714130,229.828649,-0.000000,10066.800811
99.714437,153.219100,-74.020594,9992.780217
99.714745,229.828649,-0.000000,9992.780217
99.715053,306.438199,-74.020594,9918.759623
99.715361,766.095498,148.041188,9844.739029
99.715669,536.266849,962.267725,9622.677246
99.715977,1072.533697,592.164754,9474.636058
99.716285,919.314598,666.185348,9178.553681
99.716592,919.314598,666.185348,9104.533087
99.716900,459.657299,666.185348,9252.574275
99.717208,612.876398,518.144159,9326.594869
99.717516,229.828649,148.041188,9844.739029
99.717824,689.485948,-0.000000,9992.780217
99.718132,229.828649,-74.020594,9918.759623
99.718440,76.609550,-148.041188,9992.780217
99.718747,229.828649,-148.041188,9844.739029
99.719055,0.000000,-0.000000,9770.718434
99.719363,459.657299,-0.000000,9696.697840
99.719671,306.438199,370.102971,9696.697840
99.719979,612.876398,296.082377,9030.512492
99.720287,612.876398,148.041188,9474.636058
99.720595,689.485948,148.041188,9548.656652
99.720902,383.047749,592.164754,9548.656652
99.721210,612.876398,444.123565,9474.636058
99.721518,306.438199,518.144159,9474.636058
99.721826,459.657299,222.061783,9844.739029
99.722134,153.219100,-0.000000,9622.677246
99.722442,306.438199,-148.041188,9770.718434
99.722750,536.266849,-296.082377,9474.636058
99.723057,153.219100,-0.000000,9844.739029
99.723365,229.828649,-0.000000,9918.759623
99.723673,689.485948,148.041188,9474.636058
99.723981,766.095498,444.123565,9252.574275
99.724289,689.485948,518.144159,9326.594869
99.724597,1149.143247,444.123565,9548.656652
99.724905,1072.533697,296.082377,9400.615463
99.725212,995.924147,370.102971,9326.594869
99.725520,689.485948,222.061783,9918.759623
99.725828,612.876398,148.041188,9844.739029
99.726136,459.657299,-0.000000,9770.718434
99.726444,459.657299,-74.020594,9918.759623
99.726752,536.266849,-148.041188,9844.739029
99.727059,229.828649,-296.082377,9696.697840
99.727367,995.924147,-0.000000,9992.780217
99.727675,1149.143247,-0.000000,9622.677246
99.727983,919.314598,370.102971,9474.636058
99.728291,1149.143247,518.144159,9326.594869
99.728599,1225.752797,592.164754,9104.533087
99.728907,1302.362347,888.247130,9252.574275
99.729214,1378.971896,518.144159,9252.574275
99.729522,1685.410096,592.164754,9252.574275
99.729830,995.924147,592.164754,9474.636058
99.730138,689.485948,-148.041188,9474.636058
99.730446,842.705048,-74.020594,9770.718434
99.730754,919.314598,-0.000000,9844.739029
99.731062,919.314598,-148.041188,9844.739029
99.731369,995.924147,-0.000000,9770.718434
99.731677,919.314598,370.102971,9474.636058
99.731985,1455.581446,370.102971,9474.636058
99.732293,1532.190996,814.226536,9622.677246
99.732601,1762.019645,222.061783,9400.615463
99.732909,1378.971896,148.041188,9622.677246
99.733217,1225.752797,592.164754,9400.615463
99.733524,1378.971896,518.144159,9548.656652
99.733832,1302.362347,592.164754,9548.656652
99.734140,1072.533697,296.082377,9696.697840
99.734448,842.705048,296.082377,10066.800811
99.734756,1149.143247,-0.000000,9992.780217
99.735064,689.485948,-0.000000,10214.842000
99.735372,1149.143247,-0.000000,10066.800811
99.735679,766.095498,-74.020594,10066.800811
99.735987,612.876398,-0.000000,9844.739029
99.736295,919.314598,222.061783,9770.718434
99.736603,1149.143247,518.144159,9474.636058
99.736911,1455.581446,814.226536,9622.677246
99.737219,1072.533697,592.164754,9178.553681
99.737527,1685.410096,666.185348,9400.615463
99.737834,919.314598,444.123565,9030.512492
99.738142,995.924147,740.205942,9104.533087
99.738450,766.095498,518.144159,9400.615463
99.738758,766.095498,370.102971,9696.697840
99.739066,306.438199,-0.000000,9696.697840
99.739374,0.000000,-296.082377,9992.780217
99.739682,0.000000,-518.144159,10436.903782
99.739989,-229.828649,-592.164754,10066.800811
99.740297,-383.047749,-444.123565,10066.800811
99.740605,0.000000,-0.000000,9992.780217
99.740913,76.609550,-0.000000,9548.656652
99.741221,306.438199,-0.000000,9474.636058
99.741529,306.438199,-0.000000,9548.656652
99.741836,229.828649,222.061783,9548.656652
99.742144,76.609550,-222.061783,9548.656652
99.742452,383.047749,-0.000000,9548.656652
99.742760,76.609550,-148.041188,9696.697840
99.743068,0.000000,-0.000000,9622.677246
99.743376,76.609550,-74.020594,9622.677246
99.743684,0.000000,-74.020594,9474.636058
99.743991,306.438199,-0.000000,9474.636058
99.744299,459.657299,-74.020594,9104.533087
99.744607,459.657299,-0.000000,9622.677246
99.744915,306.438199,370.102971,9696.697840
99.745223,536.266849,222.061783,9474.636058
99.745531,306.438199,370.102971,9400.615463
99.745839,229.828649,518.144159,9400.615463
99.746146,383.047749,296.082377,9548.656652
99.746454,306.438199,296.082377,9474.636058
99.746762,0.000000,-0.000000,10066.800811
99.747070,0.000000,-296.082377,9548.656652
99.747378,76.609550,-518.144159,9918.759623
99.747686,-229.828649,-444.123565,10214.842000
99.747994,0.000000,-444.123565,9844.739029
99.748301,0.000000,-444.123565,9918.759623
99.748609,0.000000,-74.020594,9844.739029
99.748917,229.828649,296.082377,9548.656652
99.749225,919.314598,370.102971,9474.636058
99.749533,995.924147,518.144159,9548.656652
99.749841,1225.752797,222.061783,9400.615463
99.750149,1685.410096,518.144159,8882.471304
99.750456,919.314598,518.144159,9104.533087
99.750764,1072.533697,666.185348,9252.574275
99.751072,842.705048,592.164754,9474.636058
99.751380,536.266849,370.102971,9548.656652
99.751688,536.266849,-148.041188,9770.718434
99.751996,459.657299,-518.144159,9844.739029
99.752304,612.876398,-518.144159,9918.759623
99.752611,306.438199,-222.061783,9918.759623
99.752919,229.828649,-148.041188,9770.718434
99.753227,383.047749,222.061783,9696.697840
99.753535,766.095498,518.144159,9622.677246
99.753843,459.657299,370.102971,9474.636058
99.754151,766.095498,888.247130,9548.656652
99.754459,1072.533697,518.144159,9548.656652
99.754766,689.485948,222.061783,9548.656652
99.755074,306.438199,-0.000000,9770.718434
99.755382,536.266849,-0.000000,9622.677246
99.755690,536.266849,222.061783,9770.718434
99.755998,612.876398,222.061783,9770.718434
99.756306,689.485948,296.082377,9474.636058
99.756613,919.314598,-0.000000,9918.759623
99.756921,306.438199,-148.041188,9696.697840
99.757229,1072.533697,444.123565,9548.656652
99.757537,1072.533697,370.102971,9326.594869
99.757845,1072.533697,666.185348,9178.553681
99.758153,842.705048,444.123565,9326.594869
99.758461,689.485948,444.123565,9474.636058
99.758768,842.705048,222.061783,9400.615463
99.759076,842.705048,370.102971,10066.800811
99.759384,842.705048,-222.061783,9622.677246
99.759692,995.924147,-370.102971,9844.739029
99.760000,153.219100,-518.144159,10362.883188
99.760308,306.438199,-518.144159,9844.739029
99.760616,459.657299,-222.061783,9770.718434
99.760923,459.657299,-74.020594,9696.697840
99.761231,766.095498,-0.000000,9548.656652
99.761539,995.924147,296.082377,9178.553681
99.761847,383.047749,592.164754,9400.615463
99.762155,1302.362347,370.102971,9400.615463
99.762463,689.485948,518.144159,9326.594869
99.762771,1149.143247,666.185348,9252.574275
99.763078,995.924147,370.102971,9326.594869
99.763386,919.314598,222.061783,9326.594869
99.763694,842.705048,148.041188,9474.636058
99.764002,766.095498,-0.000000,9992.780217
99.764310,689.485948,-74.020594,9844.739029
99.764618,383.047749,370.102971,10066.800811
99.764926,1149.143247,-74.020594,9992.780217
99.765233,766.095498,-0.000000,9844.739029
99.765541,919.314598,-0.000000,9696.697840
99.765849,612.876398,370.102971,9548.656652
99.766157,1072.533697,370.102971,9474.636058
99.766465,919.314598,296.082377,9992.780217
99.766773,1378.971896,-0.000000,9474.636058
99.767081,1302.362347,370.102971,9622.677246
99.767388,995.924147,518.144159,9992.780217
99.767696,1072.533697,444.123565,9844.739029
99.768004,766.095498,148.041188,9844.739029
99.768312,612.876398,-0.000000,9844.739029
99.768620,1072.533697,-0.000000,9992.780217
99.768928,383.047749,148.041188,10066.800811
99.769236,1072.533697,444.123565,10140.821405
99.769543,842.705048,-0.000000,9252.574275
99.769851,1225.752797,444.123565,9548.656652
99.770159,1149.143247,444.123565,9252.574275
99.770467,1072.533697,740.205942,9400.615463
99.770775,1225.752797,518.144159,9178.553681
99.771083,1072.533697,592.164754,9474.636058
99.771390,842.705048,222.061783,9252.574275
99.771698,306.438199,222.061783,9474.636058
99.772006,536.266849,592.164754,9992.780217
99.772314,689.485948,-0.000000,9474.636058
99.772622,459.657299,222.061783,9770.718434
99.772930,0.000000,-0.000000,9992.780217
99.773238,76.609550,-0.000000,9918.759623
99.773545,76.609550,-0.000000,9992.780217
99.773853,459.657299,-0.000000,9622.677246
99.774161,383.047749,-0.000000,9918.759623
99.774469,612.876398,-0.000000,9918.759623
99.774777,459.657299,-0.000000,9696.697840
99.775085,612.876398,148.041188,9474.636058
99.775393,766.095498,296.082377,9474.636058
99.775700,842.705048,-0.000000,9178.553681
99.776008,842.705048,148.041188,9400.615463
99.776316,459.657299,-0.000000,9252.574275
99.776624,1072.533697,-148.041188,9474.636058
99.776932,842.705048,-0.000000,9474.636058
99.777240,766.095498,-0.000000,9474.636058
99.777548,536.266849,222.061783,9474.636058
99.777855,536.266849,-0.000000,9474.636058
99.778163,612.876398,370.102971,9326.594869
99.778471,0.000000,370.102971,9474.636058
99.778779,383.047749,-0.000000,9474.636058
99.779087,306.438199,-0.000000,9918.759623
99.779395,229.828649,148.041188,9696.697840
99.779703,229.828649,-0.000000,9770.718434
99.780010,-383.047749,-0.000000,9770.718434
99.780318,76.609550,-74.020594,9844.739029
99.780626,153.219100,-222.061783,9770.718434
99.780934,229.828649,-296.082377,9770.718434
99.781242,459.657299,-148.041188,9770.718434
99.781550,0.000000,296.082377,10288.862594
99.781858,229.828649,-222.061783,9474.636058
99.782165,306.438199,-0.000000,9326.594869
99.782473,689.485948,666.185348,9252.574275
99.782781,995.924147,592.164754,9104.533087
99.783089,842.705048,740.205942,9178.553681
99.783397,766.095498,666.185348,9104.533087
99.783705,842.705048,296.082377,9104.533087
99.784013,612.876398,370.102971,9548.656652
99.784320,842.705048,518.144159,9474.636058
99.784628,459.657299,-74.020594,9252.574275
99.784936,76.609550,296.082377,9770.718434
99.785244,0.000000,-0.000000,10066.800811
99.785552,0.000000,-296.082377,10066.800811
99.785860,76.609550,-148.041188,10066.800811
99.786167,153.219100,-0.000000,10140.821405
99.786475,383.047749,148.041188,9992.780217
99.786783,689.485948,-0.000000,9918.759623
99.787091,383.047749,444.123565,9622.677246
99.787399,612.876398,518.144159,9474.636058
99.787707,536.266849,592.164754,9326.594869
99.788015,689.485948,666.185348,9400.615463
99.788322,1072.533697,444.123565,9474.636058
99.788630,919.314598,-0.000000,9622.677246
99.788938,612.876398,-0.000000,9696.697840
99.789246,383.047749,-0.000000,9918.759623
99.789554,0.000000,-0.000000,9992.780217
99.789862,153.219100,-74.020594,9844.739029
99.790170,383.047749,222.061783,9770.718434
99.790477,612.876398,-0.000000,9474.636058
99.790785,459.657299,592.164754,9548.656652
99.791093,383.047749,148.041188,9474.636058
99.791401,689.485948,-0.000000,9548.656652
99.791709,995.924147,-0.000000,9622.677246
99.792017,612.876398,296.082377,9696.697840
99.792325,842.705048,-0.000000,9474.636058
99.792632,612.876398,-0.000000,9548.656652
99.792940,536.266849,-0.000000,9844.739029
99.793248,1072.533697,-592.164754,10140.821405
99.793556,0.000000,-74.020594,10140.821405
99.793864,459.657299,-370.102971,9918.759623
99.794172,383.047749,-0.000000,9992.780217
99.794480,1225.752797,-0.000000,9474.636058
99.794787,1455.581446,370.102971,9326.594869
99.795095,1455.581446,370.102971,9104.533087
99.795403,1149.143247,444.123565,9104.533087
99.795711,1532.190996,962.267725,9474.636058
99.796019,1532.190996,666.185348,9326.594869
99.796327,1762.019645,296.082377,9326.594869
99.796635,1302.362347,370.102971,9548.656652
99.796943,995.924147,74.020594,9548.656652
99.797251,842.705048,-0.000000,9696.697840
99.797559,842.705048,-0.000000,9844.739029
99.797867,995.924147,-0.000000,9844.739029
99.798175,842.705048,-0.000000,10214.842000
99.798483,1149.143247,296.082377,10066.800811
99.798791,1378.971896,-0.000000,9622.677246
99.799099,1225.752797,370.102971,9770.718434
99.799407,995.924147,518.144159,9474.636058
99.799715,1378.971896,444.123565,9474.636058
99.800023,1149.143247,444.123565,9474.636058
99.800331,1225.752797,518.144159,9474.636058
99.800639,1302.362347,-0.000000,9622.677246
99.800947,1225.752797,518.144159,9992.780217
99.801254,1072.533697,148.041188,9252.574275
99.801562,1225.752797,-0.000000,9548.656652
99.801870,919.314598,296.082377,9770.718434
99.802178,1149.143247,296.082377,9696.697840
99.802486,995.924147,222.061783,9696.697840
99.802794,842.705048,444.123565,9696.697840
99.803102,995.924147,222.061783,9770.718434
99.803410,1302.362347,444.123565,9474.636058
99.803718,1072.533697,592.164754,9844.739029
99.804026,536.266849,666.185348,9474.636058
99.804334,766.095498,370.102971,9474.636058
99.804642,919.314598,518.144159,9474.636058
99.804950,766.095498,148.041188,9696.697840
99.805258,0.000000,222.061783,9770.718434
99.805566,459.657299,-0.000000,9696.697840
99.805874,153.219100,-0.000000,10066.800811
99.806182,459.657299,-74.020594,10140.821405
99.806490,0.000000,-0.000000,10214.842000
99.806798,0.000000,-0.000000,9992.780217
99.807106,153.219100,-0.000000,9622.677246
99.807414,229.828649,296.082377,9548.656652
99.807721,612.876398,370.102971,9548.656652
99.808029,842.705048,370.102971,9400.615463
99.808337,306.438199,296.082377,9030.512492
99.808645,153.219100,-148.041188,9326.594869
99.808953,76.609550,222.061783,9844.739029
99.809261,153.219100,-0.000000,9178.553681
99.809569,0.000000,-0.000000,9622.677246
99.809877,76.609550,-0.000000,9548.656652
99.810185,153.219100,-222.061783,9474.636058
99.810493,0.000000,-222.061783,9400.615463
99.810801,76.609550,-222.061783,9918.759623
99.811109,0.000000,-74.020594,9474.636058
99.811417,0.000000,-148.041188,9474.636058
99.811725,153.219100,-0.000000,9400.615463
99.812033,229.828649,148.041188,9252.574275
99.812341,306.438199,222.061783,9474.636058
99.812649,383.047749,148.041188,9474.636058
99.812957,0.000000,444.123565,9178.553681
99.813265,229.828649,444.123565,9104.533087
99.813573,536.266849,-0.000000,9474.636058
99.813880,0.000000,148.041188,9770.718434
99.814188,153.219100,-74.020594,9770.718434
99.814496,0.000000,-0.000000,9622.677246
99.814804,153.219100,-74.020594,9844.739029
99.815112,76.609550,-74.020594,9696.697840
99.815420,229.828649,-148.041188,9622.677246
99.815728,842.705048,444.123565,9622.677246
99.816036,842.705048,-0.000000,9696.697840
99.816344,689.485948,222.061783,9474.636058
99.816652,612.876398,518.144159,9474.636058
99.816960,612.876398,518.144159,9474.636058
99.817268,536.266849,518.144159,9474.636058
99.817576,766.095498,444.123565,9696.697840
99.817884,689.485948,-0.000000,9696.697840
99.818192,766.095498,-0.000000,9844.739029
99.818500,689.485948,518.144159,10066.800811
99.818808,229.828649,-0.000000,9918.759623
99.819116,153.219100,370.102971,9696.697840
99.819424,536.266849,296.082377,9696.697840
99.819732,229.828649,222.061783,9474.636058
99.820040,842.705048,518.144159,9400.615463
99.820347,919.314598,370.102971,9696.697840
99.820655,689.485948,592.164754,9992.780217
99.820963,1378.971896,444.123565,9696.697840
99.821271,842.705048,222.061783,9252.574275
99.821579,689.485948,444.123565,9622.677246
99.821887,919.314598,518.144159,9474.636058
99.822195,689.485948,148.041188,9474.636058
99.822503,536.266849,296.082377,9844.739029
99.822811,0.000000,-0.000000,9622.677246
99.823119,459.657299,74.020594,10214.842000
99.823427,1225.752797,296.082377,10214.842000
99.823735,536.266849,-0.000000,9548.656652
99.824043,536.266849,296.082377,9474.636058
99.824351,612.876398,222.061783,9548.656652
99.824659,612.876398,296.082377,9474.636058
99.824967,842.705048,592.164754,9622.677246
99.825275,842.705048,-0.000000,9770.718434
99.825583,919.314598,-0.000000,9474.636058
99.825891,766.095498,-0.000000,9548.656652
99.826199,766.095498,-0.000000,9622.677246
99.826507,536.266849,-148.041188,9474.636058
99.826814,689.485948,-74.020594,9770.718434
99.827122,536.266849,-74.020594,9622.677246
99.827430,919.314598,-0.000000,9844.739029
99.827738,766.095498,-0.000000,9400.615463
99.828046,766.095498,-0.000000,9474.636058
99.828354,1455.581446,222.061783,9400.615463
99.828662,919.314598,-0.000000,9400.615463
99.828970,1149.143247,592.164754,9474.636058
99.829278,1072.533697,370.102971,9474.636058
99.829586,919.314598,370.102971,9474.636058
99.829894,1532.190996,148.041188,9548.656652
99.830202,766.095498,222.061783,9622.677246
99.830510,536.266849,-0.000000,9474.636058
99.830818,766.095498,-370.102971,9770.718434
99.831126,919.314598,-0.000000,9696.697840
99.831434,689.485948,-74.020594,9622.677246
99.831742,766.095498,-74.020594,9474.636058
99.832050,842.705048,-0.000000,9548.656652
99.832358,1378.971896,370.102971,9548.656652
99.832666,919.314598,-0.000000,9474.636058
99.832973,1608.800546,222.061783,9474.636058
99.833281,995.924147,370.102971,9474.636058
99.833589,1072.533697,222.061783,9548.656652
99.833897,842.705048,518.144159,9326.594869
99.834205,995.924147,148.041188,9474.636058
99.834513,919.314598,148.041188,9548.656652
99.834821,1225.752797,-0.000000,9918.759623
99.835129,995.924147,296.082377,9696.697840
99.835437,995.924147,-222.061783,9770.718434
99.835745,919.314598,-74.020594,9770.718434
99.836053,689.485948,148.041188,9770.718434
99.836361,1149.143247,-0.000000,9622.677246
99.836669,1072.533697,296.082377,9622.677246
99.836977,1072.533697,444.123565,9474.636058
99.837285,1072.533697,444.123565,9770.718434
99.837593,612.876398,666.185348,9548.656652
99.837901,766.095498,296.082377,9474.636058
99.838209,1378.971896,370.102971,9622.677246
99.838517,919.314598,518.144159,9474.636058
99.838825,842.705048,370.102971,9548.656652
99.839133,536.266849,296.082377,9770.718434
99.839440,536.266849,-0.000000,9770.718434
99.839748,689.485948,444.123565,10140.821405
99.840056,383.047749,-74.020594,10140.821405
99.840364,459.657299,-0.000000,9992.780217
99.840672,229.828649,-222.061783,9770.718434
99.840980,536.266849,148.041188,9918.759623
99.841288,306.438199,370.102971,9696.697840
99.841596,459.657299,148.041188,9622.677246
99.841904,536.266849,370.102971,9622.677246
99.842212,153.219100,592.164754,9770.718434
99.842520,919.314598,-0.000000,9474.636058
99.842828,153.219100,-148.041188,9918.759623
99.843136,766.095498,-0.000000,9770.718434
99.843444,229.828649,-148.041188,9622.677246
99.843752,383.047749,-74.020594,9474.636058
99.844060,306.438199,-148.041188,9474.636058
99.844368,536.266849,296.082377,9474.636058
99.844676,536.266849,-0.000000,9474.636058
99.844984,459.657299,-0.000000,9178.553681
99.845292,306.438199,-0.000000,9326.594869
99.845600,919.314598,444.123565,9696.697840
99.845907,612.876398,370.102971,9400.615463
99.846215,459.657299,148.041188,9326.594869
99.846523,306.438199,296.082377,9548.656652
99.846831,229.828649,-0.000000,9696.697840
99.847139,0.000000,-148.041188,10066.800811
99.847447,0.000000,-0.000000,10066.800811
99.847755,459.657299,-74.020594,9770.718434
99.848063,0.000000,222.061783,9844.739029
99.848371,153.219100,-0.000000,9696.697840
99.848679,76.609550,-0.000000,9696.697840
99.848987,459.657299,148.041188,9622.677246
99.849295,306.438199,444.123565,9548.656652
99.849603,383.047749,444.123565,9696.697840
99.849911,459.657299,296.082377,9474.636058
99.850219,612.876398,296.082377,9178.553681
99.850527,229.828649,518.144159,9548.656652
99.850835,306.438199,370.102971,9622.677246
99.851143,153.219100,-0.000000,9474.636058
99.851451,306.438199,370.102971,9844.739029
99.851759,0.000000,444.123565,9696.697840
99.852066,612.876398,-148.041188,9918.759623
99.852374,306.438199,-0.000000,9770.718434
99.852682,612.876398,-0.000000,9474.636058
99.852990,689.485948,296.082377,9326.594869
99.853298,459.657299,296.082377,9474.636058
99.853606,459.657299,444.123565,9622.677246
99.853914,459.657299,444.123565,9474.636058
99.854222,536.266849,444.123565,9622.677246
99.854530,229.828649,148.041188,9400.615463
99.854838,459.657299,-0.000000,9918.759623
99.855146,459.657299,-0.000000,9918.759623
99.855454,76.609550,-0.000000,9844.739029
99.855762,153.219100,-0.000000,9992.780217
99.856070,76.609550,-0.000000,9918.759623
99.856378,76.609550,-0.000000,9918.759623
99.856686,1149.143247,-0.000000,9696.697840
99.856994,689.485948,370.102971,9992.780217
99.857302,842.705048,-148.041188,9548.656652
99.857610,842.705048,666.185348,9622.677246
99.857918,689.485948,148.041188,9104.533087
99.858226,842.705048,370.102971,9252.574275
99.858533,842.705048,592.164754,9622.677246
99.858841,689.485948,370.102971,9400.615463
99.859149,1149.143247,222.061783,9400.615463
99.859457,766.095498,148.041188,9252.574275
99.859765,1225.752797,-296.082377,9696.697840
99.860073,766.095498,-370.102971,9474.636058
99.860381,919.314598,-370.102971,9918.759623
99.860689,766.095498,-0.000000,9696.697840
99.860997,842.705048,-0.000000,9548.656652
99.861305,766.095498,296.082377,9548.656652
99.861613,842.705048,222.061783,9474.636058
99.861921,1149.143247,296.082377,9252.574275
99.862229,1149.143247,592.164754,9326.594869
99.862537,1838.629195,222.061783,9326.594869
99.862845,1455.581446,444.123565,9178.553681
99.863153,1302.362347,296.082377,9622.677246
99.863461,1378.971896,296.082377,9548.656652
99.863769,1072.533697,-0.000000,9696.697840
99.864077,919.314598,-74.020594,9770.718434
99.864385,919.314598,-0.000000,9918.759623
99.864693,689.485948,-74.020594,9918.759623
99.865000,1608.800546,148.041188,9918.759623
99.865308,1149.143247,296.082377,9548.656652
99.865616,1532.190996,444.123565,9474.636058
99.865924,1532.190996,666.185348,9548.656652
99.866232,1455.581446,592.164754,9326.594869
99.866540,2068.457845,740.205942,9400.615463
99.866848,995.924147,370.102971,9548.656652
99.867156,1378.971896,888.247130,9770.718434
99.867464,1302.362347,-0.000000,9548.656652
99.867772,383.047749,296.082377,9696.697840
99.868080,612.876398,-0.000000,9918.759623
99.868388,612.876398,-0.000000,9770.718434
99.868696,536.266849,-74.020594,10214.842000
99.869004,766.095498,-0.000000,10362.883188
99.869312,766.095498,-74.020594,9918.759623
99.869620,459.657299,-0.000000,9844.739029
99.869928,919.314598,-0.000000,9548.656652
99.870236,995.924147,962.267725,9400.615463
99.870544,1072.533697,592.164754,9474.636058
99.870852,1225.752797,666.185348,9252.574275
99.871159,1149.143247,740.205942,9030.512492
99.871467,1378.971896,666.185348,9178.553681
99.871775,612.876398,148.041188,9400.615463
99.872083,689.485948,148.041188,9770.718434
99.872391,153.219100,-74.020594,10066.800811
99.872699,76.609550,-222.061783,9770.718434
99.873007,76.609550,-148.041188,9992.780217
99.873315,0.000000,-74.020594,9992.780217
99.873623,76.609550,-74.020594,9992.780217
99.873931,0.000000,-0.000000,9770.718434
99.874239,306.438199,-74.020594,9696.697840
99.874547,229.828649,148.041188,9326.594869
99.874855,229.828649,-0.000000,9400.615463
99.875163,229.828649,370.102971,9400.615463
99.875471,76.609550,296.082377,9474.636058
99.875779,153.219100,222.061783,9696.697840
99.876087,0.000000,-148.041188,9696.697840
99.876395,0.000000,-666.185348,9474.636058
99.876703,306.438199,-222.061783,10214.842000
99.877011,0.000000,-814.226536,9918.759623
99.877319,153.219100,-592.164754,9622.677246
99.877626,383.047749,-0.000000,9696.697840
99.877934,229.828649,-0.000000,9252.574275
99.878242,383.047749,518.144159,9178.553681
99.878550,842.705048,592.164754,9178.553681
99.878858,536.266849,518.144159,9104.533087
99.879166,919.314598,740.205942,9104.533087
99.879474,459.657299,296.082377,9104.533087
99.879782,536.266849,296.082377,9622.677246
99.880090,0.000000,148.041188,9548.656652
99.880398,-153.219100,-296.082377,9918.759623
99.880706,-306.438199,-518.144159,9992.780217
99.881014,-306.438199,-296.082377,10140.821405
99.881322,0.000000,-296.082377,10140.821405
99.881630,0.000000,-148.041188,10066.800811
99.881938,459.657299,-0.000000,9918.759623
99.882246,612.876398,296.082377,9696.697840
99.882554,689.485948,666.185348,9326.594869
99.882862,766.095498,592.164754,9178.553681
99.883170,842.705048,814.226536,9326.594869
99.883478,995.924147,666.185348,9252.574275
99.883786,229.828649,-0.000000,9474.636058
99.884093,919.314598,370.102971,9770.718434
99.884401,842.705048,370.102971,9474.636058
99.884709,536.266849,370.102971,10066.800811
99.885017,536.266849,222.061783,9844.739029
99.885325,229.828649,-0.000000,10066.800811
99.885633,536.266849,-0.000000,9918.759623
99.885941,536.266849,148.041188,9548.656652
99.886249,612.876398,444.123565,10214.842000
99.886557,306.438199,296.082377,9622.677246
99.886865,612.876398,370.102971,9548.656652
99.887173,842.705048,666.185348,9400.615463
99.887481,459.657299,518.144159,9474.636058
99.887789,536.266849,444.123565,9622.677246
99.888097,919.314598,296.082377,9548.656652
99.888405,536.266849,-0.000000,9622.677246
99.888713,229.828649,-0.000000,9844.739029
99.889021,459.657299,222.061783,10288.862594
99.889329,383.047749,-74.020594,9548.656652
99.889637,459.657299,-74.020594,9548.656652
99.889945,459.657299,222.061783,9548.656652
99.890252,689.485948,444.123565,9474.636058
99.890560,919.314598,296.082377,9252.574275
99.890868,842.705048,518.144159,9400.615463
99.891176,1072.533697,592.164754,9474.636058
99.891484,1225.752797,444.123565,9400.615463
99.891792,612.876398,-0.000000,9548.656652
99.892100,766.095498,-0.000000,9696.697840
99.892408,536.266849,-0.000000,9474.636058
99.892716,459.657299,-74.020594,9770.718434
99.893024,459.657299,-222.061783,9992.780217
99.893332,919.314598,-222.061783,9696.697840
99.893640,689.485948,-370.102971,9918.759623
99.893948,612.876398,-370.102971,9918.759623
99.894256,995.924147,-74.020594,9400.615463
99.894564,766.095498,518.144159,9770.718434
99.894872,1072.533697,518.144159,9400.615463
99.895180,1225.752797,592.164754,9178.553681
99.895488,1149.143247,444.123565,9178.553681
99.895796,842.705048,888.247130,9400.615463
99.896104,842.705048,148.041188,9474.636058
99.896412,1072.533697,-0.000000,9696.697840
99.896720,1072.533697,-74.020594,9474.636058
99.897028,842.705048,-0.000000,9548.656652
99.897336,842.705048,-74.020594,9696.697840
99.897644,842.705048,-0.000000,9770.718434
99.897952,995.924147,222.061783,9696.697840
99.898260,1455.581446,296.082377,9622.677246
99.898568,1302.362347,222.061783,9474.636058
99.898876,1072.533697,296.082377,9474.636058
99.899184,536.266849,-0.000000,9474.636058
99.899492,1149.143247,592.164754,9622.677246
99.899800,1149.143247,592.164754,9474.636058
99.900108,919.314598,444.123565,9622.677246
99.900416,536.266849,592.164754,9548.656652
99.900724,1455.581446,592.164754,9548.656652
99.901032,919.314598,-0.000000,10140.821405
99.901340,689.485948,-148.041188,10066.800811
99.901648,689.485948,-148.041188,10214.842000
99.901956,536.266849,-74.020594,9992.780217
99.902264,766.095498,-0.000000,10066.800811
99.902572,612.876398,-0.000000,9844.739029
99.902880,689.485948,222.061783,9696.697840
99.903188,1072.533697,296.082377,9770.718434
99.903496,1149.143247,-74.020594,9326.594869
99.903804,1072.533697,592.164754,9474.636058
99.904112,1072.533697,444.123565,9252.574275
99.904420,995.924147,518.144159,9104.533087
99.904728,995.924147,592.164754,9326.594869
99.905036,766.095498,370.102971,9252.574275
99.905344,766.095498,444.123565,9474.636058
99.905652,536.266849,148.041188,9474.636058
99.905960,459.657299,-74.020594,9770.718434
99.906268,0.000000,-74.020594,9844.739029
99.906576,229.828649,-370.102971,10140.821405
99.906884,229.828649,-0.000000,9770.718434
99.907192,536.266849,-0.000000,9770.718434
99.907500,229.828649,-0.000000,9622.677246
99.907808,306.438199,-74.020594,9548.656652
99.908116,383.047749,222.061783,9474.636058
99.908424,536.266849,-74.020594,9548.656652
99.908732,842.705048,-444.123565,9548.656652
99.909040,612.876398,-148.041188,9474.636058
99.909348,536.266849,-0.000000,9474.636058
99.909656,612.876398,-74.020594,9474.636058
99.909964,536.266849,-0.000000,9400.615463
99.910272,689.485948,-148.041188,9622.677246
99.910580,229.828649,-148.041188,9622.677246
99.910888,383.047749,-0.000000,9400.615463
99.911196,536.266849,-74.020594,9252.574275
99.911504,459.657299,-0.000000,9252.574275
99.911812,766.095498,370.102971,8882.471304
99.912120,689.485948,740.205942,8882.471304
99.912428,842.705048,444.123565,8956.491898
99.912736,536.266849,592.164754,9252.574275
99.913044,306.438199,666.185348,9474.636058
99.913352,842.705048,222.061783,9474.636058
99.913660,306.438199,222.061783,9918.759623
99.913968,76.609550,-296.082377,10066.800811
99.914276,0.000000,-370.102971,10140.821405
99.914584,-153.219100,-296.082377,10214.842000
99.914892,-153.219100,-296.082377,10140.821405
99.915200,0.000000,-222.061783,10214.842000
99.915508,0.000000,-0.000000,9918.759623
99.915816,459.657299,-0.000000,9548.656652
99.916125,842.705048,518.144159,9696.697840
99.916433,383.047749,444.123565,9474.636058
99.916741,766.095498,592.164754,9326.594869
99.917049,612.876398,888.247130,9178.553681
99.917357,689.485948,666.185348,9326.594869
99.917665,536.266849,740.205942,9474.636058
99.917973,153.219100,740.205942,10066.800811
99.918281,459.657299,592.164754,9844.739029
99.918589,76.609550,-0.000000,9622.677246
99.918897,612.876398,-0.000000,9622.677246
99.919205,383.047749,-0.000000,10140.821405
99.919513,229.828649,-0.000000,9992.780217
99.919821,76.609550,-0.000000,9770.718434
99.920129,76.609550,296.082377,9844.739029
99.920437,383.047749,-0.000000,9992.780217
99.920745,306.438199,444.123565,9770.718434
99.921053,229.828649,-148.041188,9548.656652
99.921361,76.609550,444.123565,9918.759623
99.921669,459.657299,296.082377,9696.697840
99.921977,383.047749,222.061783,9696.697840
99.922285,229.828649,222.061783,9844.739029
99.922593,306.438199,518.144159,10140.821405
99.922901,229.828649,-0.000000,9844.739029
99.923209,229.828649,-0.000000,9622.677246
99.923517,612.876398,-148.041188,9474.636058
99.923825,536.266849,518.144159,9548.656652
99.924133,689.485948,444.123565,9252.574275
99.924441,995.924147,444.123565,9104.533087
99.924749,919.314598,444.123565,9326.594869
99.925057,842.705048,518.144159,9400.615463
99.925365,1072.533697,296.082377,9622.677246
99.925673,459.657299,-0.000000,9844.739029
99.925981,689.485948,-148.041188,9696.697840
99.926289,383.047749,-296.082377,10066.800811
99.926597,536.266849,-148.041188,9844.739029
99.926905,383.047749,-370.102971,9770.718434
99.927213,536.266849,-148.041188,9918.759623
99.927521,459.657299,-222.061783,9548.656652
99.927829,1149.143247,-148.041188,9474.636058
99.928137,1072.533697,666.185348,9622.677246
99.928445,1149.143247,-0.000000,9474.636058
99.928753,1455.581446,-0.000000,9104.533087
99.929061,1302.362347,444.123565,9030.512492
99.929369,1378.971896,222.061783,9400.615463
99.929677,1302.362347,518.144159,9400.615463
99.929985,1302.362347,370.102971,9474.636058
99.930293,1378.971896,-0.000000,9400.615463
99.930601,1225.752797,-0.000000,9474.636058
99.930909,1302.362347,-222.061783,9474.636058
99.931217,1149.143247,-148.041188,10066.800811
99.931525,1378.971896,148.041188,9770.718434
99.931833,1149.143247,222.061783,9548.656652
99.932141,1225.752797,148.041188,9474.636058
99.932449,919.314598,296.082377,9474.636058
99.932757,1149.143247,296.082377,9474.636058
99.933065,1302.362347,148.041188,9622.677246
99.933373,1378.971896,370.102971,9474.636058
99.933681,1072.533697,222.061783,9474.636058
99.933989,1225.752797,370.102971,9696.697840
99.934297,995.924147,296.082377,9844.739029
99.934605,612.876398,222.061783,9844.739029
99.934913,689.485948,-0.000000,9696.697840
99.935221,1149.143247,222.061783,9770.718434
99.935529,766.095498,-296.082377,10066.800811
99.935837,766.095498,-0.000000,9770.718434
99.936145,842.705048,444.123565,9696.697840
99.936453,995.924147,444.123565,9474.636058
99.936761,919.314598,592.164754,9548.656652
99.937069,1072.533697,740.205942,9400.615463
99.937378,1149.143247,740.205942,9474.636058
99.937686,919.314598,592.164754,9474.636058
99.937994,995.924147,1036.288319,9622.677246
99.938302,1302.362347,296.082377,9696.697840
99.938610,76.609550,370.102971,9992.780217
99.938918,306.438199,-0.000000,9918.759623
99.939226,229.828649,-0.000000,9992.780217
99.939534,0.000000,-74.020594,9992.780217
99.939842,0.000000,-0.000000,10436.903782
99.940150,0.000000,-148.041188,10288.862594
99.940458,0.000000,-0.000000,10066.800811
99.940766,383.047749,296.082377,9548.656652
99.941074,229.828649,296.082377,9474.636058
99.941382,383.047749,296.082377,9474.636058
99.941690,459.657299,370.102971,9474.636058
99.941998,459.657299,296.082377,9474.636058
99.942306,459.657299,-0.000000,9474.636058
99.942614,306.438199,148.041188,9474.636058
99.942922,536.266849,-296.082377,9770.718434
99.943230,306.438199,-74.020594,9770.718434
99.943538,0.000000,-222.061783,9474.636058
99.943846,153.219100,-0.000000,9474.636058
99.944154,229.828649,-0.000000,9548.656652
99.944462,306.438199,222.061783,9474.636058
99.944770,689.485948,148.041188,9474.636058
99.945078,842.705048,-0.000000,9326.594869
99.945386,842.705048,-0.000000,9030.512492
99.945694,0.000000,444.123565,9622.677246
99.946002,383.047749,222.061783,9474.636058
99.946310,76.609550,222.061783,9474.636058
99.946618,76.609550,-0.000000,9474.636058
99.946926,153.219100,-0.000000,9622.677246
99.947234,153.219100,-222.061783,9918.759623
99.947542,0.000000,-296.082377,9770.718434
99.947850,0.000000,-148.041188,9918.759623
99.948158,306.438199,-296.082377,9770.718434
99.948466,383.047749,-0.000000,9696.697840
99.948774,536.266849,222.061783,9622.677246
99.949082,383.047749,370.102971,9474.636058
99.949390,459.657299,296.082377,9326.594869
99.949698,1072.533697,296.082377,9030.512492
99.950006,766.095498,148.041188,9326.594869
99.950314,612.876398,296.082377,9622.677246
99.950622,536.266849,370.102971,9770.718434
99.950930,536.266849,222.061783,9474.636058
99.951238,459.657299,296.082377,9622.677246
99.951546,306.438199,148.041188,9696.697840
99.951854,383.047749,-0.000000,9696.697840
99.952162,383.047749,-0.000000,9696.697840
99.952470,306.438199,-0.000000,9918.759623
99.952778,229.828649,296.082377,9696.697840
99.953086,383.047749,222.061783,9770.718434
99.953394,306.438199,370.102971,9548.656652
99.953702,536.266849,296.082377,9548.656652
99.954010,383.047749,370.102971,9548.656652
99.954318,612.876398,518.144159,9474.636058
99.954626,383.047749,-0.000000,9548.656652
99.954934,689.485948,-0.000000,9844.739029
99.955242,766.095498,222.061783,9696.697840
99.955550,766.095498,222.061783,9770.718434
99.955858,612.876398,222.061783,9770.718434
99.956166,536.266849,74.020594,9770.718434
99.956474,536.266849,296.082377,9770.718434
99.956782,842.705048,444.123565,9622.677246
99.957090,1149.143247,222.061783,9622.677246
99.957398,995.924147,370.102971,9400.615463
99.957706,995.924147,296.082377,9474.636058
99.958014,919.314598,296.082377,9548.656652
99.958322,766.095498,148.041188,9548.656652
99.958630,689.485948,-0.000000,9696.697840
99.958939,766.095498,-74.020594,9622.677246
99.959247,459.657299,-0.000000,9548.656652
99.959555,536.266849,-74.020594,9770.718434
99.959863,689.485948,-74.020594,9622.677246
99.960171,995.924147,-370.102971,9622.677246
99.960479,1225.752797,296.082377,9918.759623
99.960787,1072.533697,296.082377,9696.697840
99.961095,919.314598,296.082377,9474.636058
99.961403,1149.143247,444.123565,9326.594869
99.961711,1455.581446,370.102971,9474.636058
99.962019,1838.629195,370.102971,9178.553681
99.962327,1455.581446,444.123565,9252.574275
99.962635,1225.752797,222.061783,9622.677246
99.962943,1149.143247,148.041188,9474.636058
99.963251,919.314598,222.061783,9622.677246
99.963559,842.705048,-0.000000,9844.739029
99.963867,689.485948,-74.020594,9622.677246
99.964175,1378.971896,-0.000000,9696.697840
99.964483,842.705048,-0.000000,9844.739029
99.964791,995.924147,-0.000000,9622.677246
99.965099,919.314598,-0.000000,9622.677246
99.965407,919.314598,296.082377,9696.697840
99.965715,842.705048,296.082377,9326.594869
99.966023,1072.533697,444.123565,9400.615463
99.966331,919.314598,592.164754,9474.636058
99.966639,995.924147,814.226536,9696.697840
99.966947,1762.019645,518.144159,9474.636058
99.967255,1149.143247,370.102971,9844.739029
99.967563,995.924147,-0.000000,9474.636058
99.967871,459.657299,-0.000000,9622.677246
99.968179,766.095498,-0.000000,9770.718434
99.968487,689.485948,-0.000000,9696.697840
99.968795,766.095498,148.041188,9622.677246
99.969103,842.705048,-0.000000,9548.656652
99.969411,766.095498,-0.000000,9696.697840
99.969719,1225.752797,-0.000000,9400.615463
99.970027,689.485948,222.061783,9178.553681
99.970335,842.705048,444.123565,9252.574275
99.970643,842.705048,592.164754,9400.615463
99.970951,919.314598,740.205942,9474.636058
99.971259,612.876398,518.144159,9548.656652
99.971567,689.485948,222.061783,9992.780217
99.971875,536.266849,-0.000000,9770.718434
99.972183,383.047749,-148.041188,9918.759623
99.972491,612.876398,-74.020594,9844.739029
99.972799,612.876398,-74.020594,9696.697840
99.973107,383.047749,-0.000000,9622.677246
99.973415,689.485948,-0.000000,9622.677246
99.973723,689.485948,296.082377,9548.656652
99.974031,383.047749,-0.000000,9622.677246
99.974339,689.485948,-0.000000,9326.594869
99.974647,842.705048,296.082377,9252.574275
99.974955,919.314598,-0.000000,9400.615463
99.975263,229.828649,148.041188,9548.656652
99.975571,383.047749,370.102971,9474.636058
99.975879,153.219100,-0.000000,9474.636058
99.976187,306.438199,-0.000000,9918.759623
99.976495,536.266849,-0.000000,10140.821405
99.976803,995.924147,-370.102971,9918.759623
99.977111,306.438199,-0.000000,9770.718434
99.977419,229.828649,148.041188,9622.677246
99.977727,536.266849,370.102971,9474.636058
99.978035,536.266849,518.144159,9400.615463
99.978343,842.705048,370.102971,9326.594869
99.978651,995.924147,518.144159,9178.553681
99.978959,689.485948,370.102971,9474.636058
99.979267,612.876398,296.082377,9548.656652
99.979575,689.485948,-0.000000,9400.615463
99.979883,306.438199,-0.000000,9696.697840
99.980192,229.828649,148.041188,9770.718434
99.980500,153.219100,-0.000000,9918.759623
99.980808,0.000000,-222.061783,9844.739029
99.981116,459.657299,-0.000000,9992.780217
99.981424,306.438199,-222.061783,9918.759623
99.981732,306.438199,-0.000000,9548.656652
99.982040,766.095498,-148.041188,9770.718434
99.982348,612.876398,-0.000000,9474.636058
99.982656,383.047749,148.041188,9474.636058
99.982964,383.047749,370.102971,9326.594869
99.983272,612.876398,518.144159,9400.615463
99.983580,459.657299,518.144159,9326.594869
99.983888,612.876398,296.082377,9548.656652
99.984196,612.876398,-0.000000,9474.636058
99.984504,153.219100,-0.000000,9474.636058
99.984812,306.438199,-222.061783,10140.821405
99.985120,153.219100,-296.082377,9918.759623
99.985428,0.000000,148.041188,9992.780217
99.985736,0.000000,-0.000000,9696.697840
99.986044,229.828649,222.061783,9622.677246
99.986352,229.828649,592.164754,9548.656652
99.986660,536.266849,-148.041188,9622.677246
99.986968,306.438199,-0.000000,9474.636058
99.987276,536.266849,518.144159,9696.697840
99.987584,229.828649,296.082377,9400.615463
99.987892,459.657299,370.102971,9474.636058
99.988200,153.219100,-0.000000,9548.656652
99.988508,153.219100,444.123565,9770.718434
99.988816,76.609550,-74.020594,9992.780217
99.989124,76.609550,-370.102971,9696.697840
99.989432,229.828649,-518.144159,9474.636058
99.989740,306.438199,-0.000000,10140.821405
99.990048,306.438199,-0.000000,9844.739029
99.990356,383.047749,296.082377,9400.615463
99.990664,612.876398,296.082377,9400.615463
99.990972,842.705048,296.082377,9400.615463
99.991280,383.047749,-0.000000,9474.636058
99.991588,842.705048,296.082377,9474.636058
99.991896,766.095498,444.123565,9474.636058
99.992204,689.485948,-0.000000,9400.615463
99.992512,1149.143247,222.061783,9474.636058
99.992820,689.485948,-0.000000,9474.636058
99.993128,842.705048,-0.000000,9770.718434
99.993436,995.924147,-0.000000,9696.697840
99.993744,995.924147,-0.000000,9770.718434
99.994052,153.219100,-0.000000,9770.718434
99.994360,1225.752797,444.123565,9548.656652
99.994668,1225.752797,296.082377,9696.697840
99.994976,1225.752797,666.185348,9474.636058
99.995284,1378.971896,592.164754,9474.636058
99.995592,1225.752797,592.164754,9400.615463
99.995900,842.705048,222.061783,9400.615463
99.996208,1302.362347,222.061783,9474.636058
99.996516,919.314598,-0.000000,9770.718434
99.996824,842.705048,-148.041188,9696.697840
99.997132,689.485948,-0.000000,9770.718434
99.997440,919.314598,-74.020594,9992.780217
99.997748,919.314598,-0.000000,9918.759623
99.998056,1149.143247,296.082377,9696.697840
99.998364,1225.752797,296.082377,9696.697840
99.998672,1378.971896,222.061783,9400.615463
99.998980,1302.362347,444.123565,9474.636058
99.999288,1838.629195,666.185348,9178.553681
99.999596,1608.800546,814.226536,9326.594869
99.999904,1378.971896,592.164754,9252.574275
100.000212,1225.752797,592.164754,9400.615463
100.000520,1149.143247,740.205942,9400.615463
100.000828,1225.752797,148.041188,9770.718434
100.001136,1149.143247,-0.000000,9844.739029
100.001443,1378.971896,-148.041188,9844.739029
100.001751,383.047749,-0.000000,10214.842000
100.002059,306.438199,-74.020594,9992.780217
100.002367,536.266849,-0.000000,9918.759623
100.002675,689.485948,-0.000000,9992.780217
100.002983,766.095498,-0.000000,9844.739029
100.003291,919.314598,74.020594,9474.636058
100.003599,1532.190996,370.102971,9326.594869
100.003907,919.314598,814.226536,9474.636058
100.004215,1455.581446,740.205942,9696.697840
100.004523,1149.143247,592.164754,9326.594869
100.004831,919.314598,518.144159,9252.574275
100.005139,842.705048,296.082377,9400.615463
100.005446,689.485948,148.041188,9474.636058
100.005754,459.657299,-74.020594,9696.697840
100.006062,459.657299,-0.000000,9548.656652
100.006370,76.609550,-148.041188,9696.697840
100.006678,229.828649,-222.061783,9770.718434
100.006986,0.000000,148.041188,9918.759623
100.007294,-153.219100,-0.000000,9474.636058
100.007602,76.609550,-0.000000,9696.697840
100.007910,0.000000,148.041188,9696.697840
100.008218,76.609550,222.061783,9918.759623
100.008526,0.000000,-0.000000,9918.759623
100.008834,0.000000,-222.061783,9918.759623
100.009142,153.219100,-0.000000,9770.718434
100.009450,76.609550,-0.000000,9696.697840
100.009757,306.438199,-0.000000,9622.677246
100.010065,153.219100,-0.000000,9548.656652
100.010373,306.438199,-0.000000,9326.594869
100.010681,536.266849,518.144159,9400.615463
100.010989,383.047749,296.082377,9474.636058
100.011297,153.219100,296.082377,9326.594869
100.011605,536.266849,296.082377,9326.594869
100.011913,0.000000,592.164754,9400.615463
100.012221,153.219100,592.164754,9400.615463
100.012529,229.828649,222.061783,9548.656652
100.012837,76.609550,370.102971,9918.759623
100.013145,0.000000,296.082377,10214.842000
100.013453,459.657299,-0.000000,9918.759623
100.013761,153.219100,-518.144159,9992.780217
100.014068,229.828649,-0.000000,9622.677246
100.014376,76.609550,-296.082377,9622.677246
100.014684,306.438199,-0.000000,9622.677246
100.014992,153.219100,-74.020594,9548.656652
100.015300,0.000000,-74.020594,9622.677246
100.015608,459.657299,148.041188,9622.677246
100.015916,383.047749,148.041188,9696.697840
100.016224,612.876398,148.041188,9400.615463
100.016532,383.047749,444.123565,9696.697840
100.016840,229.828649,444.123565,9400.615463
100.017148,689.485948,592.164754,9474.636058
100.017456,689.485948,518.144159,9474.636058
100.017764,612.876398,370.102971,9400.615463
100.018071,306.438199,-0.000000,9474.636058
100.018379,842.705048,-0.000000,9622.677246
100.018687,766.095498,148.041188,9474.636058
100.018995,919.314598,-0.000000,9548.656652
100.019303,689.485948,296.082377,9474.636058
100.019611,536.266849,222.061783,9474.636058
100.019919,383.047749,148.041188,9474.636058
100.020227,383.047749,296.082377,9548.656652
100.020535,612.876398,-0.000000,9770.718434
100.020843,1072.533697,444.123565,9918.759623
100.021151,842.705048,-74.020594,9548.656652
100.021459,919.314598,148.041188,9696.697840
100.021767,1072.533697,444.123565,9474.636058
100.022075,919.314598,-0.000000,9548.656652
100.022382,612.876398,296.082377,9622.677246
100.022690,459.657299,148.041188,9474.636058
100.022998,459.657299,-0.000000,9548.656652
100.023306,306.438199,-296.082377,9548.656652
100.023614,1149.143247,-148.041188,9696.697840
100.023922,1225.752797,74.020594,9696.697840
100.024230,842.705048,222.061783,9326.594869
100.024538,995.924147,296.082377,9474.636058
100.024846,919.314598,222.061783,9474.636058
100.025154,842.705048,444.123565,9696.697840
100.025462,919.314598,370.102971,9474.636058
100.025770,612.876398,-0.000000,9770.718434
100.026078,995.924147,-222.061783,9474.636058
100.026386,919.314598,-0.000000,9992.780217
100.026693,689.485948,-0.000000,9770.718434
100.027001,383.047749,-0.000000,9622.677246
100.027309,689.485948,-0.000000,9622.677246
100.027617,842.705048,444.123565,9474.636058
100.027925,612.876398,148.041188,9622.677246
100.028233,842.705048,444.123565,9622.677246
100.028541,919.314598,222.061783,9326.594869
100.028849,1149.143247,148.041188,9474.636058
100.029157,1072.533697,-0.000000,9474.636058
100.029465,995.924147,148.041188,9474.636058
100.029773,689.485948,148.041188,9622.677246
100.030081,1072.533697,-0.000000,9622.677246
100.030389,842.705048,-148.041188,9400.615463
100.030696,919.314598,-148.041188,9770.718434
100.031004,306.438199,-0.000000,9844.739029
100.031312,995.924147,-148.041188,9474.636058
100.031620,995.924147,370.102971,9474.636058
100.031928,919.314598,222.061783,9400.615463
100.032236,1149.143247,370.102971,9474.636058
100.032544,919.314598,592.164754,9474.636058
100.032852,842.705048,222.061783,9548.656652
100.033160,766.095498,444.123565,9622.677246
100.033468,995.924147,370.102971,9696.697840
100.033776,766.095498,-74.020594,9622.677246
100.034084,842.705048,-0.000000,9770.718434
100.034392,459.657299,-0.000000,9770.718434
100.034700,536.266849,-74.020594,9918.759623
100.035007,536.266849,-0.000000,9770.718434
100.035315,919.314598,-222.061783,9844.739029
100.035623,766.095498,222.061783,9400.615463
100.035931,842.705048,-0.000000,9696.697840
100.036239,766.095498,-0.000000,9474.636058
100.036547,842.705048,444.123565,9548.656652
100.036855,919.314598,444.123565,9400.615463
100.037163,1149.143247,666.185348,9104.533087
100.037471,1378.971896,666.185348,9178.553681
100.037779,1149.143247,666.185348,9548.656652
100.038087,919.314598,444.123565,9326.594869
100.038395,1378.971896,370.102971,9400.615463
100.038703,995.924147,444.123565,9474.636058
100.039010,459.657299,-0.000000,9548.656652
100.039318,76.609550,-74.020594,9992.780217
100.039626,153.219100,-0.000000,9918.759623
100.039934,0.000000,-0.000000,9844.739029
100.040242,0.000000,-222.061783,9844.739029
100.040550,766.095498,296.082377,9696.697840
100.040858,612.876398,-0.000000,9770.718434
100.041166,459.657299,370.102971,9696.697840
100.041474,536.266849,-0.000000,9622.677246
100.041782,612.876398,148.041188,9696.697840
100.042090,383.047749,-0.000000,9474.636058
100.042398,689.485948,-74.020594,9918.759623
100.042706,536.266849,-0.000000,9696.697840
100.043014,229.828649,-296.082377,9548.656652
100.043321,995.924147,-0.000000,9844.739029
100.043629,383.047749,-0.000000,9400.615463
100.043937,459.657299,148.041188,9474.636058
100.044245,612.876398,518.144159,9474.636058
100.044553,919.314598,518.144159,9178.553681
100.044861,1149.143247,888.247130,9622.677246
100.045169,766.095498,518.144159,9030.512492
100.045477,995.924147,296.082377,9178.553681
100.045785,919.314598,-0.000000,9474.636058
100.046093,459.657299,444.123565,9474.636058
100.046401,229.828649,-0.000000,9548.656652
100.046709,0.000000,-0.000000,9770.718434
100.047017,0.000000,-0.000000,9918.759623
100.047325,0.000000,222.061783,9992.780217
100.047632,383.047749,-74.020594,10066.800811
100.047940,383.047749,-74.020594,9548.656652
100.048248,153.219100,-0.000000,9696.697840
100.048556,229.828649,-0.000000,10066.800811
100.048864,306.438199,222.061783,9696.697840
100.049172,76.609550,296.082377,9474.636058
100.049480,459.657299,296.082377,9548.656652
100.049788,459.657299,222.061783,9474.636058
100.050096,383.047749,370.102971,9400.615463
100.050404,689.485948,444.123565,9474.636058
100.050712,0.000000,-0.000000,9474.636058
100.051020,612.876398,-0.000000,9474.636058
100.051328,229.828649,148.041188,9622.677246
100.051635,383.047749,-0.000000,9474.636058
100.051943,383.047749,222.061783,9474.636058
100.052251,766.095498,-0.000000,9622.677246
100.052559,383.047749,-0.000000,9770.718434
100.052867,536.266849,-0.000000,9696.697840
100.053175,229.828649,222.061783,9622.677246
100.053483,0.000000,-0.000000,9474.636058
100.053791,153.219100,222.061783,9622.677246
100.054099,306.438199,148.041188,9474.636058
100.054407,0.000000,148.041188,9696.697840
100.054715,459.657299,-0.000000,9474.636058
100.055023,229.828649,-0.000000,9992.780217
100.055331,0.000000,-296.082377,9844.739029
100.055639,536.266849,-370.102971,9770.718434
100.055946,306.438199,-0.000000,9844.739029
100.056254,306.438199,-0.000000,9770.718434
100.056562,459.657299,222.061783,9548.656652
100.056870,612.876398,-0.000000,9474.636058
100.057178,1302.362347,444.123565,9474.636058
100.057486,919.314598,296.082377,9400.615463
100.057794,919.314598,-0.000000,9474.636058
100.058102,1532.190996,148.041188,9622.677246
100.058410,919.314598,370.102971,9474.636058
100.058718,995.924147,444.123565,9474.636058
100.059026,995.924147,148.041188,9548.656652
100.059334,995.924147,-74.020594,9696.697840
100.059642,1072.533697,-74.020594,9770.718434
100.059949,766.095498,-222.061783,10066.800811
100.060257,919.314598,-222.061783,10066.800811
100.060565,612.876398,222.061783,9844.739029
100.060873,919.314598,148.041188,9770.718434
100.061181,1149.143247,222.061783,9474.636058
100.061489,1225.752797,370.102971,9548.656652
100.061797,1455.581446,666.185348,9474.636058
100.062105,1225.752797,222.061783,9474.636058
100.062413,689.485948,740.205942,9474.636058
100.062721,842.705048,592.164754,9622.677246
100.063029,1532.190996,-0.000000,9474.636058
100.063337,1302.362347,370.102971,9548.656652
100.063645,1378.971896,370.102971,9696.697840
100.063953,1072.533697,148.041188,9918.759623
100.064260,1149.143247,74.020594,9696.697840
100.064568,1608.800546,-0.000000,9548.656652
100.064876,1302.362347,-0.000000,9548.656652
100.065184,1302.362347,296.082377,9474.636058
100.065492,1455.581446,518.144159,9844.739029
100.065800,1225.752797,444.123565,9474.636058
100.066108,1149.143247,740.205942,9474.636058
100.066416,1149.143247,666.185348,9696.697840
100.066724,1149.143247,518.144159,9548.656652
100.067032,1149.143247,518.144159,9474.636058
100.067340,995.924147,222.061783,9474.636058
100.067648,842.705048,-0.000000,9844.739029
100.067956,842.705048,-148.041188,9918.759623
100.068264,536.266849,-0.000000,9918.759623
100.068571,536.266849,-0.000000,9918.759623
100.068879,689.485948,-222.061783,9622.677246
100.069187,842.705048,-0.000000,9770.718434
100.069495,689.485948,-0.000000,9844.739029
100.069803,1225.752797,370.102971,9474.636058
100.070111,766.095498,592.164754,9326.594869
100.070419,995.924147,592.164754,9474.636058
100.070727,1302.362347,592.164754,9030.512492
100.071035,1149.143247,666.185348,9030.512492
100.071343,689.485948,592.164754,9104.533087
100.071651,919.314598,518.144159,9400.615463
100.071959,459.657299,-0.000000,9326.594869
100.072267,76.609550,-0.000000,9770.718434
100.072574,76.609550,-0.000000,10066.800811
100.072882,0.000000,-592.164754,9918.759623
100.073190,0.000000,-222.061783,9918.759623
100.073498,-153.219100,-296.082377,9992.780217
100.073806,0.000000,-0.000000,9696.697840
100.074114,0.000000,-0.000000,9770.718434
100.074422,229.828649,-222.061783,9622.677246
100.074730,0.000000,518.144159,9104.533087
100.075038,0.000000,-0.000000,9326.594869
100.075346,306.438199,222.061783,9474.636058
100.075654,306.438199,-0.000000,9326.594869
100.075962,153.219100,-0.000000,9474.636058
100.076270,0.000000,-0.000000,9474.636058
100.076578,0.000000,-74.020594,9622.677246
100.076885,0.000000,-518.144159,10066.800811
100.077193,0.000000,-0.000000,9696.697840
100.077501,229.828649,-370.102971,9622.677246
100.077809,153.219100,370.102971,9696.697840
100.078117,536.266849,370.102971,9252.574275
100.078425,612.876398,592.164754,9252.574275
100.078733,689.485948,666.185348,8882.471304
100.079041,1149.143247,1036.288319,8956.491898
100.079349,306.438199,666.185348,9178.553681
100.079657,306.438199,444.123565,9770.718434
100.079965,0.000000,-0.000000,9918.759623
100.080273,-153.219100,-148.041188,10066.800811
100.080581,-153.219100,-0.000000,10066.800811
100.080889,-459.657299,-370.102971,10140.821405
100.081196,-229.828649,-296.082377,10288.862594
100.081504,0.000000,-814.226536,9770.718434
100.081812,306.438199,-148.041188,9918.759623
100.082120,612.876398,-0.000000,9548.656652
100.082428,995.924147,370.102971,9696.697840
100.082736,995.924147,962.267725,9622.677246
100.083044,1072.533697,814.226536,8956.491898
100.083352,1225.752797,666.185348,8956.491898
100.083660,612.876398,666.185348,9252.574275
100.083968,919.314598,518.144159,9326.594869
100.084276,689.485948,518.144159,9474.636058
100.084584,766.095498,148.041188,9474.636058
100.084892,459.657299,-296.082377,9696.697840
100.085199,229.828649,-222.061783,9918.759623
100.085507,229.828649,-74.020594,9770.718434
100.085815,536.266849,-0.000000,9992.780217
100.086123,536.266849,-0.000000,9622.677246
100.086431,1149.143247,592.164754,9548.656652
100.086739,995.924147,444.123565,9918.759623
100.087047,1072.533697,222.061783,9622.677246
100.087355,919.314598,518.144159,9474.636058
100.087663,842.705048,592.164754,9474.636058
100.087971,612.876398,296.082377,9400.615463
100.088279,612.876398,222.061783,9474.636058
100.088587,612.876398,-0.000000,9844.739029
100.088895,689.485948,296.082377,9918.759623
100.089203,919.314598,-148.041188,9770.718434
100.089510,459.657299,-0.000000,9918.759623
100.089818,919.314598,-0.000000,9696.697840
100.090126,766.095498,148.041188,9474.636058
100.090434,995.924147,296.082377,9474.636058
100.090742,919.314598,666.185348,9326.594869
100.091050,995.924147,518.144159,9252.574275
100.091358,1532.190996,444.123565,9474.636058
100.091666,1149.143247,666.185348,9474.636058
100.091974,689.485948,666.185348,9844.739029
100.092282,153.219100,-0.000000,9622.677246
100.092590,459.657299,-0.000000,9696.697840
100.092898,459.657299,-222.061783,9696.697840
