#time,accel_x,accel_y,accel_z
847.811730,-153.140646,-861.416136,-9494.720077
847.814398,-114.855485,-880.558717,-9628.718142
847.817066,-133.998066,-918.843878,-9513.862658
847.819734,-114.855485,-957.129040,-9552.147819
847.822403,-133.998066,-899.701298,-9513.862658
847.825071,-76.570323,-861.416136,-9590.432981
847.827739,-76.570323,-937.986459,-9628.718142
847.830407,-133.998066,-899.701298,-9513.862658
847.833075,-76.570323,-899.701298,-9686.145885
847.835744,-133.998066,-823.130974,-9705.288466
847.838412,-76.570323,-880.558717,-9647.860723
847.841080,-76.570323,-899.701298,-9686.145885
847.843748,-57.427742,-880.558717,-9686.145885
847.846416,-57.427742,-918.843878,-9571.290400
847.849084,-95.712904,-861.416136,-9571.290400
847.851753,-0.000000,-861.416136,-9705.288466
847.854421,76.570323,-1244.267752,-9379.864592
847.857089,-153.140646,-1071.984525,-9667.003304
847.859757,287.138712,-1703.689691,-9533.005238
847.862425,-95.712904,-2756.531635,-9035.298138
847.865093,-478.564520,-4785.645200,-10241.280728
847.867762,153.140646,-9552.147819,-8671.589102
847.870430,-918.843878,-9973.284597,-11121.839445
847.873098,172.283227,-8748.159426,-9896.714274
847.875766,497.707101,-5474.778109,-6795.616184
847.878434,-497.707101,2354.537438,-12538.390424
847.881103,114.855485,2699.103893,-8020.741355
847.883771,-1550.549045,669.990328,-7542.176835
847.886010,612.562586,-5589.633594,-10719.845248
847.888250,-478.564520,-5589.633594,-12174.681389
847.890489,38.285162,-7791.030386,-11562.118803
847.892729,2163.111630,-10719.845248,-2411.965181
847.894969,-2718.246474,-1933.400661,-13093.525267
847.897208,937.986459,-1225.125171,-16041.482710
847.899448,-1052.841944,19.142581,-2507.678085
847.901687,2488.535504,-4479.363907,-7599.604578
847.903927,-1205.982590,-689.132909,-16960.326589
847.906166,325.423874,-2545.963246,-4728.217458
847.908406,497.707101,-5781.059402,-13342.378818
847.910646,-1244.267752,-5053.641331,-8977.870395
847.912885,421.136778,-1359.123237,-8097.311678
847.915125,-574.277424,2756.531635,-11447.263318
847.917364,-401.994197,1971.685822,-9207.581365
847.919604,-765.703232,2986.242605,-5953.342629
847.921843,459.421939,1531.406464,-10356.136213
847.924083,-842.273555,-669.990328,-11638.689126
847.926323,1665.404530,-6585.047795,-4900.500685
847.928562,-1531.406464,-4364.508422,-10758.130410
847.930802,-3349.951640,-1512.263883,-15467.205286
847.933041,5493.920690,-3866.801322,-3254.238736
847.935281,-4517.649069,3656.232933,-11026.126541
847.937520,2660.818731,1071.984525,-13591.232368
847.939760,-1416.550979,2679.961312,-4019.941968
847.942000,-172.283227,-918.843878,-15696.916256
847.944239,-172.283227,-2584.248408,-7829.315547
847.946479,-344.566454,-3292.523898,-6910.471669
847.948718,516.849682,-3598.805190,-12672.388490
847.950958,-1454.836141,-1225.125171,-8786.444587
847.953198,4823.930362,-4402.793584,-5876.772306
847.955437,-2871.387120,2526.820666,-15639.488514
847.957677,-5359.922624,5781.059402,-11791.829773
847.959916,7082.754896,-3828.516160,-3522.234867
847.962156,-6929.614250,5130.211654,-10911.271056
847.964395,3369.094221,-5359.922624,-13265.808494
847.966635,4632.504554,-7389.036189,-2009.970984
847.968875,-7561.319416,497.707101,-14586.646570
847.971114,5666.203917,-6642.475538,-13361.521398
847.973354,-4345.365842,4594.219392,3254.238736
847.975770,2679.961312,-1895.115499,-27259.035059
847.978185,-1512.263883,3388.236802,-3464.807125
847.980601,248.853550,689.132909,-1741.974853
847.983017,-133.998066,-2469.392923,-22320.249213
847.985433,-1627.119368,-1607.976787,-3081.955509
847.987849,2871.387120,-5149.354235,-3981.656806
847.990265,-1914.258080,-3254.238736,-20463.418875
847.992681,-995.414202,229.710970,-3081.955509
847.995096,1761.117434,248.853550,-8422.735552
847.997512,1205.982590,-555.134843,-16405.191746
847.999928,-2565.105827,2699.103893,-4862.215523
848.002344,2488.535504,-2029.113565,-8288.737486
848.004760,-3541.377448,-325.423874,-14988.640766
848.007176,57.427742,-2354.537438,-5895.914886
848.009592,1359.123237,-2277.967115,-8116.454259
848.012007,-3062.812928,497.707101,-10030.712339
848.014423,3694.518094,-2967.100024,-10604.989763
848.016839,-1301.695494,114.855485,-7331.608446
848.019255,-4211.367776,4287.938099,-14146.367211
848.021671,4996.213589,-3732.803256,-3273.381317
848.024087,2009.970984,-3196.810994,-13706.087853
848.026503,-5206.781978,1665.404530,-11504.691061
848.028918,2526.820666,-2354.537438,-1320.838075
848.031334,-401.994197,-2220.539373,-18568.303376
848.033750,-1148.554848,-344.566454,-9647.860723
848.036166,1129.412267,-727.418070,-3196.810994
848.038582,-669.990328,-459.421939,-17419.748528
848.040998,-1033.699363,459.421939,-6929.614250
848.043414,3675.375514,-3369.094221,-3464.807125
848.045829,-4498.506488,2335.394858,-18778.871765
848.048245,3637.090352,-2986.242605,995.414202
848.050661,-1856.830338,191.425808,-16481.762069
848.053077,2871.387120,-2871.387120,-10451.849117
848.055493,-2450.250342,689.132909,-4402.793584
848.057909,-210.568389,-2373.680019,-12098.111066
848.060325,2354.537438,-4019.941968,-17324.035624
848.062741,-2813.959378,2431.107762,669.990328
848.065156,1971.685822,-1741.974853,-13725.230434
848.067572,-2201.396792,669.990328,-14778.072378
848.069988,2928.814862,-1837.687757,957.129040
848.072488,-2986.242605,1263.410333,-18817.156926
848.074988,-1933.400661,1225.125171,-11696.116869
848.077487,3235.096155,-2986.242605,401.994197
848.079987,-1607.976787,-2622.533570,-15869.199483
848.082487,516.849682,-3139.383251,-8882.157491
848.084987,3522.234867,-3483.949706,-3924.229064
848.087487,-4862.215523,3292.523898,-14318.650438
848.089986,3464.807125,-1550.549045,-12806.386555
848.092486,-2048.256146,2354.537438,-1837.687757
848.094986,650.847747,-516.849682,-16539.189811
848.097486,-382.851616,-382.851616,-10317.851051
848.099985,-957.129040,-76.570323,-2201.396792
848.102485,880.558717,-4096.512291,-16826.328523
848.104985,-2392.822600,-1569.691626,-7255.038123
848.107485,555.134843,-2277.967115,-7829.315547
848.109985,535.992262,-1339.980656,-14510.076246
848.112484,-899.701298,1301.695494,-5359.922624
848.114984,1397.408398,57.427742,-9456.434915
848.117484,-1033.699363,267.996131,-12653.245909
848.119984,612.562586,-401.994197,-4230.510357
848.122483,555.134843,-2373.680019,-13495.519464
848.124983,-2297.109696,-1091.127106,-9915.856854
848.127483,1512.263883,-3579.662610,-5819.344563
848.129983,-2469.392923,-1473.978722,-10241.280728
848.132483,-95.712904,-57.427742,-15371.492382
848.134982,3713.660675,-1722.832272,-1780.260014
848.137482,-4153.940034,3637.090352,-12346.964616
848.139982,1971.685822,-1550.549045,-13629.517530
848.142482,-57.427742,325.423874,-3483.949706
848.144982,-1454.836141,-1263.410333,-11045.269122
848.147481,1320.838075,-3522.234867,-14356.935600
848.149981,-1703.689691,-957.129040,-1378.265818
848.152339,1799.402595,-3522.234867,-15639.488514
848.154692,-2507.678085,-210.568389,-7944.171032
848.157045,4134.797453,-2488.535504,-7293.323285
848.159399,-1129.412267,727.418070,-12557.533005
848.161752,-4460.221326,4613.361973,-2507.678085
848.164105,4039.084549,-4651.647134,-18472.590472
848.166459,-2967.100024,287.138712,-4575.076811
848.168812,765.703232,-2545.963246,-6719.045861
848.171165,957.129040,-4249.652938,-16328.621422
848.173518,-2584.248408,248.853550,-4039.084549
848.175872,2354.537438,-3560.520029,-9437.292334
848.178225,-3273.381317,1397.408398,-13036.097525
848.180578,1741.974853,-267.996131,-10068.997501
848.182932,1397.408398,-57.427742,-4498.506488
848.185285,-2469.392923,1741.974853,-15390.634963
848.187638,2909.672282,-1799.402595,-10470.991698
848.189992,-3215.953574,459.421939,-5532.205851
848.192345,363.709035,-3445.664544,-16213.765938
848.194698,1129.412267,-2737.389054,-6738.188442
848.197052,-1952.543242,-459.421939,-6163.911018
848.199405,1225.125171,-2297.109696,-15773.486579
848.201758,-153.140646,-38.285162,-6374.479406
848.204111,-459.421939,459.421939,-7197.610381
848.206465,650.847747,-746.560651,-13878.371080
848.208818,-1301.695494,325.423874,-5991.627790
848.211171,-516.849682,-1186.840010,-7810.172966
848.213525,1627.119368,-3579.662610,-18338.592406
848.215878,-210.568389,-1301.695494,-4307.080680
848.218231,-918.843878,650.847747,-6833.901346
848.220585,1416.550979,-1473.978722,-18051.453694
848.222938,-2297.109696,1378.265818,-2641.676150
848.225291,1722.832272,-535.992262,-12940.384621
848.227645,3828.516160,-2756.531635,-14299.507858
848.229998,-5417.350366,3311.666478,631.705166
848.232351,1741.974853,-3828.516160,-12882.956878
848.234705,-784.845813,-2679.961312,-18606.588538
848.237058,-421.136778,-1033.699363,3809.373579
848.239411,3809.373579,-4881.358104,-14395.220762
848.241764,-6029.912952,3062.812928,-18970.297573
848.244118,2201.396792,1301.695494,4747.360038
848.246565,2009.970984,-1014.556782,-16500.904650
848.249013,-5149.354235,2641.676150,-11179.267187
848.251461,2890.529701,-2909.672282,-1167.697429
848.253909,-1607.976787,-1799.402595,-14490.933666
848.256356,1052.841944,-3005.385186,-15716.058837
848.258804,-0.000000,-1339.980656,3847.658741
848.261252,114.855485,-1033.699363,-18319.449826
848.263699,-1110.269686,19.142581,-10681.560086
848.266147,3407.379382,-1454.836141,2277.967115
848.268595,-3196.810994,976.271621,-23736.800192
848.271043,-3081.955509,3790.230998,-8441.878133
848.273490,7905.885870,-4996.213589,-1148.554848
848.275938,-1875.972918,-995.414202,-10030.712339
848.278386,-5627.918755,2316.252277,-15696.916256
848.280833,7427.321350,-7101.897477,-6144.768437
848.283281,-6049.055533,2277.967115,-8365.307810
848.285729,1263.410333,-2450.250342,-13533.804626
848.288177,1071.984525,-708.275490,-3751.945837
848.290624,-1722.832272,1339.980656,-11198.409768
848.293072,4096.512291,-3943.371645,-12404.392358
848.295520,-4364.508422,2354.537438,-7044.469734
848.297967,3005.385186,-2220.539373,-8441.878133
848.300415,-650.847747,-689.132909,-14376.078181
848.302863,1550.549045,-918.843878,-5742.774240
848.305310,555.134843,-1837.687757,-12672.388490
848.307758,-6719.045861,4230.510357,-7082.754896
848.310206,8346.165229,-7331.608446,-13208.380752
848.312654,-6087.340694,1780.260014,-7886.743290
848.315101,1205.982590,-2335.394858,-6221.338760
848.317549,1550.549045,-3445.664544,-15562.918190
848.319997,535.992262,-1052.841944,-1454.836141
848.322444,-2775.674216,191.425808,-18453.447891
848.324892,-555.134843,2029.113565,-8020.741355
848.327340,1761.117434,-1320.838075,-4862.215523
848.329788,-1493.121302,57.427742,-12672.388490
848.332235,267.996131,-1722.832272,-13131.810429
848.334683,-172.283227,-1244.267752,-4307.080680
848.337131,-287.138712,-2622.533570,-20865.413072
848.339578,-1416.550979,-516.849682,-1033.699363
848.342026,248.853550,-2009.970984,-9762.716208
848.344535,2277.967115,-2947.957443,-14912.070443
848.347043,-4498.506488,3675.375514,-1856.830338
848.349552,3675.375514,-3177.668413,-13648.660110
848.352060,-2986.242605,1301.695494,-11332.407834
848.354569,-57.427742,38.285162,-3522.234867
848.357077,1703.689691,-2469.392923,-12289.536874
848.359586,-2469.392923,-459.421939,-10777.272990
848.362095,1588.834206,-2660.818731,-5053.641331
848.364603,-1071.984525,-1952.543242,-12710.673651
848.367112,-2086.541307,880.558717,-10872.985894
848.369620,3981.656806,-3369.094221,-8633.303941
848.372129,-3617.947771,1665.404530,-9858.429112
848.374637,1186.840010,-1052.841944,-9360.722011
848.377146,-478.564520,-784.845813,-9207.581365
848.379654,-1263.410333,478.564520,-9743.573627
848.382163,1588.834206,-2813.959378,-11868.400096
848.384672,-2297.109696,-76.570323,-4804.787781
848.387180,4421.936165,-5666.203917,-11428.120738
848.389689,-7082.754896,2469.392923,-11619.546546
848.392197,4938.785846,-3369.094221,-5034.498750
848.394706,-1416.550979,593.420005,-12576.675586
848.397214,-1435.693560,1703.689691,-9418.149754
848.399723,1741.974853,-1167.697429,-12653.245909
848.402231,-114.855485,-574.277424,-5359.922624
848.404740,-957.129040,-497.707101,-15467.205286
848.407249,880.558717,-2201.396792,-7580.461997
848.409757,-1301.695494,-1627.119368,-8671.589102
848.412266,-382.851616,-1263.410333,-13361.521398
848.414774,918.843878,-535.992262,-2928.814862
848.417283,-2220.539373,3828.516160,-17132.609816
848.419791,2143.969050,4000.799387,-5015.356170
848.422300,-1856.830338,7197.610381,-6412.764568
848.424808,1301.695494,4651.647134,-15505.490448
848.427317,-1990.828403,5245.067139,-9322.436850
848.429826,1339.980656,-153.140646,-3675.375514
848.432334,1091.127106,-3388.236802,-14854.642701
848.434843,-2699.103893,2431.107762,-11638.689126
848.437351,2392.822600,-1531.406464,-6489.334891
848.439860,-1378.265818,-153.140646,-11102.696864
848.442368,-153.140646,4862.215523,-11868.400096
848.444912,248.853550,5704.489078,-8480.163294
848.447456,-1244.267752,6393.621987,-13706.087853
848.450000,1320.838075,2086.541307,-7293.323285
848.452544,-899.701298,1895.115499,-7063.612315
848.455088,153.140646,-593.420005,-15026.925928
848.457632,-306.281293,-191.425808,-7542.176835
848.460176,133.998066,38.285162,-7427.321350
848.462719,-19.142581,689.132909,-13935.798822
848.465263,-765.703232,3522.234867,-8327.022648
848.467807,746.560651,3656.232933,-7408.178770
848.470351,-1607.976787,421.136778,-12289.536874
848.472895,842.273555,-2067.398726,-9705.288466
848.475439,-1033.699363,765.703232,-7465.606512
848.477983,516.849682,459.421939,-11715.259450
848.480527,-363.709035,3751.945837,-9954.142016
848.483071,478.564520,6355.336826,-8059.026517
848.485614,-1033.699363,8690.731683,-13093.525267
848.488158,1186.840010,5417.350366,-6661.618118
848.490702,-708.275490,4115.654872,-8193.024582
848.493246,-153.140646,650.847747,-15026.925928
848.495790,-267.996131,-4230.510357,-5742.774240
848.498334,172.283227,-2775.674216,-8920.442653
848.500878,-421.136778,-325.423874,-13725.230434
848.503422,-497.707101,2679.961312,-8729.016845
848.505966,344.566454,5723.631659,-8805.587168
848.508509,95.712904,5283.352301,-10145.567824
848.511053,1014.556782,5723.631659,-9207.581365
848.513597,-2124.826469,6240.481341,-9475.577496
848.516141,823.130974,-1320.838075,-13246.665914
848.518685,-1320.838075,-1531.406464,-6527.620053
848.521229,-535.992262,-1129.412267,-11562.118803
848.523773,1052.841944,-19.142581,-16366.906584
848.526317,-229.710970,2450.250342,-2488.535504
848.528860,-1129.412267,4153.940034,-12327.822035
848.531404,1397.408398,1339.980656,-13227.523333
848.533948,-2067.398726,2163.111630,-3732.803256
848.536492,1339.980656,-3751.945837,-10394.421374
848.539036,1225.125171,-5264.209720,-12174.681389
848.541580,-3617.947771,-1933.400661,-1875.972918
848.544124,3483.949706,-7503.891674,-15984.054968
848.546687,-3024.527766,363.709035,-9245.866526
848.549251,2182.254211,-842.273555,-6029.912952
848.551815,-2124.826469,2928.814862,-14127.224630
848.554378,2182.254211,765.703232,-9303.294269
848.556942,-842.273555,3292.523898,-3617.947771
848.559506,1129.412267,-2182.254211,-15314.064640
848.562069,-2526.820666,-1550.549045,-7465.606512
848.564633,2105.683888,-5398.207786,-4555.934230
848.567196,-2450.250342,-2813.959378,-17802.600144
848.569760,2182.254211,-2182.254211,-4153.940034
848.572324,-248.853550,-133.998066,-7427.321350
848.574887,-3349.951640,3541.377448,-15811.771741
848.577451,4996.213589,-2909.672282,-4230.510357
848.580015,-3656.232933,2660.818731,-7274.180704
848.582578,957.129040,-3120.240670,-16443.476907
848.585142,1722.832272,-3273.381317,-6412.764568
848.587706,-2163.111630,-1244.267752,-6680.760699
848.590269,1665.404530,-3407.379382,-16175.480776
848.592833,-995.414202,-38.285162,-5723.631659
848.595396,172.283227,1033.699363,-7503.891674
848.597960,918.843878,210.568389,-13878.371080
848.600524,-1856.830338,2124.826469,-3215.953574
848.603087,2871.387120,-4019.941968,-5838.487144
848.605651,-5800.201982,-287.138712,-25727.628595
848.608215,-459.421939,401.994197,3656.232933
848.610778,5187.639397,-5953.342629,-9456.434915
848.613342,-6087.340694,2258.824534,-20482.561456
848.615906,3349.951640,-1895.115499,-3637.090352
848.618469,1665.404530,0.000000,-3388.236802
848.621033,-8154.739421,2029.113565,-20750.557587
848.623596,9590.432981,-5704.489078,-6853.043926
848.626160,-4555.934230,3215.953574,4575.076811
848.628724,-784.845813,516.849682,-27335.605382
848.631287,2450.250342,-1627.119368,-3943.371645
848.633851,-421.136778,459.421939,-1531.406464
848.636415,-5781.059402,861.416136,-19219.151123
848.638978,4000.799387,-4479.363907,-5111.069074
848.641542,1052.841944,-3196.810994,-5283.352301
848.644105,-2565.105827,-1359.123237,-16615.760134
848.646669,325.423874,-1550.549045,-11810.972354
848.649246,-1741.974853,880.558717,3790.230998
848.651823,3943.371645,-823.130974,-22281.964051
848.654400,-4249.652938,4957.928427,-1646.261949
848.656977,4077.369710,-1646.261949,-8365.307810
848.659554,-3809.373579,535.992262,-15830.914322
848.662131,1895.115499,-2947.957443,-6853.043926
848.664708,-0.000000,-3139.383251,-7235.895542
848.667285,-2239.681954,-1627.119368,-16807.185942
848.669862,1071.984525,-2201.396792,-1895.115499
848.672440,2239.681954,-1741.974853,-7025.327154
848.675017,-4555.934230,2392.822600,-19410.576931
848.677594,8250.452325,-5876.772306,-1780.260014
848.680171,-3732.803256,2813.959378,-5876.772306
848.682748,-727.418070,-421.136778,-18089.738856
848.685325,3464.807125,-2775.674216,-7369.893608
848.687902,-3139.383251,1320.838075,-861.416136
848.690479,1569.691626,-2545.963246,-20750.557587
848.693056,650.847747,-1818.545176,-5627.918755
848.695633,823.130974,-1550.549045,-4766.502619
848.698210,-3962.514226,918.843878,-21611.973723
848.700787,2182.254211,0.000000,-1531.406464
848.703364,-2086.541307,-76.570323,-6297.909083
848.705941,1588.834206,-2909.672282,-22224.536309
848.708518,593.420005,-746.560651,-1703.689691
848.711095,-1378.265818,287.138712,-6585.047795
848.713672,-38.285162,-1512.263883,-16788.043362
848.716249,-2143.969050,1263.410333,669.990328
848.718826,3254.238736,-2411.965181,-10432.706536
848.721403,-535.992262,-2660.818731,-19046.867896
848.723980,-3235.096155,1952.543242,-2086.541307
848.726557,3598.805190,-3024.527766,-7791.030386
848.729134,-3235.096155,1320.838075,-17438.891109
848.731711,-861.416136,-746.560651,-3598.805190
848.734289,5091.926493,-3598.805190,-9667.003304
848.736866,-7197.610381,3483.949706,-10126.425243
848.739443,5474.778109,-5321.637462,-9284.151688
848.742020,-3235.096155,708.275490,-6853.043926
848.744597,-172.283227,-803.988394,-15294.922059
848.747174,1397.408398,-1033.699363,-2947.957443
848.749751,172.283227,-1397.408398,-13399.806560
848.752333,-287.138712,-957.129040,-11217.552349
848.754915,-57.427742,-535.992262,-3560.520029
848.757498,-440.279358,-1205.982590,-16003.197549
848.760080,-2775.674216,19.142581,-8269.594906
848.762662,5015.356170,-3713.660675,-7944.171032
848.765244,-5781.059402,2277.967115,-6374.479406
848.767827,3254.238736,-3254.238736,-19046.867896
848.770409,-1531.406464,1091.127106,-516.849682
848.772991,-1129.412267,516.849682,-12040.683323
848.775574,2928.814862,-3254.238736,-12346.964616
848.778156,-2297.109696,-76.570323,-5647.061336
848.780738,1225.125171,-1933.400661,-12078.968485
848.783320,287.138712,-2431.107762,-10758.130410
848.785903,-612.562586,-497.707101,-8748.159426
848.788485,-1914.258080,-861.416136,-8365.307810
848.791067,3771.088418,-2545.963246,-11332.407834
848.793650,-5953.342629,4058.227130,-2029.113565
848.796232,4479.363907,-3617.947771,-18625.731118
848.798814,-3675.375514,1339.980656,-6642.475538
848.801396,248.853550,-918.843878,-5474.778109
848.803979,1914.258080,-3139.383251,-12882.956878
848.806561,-1665.404530,-1359.123237,-10758.130410
848.809143,842.273555,-1148.554848,-7369.893608
848.811726,574.277424,-1703.689691,-9552.147819
848.814308,-497.707101,-57.427742,-14778.072378
848.816890,-1473.978722,-535.992262,-5034.498750
848.819472,3120.240670,-1225.125171,-12251.251712
848.822055,-1799.402595,708.275490,-8116.454259
848.824637,1225.125171,-1205.982590,-10949.556218
848.827219,-689.132909,-344.566454,-9934.999435
848.829802,-191.425808,-287.138712,-8863.014910
848.832384,2794.816797,-3503.092286,-5513.063270
848.834966,363.709035,-2163.111630,-13399.806560
848.837548,-2067.398726,-1818.545176,-6967.899411
848.840131,-2450.250342,-1531.406464,-17534.604013
848.842713,1952.543242,191.425808,-4000.799387
848.845295,-76.570323,593.420005,-10126.425243
848.847878,38.285162,1837.687757,-14644.074312
848.850460,-344.566454,689.132909,-2679.961312
848.853042,-19.142581,-918.843878,-12270.394293
848.855628,-287.138712,-2890.529701,-14222.937534
848.858213,-3828.516160,1167.697429,-6106.483275
848.860799,4651.647134,-4460.221326,-2852.244539
848.863385,-1703.689691,-1301.695494,-18989.440154
848.865970,-2009.970984,344.566454,-11064.411702
848.868556,2392.822600,-1454.836141,-4747.360038
848.871142,-2833.101958,1205.982590,-19468.004674
848.873727,2890.529701,-2699.103893,-5991.627790
848.876313,976.271621,-803.988394,-4823.930362
848.878899,-4421.936165,727.418070,-17668.602078
848.881484,4039.084549,-4000.799387,-7561.319416
848.884070,-2833.101958,-306.281293,-5111.069074
848.886656,861.416136,-1895.115499,-14854.642701
848.889241,1646.261949,-1837.687757,-8384.450390
848.891827,-2431.107762,3292.523898,-4153.940034
848.894412,4115.654872,-4211.367776,-14356.935600
848.896998,-5072.783912,3005.385186,-15428.920125
848.899584,2679.961312,-593.420005,-421.136778
848.902169,-803.988394,-1397.408398,-14816.357539
848.904755,-1110.269686,-401.994197,-10643.274925
848.907341,-3292.523898,-248.853550,-3924.229064
848.909926,1301.695494,-3062.812928,-21152.551784
848.912512,-1952.543242,-1952.543242,-3483.949706
848.915098,1473.978722,-746.560651,-9207.581365
848.917683,-784.845813,708.275490,-12787.243974
848.920269,1282.552914,363.709035,-6546.762634
848.922855,-2105.683888,1320.838075,-10624.132344
848.925440,459.421939,-114.855485,-12136.396227
848.928026,-478.564520,-1186.840010,-5685.346498
848.930612,-459.421939,-2469.392923,-11562.118803
848.933197,1435.693560,-3311.666478,-9475.577496
848.935783,-4077.369710,382.851616,-7618.747158
848.938368,2967.100024,-3847.658741,-14758.929797
848.940954,-3962.514226,95.712904,-6795.616184
848.943540,3637.090352,-2067.398726,-11332.407834
848.946125,-3005.385186,2297.109696,-8461.020714
848.948711,1818.545176,-229.710970,-9973.284597
848.951297,-593.420005,-133.998066,-9284.151688
848.953882,-765.703232,-76.570323,-9322.436850
848.956468,765.703232,-3139.383251,-12423.534939
848.959053,19.142581,-2048.256146,-4421.936165
848.961639,-153.140646,-3005.385186,-16175.480776
848.964224,-823.130974,-689.132909,-5570.491013
848.966809,133.998066,-631.705166,-7542.176835
848.969394,172.283227,-210.568389,-16003.197549
848.971980,1454.836141,440.279358,-2967.100024
848.974565,-1722.832272,-210.568389,-10930.413637
848.977150,2201.396792,-3943.371645,-15180.066574
848.979736,-2488.535504,-689.132909,-3732.803256
848.982321,1818.545176,-2526.820666,-14567.503989
848.984906,-2182.254211,229.710970,-7580.461997
848.987491,2392.822600,-1665.404530,-6738.188442
848.990077,1205.982590,-2048.256146,-12614.960747
848.992662,-842.273555,57.427742,-9801.001370
848.995247,-2239.681954,1033.699363,-8556.733618
848.997833,2105.683888,-1665.404530,-8863.014910
849.000418,-1646.261949,803.988394,-8709.874264
849.003003,-784.845813,-2488.535504,-10681.560086
849.005588,2201.396792,-5187.639397,-12232.109131
849.008174,-2354.537438,-1110.269686,-5589.633594
849.010759,1703.689691,-2163.111630,-14299.507858
849.013344,-3675.375514,1493.121302,-6910.471669
849.015930,6489.334891,-3330.809059,-13916.656242
849.018515,-3809.373579,4077.369710,-6259.623922
849.021100,3790.230998,-2009.970984,-12748.958813
849.023685,-2526.820666,344.566454,-9896.714274
849.026271,1512.263883,-3407.379382,-8422.735552
849.028856,-497.707101,-3024.527766,-8384.450390
849.031441,-3483.949706,-1646.261949,-12002.398162
849.034027,4287.938099,-5034.498750,-10145.567824
849.036612,-4000.799387,1722.832272,-5206.781978
849.039197,1186.840010,229.710970,-14567.503989
849.041782,708.275490,-746.560651,-6642.475538
849.044368,1684.547110,172.283227,-10987.841379
849.046953,-3081.955509,2086.541307,-8346.165229
849.049538,5321.637462,-5493.920690,-7905.885870
849.052124,-5589.633594,631.705166,-15333.207221
849.054709,3177.668413,-3062.812928,-8403.592971
849.057294,-1378.265818,-172.283227,-5283.352301
849.059879,478.564520,574.277424,-13954.941403
849.062382,-478.564520,401.994197,-6355.336826
849.064885,191.425808,-957.129040,-9265.009107
849.067388,-1550.549045,-1952.543242,-13227.523333
849.069891,2928.814862,-6833.901346,-4364.508422
849.072393,1493.121302,-8269.594906,-11045.269122
849.074896,-3483.949706,-5417.350366,-12174.681389
849.077399,3771.088418,-8480.163294,-5130.211654
849.079902,-2756.531635,-976.271621,-14108.082050
849.082405,650.847747,-1646.261949,-8690.731683
849.084907,784.845813,-3503.092286,-9188.438784
849.087410,-267.996131,-1856.830338,-7235.895542
849.089913,-1359.123237,-708.275490,-14203.794954
849.092416,1339.980656,-7599.604578,-8078.169098
849.094919,-1607.976787,-5781.059402,-6565.905214
849.097421,1493.121302,-8135.596840,-12327.822035
849.099924,-1320.838075,-1933.400661,-9245.866526
849.102427,267.996131,-1722.832272,-8652.446522
849.104930,-287.138712,-2928.814862,-10872.985894
849.107433,191.425808,-1550.549045,-7637.889739
849.109935,172.283227,-2105.683888,-10126.425243
849.112438,-995.414202,-4211.367776,-11140.982026
849.114941,612.562586,-7408.178770,-7216.752962
849.117444,-191.425808,-6183.053598,-9035.298138
849.119947,497.707101,-957.129040,-12882.956878
849.122449,-114.855485,-57.427742,-6431.907149
849.124952,229.710970,-918.843878,-9781.858789
849.127455,344.566454,-2373.680019,-12002.398162
849.129958,-19.142581,-2813.959378,-6451.049730
849.132461,-803.988394,-4651.647134,-11026.126541
849.134963,57.427742,-10068.997501,-8901.300072
849.137466,-1052.841944,-9303.294269,-8805.587168
849.139969,574.277424,-9284.151688,-11619.546546
849.142472,114.855485,-4747.360038,-6661.618118
849.144975,-287.138712,2067.398726,-12308.679454
849.147478,-535.992262,2737.389054,-9073.583299
849.149980,-1339.980656,1875.972918,-9379.864592
849.152483,2411.965181,-5589.633594,-7025.327154
849.154986,-1378.265818,-5436.492947,-13725.230434
849.157489,-440.279358,-10528.419440,-7369.893608
849.159992,1416.550979,-10738.987829,-6431.907149
849.162516,-2086.541307,-2316.252277,-16481.762069
849.165039,937.986459,-2545.963246,-5206.781978
849.167563,-650.847747,-823.130974,-8901.300072
849.170087,421.136778,191.425808,-11466.405899
849.172610,2507.678085,-2852.244539,-6910.471669
849.175134,-4555.934230,-1186.840010,-16290.336261
849.177657,2201.396792,-7791.030386,-4460.221326
849.180181,459.421939,-7063.612315,-8441.878133
849.182705,-2718.246474,1454.836141,-14624.931731
849.185228,3024.527766,-1301.695494,-8269.594906
849.187752,-1703.689691,2354.537438,-3924.229064
849.190276,-3369.094221,4364.508422,-15543.775610
849.192799,1550.549045,555.134843,-12576.675586
849.195323,76.570323,478.564520,440.279358
849.197846,-1339.980656,-2411.965181,-13954.941403
849.200370,4192.225195,-6297.909083,-10700.702667
849.202894,-3560.520029,-1167.697429,-8614.161360
849.205417,-1301.695494,-1531.406464,-9896.714274
849.207941,842.273555,-4096.512291,-7561.319416
849.210465,-2737.389054,3617.947771,-6757.331022
849.212988,2833.101958,-1052.841944,-15620.345933
849.215512,-1722.832272,2201.396792,-5072.783912
849.218035,172.283227,-957.129040,-7886.743290
849.220559,-153.140646,-2201.396792,-14069.796888
849.223083,-918.843878,-1799.402595,-4977.071008
849.225606,57.427742,-3215.953574,-10719.845248
849.228130,4536.791650,-5340.780043,-7791.030386
849.230654,-7561.319416,4689.932296,-15811.771741
849.233177,2890.529701,287.138712,-4919.643266
849.235701,2067.398726,-1033.699363,-10834.700733
849.238224,-3943.371645,3426.521963,-8078.169098
849.240748,-899.701298,-421.136778,-13974.083984
849.243272,3771.088418,-5034.498750,-3101.098090
849.245795,-2545.963246,-3732.803256,-14012.369146
849.248319,-1895.115499,-1875.972918,-12480.962682
849.250843,2029.113565,-937.986459,210.568389
849.253366,172.283227,248.853550,-14471.791085
849.255890,-3005.385186,3885.943902,-14548.361408
849.258413,3254.238736,-229.710970,-574.277424
849.260937,-2009.970984,401.994197,-13993.226565
849.263475,-650.847747,-1780.260014,-13591.232368
849.266014,1282.552914,-3943.371645,-459.421939
849.268552,-2737.389054,-1933.400661,-16788.043362
849.271091,2833.101958,-4287.938099,-8901.300072
849.273629,-937.986459,-1627.119368,-4900.500685
849.276167,-210.568389,-114.855485,-16596.617554
849.278706,1933.400661,0.000000,-8652.446522
849.281244,-1435.693560,2737.389054,-4173.082614
849.283782,344.566454,-995.414202,-15333.207221
849.286321,-1550.549045,-287.138712,-3637.090352
849.288859,555.134843,-2067.398726,-9839.286531
849.291397,-344.566454,-3560.520029,-14701.502054
849.293936,-631.705166,-1741.974853,-4823.930362
849.296474,1378.265818,-3617.947771,-9877.571693
849.299012,-1205.982590,133.998066,-11734.402030
849.301551,-3694.518094,4249.652938,-8729.016845
849.304089,6489.334891,-3235.096155,-5857.629725
849.306628,-4000.799387,1244.267752,-14318.650438
849.309166,1205.982590,-1895.115499,-7446.463931
849.311704,2182.254211,-3292.523898,-7408.178770
849.314243,-3407.379382,344.566454,-13610.374949
849.316781,1741.974853,-3847.658741,-8901.300072
849.319319,-1397.408398,363.709035,-9054.440718
849.321858,746.560651,-114.855485,-9801.001370
849.324396,861.416136,-1588.834206,-14988.640766
849.326934,-612.562586,497.707101,-2603.390989
849.329473,-2411.965181,95.712904,-12634.103328
849.332011,2392.822600,-2622.533570,-11657.831707
849.334550,937.986459,-2641.676150,-3062.812928
849.337088,-2009.970984,-995.414202,-15811.771741
849.339626,1665.404530,-3120.240670,-9131.011042
849.342165,-1895.115499,574.277424,-4134.797453
849.344703,1607.976787,-1110.269686,-21860.827274
849.347241,401.994197,995.414202,-1416.550979
849.349780,-2967.100024,3024.527766,-4632.504554
849.352318,2699.103893,-3254.238736,-22301.106632
849.354856,287.138712,-823.130974,382.851616
849.357395,-2718.246474,689.132909,-10662.417506
849.359933,210.568389,-1665.404530,-14778.072378
849.362471,689.132909,-2105.683888,459.421939
849.365021,937.986459,-3311.666478,-15658.631094
849.367570,-3101.098090,784.845813,-12059.825904
849.370119,3445.664544,-1454.836141,-325.423874
849.372669,-1818.545176,344.566454,-17974.883371
849.375218,459.421939,-19.142581,-9150.153622
849.377767,1301.695494,-1378.265818,-1646.261949
849.380317,-2354.537438,-19.142581,-17419.748528
849.382866,4173.082614,-3905.086483,-5111.069074
849.385415,-5474.778109,3196.810994,-9992.427178
849.387965,2967.100024,-2507.678085,-10126.425243
849.390514,-4153.940034,2105.683888,-10202.995566
849.393063,2718.246474,-2067.398726,-5091.926493
849.395613,-421.136778,-2526.820666,-16213.765938
849.398162,995.414202,-1665.404530,-5800.201982
849.400711,535.992262,-2718.246474,-10375.278794
849.403260,-1646.261949,382.851616,-12423.534939
849.405810,3579.662610,-1761.117434,-7944.171032
849.408359,-2756.531635,2431.107762,-5723.631659
849.410908,689.132909,-1071.984525,-16960.326589
849.413458,95.712904,-880.558717,-5417.350366
849.416007,-612.562586,-57.427742,-6163.911018
849.418556,19.142581,-3024.527766,-17706.887240
849.421106,1205.982590,-1875.972918,842.273555
849.423655,-4096.512291,918.843878,-14892.927862
849.426204,4345.365842,-3713.660675,-11045.269122
849.428754,-4728.217458,2679.961312,-3177.668413
849.431303,3483.949706,-2182.254211,-16405.191746
849.433852,229.710970,-153.140646,-2297.109696
849.436402,-1320.838075,574.277424,-10126.425243
849.438951,1167.697429,-2928.814862,-15160.923994
849.441500,-1627.119368,-727.418070,-5245.067139
849.444049,1818.545176,-3637.090352,-8671.589102
849.446599,-1435.693560,-1722.832272,-13476.376883
849.449148,-2794.816797,1914.258080,-5589.633594
849.451697,2737.389054,-1416.550979,-9360.722011
849.454247,-3062.812928,1205.982590,-11868.400096
849.456796,957.129040,-650.847747,-8767.302006
849.459345,2124.826469,-2163.111630,-9188.438784
849.461895,-2775.674216,612.562586,-8116.454259
849.464444,2431.107762,-3617.947771,-12940.384621
849.467000,-2086.541307,-708.275490,-5455.635528
849.469556,344.566454,-2086.541307,-11466.405899
849.472112,-650.847747,-2105.683888,-10528.419440
849.474668,-287.138712,-459.421939,-7408.178770
849.477223,287.138712,-497.707101,-11753.544611
849.479779,-5781.059402,3349.951640,-7063.612315
849.482335,3675.375514,-3196.810994,-14165.509792
849.484891,1531.406464,-1014.556782,-6010.770371
849.487447,-4039.084549,2431.107762,-7121.040058
849.490003,1627.119368,-3349.951640,-16615.760134
849.492559,2316.252277,-3866.801322,-4019.941968
849.495115,-2622.533570,-669.990328,-9265.009107
849.497670,1033.699363,-3024.527766,-14490.933666
849.500226,-382.851616,-191.425808,-4843.072942
849.502782,-153.140646,-401.994197,-9016.155557
849.505338,861.416136,-784.845813,-13323.236237
849.507894,-3541.377448,2392.822600,-7599.604578
849.510450,3081.955509,-2316.252277,-9820.143950
849.513006,-3330.809059,669.990328,-11370.692995
849.515562,-191.425808,-803.988394,-9035.298138
849.518118,1818.545176,-3694.518094,-7886.743290
849.520673,-478.564520,-1703.689691,-10796.415571
849.523229,-823.130974,-1378.265818,-10738.987829
849.525785,1397.408398,-1493.121302,-7542.176835
849.528341,-1225.125171,76.570323,-9781.858789
849.530897,133.998066,-842.273555,-10796.415571
849.533453,-210.568389,-669.990328,-5340.780043
849.536009,-1856.830338,1167.697429,-13878.371080
849.538565,4651.647134,-3120.240670,-6202.196179
849.541121,-2775.674216,1339.980656,-8039.883936
849.543676,-248.853550,-1416.550979,-16673.187877
849.546232,1646.261949,-1914.258080,-5264.209720
849.548788,-1339.980656,-459.421939,-10911.271056
849.551344,287.138712,-2009.970984,-15199.209155
849.553900,650.847747,-650.847747,-2986.242605
849.556456,-1761.117434,-382.851616,-9265.009107
849.559012,-440.279358,-1473.978722,-14184.652373
849.561568,3656.232933,-2890.529701,-6910.471669
849.564124,-2009.970984,1588.834206,-3617.947771
849.566679,-19.142581,-746.560651,-15677.773675
849.569239,1091.127106,-937.986459,-11887.542677
849.571798,-344.566454,95.712904,-4134.797453
849.574358,-2565.105827,1091.127106,-12442.677520
849.576917,5034.498750,-5015.356170,-13170.095590
849.579477,-306.281293,-344.566454,-6259.623922
849.582036,-7427.321350,5455.635528,842.273555
849.584596,4651.647134,-7197.610381,-27125.036994
849.587155,-3943.371645,229.710970,2067.398726
849.589715,5245.067139,-4058.227130,-4460.221326
849.592274,-5513.063270,2469.392923,-27929.025387
849.594834,2871.387120,248.853550,4823.930362
849.597393,899.701298,669.990328,-9954.142016
849.599952,-3081.955509,2526.820666,-21229.122107
849.602512,2431.107762,-1091.127106,-1722.832272
849.605071,2794.816797,-4230.510357,-6010.770371
849.607631,-3962.514226,-1244.267752,-22090.538243
849.610190,5608.776174,-4421.936165,-1091.127106
849.612750,-3541.377448,765.703232,-3522.234867
849.615309,-1971.685822,-574.277424,-22071.395662
849.617869,6910.471669,-3905.086483,-2756.531635
849.620428,-11447.263318,8384.450390,-8556.733618
849.622988,7905.885870,-5091.926493,-15811.771741
849.625547,-5723.631659,3943.371645,287.138712
849.628107,2545.963246,-2143.969050,-13074.382686
849.630666,1244.267752,-4019.941968,-15275.779478
849.633226,-3713.660675,880.558717,-1895.115499
849.635785,5493.920690,-5819.344563,-14318.650438
849.638345,-2833.101958,401.994197,-13036.097525
849.640904,-823.130974,1435.693560,631.705166
849.643463,2737.389054,-2373.680019,-20252.850486
849.646023,-5570.491013,3771.088418,-5704.489078
849.648582,5130.211654,-2947.957443,-7791.030386
849.651142,-2488.535504,229.710970,-15486.347867
849.653701,-976.271621,-172.283227,-7523.034254
849.656261,3196.810994,-4977.071008,-6929.614250
849.658820,-3311.666478,-172.283227,-13744.373014
849.661380,2048.256146,-3311.666478,-7484.749093
849.663939,-1473.978722,363.709035,-9303.294269
849.666499,248.853550,-267.996131,-16118.053034
849.669058,708.275490,363.709035,-3426.521963
849.671621,-459.421939,803.988394,-6642.475538
849.674183,-76.570323,-1512.263883,-20693.129845
849.676746,-287.138712,-1071.984525,-133.998066
849.679308,-95.712904,-2239.681954,-10336.993632
849.681870,-708.275490,-2488.535504,-16749.758200
849.684433,-631.705166,-2450.250342,555.134843
849.686995,4039.084549,-4019.941968,-14050.654307
849.689558,-5072.783912,3483.949706,-13878.371080
849.692120,3866.801322,133.998066,2526.820666
849.694683,-2545.963246,2029.113565,-19506.289835
849.697245,995.414202,267.996131,-9667.003304
849.699808,1761.117434,-4766.502619,-5091.926493
849.702370,-4957.928427,-267.996131,-15333.207221
849.704933,2450.250342,-5168.496816,-5589.633594
849.707495,-2335.394858,-1205.982590,-7944.171032
849.710057,-229.710970,-784.845813,-14663.216893
849.712620,2718.246474,-382.851616,-8767.302006
849.715182,-1531.406464,5551.348432,-1818.545176
849.717745,-1856.830338,6814.758765,-22052.253082
849.720307,1914.258080,5245.067139,-3445.664544
849.722870,-1512.263883,6278.766502,-7235.895542
849.725432,-248.853550,918.843878,-17936.598210
849.727995,-1493.121302,-133.998066,-4996.213589
849.730557,2143.969050,-2220.539373,-6470.192310
849.733120,-1741.974853,1091.127106,-18549.160795
849.735682,210.568389,-937.986459,-5972.485210
849.738245,-382.851616,229.710970,-5551.348432
849.740807,-1378.265818,5838.487144,-15390.634963
849.743369,1435.693560,5455.635528,-6642.475538
849.745932,-1225.125171,5130.211654,-9054.440718
849.748494,669.990328,1301.695494,-14318.650438
849.751057,-708.275490,1397.408398,-4268.795518
849.753619,287.138712,19.142581,-12078.968485
849.756182,-76.570323,153.140646,-11925.827838
849.758744,-95.712904,1914.258080,-5359.922624
849.761307,210.568389,1646.261949,-11523.833642
849.763869,-631.705166,2756.531635,-12519.247843
849.766432,325.423874,2852.244539,-5417.350366
849.768994,-421.136778,-803.988394,-11102.696864
849.771556,-172.283227,-1397.408398,-12902.099459
849.774121,-306.281293,497.707101,-5647.061336
849.776685,229.710970,-57.427742,-13150.953010
849.779249,-440.279358,3617.947771,-10585.847182
849.781813,440.279358,6451.049730,-5876.772306
849.784377,-210.568389,8250.452325,-12806.386555
849.786941,1091.127106,6240.481341,-7752.745224
849.789505,-842.273555,6049.055533,-7446.463931
849.792069,-57.427742,669.990328,-16290.336261
849.794634,-861.416136,-3215.953574,-4823.930362
849.797198,210.568389,-1435.693560,-8288.737486
849.799762,-765.703232,-861.416136,-14816.357539
849.802326,497.707101,1244.267752,-7178.467800
849.804890,-76.570323,4345.365842,-7771.887805
849.807454,287.138712,5091.926493,-12882.956878
849.810018,-669.990328,7140.182638,-7771.887805
849.812582,-382.851616,5704.489078,-10872.985894
849.815147,-229.710970,555.134843,-8958.727814
849.817711,-1665.404530,-976.271621,-7369.893608
849.820275,-95.712904,-2316.252277,-10490.134278
849.822839,1110.269686,229.710970,-12672.388490
849.825403,-1818.545176,3177.668413,-4077.369710
849.827967,1837.687757,1914.258080,-13935.798822
849.830531,-1895.115499,3617.947771,-8384.450390
849.833095,-612.562586,1646.261949,-8863.014910
849.835660,-650.847747,-2297.109696,-11045.269122
849.838224,2373.680019,-5742.774240,-9743.573627
849.840788,-1607.976787,-4077.369710,-10432.706536
849.843352,-2009.970984,-3598.805190,-7637.889739
849.845916,1282.552914,-2871.387120,-11542.976222
849.848480,-1167.697429,1933.400661,-6029.912952
849.851044,1320.838075,1531.406464,-13016.954944
849.853608,-2277.967115,2871.387120,-7714.460062
849.856173,3943.371645,-1282.552914,-6910.471669
849.858737,-3847.658741,1320.838075,-10738.987829
849.861301,2699.103893,-4019.941968,-13074.382686
849.863865,-2258.824534,-2488.535504,-5781.059402
849.866429,746.560651,-2660.818731,-13610.374949
849.868993,-229.710970,-2029.113565,-7465.606512
849.871557,-880.558717,-784.845813,-8499.305875
849.874121,-382.851616,401.994197,-13935.798822
849.876686,861.416136,765.703232,-3885.943902
849.879250,-1033.699363,823.130974,-9131.011042
849.881814,459.421939,-1722.832272,-12921.242040
849.884378,-1339.980656,-650.847747,-6872.186507
849.886942,1684.547110,-4173.082614,-9686.145885
849.889506,-1990.828403,-803.988394,-13246.665914
849.892071,823.130974,-1933.400661,-6106.483275
849.894635,-516.849682,76.570323,-11734.402030
849.897199,-2545.963246,2086.541307,-13189.238171
849.899763,2316.252277,-593.420005,-2526.820666
849.902327,2163.111630,-1416.550979,-11255.837510
849.904891,-5666.203917,1933.400661,-13131.810429
849.907456,4421.936165,-5551.348432,-6527.620053
849.910020,-1646.261949,-1473.978722,-8116.454259
849.912584,1301.695494,-4479.363907,-10279.565890
849.915148,-4096.512291,191.425808,-16788.043362
849.917712,-1033.699363,2450.250342,-76.570323
849.920276,3751.945837,-2871.387120,-16692.330458
849.922841,-2967.100024,4230.510357,-12672.388490
849.925405,-114.855485,3273.381317,-3771.088418
849.927969,3081.955509,-4421.936165,-20214.565325
849.930533,-5704.489078,555.134843,-8690.731683
849.933097,6699.903280,-7216.752962,-784.845813
849.935661,-6661.618118,133.998066,-19142.580800
849.938226,1684.547110,-2220.539373,-9820.143950
849.940790,2086.541307,-1914.258080,-1952.543242
849.943354,-3713.660675,2258.824534,-13016.954944
849.945918,-76.570323,-191.425808,-13629.517530
849.948482,3656.232933,-2239.681954,-5934.200048
849.951046,-1780.260014,1301.695494,-10068.997501
849.953611,-880.558717,-267.996131,-16979.469170
849.956175,-1071.984525,1435.693560,-6604.190376
849.958739,727.418070,-3158.525832,2431.107762
849.961303,5761.916821,-6546.762634,-20157.137582
849.963867,-7235.895542,3024.527766,-5991.627790
849.966431,6604.190376,-5417.350366,-4900.500685
849.968996,-784.845813,-1014.556782,-13610.374949
849.971560,-3694.518094,2124.826469,-6202.196179
849.974124,-1282.552914,95.712904,-13686.945272
849.976688,3235.096155,-1225.125171,-11121.839445
849.979197,-2124.826469,2029.113565,-1914.258080
849.981706,191.425808,-1684.547110,-18108.881437
849.984215,1761.117434,-2660.818731,-6585.047795
849.986723,-765.703232,-2009.970984,-6795.616184
849.989232,-306.281293,-1569.691626,-14471.791085
849.991741,325.423874,-1684.547110,-7848.458128
849.994250,-689.132909,976.271621,-6910.471669
849.996759,401.994197,-555.134843,-14931.213024
849.999268,421.136778,957.129040,-7810.172966
850.001777,-1895.115499,38.285162,-7465.606512
850.004285,2871.387120,-4287.938099,-16577.474973
850.006794,-3713.660675,1971.685822,-2335.394858
850.009303,2794.816797,-3503.092286,-12959.527202
850.011812,-1052.841944,-995.414202,-12040.683323
850.014321,516.849682,-1244.267752,-4728.217458
850.016830,1933.400661,-1320.838075,-12902.099459
850.019338,-3024.527766,1167.697429,-9839.286531
850.021847,784.845813,-153.140646,-10279.565890
850.024356,1186.840010,-1990.828403,-6891.329088
850.026865,-3617.947771,1378.265818,-13667.802691
850.029374,4364.508422,-5455.635528,-7025.327154
850.031883,1091.127106,-3120.240670,-6297.909083
850.034392,-4670.789715,1914.258080,-19506.289835
850.036900,2813.959378,-1148.554848,-5417.350366
850.039409,-2584.248408,2794.816797,-9322.436850
850.041918,2603.390989,-2967.100024,-19429.719512
850.044427,-287.138712,440.279358,-3101.098090
850.046936,-459.421939,-1263.410333,-6719.045861
850.049445,-784.845813,-2622.533570,-20291.135648
850.051953,1052.841944,-2622.533570,-1665.404530
850.054462,-1895.115499,248.853550,-8327.022648
850.056971,1244.267752,-2737.389054,-20750.557587
850.059480,1339.980656,306.281293,-421.136778
850.061989,19.142581,689.132909,-6680.760699
850.064498,-1875.972918,593.420005,-23698.515030
850.067007,746.560651,746.560651,2143.969050
850.069515,421.136778,-823.130974,-8786.444587
850.072024,-2545.963246,-1263.410333,-20999.411138
850.074533,2143.969050,-3388.236802,2545.963246
850.077042,-2603.390989,-38.285162,-15716.058837
850.079564,344.566454,-1856.830338,-12768.101394
850.082086,-574.277424,-133.998066,2067.398726
850.084608,2852.244539,-2928.814862,-21822.542112
850.087130,-2699.103893,1722.832272,-6317.051664
850.089652,1971.685822,-1320.838075,-4670.789715
850.092174,-918.843878,-191.425808,-16768.900781
850.094696,-1052.841944,-19.142581,-7714.460062
850.097218,918.843878,-1780.260014,-3981.656806
850.099740,-1684.547110,-976.271621,-17955.740790
850.102262,784.845813,-1722.832272,-4230.510357
850.104785,-1684.547110,459.421939,-9207.581365
850.107307,-478.564520,-363.709035,-13629.517530
850.109829,1512.263883,-1359.123237,-6795.616184
850.112351,-1607.976787,-861.416136,-10872.985894
850.114873,3158.525832,-2201.396792,-5551.348432
850.117395,-5742.774240,2890.529701,-9552.147819
850.119917,4881.358104,-3751.945837,-13342.378818
850.122439,-2890.529701,669.990328,-7446.463931
850.124961,823.130974,-957.129040,-8346.165229
850.127483,-248.853550,-1167.697429,-13074.382686
850.130005,-861.416136,76.570323,-5991.627790
850.132527,3503.092286,-3101.098090,-4881.358104
850.135049,-2584.248408,-1129.412267,-17170.894978
850.137571,153.140646,-669.990328,-7121.040058
850.140093,-669.990328,-516.849682,-4957.928427
850.142615,2086.541307,-1627.119368,-16098.910453
850.145137,-3483.949706,344.566454,-9992.427178
850.147659,2986.242605,-1435.693560,-7178.467800
850.150182,-1837.687757,-478.564520,-10604.989763
850.152704,1818.545176,-1856.830338,-7312.465866
850.155226,-1167.697429,-1071.984525,-9303.294269
850.157748,306.281293,-2067.398726,-11753.544611
850.160270,-2105.683888,401.994197,-9016.155557
850.162792,459.421939,-287.138712,-6049.055533
850.165314,937.986459,-1703.689691,-13438.091722
850.167836,-765.703232,-516.849682,-8059.026517
850.170358,2431.107762,-1780.260014,-9954.142016
850.172880,-2526.820666,-76.570323,-9743.573627
850.175402,880.558717,-1703.689691,-12997.812363
850.177924,-650.847747,-2488.535504,-7044.469734
850.180456,1646.261949,-1741.974853,-10260.423309
850.182988,-2163.111630,516.849682,-9915.856854
850.185520,3043.670347,-669.990328,-9456.434915
850.188052,-2679.961312,440.279358,-9073.583299
850.190584,-1263.410333,1033.699363,-6757.331022
850.193116,2871.387120,-2411.965181,-4249.652938
850.195648,-3196.810994,-19.142581,-16079.767872
850.198180,2699.103893,-3732.803256,-8231.309744
850.200712,191.425808,-1531.406464,-5283.352301
850.203244,-3426.521963,38.285162,-15409.777544
850.205776,5493.920690,-5455.635528,-11868.400096
850.208307,-1856.830338,2105.683888,-784.845813
850.210839,-459.421939,-306.281293,-18893.727250
850.213371,1473.978722,287.138712,-6068.198114
850.215903,-2392.822600,2009.970984,-8059.026517
850.218435,1339.980656,-1397.408398,-12653.245909
850.220967,382.851616,-2431.107762,-8633.303941
850.223499,-306.281293,-1741.974853,-8824.729749
850.226031,-0.000000,-2431.107762,-9303.294269
850.228563,2431.107762,-2239.681954,-8652.446522
850.231095,-3713.660675,1741.974853,-8729.016845
850.233627,2545.963246,-2316.252277,-14892.927862
850.236159,-1416.550979,1301.695494,-3062.812928
850.238690,2641.676150,-2928.814862,-13265.808494
850.241222,-2507.678085,1282.552914,-9762.716208
850.243754,842.273555,-1301.695494,-9494.720077
850.246286,-1588.834206,803.988394,-7829.315547
850.248818,2565.105827,-4230.510357,-11332.407834
850.251350,-2450.250342,-76.570323,-12193.823970
850.253882,3081.955509,-3828.516160,-459.421939
850.256414,-803.988394,38.285162,-25440.489883
850.258946,-3464.807125,3407.379382,516.849682
850.261478,3273.381317,-2086.541307,-9667.003304
850.264010,-2967.100024,306.281293,-15065.211090
850.266542,1780.260014,-2105.683888,-535.992262
850.269073,-1129.412267,-401.994197,-15677.773675
850.271605,-2009.970984,-229.710970,-12921.242040
850.274137,4689.932296,-4019.941968,5053.641331
850.276669,-210.568389,-2584.248408,-20673.987264
850.279201,-4192.225195,2009.970984,-11696.116869
850.281741,6948.756830,-4230.510357,4536.791650
850.284281,-3732.803256,1473.978722,-22473.389859
850.286821,-2526.820666,1665.404530,-10834.700733
850.289361,2967.100024,-918.843878,3388.236802
850.291901,-631.705166,267.996131,-17611.174336
850.294441,-1856.830338,-842.273555,-12404.392358
850.296981,-689.132909,-2239.681954,1493.121302
850.299521,1722.832272,-6278.766502,-16788.043362
850.302061,-5685.346498,995.414202,-8882.157491
850.304601,7925.028451,-5781.059402,-7676.174901
850.307141,-2909.672282,3541.377448,-11868.400096
850.309681,-1416.550979,3905.086483,-9781.858789
850.312221,3885.943902,-612.562586,-6661.618118
850.314760,-4287.938099,3081.955509,-13801.800757
850.317300,2565.105827,-4402.793584,-8575.876198
850.319840,842.273555,-3541.377448,-7427.321350
850.322380,-3981.656806,-1799.402595,-10643.274925
850.324920,1301.695494,-3924.229064,-12959.527202
850.327460,210.568389,-1665.404530,-4977.071008
850.330000,-3981.656806,2201.396792,-10356.136213
850.332540,5608.776174,-3139.383251,-14797.214958
850.335080,-2067.398726,4039.084549,-2163.111630
850.337620,535.992262,-133.998066,-12404.392358
850.340160,-1167.697429,-1799.402595,-7331.608446
850.342700,-229.710970,-2699.103893,-4613.361973
850.345240,-191.425808,-3637.090352,-16462.619488
850.347780,612.562586,-1741.974853,-7216.752962
850.350320,937.986459,-2220.539373,-1148.554848
850.352860,-3522.234867,612.562586,-25363.919560
850.355400,3120.240670,-1397.408398,-3407.379382
850.357940,-6297.909083,1799.402595,-2124.826469
850.360480,4096.512291,-5876.772306,-15160.923994
850.363020,-899.701298,-4632.504554,-5015.356170
850.365560,727.418070,-7101.897477,-7810.172966
850.368100,-267.996131,-7599.604578,-16060.625291
850.370639,-1703.689691,-3101.098090,-1856.830338
850.373179,1091.127106,-5015.356170,-13476.376883
850.375719,-306.281293,-4632.504554,-13572.089787
850.378259,1225.125171,-2660.818731,-708.275490
850.380799,-631.705166,440.279358,-18262.022083
