#time,accel_x,accel_y,accel_z
63.370600,0.000000,-1184.329507,9844.739029
63.370908,383.047749,-1184.329507,9992.780217
63.371216,383.047749,-1332.370696,9844.739029
63.371524,842.705048,-962.267725,9326.594869
63.371832,995.924147,-814.226536,9696.697840
63.372140,1225.752797,-1184.329507,9178.553681
63.372448,2145.067394,-814.226536,9030.512492
63.372756,2221.676944,-888.247130,9400.615463
63.373064,2451.505594,-518.144159,8734.430116
63.373372,2451.505594,-222.061783,8882.471304
63.373680,2604.724693,-74.020594,8734.430116
63.373988,2987.772442,-74.020594,9178.553681
63.374296,2451.505594,-0.000000,9178.553681
63.374604,2911.162892,-0.000000,9474.636058
63.374911,2374.896044,-0.000000,8660.409521
63.375219,2221.676944,444.123565,9178.553681
63.375527,2604.724693,666.185348,9474.636058
63.375835,2757.943793,740.205942,9622.677246
63.376143,2911.162892,518.144159,9622.677246
63.376451,2451.505594,1110.308913,9548.656652
63.376759,2528.115143,962.267725,9770.718434
63.377067,2221.676944,1258.350101,10362.883188
63.377375,2221.676944,1406.391290,9992.780217
63.377683,1685.410096,1258.350101,9696.697840
63.377991,1838.629195,1406.391290,9918.759623
63.378299,1685.410096,1406.391290,9992.780217
63.378607,1838.629195,1184.329507,10214.842000
63.378915,1532.190996,1036.288319,10288.862594
63.379223,1608.800546,888.247130,10658.965565
63.379531,1455.581446,666.185348,10362.883188
63.379839,1685.410096,592.164754,10214.842000
63.380147,1762.019645,962.267725,9474.636058
63.380455,1915.238745,1480.411884,9474.636058
63.380763,1762.019645,1628.453072,8956.491898
63.381071,1991.848295,1480.411884,9178.553681
63.381379,1762.019645,962.267725,9622.677246
63.381687,1455.581446,296.082377,9770.718434
63.381995,1378.971896,-222.061783,10436.903782
63.382302,153.219100,-962.267725,10807.006753
63.382610,-383.047749,-1036.288319,10955.047942
63.382918,-689.485948,-1258.350101,10807.006753
63.383226,-306.438199,-814.226536,10732.986159
63.383534,-229.828649,-296.082377,9992.780217
63.383842,612.876398,-74.020594,9474.636058
63.384150,1225.752797,518.144159,9400.615463
63.384458,1608.800546,888.247130,8956.491898
63.384766,1838.629195,888.247130,8586.388927
63.385074,1149.143247,592.164754,8290.306550
63.385382,536.266849,-74.020594,9104.533087
63.385690,0.000000,-592.164754,9844.739029
63.385998,-612.876398,-1036.288319,10066.800811
63.386306,-612.876398,-1554.432478,10510.924376
63.386614,-842.705048,-1332.370696,10510.924376
63.386922,-459.657299,-1702.473667,10362.883188
63.387230,0.000000,-888.247130,10510.924376
63.387538,383.047749,-296.082377,9548.656652
63.387846,995.924147,592.164754,9030.512492
63.388154,1532.190996,814.226536,8438.347739
63.388462,1838.629195,1110.308913,8068.244768
63.388770,1991.848295,666.185348,8216.285956
63.389078,1378.971896,592.164754,8438.347739
63.389386,766.095498,222.061783,9104.533087
63.389694,919.314598,-296.082377,9770.718434
63.390001,0.000000,-444.123565,10140.821405
63.390309,-229.828649,-592.164754,10288.862594
63.390617,0.000000,-666.185348,9992.780217
63.390925,229.828649,-592.164754,9770.718434
63.391233,842.705048,-370.102971,10066.800811
63.391541,1072.533697,-370.102971,9474.636058
63.391849,1225.752797,-0.000000,9548.656652
63.392157,995.924147,518.144159,9104.533087
63.392465,1072.533697,444.123565,8956.491898
63.392773,1149.143247,740.205942,8882.471304
63.393081,1072.533697,518.144159,8882.471304
63.393389,1149.143247,518.144159,8882.471304
63.393697,842.705048,148.041188,9548.656652
63.394005,1072.533697,-222.061783,9474.636058
63.394313,919.314598,-444.123565,9474.636058
63.394621,919.314598,-370.102971,9770.718434
63.394929,995.924147,148.041188,9696.697840
63.395237,1149.143247,-0.000000,9474.636058
63.395545,1149.143247,370.102971,9548.656652
63.395853,1149.143247,370.102971,9474.636058
63.396161,1685.410096,962.267725,9622.677246
63.396469,1149.143247,962.267725,9548.656652
63.396777,1455.581446,1184.329507,9474.636058
63.397085,919.314598,1184.329507,9696.697840
63.397392,612.876398,666.185348,9548.656652
63.397700,919.314598,592.164754,9918.759623
63.398008,612.876398,444.123565,10140.821405
63.398316,536.266849,222.061783,10140.821405
63.398624,612.876398,-0.000000,10362.883188
63.398932,842.705048,-222.061783,10288.862594
63.399240,842.705048,518.144159,10214.842000
63.399548,995.924147,666.185348,9992.780217
63.399856,842.705048,888.247130,9474.636058
63.400164,842.705048,888.247130,9844.739029
63.400472,995.924147,1036.288319,9696.697840
63.400780,689.485948,1036.288319,9548.656652
63.401088,612.876398,740.205942,9548.656652
63.401396,1302.362347,518.144159,9622.677246
63.401704,306.438199,370.102971,10140.821405
63.402012,153.219100,296.082377,10140.821405
63.402320,153.219100,-0.000000,9992.780217
63.402628,76.609550,-0.000000,9770.718434
63.402936,229.828649,-0.000000,9770.718434
63.403244,459.657299,-0.000000,9696.697840
63.403552,612.876398,-74.020594,9992.780217
63.403860,-229.828649,-0.000000,9474.636058
63.404168,76.609550,222.061783,9474.636058
63.404476,-229.828649,-0.000000,9252.574275
63.404784,0.000000,-0.000000,9474.636058
63.405092,-306.438199,-0.000000,9400.615463
63.405400,0.000000,-0.000000,9696.697840
63.405709,0.000000,-148.041188,9474.636058
63.406017,-153.219100,-148.041188,9992.780217
63.406325,229.828649,-74.020594,9696.697840
63.406633,0.000000,-148.041188,9770.718434
63.406941,383.047749,148.041188,9548.656652
63.407249,153.219100,-74.020594,9400.615463
63.407557,0.000000,-0.000000,9548.656652
63.407865,229.828649,-74.020594,9326.594869
63.408173,0.000000,-0.000000,9252.574275
63.408482,153.219100,-148.041188,9400.615463
63.408790,0.000000,-444.123565,9696.697840
63.409098,0.000000,-370.102971,9474.636058
63.409406,306.438199,-222.061783,9326.594869
63.409714,459.657299,296.082377,9326.594869
63.410022,536.266849,-0.000000,9474.636058
63.410330,612.876398,-74.020594,9474.636058
63.410638,689.485948,-0.000000,9474.636058
63.410946,995.924147,-222.061783,9400.615463
63.411254,1149.143247,-0.000000,9548.656652
63.411563,766.095498,-0.000000,9696.697840
63.411871,995.924147,-0.000000,9474.636058
63.412179,842.705048,296.082377,9326.594869
63.412487,995.924147,148.041188,9400.615463
63.412795,919.314598,296.082377,9548.656652
63.413103,1149.143247,222.061783,9770.718434
63.413411,919.314598,222.061783,9548.656652
63.413719,1072.533697,-0.000000,9622.677246
63.414027,1225.752797,-0.000000,9400.615463
63.414336,1302.362347,-0.000000,9696.697840
63.414644,1378.971896,444.123565,9548.656652
63.414952,1455.581446,444.123565,9400.615463
63.415260,1455.581446,222.061783,9104.533087
63.415568,1685.410096,148.041188,9474.636058
63.415876,1455.581446,148.041188,9992.780217
63.416184,1072.533697,296.082377,10140.821405
63.416492,1378.971896,-0.000000,9696.697840
63.416800,1608.800546,-0.000000,9548.656652
63.417109,1455.581446,592.164754,9696.697840
63.417417,1608.800546,592.164754,9696.697840
63.417725,1685.410096,888.247130,9474.636058
63.418033,1532.190996,592.164754,9548.656652
63.418341,1685.410096,370.102971,9696.697840
63.418649,1532.190996,444.123565,9844.739029
63.418957,842.705048,666.185348,10066.800811
63.419265,995.924147,296.082377,9770.718434
63.419573,842.705048,370.102971,9844.739029
63.419881,842.705048,296.082377,9770.718434
63.420190,842.705048,444.123565,9992.780217
63.420498,1072.533697,444.123565,9622.677246
63.420806,842.705048,148.041188,10066.800811
63.421114,842.705048,222.061783,9474.636058
63.421422,1455.581446,-0.000000,9548.656652
63.421730,919.314598,-0.000000,9474.636058
63.422038,919.314598,518.144159,9474.636058
63.422346,766.095498,296.082377,9474.636058
63.422654,459.657299,370.102971,9474.636058
63.422963,689.485948,370.102971,9400.615463
63.423271,459.657299,370.102971,9622.677246
63.423579,919.314598,-0.000000,10066.800811
63.423887,-153.219100,-148.041188,9548.656652
63.424195,76.609550,-666.185348,9918.759623
63.424503,-153.219100,-296.082377,9770.718434
63.424811,0.000000,-74.020594,10140.821405
63.425119,0.000000,-148.041188,10066.800811
63.425427,-153.219100,-222.061783,9622.677246
63.425735,153.219100,-0.000000,9178.553681
63.426044,689.485948,-0.000000,9178.553681
63.426352,0.000000,-0.000000,9474.636058
63.426660,229.828649,-222.061783,9252.574275
63.426968,0.000000,-0.000000,9178.553681
63.427276,0.000000,296.082377,9326.594869
63.427584,-306.438199,-0.000000,9326.594869
63.427892,0.000000,-0.000000,9400.615463
63.428200,0.000000,-444.123565,9400.615463
63.428508,-459.657299,-0.000000,9770.718434
63.428817,-766.095498,-148.041188,10362.883188
63.429125,-612.876398,-518.144159,10362.883188
63.429433,-536.266849,-222.061783,9992.780217
63.429741,0.000000,-0.000000,9622.677246
63.430049,0.000000,296.082377,9474.636058
63.430357,76.609550,148.041188,9474.636058
63.430665,306.438199,148.041188,9548.656652
63.430973,306.438199,148.041188,9844.739029
63.431281,612.876398,296.082377,9400.615463
63.431590,383.047749,296.082377,9548.656652
63.431898,153.219100,296.082377,9622.677246
63.432206,383.047749,148.041188,9622.677246
63.432514,306.438199,148.041188,9548.656652
63.432822,612.876398,370.102971,9548.656652
63.433130,229.828649,-0.000000,9844.739029
63.433438,459.657299,148.041188,10066.800811
63.433746,229.828649,666.185348,9992.780217
63.434054,919.314598,296.082377,9400.615463
63.434362,1072.533697,592.164754,9400.615463
63.434671,1302.362347,592.164754,9326.594869
63.434979,1302.362347,888.247130,9474.636058
63.435287,1302.362347,740.205942,9474.636058
63.435595,689.485948,592.164754,9548.656652
63.435903,689.485948,444.123565,9548.656652
63.436211,1225.752797,370.102971,9770.718434
63.436519,1149.143247,296.082377,9474.636058
63.436827,1149.143247,444.123565,9844.739029
63.437135,995.924147,222.061783,9918.759623
63.437444,1225.752797,296.082377,9918.759623
63.437752,842.705048,-0.000000,9992.780217
63.438060,1072.533697,370.102971,10066.800811
63.438368,1532.190996,666.185348,9992.780217
63.438676,1532.190996,814.226536,9104.533087
63.438984,1455.581446,370.102971,9474.636058
63.439292,1378.971896,518.144159,9696.697840
63.439600,1072.533697,592.164754,9474.636058
63.439908,1302.362347,444.123565,9696.697840
63.440216,995.924147,222.061783,9770.718434
63.440525,1378.971896,296.082377,9400.615463
63.440833,1455.581446,148.041188,9696.697840
63.441141,995.924147,148.041188,9696.697840
63.441449,919.314598,-0.000000,9696.697840
63.441757,766.095498,-0.000000,9696.697840
63.442065,612.876398,-0.000000,9548.656652
63.442373,766.095498,-0.000000,9548.656652
63.442681,612.876398,-0.000000,9770.718434
63.442989,995.924147,222.061783,9474.636058
63.443298,995.924147,296.082377,9474.636058
63.443606,995.924147,-222.061783,9474.636058
63.443914,766.095498,-0.000000,9622.677246
63.444222,612.876398,222.061783,9474.636058
63.444530,689.485948,-0.000000,9400.615463
63.444838,919.314598,-0.000000,9326.594869
63.445146,229.828649,-222.061783,9400.615463
63.445454,459.657299,-222.061783,9474.636058
63.445762,153.219100,-222.061783,9474.636058
63.446071,306.438199,-148.041188,9474.636058
63.446379,306.438199,-0.000000,9400.615463
63.446687,459.657299,-74.020594,9474.636058
63.446995,689.485948,296.082377,9252.574275
63.447303,459.657299,148.041188,9474.636058
63.447611,536.266849,-74.020594,9252.574275
63.447919,612.876398,-370.102971,9474.636058
63.448227,306.438199,-296.082377,9400.615463
63.448535,306.438199,-296.082377,9548.656652
63.448843,0.000000,-0.000000,9844.739029
63.449152,76.609550,-0.000000,9474.636058
63.449460,229.828649,-0.000000,9548.656652
63.449768,0.000000,-74.020594,9474.636058
63.450076,0.000000,-148.041188,9548.656652
63.450384,0.000000,-0.000000,9696.697840
63.450692,612.876398,-0.000000,9548.656652
63.451000,689.485948,-0.000000,9548.656652
63.451308,383.047749,-0.000000,9400.615463
63.451616,459.657299,74.020594,9622.677246
63.451925,229.828649,-0.000000,9548.656652
63.452233,229.828649,222.061783,9696.697840
63.452541,229.828649,296.082377,9770.718434
63.452849,306.438199,148.041188,9548.656652
63.453157,612.876398,296.082377,9770.718434
63.453465,766.095498,-0.000000,9770.718434
63.453773,383.047749,444.123565,9770.718434
63.454081,229.828649,592.164754,9770.718434
63.454389,766.095498,592.164754,9844.739029
63.454698,459.657299,370.102971,9474.636058
63.455006,612.876398,444.123565,9992.780217
63.455314,306.438199,-0.000000,9770.718434
63.455622,459.657299,-0.000000,9844.739029
63.455930,612.876398,370.102971,9696.697840
63.456238,689.485948,296.082377,9844.739029
63.456546,842.705048,370.102971,9622.677246
63.456854,995.924147,370.102971,9770.718434
63.457162,995.924147,444.123565,9622.677246
63.457470,229.828649,370.102971,9918.759623
63.457779,1149.143247,814.226536,9770.718434
63.458087,842.705048,296.082377,10066.800811
63.458395,612.876398,296.082377,9844.739029
63.458703,995.924147,222.061783,9622.677246
63.459011,919.314598,296.082377,9622.677246
63.459319,689.485948,222.061783,9548.656652
63.459627,766.095498,296.082377,9474.636058
63.459935,1225.752797,222.061783,9400.615463
63.460243,842.705048,-0.000000,9326.594869
63.460552,766.095498,296.082377,9548.656652
63.460860,1149.143247,222.061783,9622.677246
63.461168,842.705048,592.164754,9326.594869
63.461476,919.314598,222.061783,9474.636058
63.461784,766.095498,-0.000000,9548.656652
63.462092,689.485948,296.082377,9548.656652
63.462400,612.876398,-0.000000,9696.697840
63.462708,-76.609550,296.082377,9696.697840
63.463016,306.438199,296.082377,9992.780217
63.463324,919.314598,-74.020594,9622.677246
63.463633,612.876398,-0.000000,9474.636058
63.463941,919.314598,-0.000000,9474.636058
63.464249,766.095498,-0.000000,9474.636058
63.464557,842.705048,148.041188,9622.677246
63.464865,1072.533697,-0.000000,9474.636058
63.465173,842.705048,-0.000000,9326.594869
63.465481,766.095498,-0.000000,9400.615463
63.465789,459.657299,296.082377,9474.636058
63.466097,689.485948,-0.000000,9474.636058
63.466406,383.047749,-0.000000,9548.656652
63.466714,229.828649,222.061783,9548.656652
63.467022,383.047749,-0.000000,9474.636058
63.467330,76.609550,-0.000000,9474.636058
63.467638,1072.533697,-0.000000,9622.677246
63.467946,919.314598,296.082377,9474.636058
63.468254,383.047749,222.061783,9548.656652
63.468562,383.047749,-0.000000,9622.677246
63.468870,459.657299,-0.000000,9622.677246
63.469179,306.438199,-0.000000,9548.656652
63.469487,689.485948,-0.000000,9474.636058
63.469795,612.876398,-0.000000,9622.677246
63.470103,919.314598,-74.020594,9474.636058
63.470411,459.657299,-222.061783,9474.636058
63.470719,766.095498,296.082377,9622.677246
63.471027,536.266849,-0.000000,9474.636058
63.471335,842.705048,222.061783,9548.656652
63.471643,689.485948,444.123565,9474.636058
63.471951,842.705048,148.041188,9548.656652
63.472260,1302.362347,222.061783,9770.718434
63.472568,842.705048,370.102971,9844.739029
63.472876,919.314598,518.144159,9104.533087
63.473184,995.924147,222.061783,9400.615463
63.473492,766.095498,370.102971,9548.656652
63.473800,689.485948,222.061783,9474.636058
63.474108,612.876398,222.061783,9548.656652
63.474416,229.828649,148.041188,9918.759623
63.474724,689.485948,-0.000000,9622.677246
63.475033,1302.362347,148.041188,9770.718434
63.475341,1149.143247,222.061783,9622.677246
63.475649,1072.533697,370.102971,9696.697840
63.475957,842.705048,444.123565,9696.697840
63.476265,689.485948,148.041188,9918.759623
63.476573,459.657299,370.102971,9918.759623
63.476881,459.657299,444.123565,9622.677246
63.477189,842.705048,222.061783,9622.677246
63.477497,536.266849,-0.000000,9622.677246
63.477805,536.266849,222.061783,9474.636058
63.478114,1149.143247,222.061783,9326.594869
63.478422,919.314598,222.061783,9474.636058
63.478730,842.705048,222.061783,9548.656652
63.479038,842.705048,-0.000000,9400.615463
63.479346,1302.362347,222.061783,9770.718434
63.479654,842.705048,-0.000000,9548.656652
63.479962,766.095498,222.061783,9770.718434
63.480270,995.924147,-0.000000,9696.697840
63.480578,536.266849,296.082377,9474.636058
63.480887,1072.533697,370.102971,9548.656652
63.481195,689.485948,296.082377,9474.636058
63.481503,689.485948,444.123565,9326.594869
63.481811,919.314598,-0.000000,9474.636058
63.482119,612.876398,-222.061783,9696.697840
63.482427,536.266849,-0.000000,9548.656652
63.482735,459.657299,-0.000000,9844.739029
63.483043,76.609550,-0.000000,9770.718434
63.483351,229.828649,-74.020594,9770.718434
63.483660,383.047749,-0.000000,9696.697840
63.483968,536.266849,296.082377,9696.697840
63.484276,766.095498,296.082377,9548.656652
63.484584,995.924147,-148.041188,9548.656652
63.484892,536.266849,222.061783,9252.574275
63.485200,0.000000,-0.000000,9474.636058
63.485508,229.828649,370.102971,9622.677246
63.485816,383.047749,148.041188,9696.697840
63.486124,229.828649,-148.041188,9474.636058
63.486432,76.609550,-74.020594,9474.636058
63.486741,306.438199,-74.020594,9696.697840
63.487049,995.924147,-0.000000,10140.821405
63.487357,0.000000,148.041188,10066.800811
63.487665,229.828649,-0.000000,9918.759623
63.487973,459.657299,296.082377,9474.636058
63.488281,536.266849,222.061783,9474.636058
63.488589,306.438199,148.041188,9474.636058
63.488897,383.047749,148.041188,9474.636058
63.489205,766.095498,222.061783,9474.636058
63.489514,689.485948,296.082377,9474.636058
63.489822,1149.143247,148.041188,9992.780217
63.490130,0.000000,592.164754,9844.739029
63.490438,536.266849,296.082377,9474.636058
63.490746,383.047749,-0.000000,9696.697840
63.491054,383.047749,222.061783,9622.677246
63.491362,612.876398,-0.000000,9474.636058
63.491670,919.314598,370.102971,9622.677246
63.491978,689.485948,-0.000000,10140.821405
63.492287,383.047749,-0.000000,10140.821405
63.492595,383.047749,-222.061783,10362.883188
63.492903,459.657299,370.102971,9770.718434
63.493211,383.047749,296.082377,9622.677246
63.493519,766.095498,444.123565,9622.677246
63.493827,689.485948,444.123565,9474.636058
63.494135,766.095498,222.061783,9548.656652
63.494443,1608.800546,370.102971,9474.636058
63.494751,1072.533697,444.123565,9622.677246
63.495059,919.314598,222.061783,9474.636058
63.495368,995.924147,-0.000000,9474.636058
63.495676,995.924147,-0.000000,9622.677246
63.495984,842.705048,-0.000000,9474.636058
63.496292,689.485948,-0.000000,9622.677246
63.496600,1072.533697,-74.020594,9474.636058
63.496908,919.314598,-0.000000,9770.718434
63.497216,459.657299,370.102971,9548.656652
63.497524,1149.143247,222.061783,9770.718434
63.497832,1149.143247,444.123565,9474.636058
63.498141,1225.752797,592.164754,9474.636058
63.498449,995.924147,592.164754,9622.677246
63.498757,1072.533697,296.082377,9474.636058
63.499065,766.095498,-0.000000,9844.739029
63.499373,919.314598,-0.000000,10066.800811
63.499681,1225.752797,-0.000000,9474.636058
63.499989,766.095498,444.123565,9918.759623
63.500297,689.485948,-0.000000,9474.636058
63.500605,689.485948,-0.000000,9696.697840
63.500913,766.095498,222.061783,9696.697840
63.501222,612.876398,296.082377,9622.677246
63.501530,842.705048,-0.000000,9474.636058
63.501838,919.314598,-148.041188,9400.615463
63.502146,1072.533697,-0.000000,9474.636058
63.502454,459.657299,740.205942,9770.718434
63.502762,459.657299,296.082377,9696.697840
63.503070,536.266849,370.102971,9622.677246
63.503378,766.095498,296.082377,9696.697840
63.503686,536.266849,296.082377,9622.677246
63.503995,536.266849,-0.000000,9770.718434
63.504303,689.485948,-0.000000,9548.656652
63.504611,1072.533697,-0.000000,9400.615463
63.504919,459.657299,-0.000000,9474.636058
63.505227,536.266849,296.082377,9474.636058
63.505535,383.047749,-0.000000,9548.656652
63.505843,689.485948,148.041188,9474.636058
63.506151,612.876398,-0.000000,9622.677246
63.506459,383.047749,370.102971,9696.697840
63.506767,76.609550,-0.000000,9918.759623
63.507075,383.047749,296.082377,9770.718434
63.507383,383.047749,-0.000000,9696.697840
63.507692,306.438199,-222.061783,9622.677246
63.508000,153.219100,-74.020594,9770.718434
63.508308,0.000000,-0.000000,9622.677246
63.508616,153.219100,148.041188,9474.636058
63.508924,766.095498,222.061783,9474.636058
63.509232,459.657299,148.041188,9696.697840
63.509540,689.485948,148.041188,9770.718434
63.509848,306.438199,-0.000000,9474.636058
63.510156,536.266849,370.102971,9326.594869
63.510464,536.266849,-0.000000,9548.656652
63.510772,459.657299,-0.000000,9696.697840
63.511080,229.828649,-0.000000,9548.656652
63.511388,383.047749,-0.000000,9696.697840
63.511696,0.000000,-296.082377,9696.697840
63.512005,536.266849,-148.041188,9844.739029
63.512313,459.657299,-0.000000,9770.718434
63.512621,153.219100,-0.000000,9474.636058
63.512929,229.828649,-0.000000,9622.677246
63.513237,383.047749,-0.000000,9474.636058
63.513545,766.095498,148.041188,9548.656652
63.513853,383.047749,296.082377,9622.677246
63.514161,536.266849,296.082377,9474.636058
63.514469,1225.752797,-0.000000,9474.636058
63.514777,766.095498,-0.000000,9548.656652
63.515085,689.485948,296.082377,9622.677246
63.515393,689.485948,148.041188,9844.739029
63.515701,689.485948,222.061783,9474.636058
63.516009,689.485948,74.020594,9474.636058
63.516318,689.485948,74.020594,9696.697840
63.516626,612.876398,-0.000000,9400.615463
63.516934,766.095498,-74.020594,9474.636058
63.517242,612.876398,148.041188,9474.636058
63.517550,1072.533697,444.123565,9400.615463
63.517858,919.314598,370.102971,9400.615463
63.518166,995.924147,296.082377,9548.656652
63.518474,1149.143247,-0.000000,9696.697840
63.518782,612.876398,-0.000000,9696.697840
63.519090,689.485948,-222.061783,9696.697840
63.519398,842.705048,-222.061783,9400.615463
63.519706,689.485948,-74.020594,9622.677246
63.520014,919.314598,148.041188,9622.677246
63.520322,689.485948,-0.000000,9548.656652
63.520631,995.924147,148.041188,9474.636058
63.520939,995.924147,148.041188,9548.656652
63.521247,1302.362347,370.102971,9770.718434
63.521555,1378.971896,296.082377,9474.636058
63.521863,1072.533697,296.082377,9400.615463
63.522171,1072.533697,518.144159,9622.677246
63.522479,919.314598,444.123565,9400.615463
63.522787,995.924147,296.082377,9474.636058
63.523095,536.266849,148.041188,9622.677246
63.523403,612.876398,-0.000000,9696.697840
63.523711,229.828649,-0.000000,9474.636058
63.524019,536.266849,-0.000000,9548.656652
63.524327,766.095498,-0.000000,9918.759623
63.524635,766.095498,148.041188,9400.615463
63.524944,689.485948,222.061783,9622.677246
63.525252,612.876398,296.082377,9844.739029
63.525560,689.485948,370.102971,9770.718434
63.525868,766.095498,148.041188,9474.636058
63.526176,842.705048,222.061783,9474.636058
63.526484,536.266849,-0.000000,9474.636058
63.526792,612.876398,296.082377,9400.615463
63.527100,536.266849,296.082377,9696.697840
63.527408,459.657299,444.123565,9696.697840
63.527716,383.047749,-0.000000,9326.594869
63.528024,459.657299,148.041188,9474.636058
63.528332,536.266849,-0.000000,9548.656652
63.528640,153.219100,-148.041188,9696.697840
63.528948,536.266849,-296.082377,9770.718434
63.529257,229.828649,296.082377,9992.780217
63.529565,229.828649,222.061783,9844.739029
63.529873,536.266849,-0.000000,9770.718434
63.530181,612.876398,296.082377,9474.636058
63.530489,689.485948,370.102971,9474.636058
63.530797,1072.533697,518.144159,9474.636058
63.531105,612.876398,-0.000000,9474.636058
63.531413,306.438199,-0.000000,9696.697840
63.531721,459.657299,-0.000000,9400.615463
63.532029,842.705048,-222.061783,9622.677246
63.532337,459.657299,-0.000000,9622.677246
63.532645,383.047749,-74.020594,9770.718434
63.532953,0.000000,-74.020594,9770.718434
63.533261,536.266849,-74.020594,9696.697840
63.533570,766.095498,-0.000000,9548.656652
63.533878,459.657299,-0.000000,9474.636058
63.534186,919.314598,-0.000000,9622.677246
63.534494,842.705048,148.041188,9474.636058
63.534802,842.705048,444.123565,9474.636058
63.535110,766.095498,148.041188,9622.677246
63.535418,689.485948,296.082377,9548.656652
63.535726,766.095498,370.102971,9622.677246
63.536034,919.314598,148.041188,9548.656652
63.536342,459.657299,-0.000000,9400.615463
63.536650,459.657299,-0.000000,9622.677246
63.536958,612.876398,148.041188,9548.656652
63.537266,459.657299,222.061783,9918.759623
63.537574,612.876398,222.061783,9548.656652
63.537883,842.705048,370.102971,9548.656652
63.538191,1302.362347,296.082377,9548.656652
63.538499,229.828649,222.061783,9696.697840
63.538807,153.219100,148.041188,9992.780217
63.539115,919.314598,-0.000000,9622.677246
63.539423,383.047749,148.041188,9696.697840
63.539731,536.266849,444.123565,9548.656652
63.540039,612.876398,296.082377,9548.656652
63.540347,766.095498,444.123565,9474.636058
63.540655,766.095498,-0.000000,9622.677246
63.540963,1149.143247,222.061783,9474.636058
63.541271,919.314598,-148.041188,9918.759623
63.541579,689.485948,-0.000000,9696.697840
63.541887,766.095498,-0.000000,9622.677246
63.542196,459.657299,296.082377,9696.697840
63.542504,689.485948,222.061783,9622.677246
63.542812,536.266849,296.082377,9474.636058
63.543120,919.314598,148.041188,9770.718434
63.543428,689.485948,296.082377,9918.759623
63.543736,995.924147,370.102971,9770.718434
63.544044,689.485948,-0.000000,9548.656652
63.544352,842.705048,444.123565,9622.677246
63.544660,536.266849,-0.000000,9474.636058
63.544968,459.657299,296.082377,9400.615463
63.545276,536.266849,222.061783,9696.697840
63.545584,612.876398,-0.000000,9696.697840
63.545892,229.828649,74.020594,10362.883188
63.546200,536.266849,-0.000000,10140.821405
63.546509,383.047749,-0.000000,9400.615463
63.546817,459.657299,-0.000000,9622.677246
63.547125,612.876398,222.061783,9548.656652
63.547433,612.876398,148.041188,9474.636058
63.547741,689.485948,296.082377,9548.656652
63.548049,689.485948,-0.000000,9622.677246
63.548357,612.876398,222.061783,9548.656652
63.548665,612.876398,-0.000000,9474.636058
63.548973,153.219100,296.082377,9326.594869
63.549281,919.314598,222.061783,9548.656652
63.549589,459.657299,222.061783,9548.656652
63.549897,383.047749,-0.000000,9548.656652
63.550205,459.657299,148.041188,9622.677246
63.550513,383.047749,-0.000000,9770.718434
63.550822,536.266849,-74.020594,9770.718434
63.551130,459.657299,222.061783,9548.656652
63.551438,766.095498,-148.041188,9400.615463
63.551746,689.485948,222.061783,9622.677246
63.552054,383.047749,-0.000000,9548.656652
63.552362,536.266849,-0.000000,9622.677246
63.552670,612.876398,444.123565,9474.636058
63.552978,689.485948,-0.000000,9548.656652
63.553286,229.828649,370.102971,9844.739029
63.553594,229.828649,-74.020594,9770.718434
63.553902,459.657299,-0.000000,9770.718434
63.554210,459.657299,296.082377,9548.656652
63.554518,536.266849,370.102971,9474.636058
63.554826,766.095498,222.061783,9474.636058
63.555135,995.924147,444.123565,9622.677246
63.555443,612.876398,-222.061783,9474.636058
63.555751,842.705048,-0.000000,9622.677246
63.556059,612.876398,-0.000000,9696.697840
63.556367,306.438199,-0.000000,9770.718434
63.556675,612.876398,222.061783,9622.677246
63.556983,612.876398,148.041188,9844.739029
63.557291,612.876398,222.061783,9696.697840
63.557599,306.438199,-0.000000,9770.718434
63.557907,459.657299,-0.000000,9696.697840
63.558215,689.485948,444.123565,9696.697840
63.558523,842.705048,518.144159,9770.718434
63.558831,919.314598,296.082377,9622.677246
63.559139,1072.533697,-0.000000,9400.615463
63.559448,766.095498,296.082377,9474.636058
63.559756,995.924147,370.102971,9474.636058
63.560064,995.924147,370.102971,9548.656652
63.560372,689.485948,296.082377,9548.656652
63.560680,842.705048,222.061783,9622.677246
63.560988,536.266849,222.061783,9844.739029
63.561296,536.266849,222.061783,9696.697840
63.561604,383.047749,-0.000000,9474.636058
63.561912,383.047749,222.061783,9918.759623
63.562220,459.657299,296.082377,9622.677246
63.562528,306.438199,370.102971,9474.636058
63.562836,766.095498,222.061783,9474.636058
63.563144,995.924147,370.102971,9844.739029
63.563452,306.438199,-148.041188,9918.759623
63.563761,306.438199,-0.000000,9844.739029
63.564069,306.438199,296.082377,9918.759623
63.564377,383.047749,222.061783,9770.718434
63.564685,383.047749,-0.000000,9696.697840
63.564993,689.485948,-0.000000,9474.636058
63.565301,766.095498,-0.000000,9474.636058
63.565609,459.657299,148.041188,9548.656652
63.565917,689.485948,-0.000000,9474.636058
63.566225,536.266849,370.102971,9474.636058
63.566533,536.266849,296.082377,9326.594869
63.566841,689.485948,444.123565,9474.636058
63.567149,612.876398,296.082377,9400.615463
63.567457,919.314598,222.061783,9474.636058
63.567765,459.657299,-0.000000,9770.718434
63.568074,536.266849,-0.000000,9400.615463
63.568382,842.705048,-148.041188,9918.759623
63.568690,383.047749,-0.000000,9770.718434
63.568998,306.438199,-0.000000,9474.636058
63.569306,383.047749,-0.000000,9696.697840
63.569614,306.438199,148.041188,9696.697840
63.569922,153.219100,-0.000000,9770.718434
63.570230,612.876398,-0.000000,9696.697840
63.570538,842.705048,-0.000000,9400.615463
63.570846,229.828649,-222.061783,9548.656652
63.571154,612.876398,-0.000000,9474.636058
63.571462,766.095498,148.041188,9474.636058
63.571770,766.095498,74.020594,9400.615463
63.572078,612.876398,296.082377,9400.615463
63.572387,1072.533697,296.082377,9178.553681
63.572695,1149.143247,-0.000000,9474.636058
63.573003,842.705048,-0.000000,9548.656652
63.573311,995.924147,-0.000000,9474.636058
63.573619,306.438199,148.041188,9474.636058
63.573927,459.657299,148.041188,9918.759623
63.574235,459.657299,-0.000000,9622.677246
63.574543,459.657299,296.082377,9844.739029
63.574851,459.657299,296.082377,9770.718434
63.575159,459.657299,-74.020594,9918.759623
63.575467,1149.143247,-0.000000,9918.759623
63.575775,919.314598,-0.000000,9770.718434
63.576083,919.314598,370.102971,9548.656652
63.576391,766.095498,296.082377,9474.636058
63.576700,689.485948,370.102971,9696.697840
63.577008,612.876398,370.102971,9548.656652
63.577316,689.485948,666.185348,9918.759623
63.577624,919.314598,-0.000000,9474.636058
63.577932,459.657299,222.061783,9474.636058
63.578240,766.095498,-148.041188,9918.759623
63.578548,536.266849,296.082377,9622.677246
63.578856,919.314598,148.041188,9548.656652
63.579164,689.485948,148.041188,9770.718434
63.579472,689.485948,-0.000000,9770.718434
63.579780,1302.362347,-0.000000,9696.697840
63.580088,766.095498,444.123565,9622.677246
63.580396,766.095498,-0.000000,9770.718434
63.580704,536.266849,-0.000000,9104.533087
63.581013,766.095498,370.102971,9548.656652
63.581321,766.095498,444.123565,9474.636058
63.581629,536.266849,222.061783,9400.615463
63.581937,766.095498,148.041188,9622.677246
63.582245,919.314598,296.082377,9696.697840
63.582553,689.485948,-0.000000,9770.718434
63.582861,842.705048,-0.000000,9844.739029
63.583169,612.876398,-0.000000,9474.636058
63.583477,0.000000,-0.000000,9622.677246
63.583785,612.876398,296.082377,9548.656652
63.584093,689.485948,296.082377,9622.677246
63.584401,689.485948,148.041188,9548.656652
63.584709,612.876398,222.061783,9548.656652
63.585017,842.705048,222.061783,9474.636058
63.585326,612.876398,296.082377,9474.636058
63.585634,612.876398,222.061783,9474.636058
63.585942,842.705048,370.102971,9474.636058
63.586250,689.485948,370.102971,9474.636058
63.586558,459.657299,222.061783,9474.636058
63.586866,689.485948,-0.000000,9622.677246
63.587174,536.266849,-0.000000,9918.759623
63.587482,76.609550,-370.102971,9474.636058
63.587790,536.266849,-0.000000,9622.677246
63.588098,383.047749,222.061783,9622.677246
63.588406,306.438199,222.061783,9474.636058
63.588714,383.047749,296.082377,9622.677246
63.589022,536.266849,296.082377,9622.677246
63.589330,306.438199,296.082377,9474.636058
63.589639,459.657299,444.123565,9770.718434
63.589947,612.876398,-148.041188,9622.677246
63.590255,1455.581446,-0.000000,9548.656652
63.590563,536.266849,-0.000000,9770.718434
63.590871,459.657299,-0.000000,9548.656652
63.591179,383.047749,-0.000000,9474.636058
63.591487,536.266849,148.041188,9474.636058
63.591795,229.828649,-0.000000,9548.656652
63.592103,76.609550,-0.000000,9844.739029
63.592411,229.828649,444.123565,10140.821405
63.592719,229.828649,296.082377,9770.718434
63.593027,459.657299,370.102971,9474.636058
63.593335,612.876398,444.123565,9548.656652
63.593643,689.485948,370.102971,9622.677246
63.593952,842.705048,370.102971,9474.636058
63.594260,689.485948,-0.000000,9548.656652
63.594568,459.657299,222.061783,9992.780217
63.594876,306.438199,222.061783,9770.718434
63.595184,536.266849,-0.000000,9474.636058
63.595492,766.095498,-0.000000,9326.594869
63.595800,536.266849,-0.000000,9622.677246
63.596108,536.266849,-0.000000,9548.656652
63.596416,383.047749,-0.000000,9770.718434
63.596724,612.876398,-0.000000,9696.697840
63.597032,612.876398,-74.020594,9548.656652
63.597340,689.485948,-0.000000,9696.697840
63.597648,842.705048,-148.041188,9474.636058
63.597956,1072.533697,592.164754,9770.718434
63.598265,995.924147,592.164754,9548.656652
63.598573,919.314598,592.164754,9548.656652
63.598881,995.924147,444.123565,9474.636058
63.599189,689.485948,666.185348,9622.677246
63.599497,306.438199,814.226536,9770.718434
63.599805,1225.752797,592.164754,9918.759623
63.600113,842.705048,-0.000000,9622.677246
63.600421,612.876398,-148.041188,9474.636058
63.600729,689.485948,-0.000000,9622.677246
63.601037,536.266849,-0.000000,9696.697840
63.601345,536.266849,-0.000000,9844.739029
63.601653,612.876398,-0.000000,9844.739029
63.601961,766.095498,-0.000000,9770.718434
63.602269,-76.609550,592.164754,10066.800811
63.602578,995.924147,444.123565,9918.759623
63.602886,919.314598,-0.000000,9104.533087
63.603194,766.095498,444.123565,9474.636058
63.603502,842.705048,518.144159,9326.594869
63.603806,766.095498,222.061783,9326.594869
63.604114,766.095498,296.082377,9474.636058
63.604422,612.876398,296.082377,9400.615463
63.604730,0.000000,-296.082377,9252.574275
63.605038,536.266849,-74.020594,9474.636058
63.605346,306.438199,222.061783,9696.697840
63.605653,612.876398,222.061783,9622.677246
63.605961,842.705048,-0.000000,9696.697840
63.606269,536.266849,148.041188,9770.718434
63.606577,612.876398,222.061783,9548.656652
63.606885,689.485948,-0.000000,9622.677246
63.607193,536.266849,370.102971,9696.697840
63.607501,919.314598,592.164754,9844.739029
63.607809,995.924147,222.061783,9400.615463
63.608117,689.485948,222.061783,9474.636058
63.608425,766.095498,296.082377,9474.636058
63.608733,536.266849,370.102971,9474.636058
63.609041,536.266849,-0.000000,9622.677246
63.609349,536.266849,-0.000000,9770.718434
63.609657,536.266849,-148.041188,10066.800811
63.609965,229.828649,222.061783,9696.697840
63.610273,689.485948,-296.082377,9400.615463
63.610581,306.438199,-0.000000,9622.677246
63.610889,612.876398,148.041188,9696.697840
63.611197,536.266849,370.102971,9548.656652
63.611505,766.095498,222.061783,9474.636058
63.611813,1225.752797,-0.000000,9696.697840
63.612121,1225.752797,296.082377,9326.594869
63.612429,536.266849,296.082377,9400.615463
63.612737,842.705048,592.164754,9030.512492
63.613045,536.266849,296.082377,9474.636058
63.613353,612.876398,148.041188,9622.677246
63.613661,383.047749,148.041188,9474.636058
63.613969,306.438199,148.041188,9474.636058
63.614277,689.485948,-0.000000,9770.718434
63.614585,612.876398,-148.041188,10066.800811
63.614892,229.828649,-148.041188,10214.842000
63.615200,153.219100,-0.000000,10066.800811
63.615508,612.876398,-0.000000,9696.697840
63.615816,766.095498,-0.000000,9918.759623
63.616124,459.657299,148.041188,9696.697840
63.616432,612.876398,222.061783,9474.636058
63.616740,459.657299,-222.061783,9548.656652
63.617048,766.095498,296.082377,9622.677246
63.617356,383.047749,444.123565,9474.636058
63.617664,459.657299,222.061783,9252.574275
63.617972,995.924147,370.102971,9178.553681
63.618280,842.705048,370.102971,9326.594869
63.618588,766.095498,222.061783,9696.697840
63.618896,612.876398,222.061783,9696.697840
63.619204,229.828649,148.041188,10066.800811
63.619512,153.219100,-148.041188,9992.780217
63.619820,229.828649,222.061783,10066.800811
63.620128,383.047749,296.082377,9992.780217
63.620436,612.876398,148.041188,9622.677246
63.620744,536.266849,370.102971,9252.574275
63.621052,536.266849,444.123565,9548.656652
63.621360,842.705048,222.061783,9474.636058
63.621668,689.485948,-0.000000,9548.656652
63.621976,1072.533697,222.061783,9474.636058
63.622284,612.876398,-0.000000,9770.718434
63.622592,383.047749,370.102971,9992.780217
63.622900,229.828649,-0.000000,9696.697840
63.623208,536.266849,370.102971,9622.677246
63.623516,689.485948,296.082377,9622.677246
63.623824,919.314598,444.123565,9622.677246
63.624131,459.657299,-148.041188,9474.636058
63.624439,1225.752797,-0.000000,9696.697840
63.624747,689.485948,-148.041188,9548.656652
63.625055,612.876398,-0.000000,9400.615463
63.625363,383.047749,444.123565,9548.656652
63.625671,842.705048,592.164754,9326.594869
63.625979,842.705048,666.185348,9474.636058
63.626287,1225.752797,370.102971,9548.656652
63.626595,766.095498,148.041188,9622.677246
63.626903,0.000000,370.102971,9548.656652
63.627211,766.095498,-0.000000,9622.677246
63.627519,459.657299,148.041188,9696.697840
63.627827,383.047749,-0.000000,9770.718434
63.628135,612.876398,296.082377,9622.677246
63.628443,689.485948,-0.000000,9548.656652
63.628751,229.828649,-74.020594,9770.718434
63.629059,689.485948,-0.000000,9918.759623
63.629367,536.266849,-74.020594,9844.739029
63.629675,459.657299,222.061783,9622.677246
63.629983,842.705048,222.061783,9104.533087
63.630291,689.485948,518.144159,9474.636058
63.630599,919.314598,370.102971,9474.636058
63.630907,689.485948,444.123565,9400.615463
63.631215,1072.533697,296.082377,9252.574275
63.631523,612.876398,518.144159,9400.615463
63.631831,689.485948,222.061783,9326.594869
63.632139,766.095498,-0.000000,9474.636058
63.632447,306.438199,-0.000000,9400.615463
63.632755,459.657299,148.041188,9548.656652
63.633062,229.828649,-74.020594,9548.656652
63.633370,383.047749,-148.041188,10140.821405
63.633678,612.876398,-0.000000,9770.718434
63.633986,689.485948,222.061783,10066.800811
63.634294,766.095498,-0.000000,9696.697840
63.634602,766.095498,-0.000000,9400.615463
63.634910,919.314598,370.102971,9252.574275
63.635218,1149.143247,518.144159,9326.594869
63.635526,689.485948,370.102971,9252.574275
63.635834,842.705048,296.082377,9548.656652
63.636142,1072.533697,-0.000000,9770.718434
63.636450,1149.143247,222.061783,9548.656652
63.636758,536.266849,296.082377,9474.636058
63.637066,919.314598,-148.041188,9622.677246
63.637374,383.047749,-74.020594,9844.739029
63.637682,612.876398,222.061783,9622.677246
63.637990,459.657299,222.061783,9696.697840
63.638298,383.047749,296.082377,9548.656652
63.638606,1149.143247,296.082377,9252.574275
63.638914,1149.143247,592.164754,9696.697840
63.639222,689.485948,740.205942,9474.636058
63.639530,689.485948,740.205942,9474.636058
63.639838,842.705048,148.041188,9474.636058
63.640146,536.266849,296.082377,9548.656652
63.640454,766.095498,296.082377,9548.656652
63.640762,536.266849,-0.000000,9622.677246
63.641070,383.047749,-0.000000,9548.656652
63.641378,306.438199,-74.020594,9696.697840
63.641686,689.485948,-222.061783,9992.780217
63.641994,383.047749,296.082377,9992.780217
63.642301,306.438199,-0.000000,9918.759623
63.642609,612.876398,222.061783,9622.677246
63.642917,459.657299,370.102971,9474.636058
63.643225,459.657299,444.123565,9474.636058
63.643533,459.657299,592.164754,9696.697840
63.643841,842.705048,-0.000000,9696.697840
63.644149,612.876398,-0.000000,9622.677246
63.644457,459.657299,148.041188,9770.718434
63.644765,459.657299,296.082377,9474.636058
63.645073,612.876398,-0.000000,9622.677246
63.645381,459.657299,148.041188,9770.718434
63.645689,459.657299,-0.000000,9770.718434
63.645997,383.047749,-0.000000,9844.739029
63.646305,536.266849,-74.020594,9326.594869
63.646613,229.828649,-0.000000,9696.697840
63.646921,459.657299,370.102971,9474.636058
63.647229,842.705048,444.123565,9548.656652
63.647537,689.485948,296.082377,9474.636058
63.647845,766.095498,444.123565,9474.636058
63.648153,689.485948,148.041188,9474.636058
63.648461,689.485948,296.082377,9844.739029
63.648769,919.314598,-74.020594,9770.718434
63.649077,383.047749,444.123565,9622.677246
63.649385,383.047749,-0.000000,9992.780217
63.649693,459.657299,-0.000000,9696.697840
63.650001,306.438199,-0.000000,9622.677246
63.650309,306.438199,-0.000000,9696.697840
63.650617,306.438199,-0.000000,9548.656652
63.650925,459.657299,296.082377,9696.697840
63.651233,1149.143247,-74.020594,9844.739029
63.651540,689.485948,-0.000000,9474.636058
63.651848,919.314598,518.144159,9696.697840
63.652156,766.095498,222.061783,9400.615463
63.652464,689.485948,444.123565,9400.615463
63.652772,842.705048,370.102971,9400.615463
63.653080,689.485948,296.082377,9474.636058
63.653388,919.314598,-0.000000,9400.615463
63.653696,536.266849,-0.000000,9326.594869
63.654004,689.485948,-0.000000,9474.636058
63.654312,306.438199,-0.000000,9844.739029
63.654620,689.485948,296.082377,9548.656652
63.654928,689.485948,-0.000000,9474.636058
63.655236,612.876398,-0.000000,9474.636058
63.655544,459.657299,222.061783,9622.677246
63.655852,536.266849,370.102971,9992.780217
63.656160,995.924147,-0.000000,9474.636058
63.656468,1149.143247,-74.020594,9622.677246
63.656776,306.438199,-0.000000,9622.677246
63.657084,612.876398,-0.000000,9622.677246
63.657392,842.705048,148.041188,9400.615463
63.657700,689.485948,222.061783,9474.636058
63.658008,689.485948,222.061783,9326.594869
63.658316,689.485948,148.041188,9622.677246
63.658624,612.876398,296.082377,9622.677246
63.658932,766.095498,-0.000000,9474.636058
63.659240,536.266849,148.041188,9548.656652
63.659548,842.705048,148.041188,9474.636058
63.659856,612.876398,296.082377,9622.677246
63.660164,612.876398,148.041188,9696.697840
63.660472,995.924147,222.061783,9548.656652
63.660779,459.657299,296.082377,9548.656652
63.661087,536.266849,148.041188,9622.677246
63.661395,1072.533697,-0.000000,9474.636058
63.661703,612.876398,296.082377,9696.697840
63.662011,536.266849,296.082377,9622.677246
63.662319,383.047749,370.102971,9622.677246
63.662627,383.047749,296.082377,9548.656652
63.662935,689.485948,370.102971,9474.636058
63.663243,459.657299,370.102971,9770.718434
63.663551,229.828649,222.061783,9696.697840
63.663859,153.219100,-0.000000,9770.718434
63.664167,536.266849,-0.000000,10066.800811
63.664475,383.047749,222.061783,9696.697840
63.664783,536.266849,222.061783,9696.697840
63.665091,459.657299,296.082377,9474.636058
63.665399,383.047749,370.102971,9400.615463
63.665707,995.924147,-0.000000,9178.553681
63.666015,689.485948,592.164754,9844.739029
63.666323,383.047749,148.041188,9548.656652
63.666631,612.876398,-0.000000,9400.615463
63.666939,536.266849,370.102971,9474.636058
63.667247,459.657299,370.102971,9696.697840
63.667555,612.876398,148.041188,9622.677246
63.667863,536.266849,222.061783,9918.759623
63.668171,459.657299,-0.000000,9844.739029
63.668479,153.219100,-296.082377,9992.780217
63.668787,76.609550,-296.082377,9992.780217
63.669095,229.828649,-0.000000,10066.800811
63.669403,306.438199,-74.020594,9844.739029
63.669711,306.438199,-0.000000,9474.636058
63.670018,689.485948,148.041188,9474.636058
63.670326,1225.752797,296.082377,9474.636058
63.670634,1072.533697,-0.000000,9400.615463
63.670942,842.705048,370.102971,9548.656652
63.671250,612.876398,370.102971,9696.697840
63.671558,766.095498,-0.000000,9474.636058
63.671866,612.876398,370.102971,9474.636058
63.672174,995.924147,296.082377,9474.636058
63.672482,612.876398,370.102971,9622.677246
63.672790,842.705048,-0.000000,9548.656652
63.673098,995.924147,-0.000000,9474.636058
63.673406,383.047749,-0.000000,9696.697840
63.673714,766.095498,222.061783,9696.697840
63.674022,612.876398,370.102971,9622.677246
63.674330,612.876398,222.061783,9474.636058
63.674638,689.485948,222.061783,9474.636058
63.674946,766.095498,-0.000000,9548.656652
63.675254,919.314598,-0.000000,9696.697840
63.675562,536.266849,-0.000000,9992.780217
63.675870,612.876398,-444.123565,9696.697840
63.676178,1072.533697,-0.000000,9992.780217
63.676486,689.485948,-296.082377,9622.677246
63.676794,766.095498,-0.000000,9844.739029
63.677102,612.876398,-0.000000,9622.677246
63.677410,766.095498,222.061783,9474.636058
63.677718,1225.752797,-0.000000,9474.636058
63.678026,995.924147,-0.000000,9252.574275
63.678334,919.314598,222.061783,9104.533087
63.678642,919.314598,296.082377,9178.553681
63.678950,766.095498,370.102971,9400.615463
63.679257,612.876398,296.082377,9622.677246
63.679565,689.485948,296.082377,9770.718434
63.679873,536.266849,222.061783,9474.636058
63.680181,459.657299,-0.000000,9474.636058
63.680489,766.095498,-0.000000,9474.636058
63.680797,766.095498,444.123565,9918.759623
63.681105,612.876398,-0.000000,9548.656652
63.681413,383.047749,148.041188,9474.636058
63.681721,229.828649,222.061783,9548.656652
63.682029,459.657299,-0.000000,9548.656652
63.682337,229.828649,74.020594,9474.636058
63.682645,842.705048,-0.000000,9548.656652
63.682953,76.609550,148.041188,9770.718434
63.683261,536.266849,-0.000000,9918.759623
63.683569,689.485948,-148.041188,9696.697840
63.683877,383.047749,296.082377,9474.636058
63.684185,612.876398,296.082377,9474.636058
63.684493,689.485948,592.164754,9548.656652
63.684801,919.314598,370.102971,9548.656652
63.685109,995.924147,444.123565,9178.553681
63.685417,995.924147,296.082377,9326.594869
63.685725,536.266849,296.082377,9770.718434
63.686033,536.266849,444.123565,9844.739029
63.686341,536.266849,222.061783,9548.656652
63.686649,459.657299,222.061783,9474.636058
63.686957,459.657299,222.061783,9696.697840
63.687265,153.219100,-0.000000,9918.759623
63.687573,76.609550,-222.061783,9770.718434
63.687881,689.485948,-0.000000,9770.718434
63.688189,0.000000,296.082377,9548.656652
63.688496,766.095498,444.123565,9918.759623
63.688804,536.266849,518.144159,9696.697840
63.689112,919.314598,370.102971,9474.636058
63.689420,842.705048,444.123565,9474.636058
63.689728,612.876398,296.082377,9548.656652
63.690036,459.657299,222.061783,9844.739029
63.690344,229.828649,148.041188,9622.677246
63.690652,766.095498,-0.000000,9622.677246
63.690960,306.438199,-74.020594,9178.553681
63.691268,229.828649,-0.000000,9548.656652
63.691576,536.266849,-74.020594,9548.656652
63.691884,229.828649,-74.020594,9770.718434
63.692192,153.219100,-0.000000,9918.759623
63.692500,306.438199,-0.000000,9992.780217
63.692808,459.657299,-0.000000,9844.739029
63.693116,766.095498,370.102971,9622.677246
63.693424,919.314598,666.185348,9770.718434
63.693732,995.924147,518.144159,9474.636058
63.694040,919.314598,666.185348,9548.656652
63.694348,919.314598,592.164754,9474.636058
63.694656,689.485948,444.123565,9474.636058
63.694964,459.657299,-74.020594,9400.615463
63.695272,766.095498,148.041188,9918.759623
63.695580,229.828649,-222.061783,9696.697840
63.695888,612.876398,-148.041188,9770.718434
63.696196,383.047749,-0.000000,9770.718434
63.696504,153.219100,-0.000000,9844.739029
63.696812,229.828649,-0.000000,9696.697840
63.697120,842.705048,370.102971,9622.677246
63.697428,1072.533697,-0.000000,9696.697840
63.697735,536.266849,148.041188,9474.636058
63.698043,919.314598,222.061783,9844.739029
63.698351,536.266849,148.041188,9548.656652
63.698659,766.095498,222.061783,9548.656652
63.698967,766.095498,222.061783,9474.636058
63.699275,689.485948,296.082377,9474.636058
63.699583,995.924147,-0.000000,9474.636058
63.699891,919.314598,-0.000000,9770.718434
63.700199,229.828649,-0.000000,9548.656652
63.700507,766.095498,-222.061783,9622.677246
63.700815,1149.143247,-296.082377,9400.615463
63.701123,919.314598,296.082377,9252.574275
63.701431,766.095498,444.123565,9400.615463
63.701739,995.924147,370.102971,9474.636058
63.702047,689.485948,222.061783,9474.636058
63.702355,842.705048,-74.020594,9474.636058
63.702663,306.438199,-74.020594,9326.594869
63.702971,383.047749,-0.000000,9696.697840
63.703279,383.047749,-0.000000,9918.759623
63.703587,536.266849,-0.000000,9474.636058
63.703895,612.876398,-0.000000,9622.677246
63.704203,612.876398,-74.020594,9474.636058
63.704511,766.095498,-0.000000,9326.594869
63.704819,766.095498,-0.000000,9252.574275
63.705127,842.705048,-0.000000,9400.615463
63.705435,536.266849,-0.000000,8660.409521
63.705743,612.876398,444.123565,9622.677246
63.706051,536.266849,370.102971,9326.594869
63.706359,766.095498,296.082377,9474.636058
63.706667,536.266849,296.082377,9548.656652
63.706975,766.095498,296.082377,9474.636058
63.707283,612.876398,-0.000000,9474.636058
63.707591,383.047749,-0.000000,9622.677246
63.707899,766.095498,-0.000000,9326.594869
63.708207,842.705048,-148.041188,9400.615463
63.708515,383.047749,-0.000000,9474.636058
63.708823,536.266849,148.041188,9474.636058
63.709131,612.876398,222.061783,9474.636058
63.709439,153.219100,370.102971,9548.656652
63.709747,536.266849,222.061783,9992.780217
63.710055,842.705048,-0.000000,9622.677246
63.710363,919.314598,-0.000000,9548.656652
63.710671,766.095498,-0.000000,9918.759623
63.710979,459.657299,148.041188,9622.677246
63.711287,229.828649,222.061783,9696.697840
63.711595,612.876398,296.082377,9844.739029
63.711903,383.047749,74.020594,9474.636058
63.712211,1072.533697,518.144159,9844.739029
63.712518,766.095498,296.082377,9474.636058
63.712826,612.876398,370.102971,9474.636058
63.713134,842.705048,148.041188,9474.636058
63.713442,766.095498,518.144159,9622.677246
63.713750,459.657299,444.123565,9548.656652
63.714058,766.095498,370.102971,9696.697840
63.714366,536.266849,444.123565,9696.697840
63.714674,842.705048,-0.000000,9622.677246
63.714982,383.047749,370.102971,9696.697840
63.715290,919.314598,148.041188,10066.800811
63.715598,383.047749,-0.000000,9992.780217
63.715906,459.657299,-0.000000,9770.718434
63.716214,383.047749,222.061783,9474.636058
63.716522,306.438199,444.123565,9770.718434
63.716830,536.266849,296.082377,9696.697840
63.717138,689.485948,444.123565,9622.677246
63.717446,1378.971896,444.123565,9622.677246
63.717754,995.924147,-0.000000,9696.697840
63.718062,766.095498,148.041188,9474.636058
63.718370,459.657299,222.061783,9918.759623
63.718678,383.047749,-0.000000,9696.697840
63.718986,612.876398,-0.000000,9770.718434
63.719294,306.438199,-0.000000,9622.677246
63.719602,919.314598,-0.000000,9696.697840
63.719910,383.047749,-0.000000,9548.656652
63.720218,842.705048,296.082377,9918.759623
63.720526,842.705048,518.144159,9696.697840
63.720834,842.705048,222.061783,9548.656652
63.721142,612.876398,518.144159,9548.656652
63.721450,689.485948,222.061783,9400.615463
63.721758,766.095498,370.102971,9474.636058
63.722066,689.485948,370.102971,9326.594869
63.722374,1149.143247,-0.000000,9400.615463
63.722682,536.266849,-0.000000,9696.697840
63.722990,612.876398,-0.000000,9696.697840
63.723298,383.047749,-0.000000,9622.677246
63.723606,383.047749,-0.000000,9474.636058
63.723914,536.266849,-0.000000,9622.677246
63.724222,689.485948,-74.020594,9474.636058
63.724530,842.705048,-74.020594,9770.718434
63.724838,995.924147,-222.061783,9326.594869
63.725146,1149.143247,-0.000000,9326.594869
63.725454,995.924147,-0.000000,9326.594869
63.725762,919.314598,222.061783,9548.656652
63.726070,689.485948,370.102971,9104.533087
63.726378,689.485948,296.082377,8882.471304
63.726686,842.705048,-0.000000,9326.594869
63.726994,842.705048,-0.000000,9252.574275
63.727302,919.314598,222.061783,9992.780217
63.727610,612.876398,-0.000000,9474.636058
63.727918,842.705048,148.041188,9400.615463
63.728226,383.047749,-74.020594,9770.718434
63.728534,383.047749,-148.041188,9844.739029
63.728842,153.219100,-74.020594,9622.677246
63.729150,76.609550,-296.082377,9696.697840
63.729458,76.609550,-0.000000,10066.800811
63.729766,689.485948,-0.000000,9992.780217
63.730074,689.485948,-0.000000,9696.697840
63.730382,536.266849,444.123565,9326.594869
63.730690,689.485948,296.082377,9252.574275
63.730998,842.705048,370.102971,9400.615463
63.731306,995.924147,296.082377,9326.594869
63.731614,766.095498,518.144159,9474.636058
63.731922,1302.362347,-0.000000,9474.636058
63.732230,1149.143247,-0.000000,9548.656652
63.732538,689.485948,-0.000000,9474.636058
63.732846,459.657299,-0.000000,9622.677246
63.733154,536.266849,-0.000000,9622.677246
63.733462,459.657299,296.082377,9548.656652
63.733770,459.657299,444.123565,9548.656652
63.734078,0.000000,-222.061783,9844.739029
63.734386,842.705048,-0.000000,9918.759623
63.734694,536.266849,148.041188,10140.821405
63.735002,306.438199,-0.000000,9400.615463
63.735310,459.657299,222.061783,9918.759623
63.735618,383.047749,296.082377,9770.718434
63.735926,383.047749,222.061783,9622.677246
63.736234,766.095498,370.102971,9548.656652
63.736542,383.047749,296.082377,9844.739029
63.736850,-76.609550,518.144159,9844.739029
63.737158,919.314598,370.102971,9770.718434
63.737466,842.705048,222.061783,9770.718434
63.737774,842.705048,592.164754,9474.636058
63.738082,689.485948,740.205942,9622.677246
63.738390,612.876398,518.144159,9474.636058
63.738698,612.876398,370.102971,9622.677246
63.739006,766.095498,296.082377,9696.697840
63.739314,383.047749,-0.000000,9548.656652
63.739622,383.047749,518.144159,9992.780217
63.739930,383.047749,-0.000000,9770.718434
63.740238,459.657299,444.123565,9548.656652
63.740546,689.485948,370.102971,9474.636058
63.740854,689.485948,444.123565,9622.677246
63.741162,536.266849,296.082377,9622.677246
63.741470,766.095498,-0.000000,9918.759623
63.741778,995.924147,-0.000000,9548.656652
63.742086,383.047749,-0.000000,9844.739029
63.742394,0.000000,-74.020594,9770.718434
63.742702,306.438199,-0.000000,9844.739029
63.743010,383.047749,-0.000000,9548.656652
63.743318,612.876398,-0.000000,9474.636058
63.743626,459.657299,592.164754,9696.697840
63.743934,919.314598,296.082377,9474.636058
63.744242,919.314598,-0.000000,9474.636058
63.744550,842.705048,444.123565,9252.574275
63.744858,919.314598,148.041188,9178.553681
63.745166,842.705048,370.102971,9400.615463
63.745474,612.876398,370.102971,9474.636058
63.745782,536.266849,148.041188,9474.636058
63.746090,689.485948,-0.000000,10066.800811
63.746398,229.828649,-0.000000,9548.656652
63.746706,383.047749,370.102971,9548.656652
63.747014,536.266849,-74.020594,9844.739029
63.747322,383.047749,-0.000000,9770.718434
63.747630,229.828649,-74.020594,9548.656652
63.747938,536.266849,-0.000000,9696.697840
63.748246,689.485948,222.061783,9474.636058
63.748554,689.485948,296.082377,9104.533087
63.748862,1225.752797,370.102971,9622.677246
63.749170,842.705048,-0.000000,9326.594869
63.749478,842.705048,222.061783,9474.636058
63.749786,459.657299,-0.000000,9622.677246
63.750094,612.876398,148.041188,9474.636058
63.750402,306.438199,296.082377,9474.636058
63.750710,842.705048,-0.000000,9548.656652
63.751018,612.876398,-0.000000,9548.656652
63.751326,536.266849,148.041188,9326.594869
63.751634,612.876398,-222.061783,9548.656652
63.751942,383.047749,-0.000000,9696.697840
63.752249,612.876398,-0.000000,9696.697840
63.752557,689.485948,-0.000000,9474.636058
63.752865,842.705048,-0.000000,9178.553681
63.753173,536.266849,518.144159,9400.615463
63.753481,766.095498,222.061783,9474.636058
63.753789,766.095498,-0.000000,9622.677246
63.754097,612.876398,-0.000000,9622.677246
63.754405,1072.533697,370.102971,9770.718434
63.754713,612.876398,222.061783,9622.677246
63.755021,612.876398,-0.000000,9696.697840
63.755329,459.657299,222.061783,9548.656652
63.755637,536.266849,148.041188,9548.656652
63.755945,612.876398,370.102971,9696.697840
63.756253,459.657299,-0.000000,9474.636058
63.756561,842.705048,222.061783,9770.718434
63.756869,612.876398,222.061783,9474.636058
63.757177,689.485948,370.102971,9770.718434
63.757485,612.876398,-0.000000,9548.656652
63.757793,612.876398,296.082377,9770.718434
63.758101,612.876398,148.041188,9770.718434
63.758409,919.314598,222.061783,9474.636058
63.758717,995.924147,296.082377,9770.718434
63.759025,536.266849,-0.000000,9252.574275
63.759333,995.924147,-0.000000,9474.636058
63.759641,306.438199,-0.000000,9770.718434
63.759949,689.485948,370.102971,9474.636058
63.760257,689.485948,222.061783,9548.656652
63.760565,536.266849,296.082377,9696.697840
63.760873,459.657299,370.102971,9770.718434
63.761181,536.266849,296.082377,9548.656652
63.761489,1378.971896,370.102971,9844.739029
63.761797,995.924147,-0.000000,9992.780217
63.762105,995.924147,-0.000000,9844.739029
63.762413,612.876398,444.123565,9622.677246
63.762721,766.095498,444.123565,9474.636058
63.763029,766.095498,296.082377,9696.697840
63.763337,842.705048,148.041188,9400.615463
63.763645,306.438199,-0.000000,9770.718434
63.763953,919.314598,-74.020594,9474.636058
63.764261,689.485948,-74.020594,9548.656652
63.764569,306.438199,-0.000000,9696.697840
63.764877,306.438199,-0.000000,9844.739029
63.765185,229.828649,-0.000000,9696.697840
63.765493,536.266849,222.061783,9474.636058
63.765801,612.876398,296.082377,9622.677246
63.766109,689.485948,-0.000000,9400.615463
63.766417,689.485948,-0.000000,9622.677246
63.766725,842.705048,296.082377,9474.636058
63.767033,842.705048,296.082377,9474.636058
63.767341,842.705048,370.102971,9326.594869
63.767649,612.876398,148.041188,9770.718434
63.767957,612.876398,222.061783,9548.656652
63.768265,766.095498,-0.000000,9622.677246
63.768573,536.266849,-0.000000,9770.718434
63.768881,383.047749,-0.000000,9992.780217
63.769189,612.876398,-0.000000,9992.780217
63.769497,536.266849,-148.041188,9548.656652
63.769805,612.876398,-0.000000,9696.697840
63.770113,612.876398,-0.000000,9474.636058
63.770421,842.705048,370.102971,9474.636058
63.770729,689.485948,-0.000000,9252.574275
63.771037,689.485948,-0.000000,9548.656652
63.771345,1225.752797,222.061783,9696.697840
63.771653,995.924147,222.061783,9326.594869
63.771961,459.657299,740.205942,9474.636058
63.772269,766.095498,444.123565,9474.636058
63.772577,689.485948,222.061783,9548.656652
63.772885,536.266849,-0.000000,9622.677246
63.773193,689.485948,-74.020594,9992.780217
63.773501,383.047749,-222.061783,9696.697840
63.773809,766.095498,-370.102971,9918.759623
63.774117,306.438199,-296.082377,9844.739029
63.774425,612.876398,-74.020594,9400.615463
63.774733,689.485948,148.041188,9474.636058
63.775041,689.485948,148.041188,9474.636058
63.775349,919.314598,-0.000000,9474.636058
63.775657,612.876398,-0.000000,9474.636058
63.775965,842.705048,296.082377,9474.636058
63.776273,995.924147,370.102971,9622.677246
63.776581,842.705048,370.102971,9548.656652
63.776889,612.876398,296.082377,9474.636058
63.777197,689.485948,370.102971,9474.636058
63.777505,612.876398,518.144159,9474.636058
63.777813,536.266849,296.082377,9548.656652
63.778121,1072.533697,-148.041188,9622.677246
63.778429,689.485948,-0.000000,9326.594869
63.778737,842.705048,370.102971,9696.697840
63.779045,536.266849,222.061783,9992.780217
63.779353,536.266849,-0.000000,9696.697840
63.779661,536.266849,-0.000000,9696.697840
63.779969,459.657299,148.041188,9622.677246
63.780277,536.266849,-0.000000,9474.636058
63.780585,612.876398,370.102971,9696.697840
63.780893,766.095498,-74.020594,9622.677246
63.781201,1302.362347,148.041188,9474.636058
63.781509,1149.143247,-74.020594,9474.636058
63.781817,536.266849,296.082377,9696.697840
63.782125,689.485948,-0.000000,9548.656652
63.782433,612.876398,222.061783,9622.677246
63.782741,689.485948,148.041188,9474.636058
63.783049,536.266849,148.041188,9918.759623
63.783357,766.095498,-74.020594,9918.759623
63.783665,459.657299,-0.000000,10066.800811
63.783973,1149.143247,222.061783,10288.862594
63.784281,689.485948,-0.000000,9696.697840
63.784589,766.095498,222.061783,9548.656652
63.784897,689.485948,370.102971,9474.636058
63.785205,842.705048,370.102971,9696.697840
63.785513,1072.533697,-0.000000,9400.615463
63.785821,153.219100,222.061783,9548.656652
63.786129,842.705048,518.144159,10140.821405
63.786437,842.705048,148.041188,9400.615463
63.786745,766.095498,296.082377,9696.697840
63.787053,689.485948,-0.000000,9548.656652
63.787361,612.876398,-0.000000,9770.718434
63.787669,536.266849,-0.000000,9696.697840
63.787977,536.266849,-148.041188,9696.697840
63.788285,536.266849,-0.000000,9770.718434
63.788593,612.876398,74.020594,9474.636058
63.788901,536.266849,370.102971,9844.739029
63.789209,612.876398,222.061783,9326.594869
63.789517,536.266849,370.102971,9474.636058
63.789825,459.657299,296.082377,9400.615463
63.790133,612.876398,518.144159,9474.636058
63.790441,76.609550,444.123565,9770.718434
63.790749,459.657299,-0.000000,9474.636058
63.791057,842.705048,296.082377,9622.677246
63.791365,612.876398,-148.041188,9622.677246
63.791673,229.828649,-0.000000,9696.697840
63.791981,229.828649,148.041188,9622.677246
63.792288,536.266849,148.041188,9844.739029
63.792596,689.485948,222.061783,9696.697840
63.792904,536.266849,-0.000000,9474.636058
63.793212,-306.438199,518.144159,10066.800811
63.793520,536.266849,444.123565,9992.780217
63.793828,766.095498,370.102971,10066.800811
63.794136,689.485948,-0.000000,9844.739029
63.794444,612.876398,296.082377,9474.636058
63.794752,612.876398,296.082377,9400.615463
63.795060,842.705048,222.061783,9400.615463
63.795368,766.095498,-0.000000,9696.697840
63.795676,229.828649,-0.000000,9548.656652
63.795984,536.266849,-0.000000,9326.594869
63.796292,153.219100,444.123565,9400.615463
63.796600,612.876398,370.102971,9400.615463
63.796908,766.095498,370.102971,9326.594869
63.797216,766.095498,370.102971,9474.636058
63.797524,766.095498,-0.000000,9474.636058
63.797832,229.828649,-0.000000,9474.636058
63.798140,306.438199,370.102971,9326.594869
63.798448,153.219100,-0.000000,9696.697840
63.798756,229.828649,296.082377,9696.697840
63.799064,536.266849,370.102971,9918.759623
63.799372,612.876398,148.041188,9474.636058
63.799680,689.485948,296.082377,9548.656652
63.799988,766.095498,222.061783,9548.656652
63.800296,842.705048,444.123565,9992.780217
63.800604,1072.533697,-222.061783,9696.697840
63.800912,842.705048,222.061783,9770.718434
63.801220,995.924147,-0.000000,9474.636058
63.801528,689.485948,518.144159,9548.656652
63.801836,612.876398,222.061783,9770.718434
63.802144,766.095498,296.082377,9918.759623
63.802452,689.485948,-0.000000,9770.718434
63.802760,689.485948,444.123565,9696.697840
63.803068,0.000000,296.082377,9992.780217
63.803376,919.314598,518.144159,9770.718434
63.803684,1149.143247,296.082377,9474.636058
63.803992,842.705048,444.123565,9474.636058
63.804300,919.314598,444.123565,9400.615463
63.804608,459.657299,-0.000000,9474.636058
63.804916,1378.971896,370.102971,9918.759623
63.805224,842.705048,-0.000000,9474.636058
63.805532,689.485948,222.061783,9548.656652
63.805840,0.000000,-0.000000,9548.656652
63.806148,612.876398,-74.020594,9770.718434
63.806456,459.657299,148.041188,9770.718434
63.806764,459.657299,-0.000000,9696.697840
63.807072,459.657299,-0.000000,9548.656652
63.807380,689.485948,148.041188,9918.759623
63.807688,1072.533697,-74.020594,9770.718434
63.807996,842.705048,-0.000000,9622.677246
63.808304,842.705048,-0.000000,9400.615463
63.808612,689.485948,222.061783,9400.615463
63.808920,689.485948,-0.000000,9474.636058
63.809228,536.266849,444.123565,9474.636058
63.809536,1225.752797,222.061783,9400.615463
63.809844,612.876398,148.041188,9326.594869
63.810152,766.095498,-0.000000,9474.636058
63.810460,689.485948,-222.061783,9844.739029
63.810768,459.657299,-148.041188,9548.656652
63.811075,153.219100,-74.020594,9474.636058
63.811383,536.266849,296.082377,9474.636058
63.811691,766.095498,370.102971,9474.636058
63.811999,612.876398,370.102971,9474.636058
63.812307,995.924147,740.205942,9474.636058
63.812615,612.876398,222.061783,9400.615463
63.812923,766.095498,-222.061783,9622.677246
63.813230,536.266849,-222.061783,9770.718434
63.813538,383.047749,-0.000000,9622.677246
63.813846,459.657299,-0.000000,9696.697840
63.814154,383.047749,-0.000000,9622.677246
63.814462,459.657299,-0.000000,9622.677246
63.814770,612.876398,-148.041188,9770.718434
63.815078,229.828649,-0.000000,9548.656652
63.815385,766.095498,-148.041188,9548.656652
63.815693,919.314598,-74.020594,9474.636058
63.816001,766.095498,370.102971,9474.636058
63.816309,919.314598,222.061783,9326.594869
63.816617,842.705048,444.123565,9474.636058
63.816925,689.485948,296.082377,9326.594869
63.817233,919.314598,-0.000000,9400.615463
63.817540,842.705048,-0.000000,9548.656652
63.817848,536.266849,370.102971,9770.718434
63.818156,459.657299,-0.000000,9622.677246
63.818464,536.266849,370.102971,9918.759623
63.818772,536.266849,-0.000000,9770.718434
63.819080,383.047749,-0.000000,9696.697840
63.819388,459.657299,-0.000000,9918.759623
63.819695,536.266849,-0.000000,9918.759623
63.820003,306.438199,-74.020594,9770.718434
63.820311,612.876398,370.102971,10140.821405
63.820619,766.095498,-0.000000,9622.677246
63.820927,766.095498,592.164754,9474.636058
63.821235,842.705048,666.185348,9400.615463
63.821543,1225.752797,518.144159,9252.574275
63.821850,919.314598,444.123565,9178.553681
63.822158,1532.190996,-0.000000,9474.636058
63.822466,995.924147,666.185348,9622.677246
63.822774,919.314598,-0.000000,9918.759623
63.823082,536.266849,370.102971,9918.759623
63.823390,612.876398,370.102971,9474.636058
63.823698,306.438199,148.041188,9474.636058
63.824005,612.876398,370.102971,9844.739029
63.824313,383.047749,-0.000000,9696.697840
63.824621,76.609550,-148.041188,9696.697840
63.824929,766.095498,148.041188,9844.739029
63.825237,842.705048,148.041188,9918.759623
63.825545,766.095498,592.164754,9548.656652
63.825853,612.876398,444.123565,9474.636058
63.826160,766.095498,444.123565,9548.656652
63.826468,842.705048,148.041188,9622.677246
63.826776,689.485948,-74.020594,9548.656652
63.827084,383.047749,-0.000000,9696.697840
63.827392,229.828649,148.041188,9696.697840
63.827700,459.657299,-0.000000,9622.677246
63.828008,689.485948,518.144159,9770.718434
63.828315,612.876398,296.082377,9400.615463
63.828623,536.266849,222.061783,9400.615463
63.828931,459.657299,-0.000000,9548.656652
63.829239,306.438199,222.061783,9918.759623
63.829547,306.438199,-0.000000,10214.842000
63.829855,536.266849,370.102971,9622.677246
63.830163,536.266849,370.102971,9400.615463
63.830470,612.876398,370.102971,9548.656652
63.830778,536.266849,296.082377,9474.636058
63.831086,689.485948,222.061783,9474.636058
63.831394,383.047749,-0.000000,9474.636058
63.831702,536.266849,-0.000000,9696.697840
63.832010,612.876398,148.041188,9918.759623
63.832318,612.876398,-148.041188,9548.656652
63.832625,383.047749,370.102971,9992.780217
63.832933,536.266849,-296.082377,9622.677246
63.833241,383.047749,-0.000000,9844.739029
63.833549,383.047749,296.082377,9844.739029
63.833857,766.095498,-0.000000,9474.636058
63.834165,919.314598,518.144159,9474.636058
63.834473,766.095498,592.164754,9548.656652
63.834780,1225.752797,222.061783,9252.574275
63.835088,612.876398,370.102971,9400.615463
63.835396,383.047749,148.041188,9622.677246
63.835704,766.095498,148.041188,9474.636058
63.836012,383.047749,148.041188,9548.656652
63.836320,306.438199,296.082377,9622.677246
63.836628,153.219100,-74.020594,9770.718434
63.836935,612.876398,444.123565,9696.697840
63.837243,536.266849,-0.000000,10066.800811
63.837551,536.266849,-74.020594,9696.697840
63.837859,459.657299,-0.000000,9696.697840
63.838167,689.485948,222.061783,9696.697840
63.838475,766.095498,444.123565,9622.677246
63.838783,612.876398,296.082377,9400.615463
63.839090,766.095498,148.041188,9474.636058
63.839398,766.095498,-0.000000,9474.636058
63.839706,919.314598,148.041188,9030.512492
63.840014,689.485948,222.061783,9474.636058
63.840322,919.314598,296.082377,9474.636058
63.840630,689.485948,148.041188,9548.656652
63.840938,766.095498,222.061783,9622.677246
63.841245,842.705048,-0.000000,9474.636058
63.841553,689.485948,444.123565,9474.636058
63.841861,995.924147,222.061783,9548.656652
63.842169,766.095498,-0.000000,9622.677246
63.842477,536.266849,-148.041188,9474.636058
63.842785,383.047749,296.082377,9622.677246
63.843093,612.876398,370.102971,9622.677246
63.843400,612.876398,444.123565,9548.656652
63.843708,689.485948,370.102971,9622.677246
63.844016,383.047749,-0.000000,9548.656652
63.844324,689.485948,-0.000000,9548.656652
63.844632,995.924147,222.061783,9696.697840
63.844940,689.485948,-0.000000,9844.739029
63.845248,383.047749,-74.020594,9548.656652
63.845555,306.438199,148.041188,9844.739029
63.845863,459.657299,-0.000000,9696.697840
63.846171,536.266849,-0.000000,9474.636058
63.846479,536.266849,444.123565,9474.636058
63.846787,842.705048,148.041188,9474.636058
63.847095,842.705048,296.082377,9548.656652
63.847403,919.314598,-0.000000,9548.656652
63.847710,766.095498,370.102971,9400.615463
63.848018,842.705048,222.061783,9474.636058
63.848326,459.657299,296.082377,9548.656652
63.848634,612.876398,296.082377,9770.718434
63.848942,536.266849,-74.020594,9474.636058
63.849250,229.828649,518.144159,9770.718434
63.849558,536.266849,296.082377,9770.718434
63.849865,689.485948,222.061783,9622.677246
63.850173,766.095498,222.061783,9474.636058
63.850481,536.266849,-0.000000,9474.636058
63.850789,766.095498,-0.000000,9474.636058
63.851097,612.876398,222.061783,9696.697840
63.851405,383.047749,-0.000000,9622.677246
63.851713,689.485948,-0.000000,9770.718434
63.852020,459.657299,296.082377,9844.739029
63.852328,536.266849,148.041188,9992.780217
63.852636,842.705048,222.061783,9770.718434
63.852944,459.657299,296.082377,9474.636058
63.853252,536.266849,-0.000000,9548.656652
63.853560,766.095498,296.082377,9548.656652
63.853868,842.705048,-0.000000,9326.594869
63.854175,842.705048,296.082377,9474.636058
63.854483,459.657299,444.123565,9548.656652
63.854791,536.266849,370.102971,9696.697840
63.855099,536.266849,148.041188,9400.615463
63.855407,689.485948,-0.000000,9622.677246
63.855715,842.705048,148.041188,9548.656652
63.856023,536.266849,444.123565,9622.677246
63.856330,689.485948,-0.000000,9696.697840
63.856638,689.485948,-148.041188,9696.697840
63.856946,842.705048,-148.041188,9918.759623
63.857254,612.876398,-0.000000,9548.656652
63.857562,459.657299,370.102971,9696.697840
63.857870,689.485948,370.102971,9474.636058
63.858178,842.705048,518.144159,9474.636058
63.858485,689.485948,296.082377,9622.677246
63.858793,612.876398,370.102971,9696.697840
63.859101,1072.533697,-0.000000,9548.656652
63.859409,766.095498,222.061783,9474.636058
63.859717,919.314598,-0.000000,9770.718434
63.860025,536.266849,296.082377,9622.677246
63.860333,612.876398,296.082377,9548.656652
63.860640,536.266849,222.061783,9696.697840
63.860948,612.876398,296.082377,9548.656652
63.861256,612.876398,-0.000000,9622.677246
63.861564,0.000000,-148.041188,9696.697840
63.861872,919.314598,-148.041188,9696.697840
63.862180,919.314598,-0.000000,9622.677246
63.862488,612.876398,296.082377,9696.697840
63.862795,459.657299,296.082377,9474.636058
63.863103,689.485948,-0.000000,9548.656652
63.863411,459.657299,222.061783,9696.697840
63.863719,919.314598,-0.000000,9474.636058
63.864027,612.876398,-74.020594,9770.718434
63.864335,766.095498,-0.000000,9770.718434
63.864643,766.095498,-0.000000,9696.697840
63.864950,689.485948,370.102971,9622.677246
63.865258,842.705048,296.082377,9548.656652
63.865566,536.266849,370.102971,9474.636058
63.865874,612.876398,296.082377,9474.636058
63.866182,919.314598,-74.020594,9474.636058
63.866490,766.095498,-74.020594,9548.656652
63.866798,842.705048,-0.000000,9696.697840
63.867105,689.485948,148.041188,9770.718434
63.867413,536.266849,296.082377,9548.656652
63.867721,459.657299,370.102971,9696.697840
63.868029,689.485948,370.102971,9548.656652
63.868337,536.266849,296.082377,9548.656652
63.868645,612.876398,-148.041188,9548.656652
63.868953,153.219100,-74.020594,9548.656652
63.869260,536.266849,-0.000000,10066.800811
63.869568,612.876398,-74.020594,9844.739029
63.869876,383.047749,-0.000000,9548.656652
63.870184,689.485948,148.041188,9696.697840
63.870492,766.095498,370.102971,9474.636058
63.870800,995.924147,222.061783,9326.594869
63.871108,612.876398,296.082377,9474.636058
63.871415,919.314598,444.123565,9770.718434
63.871723,1072.533697,-0.000000,9474.636058
63.872031,995.924147,518.144159,9548.656652
63.872339,842.705048,148.041188,9474.636058
63.872647,612.876398,-0.000000,9474.636058
63.872955,612.876398,296.082377,9696.697840
63.873263,383.047749,-0.000000,9474.636058
63.873570,0.000000,-0.000000,9770.718434
63.873878,689.485948,-148.041188,9844.739029
63.874186,612.876398,-148.041188,9548.656652
63.874494,689.485948,-222.061783,9474.636058
63.874802,842.705048,-0.000000,9474.636058
63.875110,612.876398,296.082377,9548.656652
63.875418,459.657299,222.061783,9622.677246
63.875725,612.876398,-0.000000,9770.718434
63.876033,1149.143247,-0.000000,9548.656652
63.876341,1302.362347,-74.020594,9474.636058
63.876649,0.000000,-148.041188,9770.718434
63.876957,536.266849,222.061783,9844.739029
63.877265,612.876398,222.061783,9548.656652
63.877573,612.876398,296.082377,9474.636058
63.877880,842.705048,370.102971,9474.636058
63.878188,612.876398,444.123565,9326.594869
63.878496,995.924147,-0.000000,9474.636058
63.878804,612.876398,-0.000000,9474.636058
63.879112,536.266849,-0.000000,9622.677246
63.879420,842.705048,-0.000000,9844.739029
63.879728,459.657299,222.061783,9844.739029
63.880035,459.657299,-0.000000,9474.636058
63.880343,229.828649,-0.000000,9992.780217
63.880651,689.485948,74.020594,9770.718434
63.880959,842.705048,-0.000000,9918.759623
63.881267,536.266849,222.061783,9252.574275
63.881575,612.876398,148.041188,9400.615463
63.881883,459.657299,-0.000000,9622.677246
63.882190,766.095498,370.102971,9400.615463
63.882498,995.924147,222.061783,9400.615463
63.882806,842.705048,296.082377,9474.636058
63.883114,1072.533697,222.061783,9474.636058
63.883422,612.876398,-0.000000,9918.759623
63.883730,459.657299,-0.000000,9548.656652
63.884038,459.657299,148.041188,9770.718434
63.884345,766.095498,-0.000000,9474.636058
63.884653,842.705048,-0.000000,9474.636058
63.884961,306.438199,222.061783,9474.636058
63.885269,842.705048,222.061783,9622.677246
63.885577,919.314598,-0.000000,9696.697840
63.885885,612.876398,148.041188,9474.636058
63.886193,919.314598,-0.000000,9548.656652
63.886500,612.876398,-74.020594,8956.491898
63.886808,766.095498,222.061783,9548.656652
63.887116,842.705048,148.041188,9696.697840
63.887424,229.828649,222.061783,9770.718434
63.887732,459.657299,296.082377,9696.697840
63.888040,1378.971896,518.144159,9696.697840
63.888348,1072.533697,370.102971,9696.697840
63.888655,766.095498,814.226536,9326.594869
63.888963,612.876398,222.061783,9696.697840
63.889271,995.924147,148.041188,9178.553681
63.889579,689.485948,148.041188,9622.677246
63.889887,995.924147,296.082377,9474.636058
63.890195,536.266849,222.061783,9622.677246
63.890503,766.095498,-0.000000,9474.636058
63.890810,995.924147,-0.000000,9548.656652
63.891118,766.095498,148.041188,9326.594869
63.891426,612.876398,-74.020594,9696.697840
63.891734,536.266849,-0.000000,9622.677246
63.892042,306.438199,148.041188,9770.718434
63.892350,383.047749,-74.020594,9918.759623
63.892658,459.657299,-0.000000,9622.677246
63.892965,842.705048,-74.020594,9474.636058
63.893273,459.657299,-0.000000,9622.677246
63.893581,689.485948,-0.000000,9992.780217
63.893889,306.438199,-0.000000,9696.697840
63.894197,229.828649,518.144159,9548.656652
63.894505,536.266849,370.102971,9326.594869
63.894812,766.095498,296.082377,9400.615463
63.895120,689.485948,222.061783,9622.677246
63.895428,612.876398,296.082377,9992.780217
63.895736,995.924147,222.061783,9918.759623
63.896044,0.000000,-74.020594,9770.718434
63.896352,842.705048,370.102971,10362.883188
63.896660,536.266849,-0.000000,9696.697840
63.896967,689.485948,74.020594,9548.656652
63.897275,689.485948,148.041188,9474.636058
63.897583,919.314598,222.061783,9474.636058
63.897891,306.438199,-0.000000,9400.615463
63.898199,842.705048,222.061783,9696.697840
63.898507,766.095498,222.061783,9326.594869
63.898815,919.314598,-0.000000,9622.677246
63.899122,459.657299,370.102971,9696.697840
63.899430,766.095498,370.102971,9622.677246
63.899738,612.876398,222.061783,9474.636058
63.900046,612.876398,-0.000000,9696.697840
63.900354,383.047749,-0.000000,9696.697840
63.900662,306.438199,-148.041188,9548.656652
63.900970,383.047749,-74.020594,9548.656652
63.901277,689.485948,-0.000000,9696.697840
63.901585,612.876398,-0.000000,9844.739029
63.901893,536.266849,296.082377,9696.697840
63.902201,689.485948,222.061783,9474.636058
63.902509,919.314598,370.102971,9474.636058
63.902817,536.266849,148.041188,9548.656652
63.903125,995.924147,-0.000000,9252.574275
63.903432,919.314598,592.164754,9696.697840
63.903740,919.314598,222.061783,9548.656652
63.904048,612.876398,222.061783,9548.656652
63.904356,842.705048,222.061783,9474.636058
63.904664,766.095498,222.061783,9474.636058
63.904972,612.876398,296.082377,9474.636058
63.905280,536.266849,-0.000000,9326.594869
63.905587,459.657299,-0.000000,9326.594869
63.905895,766.095498,370.102971,9918.759623
63.906203,383.047749,222.061783,9622.677246
63.906511,459.657299,296.082377,9548.656652
63.906819,612.876398,222.061783,9622.677246
63.907127,459.657299,222.061783,9622.677246
63.907435,459.657299,-0.000000,9548.656652
63.907742,76.609550,-370.102971,9548.656652
63.908050,383.047749,-148.041188,9844.739029
63.908358,919.314598,-0.000000,9474.636058
63.908666,612.876398,-0.000000,9548.656652
63.908974,536.266849,222.061783,9400.615463
63.909282,919.314598,370.102971,9474.636058
63.909590,995.924147,518.144159,9252.574275
63.909897,842.705048,518.144159,9326.594869
63.910205,612.876398,222.061783,9474.636058
63.910513,919.314598,-0.000000,9548.656652
63.910821,766.095498,148.041188,10140.821405
63.911129,612.876398,-0.000000,9992.780217
63.911437,459.657299,-148.041188,9548.656652
63.911745,306.438199,-0.000000,9696.697840
63.912052,306.438199,-0.000000,9770.718434
63.912360,459.657299,-0.000000,9622.677246
63.912668,306.438199,148.041188,9770.718434
63.912976,919.314598,-0.000000,9400.615463
63.913284,536.266849,370.102971,9622.677246
63.913592,1225.752797,222.061783,9474.636058
63.913900,1072.533697,-0.000000,9474.636058
63.914207,766.095498,148.041188,9548.656652
63.914515,689.485948,296.082377,9400.615463
63.914823,536.266849,-0.000000,9770.718434
63.915131,766.095498,-0.000000,9696.697840
63.915439,612.876398,-0.000000,9548.656652
63.915747,766.095498,-74.020594,9400.615463
63.916055,842.705048,-0.000000,9548.656652
63.916362,842.705048,-0.000000,9400.615463
63.916670,536.266849,370.102971,9400.615463
63.916978,612.876398,370.102971,9548.656652
63.917286,766.095498,222.061783,9474.636058
63.917594,612.876398,592.164754,9622.677246
63.917902,842.705048,296.082377,9844.739029
63.918210,995.924147,222.061783,9622.677246
63.918517,306.438199,-0.000000,10140.821405
63.918825,459.657299,148.041188,9770.718434
63.919133,153.219100,-148.041188,9696.697840
63.919441,459.657299,-74.020594,9844.739029
63.919749,459.657299,-0.000000,9844.739029
63.920057,995.924147,-148.041188,9844.739029
63.920365,536.266849,-74.020594,10066.800811
63.920672,1225.752797,-0.000000,9252.574275
63.920980,919.314598,296.082377,9474.636058
63.921288,995.924147,444.123565,9474.636058
63.921596,995.924147,740.205942,9474.636058
63.921904,995.924147,592.164754,9400.615463
63.922212,995.924147,296.082377,9326.594869
63.922520,229.828649,444.123565,9622.677246
63.922827,1225.752797,370.102971,9548.656652
63.923135,612.876398,-296.082377,9622.677246
63.923443,306.438199,-0.000000,9770.718434
63.923751,229.828649,148.041188,9622.677246
63.924059,536.266849,370.102971,9918.759623
63.924367,383.047749,148.041188,9622.677246
63.924675,383.047749,222.061783,9474.636058
63.924982,995.924147,296.082377,9474.636058
63.925290,612.876398,296.082377,9474.636058
63.925598,383.047749,-0.000000,9992.780217
63.925906,842.705048,-74.020594,9844.739029
63.926214,689.485948,222.061783,9326.594869
63.926522,536.266849,518.144159,9548.656652
63.926830,612.876398,370.102971,9696.697840
63.927137,612.876398,-0.000000,9548.656652
63.927445,919.314598,-0.000000,9178.553681
63.927753,383.047749,-0.000000,9474.636058
63.928061,76.609550,222.061783,9474.636058
63.928369,536.266849,296.082377,9770.718434
63.928677,459.657299,296.082377,9770.718434
63.928985,612.876398,370.102971,9400.615463
63.929292,383.047749,148.041188,9474.636058
63.929600,229.828649,-0.000000,9770.718434
63.929908,612.876398,-148.041188,9918.759623
63.930216,612.876398,-74.020594,9696.697840
63.930524,689.485948,-74.020594,8956.491898
63.930832,229.828649,-0.000000,9696.697840
63.931140,383.047749,-0.000000,9548.656652
63.931447,383.047749,296.082377,9622.677246
63.931755,689.485948,296.082377,9178.553681
63.932063,766.095498,-0.000000,9326.594869
63.932371,689.485948,74.020594,9474.636058
63.932679,612.876398,-222.061783,9548.656652
63.932987,689.485948,-0.000000,9696.697840
63.933295,536.266849,-0.000000,9400.615463
63.933602,536.266849,222.061783,9400.615463
63.933910,459.657299,222.061783,9474.636058
63.934218,766.095498,444.123565,9622.677246
63.934526,1378.971896,370.102971,9400.615463
63.934834,612.876398,222.061783,9622.677246
63.935142,459.657299,296.082377,9770.718434
63.935450,766.095498,-0.000000,9474.636058
63.935757,459.657299,222.061783,9696.697840
63.936065,689.485948,222.061783,9548.656652
63.936373,612.876398,148.041188,9474.636058
63.936681,536.266849,-74.020594,9474.636058
63.936989,612.876398,148.041188,10066.800811
63.937297,612.876398,-0.000000,9770.718434
63.937605,612.876398,148.041188,9770.718434
63.937912,919.314598,296.082377,9548.656652
63.938220,995.924147,222.061783,9844.739029
63.938528,766.095498,518.144159,9474.636058
63.938836,919.314598,518.144159,9696.697840
63.939144,689.485948,222.061783,9622.677246
63.939452,536.266849,-0.000000,9696.697840
63.939760,995.924147,-74.020594,9770.718434
63.940067,459.657299,222.061783,9696.697840
63.940375,1149.143247,370.102971,9622.677246
63.940683,919.314598,148.041188,9474.636058
63.940991,536.266849,296.082377,9548.656652
63.941299,612.876398,-0.000000,9622.677246
63.941607,689.485948,-0.000000,9696.697840
63.941915,689.485948,-222.061783,9844.739029
63.942222,919.314598,-0.000000,9770.718434
63.942530,1149.143247,296.082377,9918.759623
63.942838,689.485948,-0.000000,9548.656652
63.943146,1072.533697,592.164754,9400.615463
63.943454,842.705048,592.164754,9400.615463
63.943762,766.095498,888.247130,9548.656652
63.944070,536.266849,518.144159,9770.718434
63.944377,766.095498,-0.000000,9622.677246
63.944685,536.266849,-222.061783,9474.636058
63.944993,842.705048,-222.061783,9474.636058
63.945301,306.438199,-74.020594,9992.780217
63.945609,459.657299,-0.000000,9844.739029
63.945917,383.047749,-74.020594,9844.739029
63.946225,306.438199,-0.000000,9844.739029
63.946532,612.876398,-0.000000,9548.656652
63.946840,766.095498,-74.020594,9326.594869
63.947148,612.876398,370.102971,8956.491898
63.947456,919.314598,296.082377,9622.677246
63.947764,842.705048,370.102971,9400.615463
63.948072,1072.533697,370.102971,9474.636058
63.948380,612.876398,370.102971,9474.636058
63.948688,689.485948,222.061783,9400.615463
63.948995,612.876398,222.061783,9400.615463
63.949303,689.485948,148.041188,9622.677246
63.949611,612.876398,-296.082377,9622.677246
63.949919,153.219100,-296.082377,9622.677246
63.950227,536.266849,-0.000000,9844.739029
63.950535,306.438199,148.041188,9696.697840
63.950843,536.266849,148.041188,9696.697840
63.951150,536.266849,296.082377,9548.656652
63.951458,689.485948,370.102971,9474.636058
63.951766,689.485948,222.061783,9622.677246
63.952074,1072.533697,296.082377,9622.677246
63.952382,766.095498,-0.000000,9474.636058
63.952690,383.047749,-0.000000,9696.697840
63.952998,536.266849,-0.000000,9474.636058
63.953305,689.485948,444.123565,9474.636058
63.953613,459.657299,-0.000000,9696.697840
63.953921,383.047749,-0.000000,9696.697840
63.954229,-153.219100,370.102971,9696.697840
63.954537,842.705048,444.123565,9918.759623
63.954845,919.314598,-0.000000,9548.656652
63.955153,536.266849,-0.000000,9252.574275
63.955460,689.485948,370.102971,9474.636058
63.955768,459.657299,444.123565,9548.656652
63.956076,383.047749,222.061783,9474.636058
63.956384,153.219100,222.061783,9622.677246
63.956692,536.266849,-0.000000,9992.780217
63.957000,383.047749,-0.000000,9844.739029
63.957308,459.657299,-74.020594,9474.636058
63.957615,459.657299,-222.061783,9918.759623
63.957923,536.266849,-0.000000,9770.718434
63.958231,612.876398,-0.000000,9696.697840
63.958539,536.266849,-0.000000,9474.636058
63.958847,842.705048,444.123565,9400.615463
63.959155,1225.752797,666.185348,9252.574275
63.959463,1149.143247,370.102971,9474.636058
63.959770,995.924147,-74.020594,9400.615463
63.960078,383.047749,148.041188,9474.636058
63.960386,536.266849,444.123565,9770.718434
63.960694,306.438199,296.082377,9844.739029
63.961002,383.047749,148.041188,9770.718434
63.961310,383.047749,-0.000000,9696.697840
63.961618,766.095498,-0.000000,9770.718434
63.961925,383.047749,-0.000000,9474.636058
63.962233,766.095498,-0.000000,9992.780217
63.962541,383.047749,-0.000000,9622.677246
63.962849,766.095498,148.041188,9548.656652
63.963157,842.705048,222.061783,9622.677246
63.963465,766.095498,222.061783,9474.636058
63.963773,1532.190996,518.144159,9696.697840
63.964080,689.485948,370.102971,9474.636058
63.964388,842.705048,-74.020594,9696.697840
63.964696,919.314598,222.061783,9622.677246
63.965004,383.047749,148.041188,9770.718434
63.965312,766.095498,222.061783,9622.677246
63.965620,689.485948,296.082377,9474.636058
63.965928,842.705048,296.082377,9548.656652
63.966235,612.876398,296.082377,9548.656652
63.966543,689.485948,148.041188,9548.656652
63.966851,689.485948,666.185348,9622.677246
63.967159,919.314598,592.164754,9622.677246
63.967467,536.266849,-0.000000,9326.594869
63.967775,612.876398,296.082377,9622.677246
63.968083,459.657299,444.123565,9474.636058
63.968390,383.047749,-0.000000,9622.677246
63.968698,919.314598,-74.020594,9474.636058
63.969006,229.828649,-148.041188,9622.677246
63.969314,766.095498,-0.000000,9918.759623
63.969622,842.705048,222.061783,9918.759623
63.969930,842.705048,74.020594,10066.800811
63.970238,459.657299,-0.000000,9474.636058
63.970545,689.485948,148.041188,9474.636058
63.970853,612.876398,444.123565,9326.594869
63.971161,536.266849,222.061783,9474.636058
63.971469,919.314598,296.082377,9474.636058
63.971777,1302.362347,296.082377,9326.594869
63.972085,919.314598,518.144159,9474.636058
63.972393,919.314598,222.061783,9918.759623
63.972700,536.266849,370.102971,9770.718434
63.973008,459.657299,-0.000000,9474.636058
63.973316,306.438199,-0.000000,9474.636058
63.973624,383.047749,-0.000000,9548.656652
63.973932,766.095498,-222.061783,9770.718434
63.974240,766.095498,-0.000000,9770.718434
63.974548,842.705048,-0.000000,9474.636058
63.974855,842.705048,-0.000000,9252.574275
63.975163,306.438199,222.061783,9696.697840
63.975471,383.047749,-0.000000,9844.739029
63.975779,383.047749,222.061783,9696.697840
63.976087,229.828649,-148.041188,9548.656652
63.976395,766.095498,-0.000000,9770.718434
63.976703,995.924147,-0.000000,9770.718434
63.977010,766.095498,-0.000000,9696.697840
63.977318,766.095498,518.144159,9548.656652
63.977626,766.095498,296.082377,9252.574275
63.977934,612.876398,148.041188,9548.656652
63.978242,689.485948,296.082377,9474.636058
63.978550,689.485948,222.061783,9252.574275
63.978858,689.485948,148.041188,9474.636058
63.979165,612.876398,-0.000000,9696.697840
63.979473,689.485948,-222.061783,9622.677246
63.979781,229.828649,148.041188,9622.677246
63.980089,459.657299,-0.000000,9770.718434
63.980397,612.876398,444.123565,9696.697840
63.980705,689.485948,296.082377,9844.739029
63.981013,995.924147,444.123565,9474.636058
63.981320,229.828649,-0.000000,9326.594869
63.981628,612.876398,296.082377,9548.656652
63.981936,383.047749,-0.000000,9992.780217
63.982244,612.876398,-0.000000,9622.677246
63.982552,459.657299,-0.000000,9548.656652
63.982860,536.266849,-0.000000,9622.677246
63.983168,229.828649,-0.000000,9770.718434
63.983475,689.485948,-0.000000,9992.780217
63.983783,842.705048,222.061783,9770.718434
63.984091,536.266849,-0.000000,9548.656652
63.984399,1455.581446,148.041188,9474.636058
63.984707,842.705048,296.082377,9474.636058
63.985015,919.314598,592.164754,9474.636058
63.985323,919.314598,518.144159,9474.636058
63.985630,842.705048,444.123565,9400.615463
63.985938,1225.752797,444.123565,9622.677246
63.986246,612.876398,444.123565,9474.636058
63.986554,842.705048,518.144159,9622.677246
63.986862,306.438199,-0.000000,9696.697840
63.987170,229.828649,148.041188,9844.739029
63.987478,459.657299,-0.000000,9696.697840
63.987785,383.047749,-0.000000,9770.718434
63.988093,536.266849,222.061783,9992.780217
63.988401,306.438199,-0.000000,10140.821405
63.988709,1608.800546,148.041188,9548.656652
63.989017,689.485948,-0.000000,9622.677246
63.989325,842.705048,-0.000000,9844.739029
63.989633,383.047749,296.082377,9622.677246
63.989940,766.095498,222.061783,9474.636058
63.990248,842.705048,296.082377,9474.636058
63.990556,842.705048,444.123565,9474.636058
63.990864,1302.362347,-222.061783,9326.594869
63.991172,1149.143247,-0.000000,9474.636058
63.991480,919.314598,296.082377,9474.636058
63.991788,689.485948,444.123565,9474.636058
63.992095,612.876398,148.041188,9770.718434
63.992403,689.485948,222.061783,9548.656652
63.992711,612.876398,148.041188,9548.656652
63.993019,689.485948,-0.000000,9474.636058
63.993327,459.657299,222.061783,9844.739029
63.993635,383.047749,-0.000000,9844.739029
63.993943,153.219100,-148.041188,9770.718434
63.994250,0.000000,-0.000000,9696.697840
63.994558,536.266849,370.102971,9622.677246
63.994866,612.876398,-0.000000,9696.697840
63.995174,689.485948,-0.000000,9474.636058
63.995482,689.485948,-0.000000,9622.677246
63.995790,536.266849,-222.061783,9474.636058
63.996098,612.876398,-148.041188,9474.636058
63.996405,459.657299,-74.020594,9622.677246
63.996713,689.485948,148.041188,9474.636058
63.997021,919.314598,518.144159,9178.553681
63.997329,842.705048,592.164754,9474.636058
63.997637,919.314598,444.123565,9474.636058
63.997945,1072.533697,444.123565,9474.636058
63.998253,536.266849,444.123565,9696.697840
63.998560,1225.752797,148.041188,9770.718434
63.998868,689.485948,296.082377,9844.739029
63.999176,76.609550,444.123565,9918.759623
63.999484,459.657299,-0.000000,9474.636058
63.999792,536.266849,222.061783,9770.718434
64.000100,536.266849,222.061783,9844.739029
64.000408,536.266849,-0.000000,9844.739029
64.000715,766.095498,-0.000000,9622.677246
64.001023,842.705048,518.144159,9918.759623
64.001331,766.095498,444.123565,9548.656652
64.001639,689.485948,-0.000000,9474.636058
64.001947,612.876398,-0.000000,9548.656652
64.002255,612.876398,222.061783,9622.677246
64.002563,536.266849,370.102971,9474.636058
64.002870,689.485948,222.061783,9622.677246
64.003178,612.876398,-0.000000,9770.718434
64.003486,612.876398,222.061783,9770.718434
64.003794,689.485948,518.144159,9992.780217
64.004102,766.095498,296.082377,9696.697840
64.004410,536.266849,370.102971,9474.636058
64.004718,766.095498,444.123565,9474.636058
64.005025,995.924147,222.061783,9474.636058
64.005333,919.314598,-0.000000,9548.656652
64.005641,536.266849,222.061783,9474.636058
64.005949,919.314598,148.041188,9844.739029
64.006257,229.828649,-0.000000,9474.636058
64.006565,459.657299,-74.020594,9474.636058
64.006873,459.657299,-0.000000,9622.677246
64.007180,306.438199,-0.000000,9696.697840
64.007488,459.657299,-0.000000,9696.697840
64.007796,842.705048,-0.000000,9474.636058
64.008104,842.705048,370.102971,9474.636058
64.008412,459.657299,-222.061783,9400.615463
64.008720,689.485948,-148.041188,9918.759623
64.009028,842.705048,-0.000000,9548.656652
64.009336,536.266849,148.041188,9400.615463
64.009644,689.485948,370.102971,9474.636058
64.009952,766.095498,222.061783,9474.636058
64.010260,459.657299,-148.041188,9622.677246
64.010568,995.924147,74.020594,9474.636058
64.010876,229.828649,222.061783,9326.594869
64.011184,-153.219100,148.041188,9622.677246
64.011492,76.609550,222.061783,9696.697840
64.011800,459.657299,-0.000000,9622.677246
64.012108,612.876398,370.102971,9474.636058
64.012416,612.876398,370.102971,9474.636058
64.012724,536.266849,592.164754,9400.615463
64.013032,459.657299,518.144159,9770.718434
64.013340,689.485948,-0.000000,9474.636058
64.013648,459.657299,296.082377,9696.697840
64.013956,153.219100,-0.000000,9696.697840
64.014264,229.828649,-0.000000,9844.739029
64.014571,306.438199,-0.000000,9770.718434
64.014879,459.657299,148.041188,9770.718434
64.015187,612.876398,-0.000000,9696.697840
64.015495,536.266849,-222.061783,9770.718434
64.015803,229.828649,-0.000000,9770.718434
64.016111,229.828649,-0.000000,9326.594869
64.016419,995.924147,444.123565,9622.677246
64.016727,919.314598,296.082377,9474.636058
64.017035,919.314598,296.082377,9400.615463
64.017343,766.095498,444.123565,9326.594869
64.017651,1072.533697,296.082377,9252.574275
64.017959,689.485948,444.123565,9474.636058
64.018267,1149.143247,370.102971,9918.759623
64.018575,842.705048,370.102971,9918.759623
64.018883,153.219100,-0.000000,9474.636058
64.019191,383.047749,-0.000000,9918.759623
64.019499,459.657299,-0.000000,9696.697840
64.019807,459.657299,370.102971,9844.739029
64.020115,689.485948,-0.000000,10066.800811
64.020423,612.876398,-0.000000,9622.677246
64.020731,689.485948,370.102971,9696.697840
64.021039,612.876398,148.041188,9474.636058
64.021347,612.876398,370.102971,9548.656652
64.021654,612.876398,296.082377,9548.656652
64.021962,766.095498,222.061783,9548.656652
64.022270,842.705048,-0.000000,9474.636058
64.022578,766.095498,518.144159,9770.718434
64.022886,995.924147,148.041188,9696.697840
64.023194,1072.533697,-0.000000,9326.594869
64.023502,689.485948,370.102971,9474.636058
64.023810,919.314598,148.041188,9474.636058
64.024118,766.095498,-0.000000,9474.636058
64.024426,536.266849,-0.000000,9474.636058
64.024734,766.095498,-0.000000,9326.594869
64.025042,766.095498,518.144159,9770.718434
64.025350,919.314598,-0.000000,9844.739029
64.025658,0.000000,444.123565,9918.759623
64.025966,306.438199,-0.000000,9696.697840
64.026274,612.876398,-0.000000,9696.697840
64.026582,459.657299,-0.000000,9696.697840
64.026890,383.047749,-0.000000,9696.697840
64.027198,383.047749,-0.000000,9696.697840
64.027506,612.876398,222.061783,9474.636058
64.027814,536.266849,370.102971,9770.718434
64.028122,689.485948,296.082377,9474.636058
64.028430,1072.533697,296.082377,9474.636058
64.028737,459.657299,296.082377,9548.656652
64.029045,459.657299,-0.000000,9770.718434
64.029353,306.438199,-0.000000,9696.697840
64.029661,153.219100,222.061783,9844.739029
64.029969,153.219100,-0.000000,9770.718434
64.030277,306.438199,370.102971,9474.636058
64.030585,689.485948,-0.000000,8882.471304
64.030893,1149.143247,-0.000000,9400.615463
64.031201,995.924147,296.082377,9252.574275
64.031509,536.266849,296.082377,9474.636058
64.031817,766.095498,296.082377,9474.636058
64.032125,612.876398,370.102971,9622.677246
64.032433,536.266849,-0.000000,9400.615463
64.032741,0.000000,-0.000000,9992.780217
64.033049,536.266849,-0.000000,9770.718434
64.033357,306.438199,-222.061783,9992.780217
64.033665,-306.438199,222.061783,10214.842000
64.033973,536.266849,296.082377,9918.759623
64.034281,612.876398,-0.000000,9696.697840
64.034589,612.876398,-0.000000,9474.636058
64.034897,536.266849,444.123565,9474.636058
64.035205,1225.752797,148.041188,9548.656652
64.035513,689.485948,370.102971,9696.697840
64.035820,766.095498,444.123565,9622.677246
64.036128,689.485948,74.020594,9178.553681
64.036436,536.266849,222.061783,9474.636058
64.036744,459.657299,-0.000000,9474.636058
64.037052,383.047749,-0.000000,9548.656652
64.037360,1072.533697,-0.000000,9696.697840
64.037668,383.047749,-0.000000,9474.636058
64.037976,842.705048,-74.020594,9770.718434
64.038284,612.876398,-0.000000,9548.656652
64.038592,689.485948,222.061783,9622.677246
64.038900,612.876398,296.082377,9474.636058
64.039208,459.657299,222.061783,9474.636058
64.039516,689.485948,-0.000000,9622.677246
64.039824,689.485948,296.082377,10066.800811
64.040132,689.485948,592.164754,9918.759623
64.040440,76.609550,-0.000000,9548.656652
64.040748,1225.752797,-0.000000,9622.677246
64.041056,919.314598,222.061783,9770.718434
64.041364,766.095498,-0.000000,9696.697840
64.041672,612.876398,222.061783,9844.739029
64.041980,536.266849,-0.000000,9844.739029
64.042288,383.047749,-0.000000,9770.718434
64.042596,766.095498,-74.020594,9696.697840
64.042903,536.266849,444.123565,9918.759623
64.043211,306.438199,148.041188,9400.615463
64.043519,995.924147,444.123565,9326.594869
64.043827,689.485948,666.185348,9548.656652
64.044135,995.924147,518.144159,9474.636058
64.044443,612.876398,296.082377,9400.615463
64.044751,766.095498,296.082377,9400.615463
64.045059,766.095498,-0.000000,9844.739029
64.045367,229.828649,-148.041188,9696.697840
64.045675,536.266849,-148.041188,9844.739029
64.045983,0.000000,-74.020594,9696.697840
64.046291,229.828649,148.041188,9770.718434
64.046599,536.266849,-0.000000,9474.636058
64.046907,459.657299,370.102971,9548.656652
64.047215,995.924147,666.185348,9474.636058
64.047523,459.657299,296.082377,9844.739029
64.047831,536.266849,-0.000000,9622.677246
64.048139,612.876398,-0.000000,9622.677246
64.048447,459.657299,-0.000000,9400.615463
64.048755,536.266849,518.144159,9622.677246
64.049063,612.876398,370.102971,9474.636058
64.049371,842.705048,296.082377,9474.636058
64.049679,766.095498,296.082377,9474.636058
64.049987,766.095498,-0.000000,9548.656652
64.050294,612.876398,148.041188,9474.636058
64.050602,689.485948,-148.041188,9400.615463
64.050910,459.657299,296.082377,9548.656652
64.051218,536.266849,-0.000000,9696.697840
64.051526,383.047749,222.061783,9474.636058
64.051834,306.438199,-0.000000,9844.739029
64.052142,536.266849,74.020594,9548.656652
64.052450,612.876398,-74.020594,9622.677246
64.052758,689.485948,222.061783,10066.800811
64.053066,995.924147,-0.000000,9474.636058
64.053374,689.485948,296.082377,9474.636058
64.053682,689.485948,222.061783,9474.636058
64.053990,919.314598,222.061783,9474.636058
64.054298,689.485948,370.102971,9770.718434
64.054606,306.438199,-222.061783,9622.677246
64.054914,383.047749,-0.000000,9770.718434
64.055222,612.876398,148.041188,9622.677246
64.055530,459.657299,-0.000000,9548.656652
64.055838,612.876398,-0.000000,9696.697840
64.056146,306.438199,148.041188,9474.636058
64.056454,459.657299,222.061783,9474.636058
64.056762,689.485948,296.082377,9548.656652
64.057070,919.314598,370.102971,9622.677246
64.057377,842.705048,296.082377,9622.677246
64.057685,1149.143247,148.041188,9326.594869
64.057993,919.314598,222.061783,9548.656652
64.058301,459.657299,148.041188,9474.636058
64.058609,766.095498,222.061783,9696.697840
64.058917,229.828649,296.082377,9474.636058
64.059225,459.657299,296.082377,9400.615463
64.059533,459.657299,-148.041188,9622.677246
64.059841,995.924147,-0.000000,9474.636058
64.060149,459.657299,222.061783,9918.759623
64.060457,0.000000,-148.041188,10066.800811
64.060765,306.438199,296.082377,9548.656652
64.061073,689.485948,370.102971,9622.677246
64.061381,536.266849,-0.000000,9326.594869
64.061689,919.314598,296.082377,9474.636058
64.061997,995.924147,-148.041188,9992.780217
64.062305,612.876398,-0.000000,9622.677246
64.062613,306.438199,-148.041188,9474.636058
64.062921,689.485948,-0.000000,9474.636058
64.063229,766.095498,-0.000000,9844.739029
64.063537,766.095498,-0.000000,9548.656652
64.063845,383.047749,222.061783,9474.636058
64.064153,689.485948,-0.000000,9622.677246
64.064460,689.485948,-0.000000,9548.656652
64.064768,766.095498,-0.000000,9622.677246
64.065076,842.705048,962.267725,9696.697840
64.065384,536.266849,148.041188,9400.615463
64.065692,842.705048,296.082377,9548.656652
64.066000,842.705048,444.123565,9474.636058
64.066308,459.657299,-0.000000,9474.636058
64.066616,995.924147,296.082377,9622.677246
64.066924,766.095498,148.041188,9992.780217
64.067232,383.047749,-0.000000,9548.656652
64.067540,153.219100,-0.000000,9400.615463
64.067848,383.047749,148.041188,9770.718434
64.068156,459.657299,148.041188,9474.636058
64.068464,536.266849,222.061783,9844.739029
64.068772,536.266849,-0.000000,9696.697840
64.069080,689.485948,222.061783,9474.636058
64.069388,1302.362347,148.041188,9548.656652
64.069696,383.047749,-74.020594,9770.718434
64.070004,1149.143247,-0.000000,9622.677246
64.070312,383.047749,148.041188,9474.636058
64.070620,306.438199,148.041188,9474.636058
64.070928,612.876398,148.041188,9474.636058
64.071236,689.485948,296.082377,9474.636058
64.071543,766.095498,148.041188,9548.656652
64.071851,766.095498,222.061783,9474.636058
64.072159,1072.533697,222.061783,9474.636058
64.072467,766.095498,222.061783,9474.636058
64.072775,842.705048,-148.041188,9992.780217
64.073083,689.485948,-0.000000,9548.656652
64.073391,459.657299,148.041188,9696.697840
64.073699,459.657299,148.041188,9622.677246
64.074007,612.876398,-0.000000,9622.677246
64.074315,536.266849,-0.000000,9474.636058
64.074623,842.705048,592.164754,9844.739029
64.074931,689.485948,444.123565,9918.759623
64.075239,689.485948,-0.000000,9622.677246
64.075547,689.485948,148.041188,9548.656652
64.075855,612.876398,-0.000000,9474.636058
64.076163,766.095498,222.061783,9474.636058
64.076471,842.705048,-0.000000,9400.615463
64.076779,612.876398,148.041188,9696.697840
64.077087,536.266849,444.123565,9918.759623
64.077395,766.095498,370.102971,9474.636058
64.077703,842.705048,222.061783,9474.636058
64.078011,995.924147,518.144159,9474.636058
64.078319,766.095498,296.082377,9474.636058
64.078627,842.705048,148.041188,9474.636058
64.078934,536.266849,-74.020594,9474.636058
64.079242,1149.143247,-0.000000,9844.739029
64.079550,842.705048,-0.000000,9696.697840
64.079858,536.266849,-0.000000,9474.636058
64.080166,612.876398,-0.000000,9474.636058
64.080474,612.876398,222.061783,9622.677246
64.080782,536.266849,148.041188,9770.718434
64.081090,536.266849,296.082377,9548.656652
64.081398,383.047749,-0.000000,9622.677246
64.081706,689.485948,148.041188,9548.656652
64.082014,689.485948,148.041188,9770.718434
64.082322,842.705048,-0.000000,9918.759623
64.082630,612.876398,-0.000000,9474.636058
64.082938,689.485948,-0.000000,9400.615463
64.083246,842.705048,-0.000000,9622.677246
64.083554,612.876398,296.082377,9548.656652
64.083862,842.705048,518.144159,9474.636058
64.084170,995.924147,222.061783,9696.697840
64.084478,919.314598,-0.000000,9474.636058
64.084786,766.095498,148.041188,9474.636058
64.085094,995.924147,296.082377,9326.594869
64.085402,842.705048,370.102971,9548.656652
64.085710,689.485948,222.061783,9548.656652
64.086017,612.876398,296.082377,9474.636058
64.086325,612.876398,222.061783,9622.677246
64.086633,536.266849,74.020594,9696.697840
64.086941,536.266849,-74.020594,9844.739029
64.087249,612.876398,-222.061783,10066.800811
64.087557,459.657299,-0.000000,9622.677246
64.087865,612.876398,-0.000000,9696.697840
64.088173,612.876398,-0.000000,9622.677246
64.088481,766.095498,-0.000000,9548.656652
64.088789,1072.533697,296.082377,9474.636058
64.089097,919.314598,-0.000000,9400.615463
64.089405,842.705048,148.041188,9696.697840
64.089713,0.000000,444.123565,9770.718434
64.090021,919.314598,444.123565,9548.656652
64.090329,766.095498,518.144159,9474.636058
64.090637,536.266849,296.082377,9474.636058
64.090945,689.485948,148.041188,9622.677246
64.091253,995.924147,-0.000000,9696.697840
64.091561,459.657299,-0.000000,9474.636058
64.091869,689.485948,-296.082377,9696.697840
64.092177,536.266849,-370.102971,9622.677246
64.092485,306.438199,-74.020594,9770.718434
64.092793,383.047749,-0.000000,9696.697840
64.093100,459.657299,222.061783,9474.636058
64.093408,0.000000,592.164754,9548.656652
64.093716,459.657299,-0.000000,9770.718434
64.094024,1072.533697,222.061783,9622.677246
64.094332,842.705048,592.164754,9548.656652
64.094640,995.924147,-0.000000,9104.533087
64.094948,689.485948,-0.000000,9474.636058
64.095256,536.266849,-0.000000,9622.677246
64.095564,383.047749,-222.061783,9770.718434
64.095872,306.438199,-0.000000,9696.697840
64.096180,383.047749,-74.020594,9844.739029
64.096488,153.219100,-74.020594,9770.718434
64.096796,612.876398,-0.000000,9474.636058
64.097104,842.705048,296.082377,9474.636058
64.097412,842.705048,370.102971,9474.636058
64.097720,995.924147,592.164754,9548.656652
64.098028,1072.533697,518.144159,9548.656652
64.098336,842.705048,592.164754,9474.636058
64.098644,995.924147,296.082377,9474.636058
64.098952,536.266849,444.123565,9622.677246
64.099260,919.314598,222.061783,9696.697840
64.099568,689.485948,-0.000000,9770.718434
64.099876,459.657299,148.041188,9770.718434
64.100183,536.266849,-0.000000,9844.739029
64.100491,536.266849,-0.000000,9622.677246
64.100799,1378.971896,-0.000000,9622.677246
64.101107,842.705048,-0.000000,9696.697840
64.101415,689.485948,148.041188,9548.656652
64.101723,842.705048,296.082377,9844.739029
64.102031,766.095498,-0.000000,9474.636058
64.102339,766.095498,-0.000000,9474.636058
64.102647,842.705048,444.123565,9474.636058
64.102955,766.095498,222.061783,9474.636058
64.103263,842.705048,296.082377,9474.636058
64.103571,842.705048,-0.000000,9474.636058
64.103879,842.705048,444.123565,9844.739029
64.104187,766.095498,222.061783,9474.636058
64.104495,919.314598,296.082377,9474.636058
64.104803,689.485948,444.123565,9474.636058
64.105111,612.876398,296.082377,9474.636058
64.105419,689.485948,148.041188,9474.636058
64.105727,689.485948,370.102971,9622.677246
64.106035,612.876398,-0.000000,9474.636058
64.106343,459.657299,-74.020594,9696.697840
64.106651,153.219100,296.082377,10288.862594
64.106959,-306.438199,-0.000000,9770.718434
64.107266,536.266849,-0.000000,9400.615463
64.107574,612.876398,-0.000000,9548.656652
64.107882,536.266849,-0.000000,9696.697840
64.108190,536.266849,-0.000000,9622.677246
64.108498,919.314598,148.041188,9326.594869
64.108806,536.266849,592.164754,9178.553681
64.109114,766.095498,592.164754,9548.656652
64.109422,1072.533697,370.102971,9326.594869
64.109730,689.485948,370.102971,9400.615463
64.110038,689.485948,296.082377,9474.636058
64.110346,229.828649,222.061783,9696.697840
64.110654,306.438199,-0.000000,9844.739029
64.110962,76.609550,222.061783,9622.677246
64.111270,459.657299,-0.000000,9918.759623
64.111578,306.438199,296.082377,9918.759623
64.111886,459.657299,444.123565,10362.883188
64.112194,612.876398,370.102971,9474.636058
64.112502,612.876398,444.123565,9252.574275
64.112810,689.485948,518.144159,9326.594869
64.113118,689.485948,370.102971,9548.656652
64.113426,612.876398,-0.000000,9548.656652
64.113734,689.485948,296.082377,9622.677246
64.114042,766.095498,-0.000000,9770.718434
64.114350,383.047749,-0.000000,9918.759623
64.114658,459.657299,-0.000000,9770.718434
64.114966,459.657299,-0.000000,9474.636058
64.115274,612.876398,370.102971,9548.656652
64.115582,766.095498,222.061783,9548.656652
64.115890,842.705048,296.082377,9918.759623
64.116198,612.876398,370.102971,9474.636058
64.116506,153.219100,-0.000000,9548.656652
64.116814,612.876398,-0.000000,9696.697840
64.117122,536.266849,222.061783,9474.636058
64.117430,536.266849,296.082377,9474.636058
64.117738,383.047749,-0.000000,9474.636058
64.118046,689.485948,222.061783,9548.656652
64.118354,919.314598,-0.000000,9770.718434
64.118662,919.314598,148.041188,9992.780217
64.118970,842.705048,-74.020594,9474.636058
64.119278,612.876398,74.020594,9622.677246
64.119586,689.485948,-0.000000,9548.656652
64.119894,766.095498,222.061783,9474.636058
64.120202,766.095498,370.102971,9622.677246
64.120510,1072.533697,148.041188,9474.636058
64.120818,995.924147,-0.000000,9326.594869
64.121126,689.485948,222.061783,9326.594869
64.121434,766.095498,-0.000000,9696.697840
64.121742,766.095498,518.144159,9622.677246
64.122050,842.705048,518.144159,9474.636058
64.122358,689.485948,148.041188,9326.594869
64.122666,766.095498,296.082377,9474.636058
64.122974,1072.533697,-0.000000,10140.821405
64.123282,536.266849,-0.000000,9770.718434
64.123590,689.485948,-0.000000,9696.697840
64.123898,536.266849,-0.000000,10140.821405
64.124206,536.266849,148.041188,9844.739029
64.124514,459.657299,148.041188,9622.677246
64.124822,766.095498,444.123565,9474.636058
64.125130,766.095498,370.102971,9474.636058
64.125438,1072.533697,296.082377,9696.697840
64.125746,1072.533697,370.102971,9696.697840
64.126054,766.095498,-0.000000,9696.697840
64.126362,1072.533697,666.185348,9918.759623
64.126670,459.657299,518.144159,9474.636058
64.126978,536.266849,296.082377,9770.718434
64.127286,459.657299,148.041188,9844.739029
64.127594,536.266849,296.082377,9474.636058
64.127902,766.095498,370.102971,9770.718434
64.128210,766.095498,-0.000000,9548.656652
64.128518,766.095498,-222.061783,9548.656652
64.128826,995.924147,-148.041188,9474.636058
64.129134,689.485948,-0.000000,9770.718434
64.129442,536.266849,74.020594,9548.656652
64.129750,383.047749,296.082377,9696.697840
64.130058,612.876398,370.102971,9474.636058
64.130366,766.095498,296.082377,9474.636058
64.130674,1072.533697,518.144159,9548.656652
64.130982,536.266849,-0.000000,9622.677246
64.131290,306.438199,148.041188,9622.677246
64.131598,766.095498,370.102971,9622.677246
64.131906,612.876398,148.041188,9548.656652
64.132214,229.828649,222.061783,9548.656652
64.132522,229.828649,-0.000000,9474.636058
64.132830,536.266849,-296.082377,9918.759623
64.133138,306.438199,-0.000000,9918.759623
64.133446,229.828649,-0.000000,9844.739029
64.133754,919.314598,-0.000000,9252.574275
64.134062,689.485948,148.041188,9548.656652
64.134370,766.095498,370.102971,9844.739029
64.134678,459.657299,370.102971,9548.656652
64.134986,689.485948,-0.000000,9400.615463
64.135294,689.485948,-74.020594,9844.739029
64.135602,536.266849,370.102971,9696.697840
64.135910,153.219100,-74.020594,9474.636058
64.136218,766.095498,-0.000000,9770.718434
64.136526,612.876398,-0.000000,9400.615463
64.136834,766.095498,-0.000000,9474.636058
64.137142,766.095498,444.123565,9844.739029
64.137450,842.705048,-0.000000,9696.697840
64.137758,919.314598,-0.000000,9844.739029
64.138066,612.876398,370.102971,9770.718434
64.138374,0.000000,-0.000000,9474.636058
64.138682,229.828649,148.041188,9770.718434
64.138990,536.266849,370.102971,9400.615463
64.139298,689.485948,222.061783,9474.636058
64.139606,766.095498,370.102971,9474.636058
64.139914,536.266849,222.061783,9474.636058
64.140222,536.266849,370.102971,9844.739029
64.140530,919.314598,148.041188,9992.780217
64.140838,383.047749,-0.000000,9548.656652
64.141146,766.095498,-148.041188,9696.697840
64.141454,766.095498,296.082377,9770.718434
64.141762,689.485948,-0.000000,9770.718434
64.142070,306.438199,-0.000000,9992.780217
64.142378,536.266849,-0.000000,9992.780217
64.142686,459.657299,-0.000000,9844.739029
64.142994,689.485948,370.102971,9474.636058
64.143302,1149.143247,-0.000000,9252.574275
64.143610,1072.533697,296.082377,9178.553681
64.143918,842.705048,444.123565,9474.636058
64.144226,689.485948,370.102971,9474.636058
64.144534,919.314598,296.082377,9474.636058
64.144842,689.485948,148.041188,9326.594869
64.145150,612.876398,148.041188,10140.821405
64.145458,459.657299,-222.061783,9696.697840
64.145766,919.314598,-74.020594,9622.677246
64.146074,842.705048,-148.041188,9622.677246
64.146382,689.485948,-0.000000,9548.656652
64.146690,612.876398,-0.000000,9696.697840
64.146998,459.657299,-0.000000,9474.636058
64.147306,919.314598,-0.000000,9474.636058
64.147614,383.047749,148.041188,9474.636058
64.147922,306.438199,-0.000000,9696.697840
64.148230,153.219100,518.144159,9844.739029
64.148538,995.924147,444.123565,9474.636058
64.148846,536.266849,444.123565,9622.677246
64.149154,689.485948,148.041188,9548.656652
64.149462,459.657299,148.041188,9474.636058
64.149770,459.657299,370.102971,9696.697840
64.150078,76.609550,-74.020594,9548.656652
64.150386,766.095498,-222.061783,9400.615463
64.150694,612.876398,-0.000000,9770.718434
64.151002,0.000000,370.102971,9918.759623
64.151310,689.485948,444.123565,9474.636058
64.151618,689.485948,296.082377,9474.636058
64.151926,612.876398,148.041188,9770.718434
64.152234,536.266849,-0.000000,9696.697840
64.152542,536.266849,296.082377,9918.759623
64.152850,459.657299,-148.041188,9474.636058
64.153158,459.657299,-0.000000,9548.656652
64.153466,766.095498,740.205942,9918.759623
64.153774,306.438199,222.061783,9474.636058
64.154082,459.657299,222.061783,9326.594869
64.154390,766.095498,592.164754,9400.615463
64.154698,1072.533697,444.123565,9474.636058
64.155006,689.485948,296.082377,9326.594869
64.155314,536.266849,296.082377,9696.697840
64.155622,995.924147,222.061783,9622.677246
64.155930,766.095498,-0.000000,9548.656652
64.156238,459.657299,-74.020594,9474.636058
64.156546,459.657299,-0.000000,9770.718434
64.156854,459.657299,-0.000000,9770.718434
64.157162,153.219100,-0.000000,9918.759623
64.157470,536.266849,-0.000000,10066.800811
64.157778,229.828649,-74.020594,9696.697840
64.158086,766.095498,296.082377,9696.697840
64.158394,842.705048,222.061783,9474.636058
64.158702,766.095498,296.082377,9326.594869
64.159010,842.705048,518.144159,9252.574275
64.159318,766.095498,518.144159,9400.615463
64.159626,766.095498,-0.000000,9326.594869
64.159934,842.705048,-0.000000,9548.656652
64.160242,306.438199,-0.000000,9696.697840
64.160550,383.047749,148.041188,9992.780217
64.160858,229.828649,-0.000000,10066.800811
64.161166,459.657299,-0.000000,9844.739029
64.161474,459.657299,-0.000000,9548.656652
64.161782,689.485948,148.041188,9548.656652
64.162090,1072.533697,666.185348,9622.677246
64.162398,766.095498,296.082377,9548.656652
64.162706,689.485948,296.082377,9844.739029
64.163014,536.266849,370.102971,9696.697840
64.163322,766.095498,518.144159,9548.656652
64.163630,689.485948,222.061783,9474.636058
64.163938,536.266849,370.102971,9622.677246
64.164246,459.657299,222.061783,9622.677246
64.164554,689.485948,296.082377,9844.739029
64.164862,995.924147,148.041188,9844.739029
64.165170,612.876398,-0.000000,9548.656652
64.165478,1225.752797,-0.000000,9474.636058
64.165786,995.924147,370.102971,9548.656652
64.166094,995.924147,370.102971,9252.574275
64.166402,689.485948,370.102971,9400.615463
64.166710,766.095498,222.061783,9474.636058
64.167018,459.657299,296.082377,9696.697840
64.167326,919.314598,-0.000000,9622.677246
64.167634,383.047749,148.041188,9918.759623
64.167942,766.095498,-74.020594,9918.759623
64.168250,153.219100,148.041188,10066.800811
64.168558,536.266849,-74.020594,9844.739029
64.168866,383.047749,-0.000000,9696.697840
64.169174,383.047749,-0.000000,9548.656652
64.169482,459.657299,-0.000000,9474.636058
64.169790,536.266849,-74.020594,9474.636058
64.170098,1149.143247,370.102971,9770.718434
64.170406,689.485948,370.102971,9548.656652
64.170714,536.266849,296.082377,9400.615463
64.171022,766.095498,222.061783,9400.615463
64.171330,612.876398,296.082377,9474.636058
64.171638,842.705048,444.123565,9326.594869
64.171946,842.705048,-222.061783,9104.533087
64.172254,689.485948,222.061783,9326.594869
64.172562,536.266849,-0.000000,9474.636058
64.172870,842.705048,-0.000000,9844.739029
64.173178,612.876398,296.082377,9548.656652
64.173486,383.047749,-0.000000,9474.636058
64.173794,306.438199,-0.000000,9548.656652
64.174102,459.657299,370.102971,9696.697840
64.174410,76.609550,-222.061783,9770.718434
64.174718,536.266849,-148.041188,9326.594869
64.175026,536.266849,-74.020594,9696.697840
64.175334,766.095498,148.041188,10066.800811
64.175642,383.047749,74.020594,9918.759623
64.175950,536.266849,222.061783,9548.656652
64.176258,459.657299,370.102971,9622.677246
64.176566,612.876398,222.061783,9918.759623
64.176874,995.924147,-0.000000,9474.636058
64.177182,766.095498,-0.000000,9474.636058
64.177490,689.485948,518.144159,9548.656652
64.177798,1149.143247,148.041188,9474.636058
64.178106,689.485948,222.061783,9400.615463
64.178414,766.095498,296.082377,9400.615463
64.178722,459.657299,370.102971,9474.636058
64.179030,612.876398,296.082377,9474.636058
64.179338,306.438199,-0.000000,9992.780217
64.179646,995.924147,222.061783,9918.759623
64.179954,536.266849,-0.000000,9770.718434
64.180262,842.705048,-0.000000,9918.759623
64.180570,612.876398,-0.000000,9696.697840
64.180878,612.876398,222.061783,9770.718434
64.181186,612.876398,370.102971,9474.636058
64.181494,766.095498,148.041188,9474.636058
64.181802,153.219100,-74.020594,9696.697840
64.182110,536.266849,222.061783,9696.697840
64.182418,766.095498,148.041188,9770.718434
64.182726,536.266849,-0.000000,9622.677246
64.183034,919.314598,-0.000000,9622.677246
64.183342,459.657299,-0.000000,9622.677246
64.183650,766.095498,444.123565,9770.718434
64.183958,766.095498,370.102971,9548.656652
64.184266,1072.533697,-0.000000,9326.594869
64.184574,459.657299,296.082377,9474.636058
64.184882,919.314598,-0.000000,9400.615463
64.185190,1302.362347,-0.000000,9770.718434
64.185498,842.705048,370.102971,9548.656652
64.185806,612.876398,370.102971,9474.636058
64.186114,689.485948,222.061783,9474.636058
64.186422,766.095498,222.061783,9696.697840
64.186730,306.438199,-0.000000,9474.636058
64.187038,0.000000,296.082377,9918.759623
64.187345,689.485948,148.041188,9844.739029
64.187653,612.876398,-74.020594,9622.677246
64.187961,612.876398,-0.000000,9548.656652
64.188269,612.876398,296.082377,9696.697840
64.188577,536.266849,444.123565,9548.656652
64.188885,842.705048,148.041188,9770.718434
64.189193,612.876398,444.123565,10140.821405
64.189501,1072.533697,-0.000000,9548.656652
64.189809,842.705048,444.123565,9696.697840
64.190117,842.705048,-0.000000,9696.697840
64.190425,536.266849,222.061783,9474.636058
64.190733,689.485948,296.082377,9548.656652
64.191041,459.657299,222.061783,9548.656652
64.191349,689.485948,148.041188,9400.615463
64.191657,612.876398,148.041188,9400.615463
64.191965,229.828649,296.082377,9548.656652
64.192273,306.438199,296.082377,9770.718434
64.192581,612.876398,-0.000000,9548.656652
64.192889,383.047749,296.082377,9474.636058
64.193197,383.047749,296.082377,9696.697840
64.193505,229.828649,370.102971,9844.739029
64.193813,459.657299,222.061783,9696.697840
64.194121,229.828649,-0.000000,9474.636058
64.194429,689.485948,444.123565,9844.739029
64.194737,536.266849,-0.000000,9474.636058
64.195045,536.266849,-0.000000,9474.636058
64.195353,766.095498,222.061783,9548.656652
64.195661,536.266849,296.082377,9474.636058
64.195969,459.657299,222.061783,9474.636058
64.196277,842.705048,-0.000000,9400.615463
64.196585,612.876398,-0.000000,9474.636058
64.196893,766.095498,-0.000000,8956.491898
64.197201,612.876398,-0.000000,9844.739029
64.197509,459.657299,370.102971,9770.718434
64.197817,536.266849,-0.000000,9474.636058
64.198125,536.266849,296.082377,9770.718434
64.198433,689.485948,296.082377,9696.697840
64.198741,766.095498,-0.000000,9474.636058
64.199049,1072.533697,592.164754,9696.697840
64.199357,1072.533697,296.082377,9178.553681
64.199665,995.924147,222.061783,9474.636058
64.199973,766.095498,296.082377,9622.677246
64.200281,689.485948,148.041188,9770.718434
64.200589,536.266849,-0.000000,9622.677246
64.200897,459.657299,-0.000000,9696.697840
64.201205,919.314598,148.041188,9622.677246
64.201513,766.095498,222.061783,9770.718434
64.201821,919.314598,222.061783,9918.759623
64.202129,689.485948,148.041188,10066.800811
64.202437,383.047749,296.082377,9918.759623
64.202745,689.485948,296.082377,9918.759623
64.203053,612.876398,370.102971,9474.636058
64.203361,612.876398,222.061783,9474.636058
64.203669,766.095498,518.144159,9400.615463
64.203977,1072.533697,518.144159,9622.677246
64.204285,995.924147,370.102971,9474.636058
64.204593,383.047749,222.061783,9696.697840
64.204901,689.485948,-0.000000,9474.636058
64.205209,689.485948,222.061783,9548.656652
64.205517,536.266849,296.082377,9548.656652
64.205825,766.095498,148.041188,9696.697840
64.206133,306.438199,148.041188,9992.780217
64.206441,536.266849,-0.000000,10066.800811
64.206749,536.266849,-296.082377,9770.718434
64.207057,153.219100,-0.000000,9548.656652
64.207365,766.095498,296.082377,9474.636058
64.207673,766.095498,592.164754,9474.636058
64.207981,842.705048,370.102971,9252.574275
64.208289,536.266849,444.123565,9326.594869
64.208597,689.485948,370.102971,9696.697840
64.208905,459.657299,222.061783,10066.800811
64.209213,153.219100,-0.000000,9696.697840
64.209521,459.657299,-0.000000,9474.636058
64.209829,383.047749,-0.000000,9696.697840
64.210137,536.266849,-0.000000,9844.739029
64.210445,459.657299,-0.000000,9844.739029
64.210753,383.047749,-0.000000,9696.697840
64.211061,689.485948,-74.020594,9770.718434
64.211369,766.095498,-0.000000,9844.739029
64.211677,536.266849,-0.000000,9474.636058
64.211985,1455.581446,370.102971,9252.574275
64.212293,1225.752797,518.144159,8882.471304
64.212601,1072.533697,518.144159,9030.512492
64.212909,919.314598,370.102971,9400.615463
