#time,accel_x,accel_y,accel_z
405.227365,536.266849,148.041188,9474.636058
405.227672,612.876398,222.061783,9474.636058
405.227980,766.095498,296.082377,9548.656652
405.228288,536.266849,148.041188,9474.636058
405.228596,383.047749,-0.000000,9696.697840
405.228904,383.047749,296.082377,9992.780217
405.229211,459.657299,518.144159,9400.615463
405.229519,536.266849,-0.000000,9622.677246
405.229827,689.485948,370.102971,9548.656652
405.230135,536.266849,148.041188,9696.697840
405.230442,536.266849,370.102971,9696.697840
405.230750,689.485948,148.041188,9548.656652
405.231058,612.876398,-74.020594,9770.718434
405.231366,842.705048,-0.000000,9474.636058
405.231673,612.876398,296.082377,9548.656652
405.231981,76.609550,444.123565,9770.718434
405.232289,612.876398,296.082377,9474.636058
405.232597,689.485948,-0.000000,9400.615463
405.232904,612.876398,-0.000000,9474.636058
405.233212,612.876398,148.041188,9474.636058
405.233520,383.047749,148.041188,9548.656652
405.233828,383.047749,-0.000000,9696.697840
405.234135,459.657299,-74.020594,9474.636058
405.234443,459.657299,-222.061783,9696.697840
405.234751,459.657299,370.102971,9548.656652
405.235059,612.876398,296.082377,9622.677246
405.235366,689.485948,222.061783,9474.636058
405.235674,459.657299,148.041188,9548.656652
405.235982,153.219100,-0.000000,9474.636058
405.236290,689.485948,-0.000000,9770.718434
405.236597,536.266849,148.041188,9844.739029
405.236905,-153.219100,-296.082377,9326.594869
405.237213,536.266849,296.082377,9622.677246
405.237521,689.485948,296.082377,9400.615463
405.237829,536.266849,296.082377,9622.677246
405.238136,689.485948,296.082377,9474.636058
405.238444,612.876398,-0.000000,9770.718434
405.238752,536.266849,592.164754,9844.739029
405.239060,459.657299,370.102971,9770.718434
405.239367,383.047749,148.041188,9844.739029
405.239675,229.828649,148.041188,9622.677246
405.239983,612.876398,296.082377,9548.656652
405.240291,229.828649,370.102971,9844.739029
405.240598,459.657299,222.061783,9770.718434
405.240906,842.705048,-0.000000,9696.697840
405.241214,536.266849,-0.000000,9548.656652
405.241522,919.314598,-0.000000,9474.636058
405.241829,536.266849,296.082377,9770.718434
405.242137,766.095498,222.061783,9770.718434
405.242445,536.266849,148.041188,9548.656652
405.242753,842.705048,148.041188,9548.656652
405.243060,536.266849,-0.000000,9622.677246
405.243368,612.876398,370.102971,9548.656652
405.243676,383.047749,-0.000000,9992.780217
405.243984,842.705048,-74.020594,10362.883188
405.244291,612.876398,-518.144159,9770.718434
405.244599,536.266849,-740.205942,10140.821405
405.244907,612.876398,-592.164754,10214.842000
405.245215,612.876398,-518.144159,9918.759623
405.245523,1302.362347,-74.020594,10066.800811
405.245830,1532.190996,148.041188,10066.800811
405.246138,1991.848295,148.041188,8956.491898
405.246446,2145.067394,1110.308913,8956.491898
405.246754,2604.724693,962.267725,9030.512492
405.247061,2298.286494,592.164754,9104.533087
405.247369,1991.848295,592.164754,9252.574275
405.247677,1762.019645,518.144159,9326.594869
405.247985,1991.848295,296.082377,9548.656652
405.248292,1838.629195,-0.000000,9622.677246
405.248600,1838.629195,148.041188,9992.780217
405.248908,1532.190996,-0.000000,9918.759623
405.249216,1685.410096,-74.020594,9992.780217
405.249523,2068.457845,-74.020594,9992.780217
405.249831,1991.848295,-148.041188,9992.780217
405.250139,2451.505594,-0.000000,9548.656652
405.250447,2528.115143,370.102971,9474.636058
405.250754,2757.943793,222.061783,9474.636058
405.251062,2987.772442,-0.000000,9548.656652
405.251370,2604.724693,296.082377,9474.636058
405.251678,2528.115143,222.061783,9400.615463
405.251985,2604.724693,444.123565,9474.636058
405.252293,2604.724693,148.041188,9696.697840
405.252601,2528.115143,-0.000000,9770.718434
405.252909,2681.334243,592.164754,9992.780217
405.253216,2987.772442,-148.041188,9770.718434
405.253524,3064.381992,-444.123565,9992.780217
405.253832,3524.039291,-666.185348,9844.739029
405.254140,2757.943793,-74.020594,9918.759623
405.254448,2834.553343,-74.020594,9844.739029
405.254755,3064.381992,-74.020594,9696.697840
405.255063,3524.039291,-0.000000,9474.636058
405.255371,3677.258390,-0.000000,9474.636058
405.255679,3983.696590,148.041188,8956.491898
405.255986,4596.572988,814.226536,9178.553681
405.256294,4366.744339,666.185348,8956.491898
405.256602,4519.963438,518.144159,8882.471304
405.256910,4366.744339,222.061783,9326.594869
405.257217,4290.134789,222.061783,9474.636058
405.257525,3983.696590,222.061783,9770.718434
405.257833,4060.306139,-222.061783,9548.656652
405.258141,4213.525239,-0.000000,9622.677246
405.258448,4519.963438,222.061783,9696.697840
405.258756,4519.963438,814.226536,9400.615463
405.259064,4443.353888,814.226536,8882.471304
405.259372,4749.792088,1184.329507,8808.450710
405.259679,4749.792088,1554.432478,8808.450710
405.259987,4826.401637,1480.411884,8808.450710
405.260295,4826.401637,1332.370696,8512.368333
405.260603,4213.525239,740.205942,9474.636058
405.260910,3830.477490,370.102971,9770.718434
405.261218,3753.867940,370.102971,9548.656652
405.261526,2681.334243,-148.041188,10436.903782
405.261834,2911.162892,370.102971,10214.842000
405.262141,2374.896044,370.102971,9770.718434
405.262449,2528.115143,518.144159,10436.903782
405.262757,3140.991542,518.144159,9696.697840
405.263065,2604.724693,666.185348,9844.739029
405.263373,2451.505594,666.185348,10140.821405
405.263680,1991.848295,296.082377,9474.636058
405.263988,2374.896044,518.144159,10140.821405
405.264296,1378.971896,-444.123565,9992.780217
405.264604,1608.800546,-370.102971,10807.006753
405.264911,1072.533697,-1110.308913,10881.027347
405.265219,1302.362347,-1332.370696,10881.027347
405.265527,1378.971896,-1850.514855,10658.965565
405.265835,2145.067394,-1776.494261,11251.130318
405.266142,2911.162892,-2294.638420,10510.924376
405.266450,2911.162892,-1850.514855,9844.739029
405.266758,3830.477490,-1258.350101,9548.656652
405.267066,3600.648841,-814.226536,9104.533087
405.267373,4903.011187,-74.020594,9252.574275
405.267681,5132.839837,740.205942,8512.368333
405.267989,4903.011187,1036.288319,7476.080014
405.268297,5515.887586,666.185348,8216.285956
405.268604,5056.230287,592.164754,8290.306550
405.268912,4826.401637,592.164754,8364.327145
405.269220,4290.134789,148.041188,8364.327145
405.269528,3753.867940,-74.020594,9326.594869
405.269835,2911.162892,-666.185348,9548.656652
405.270143,2987.772442,-518.144159,10066.800811
405.270451,2757.943793,-222.061783,9992.780217
405.270759,3600.648841,444.123565,9400.615463
405.271067,3677.258390,1924.535449,9030.512492
405.271374,4213.525239,2516.700203,8512.368333
405.271682,4673.182538,3108.864956,8364.327145
405.271990,4673.182538,3404.947333,8142.265362
405.272298,4366.744339,2812.782580,8586.388927
405.272605,3524.039291,1480.411884,9622.677246
405.272913,2451.505594,-370.102971,10584.944971
405.273221,1225.752797,-1480.411884,11843.295072
405.273529,536.266849,-3256.906145,12731.542202
405.273836,153.219100,-3997.112087,13693.809927
405.274144,612.876398,-3849.070898,13471.748144
405.274452,1915.238745,-3182.885551,12657.521608
405.274760,3447.429741,-1850.514855,11029.068536
405.275067,4749.792088,-222.061783,9178.553681
405.275375,7660.954980,962.267725,8142.265362
405.275683,7431.126331,2664.741391,7031.956449
405.275991,7814.174080,3997.112087,5255.462188
405.276298,8044.002729,4293.194464,5329.482782
405.276606,7124.688131,5255.462188,5107.421000
405.276914,5975.544884,5033.400406,6069.688724
405.277222,5362.668486,3849.070898,6809.894666
405.277529,3217.601092,2072.576638,8438.347739
405.277837,1532.190996,444.123565,10288.862594
405.278145,1149.143247,-1036.288319,11769.274478
405.278453,0.000000,-2664.741391,12657.521608
405.278760,-612.876398,-4145.153275,13841.851115
405.279068,-459.657299,-4293.194464,14508.036463
405.279376,536.266849,-4293.194464,13915.871710
405.279684,1532.190996,-3552.988522,12731.542202
405.279992,2987.772442,-2516.700203,11843.295072
405.280299,4673.182538,-1554.432478,10732.986159
405.280607,5975.544884,-148.041188,8660.409521
405.280915,6205.373534,1406.391290,7402.059420
405.281223,6665.030833,2664.741391,6513.812290
405.281530,6435.202183,3552.988522,6069.688724
405.281838,6052.154434,3627.009116,5847.626942
405.282146,5286.058936,2886.803174,6217.729913
405.282454,4673.182538,1702.473667,7254.018232
405.282761,3217.601092,666.185348,8956.491898
405.283069,1608.800546,-1554.432478,9992.780217
405.283377,995.924147,-3256.906145,12139.377449
405.283685,612.876398,-4219.173869,13249.686362
405.283992,766.095498,-3849.070898,13323.706956
405.284300,1915.238745,-3108.864956,12287.418637
405.284608,2911.162892,-962.267725,11103.089130
405.284916,5669.106685,1332.370696,8512.368333
405.285223,7507.735880,4071.132681,5773.606348
405.285531,8044.002729,5625.565159,4293.194464
405.285839,8197.221829,6143.709319,4441.235652
405.286147,7660.954980,6439.791695,4589.276840
405.286454,6052.154434,4367.215058,6291.750507
405.286762,3907.087040,592.164754,10140.821405
405.287070,0.000000,-1850.514855,12509.480420
405.287378,-1608.800546,-3182.885551,14063.912898
405.287686,-3983.696590,-6365.771101,16062.468941
405.287993,-2987.772442,-6883.915261,18653.189738
405.288301,-2221.676944,-6217.729913,16802.674883
405.288609,0.000000,-3849.070898,13841.851115
405.288917,3140.991542,-1036.288319,9770.718434
405.289224,5975.544884,1702.473667,6365.771101
405.289532,8733.488677,4959.379811,4515.256246
405.289840,10189.070123,6069.688724,4219.173869
405.290148,10418.898773,5477.523971,3552.988522
405.290455,8197.221829,5773.606348,2442.679609
405.290763,7048.078582,1924.535449,6957.935855
405.291071,2834.553343,-1184.329507,9104.533087
405.291379,459.657299,-3923.091493,11843.295072
405.291686,-1149.143247,-5181.441594,13545.768739
405.291994,-1991.848295,-5255.462188,13693.809927
405.292302,229.828649,-3923.091493,13249.686362
405.292610,3064.381992,-296.082377,11103.089130
405.292917,5439.278036,2072.576638,8364.327145
405.293225,8197.221829,2812.782580,6513.812290
405.293533,8963.317327,4811.338623,5551.544565
405.293841,6971.469032,5773.606348,5551.544565
405.294148,7277.907231,2368.659014,8660.409521
405.294456,4596.572988,2294.638420,9326.594869
405.294764,383.047749,-888.247130,11843.295072
405.295072,153.219100,-2442.679609,12731.542202
405.295379,-1302.362347,-3923.091493,13619.789333
405.295687,-2298.286494,-4367.215058,14952.160028
405.295995,-612.876398,-3330.926739,12509.480420
405.296303,1762.019645,-2368.659014,12361.439231
405.296611,3830.477490,-1480.411884,10362.883188
405.296919,6128.763984,-666.185348,8586.388927
405.297227,6665.030833,592.164754,8290.306550
405.297535,6052.154434,1110.308913,7031.956449
405.297843,7124.688131,2812.782580,7105.977043
405.298151,6358.592633,5033.400406,5921.647536
405.298459,6665.030833,5033.400406,6217.729913
405.298767,6588.421283,6069.688724,5773.606348
405.299075,6588.421283,5477.523971,6291.750507
405.299383,5515.887586,2442.679609,8142.265362
405.299691,3830.477490,-0.000000,9918.759623
405.299999,1838.629195,-3256.906145,12879.583391
405.300307,-153.219100,-5847.626942,14730.098246
405.300615,-1838.629195,-6513.812290,15100.201217
405.300923,-1838.629195,-5477.523971,14211.954086
405.301231,-229.828649,-3775.050304,12361.439231
405.301539,1685.410096,-888.247130,10732.986159
405.301847,4903.011187,888.247130,9326.594869
405.302156,5592.497135,1480.411884,7550.100608
405.302464,5898.935335,3034.844362,5625.565159
405.302772,6358.592633,2812.782580,5107.421000
405.303080,5898.935335,4145.153275,5773.606348
405.303388,5745.716235,3330.926739,7550.100608
405.303696,5592.497135,3849.070898,7105.977043
405.304004,4596.572988,3108.864956,7550.100608
405.304312,3370.820191,888.247130,9104.533087
405.304620,3370.820191,-666.185348,9622.677246
405.304928,2451.505594,-2664.741391,11843.295072
405.305236,1149.143247,-4367.215058,12731.542202
405.305544,919.314598,-5329.482782,12731.542202
405.305852,-229.828649,-4589.276840,12287.418637
405.306160,689.485948,-2738.761985,11843.295072
405.306468,2911.162892,-740.205942,10288.862594
405.306776,4903.011187,1184.329507,8290.306550
405.307084,5056.230287,2220.617826,7698.141797
405.307392,5132.839837,1924.535449,6809.894666
405.307701,4136.915689,814.226536,8808.450710
405.308009,2604.724693,1554.432478,8956.491898
405.308317,2374.896044,1924.535449,9474.636058
405.308625,2221.676944,2146.597232,10214.842000
405.308933,2374.896044,3849.070898,8068.244768
405.309241,3983.696590,3256.906145,8660.409521
405.309549,3217.601092,1924.535449,9696.697840
405.309857,2528.115143,-148.041188,9474.636058
405.310165,1072.533697,-2368.659014,10881.027347
405.310473,-1149.143247,-3330.926739,12805.562797
405.310781,-1991.848295,-3849.070898,13619.789333
405.311089,-995.924147,-1258.350101,11029.068536
405.311397,1302.362347,-0.000000,10288.862594
405.311705,3064.381992,1406.391290,8882.471304
405.312013,3447.429741,1036.288319,8142.265362
405.312321,3677.258390,444.123565,9474.636058
405.312629,1838.629195,444.123565,9918.759623
405.312937,383.047749,-740.205942,10436.903782
405.313246,229.828649,296.082377,11251.130318
405.313554,1608.800546,518.144159,10955.047942
405.313862,3524.039291,1924.535449,9844.739029
405.314170,4673.182538,1850.514855,8364.327145
405.314478,4290.134789,296.082377,8142.265362
405.314786,2987.772442,-1036.288319,9252.574275
405.315094,1225.752797,-1776.494261,11103.089130
405.315402,612.876398,-2812.782580,11621.233289
405.315710,1072.533697,-1776.494261,9252.574275
405.316018,3294.210641,-1406.391290,8364.327145
405.316326,3907.087040,592.164754,5847.626942
405.316634,5056.230287,-0.000000,6883.915261
405.316942,2068.457845,1554.432478,7920.203579
405.317250,3140.991542,666.185348,9474.636058
405.317558,1455.581446,1480.411884,9400.615463
405.317866,2145.067394,2664.741391,9622.677246
405.318174,3677.258390,3256.906145,9252.574275
405.318482,3294.210641,3627.009116,8142.265362
405.318791,3064.381992,1628.453072,9992.780217
405.319099,1378.971896,370.102971,11029.068536
405.319407,-842.705048,-1480.411884,12361.439231
405.319715,-2528.115143,-2294.638420,12953.603985
405.320023,-1762.019645,-2516.700203,12953.603985
405.320331,-1072.533697,-1554.432478,11177.109724
405.320639,1072.533697,-1110.308913,9474.636058
405.320947,1762.019645,222.061783,7179.997637
405.321255,1991.848295,1406.391290,7698.141797
405.321563,2451.505594,2368.659014,8142.265362
405.321871,1378.971896,3108.864956,8216.285956
405.322179,1838.629195,2960.823768,8808.450710
405.322487,3524.039291,2590.720797,9326.594869
405.322795,2911.162892,3108.864956,7994.224174
405.323103,1685.410096,-0.000000,10658.965565
405.323411,306.438199,-1480.411884,10807.006753
405.323719,-1532.190996,-2072.576638,11399.171507
405.324027,-2451.505594,-3552.988522,13027.624579
405.324336,-995.924147,-3108.864956,11547.212695
405.324644,-383.047749,-1110.308913,8808.450710
405.324952,1762.019645,-888.247130,7846.182985
405.325260,1838.629195,592.164754,5699.585753
405.325568,1608.800546,2664.741391,5921.647536
405.325876,2681.334243,1554.432478,7846.182985
405.326184,2604.724693,2590.720797,7550.100608
405.326492,1762.019645,2960.823768,7994.224174
405.326800,3140.991542,740.205942,9326.594869
405.327108,536.266849,-592.164754,9918.759623
405.327416,-612.876398,-2664.741391,12065.356855
405.327724,-2834.553343,-3552.988522,13249.686362
405.328032,-3983.696590,-4441.235652,13915.871710
405.328340,-4060.306139,-4737.318029,13397.727550
405.328648,-2451.505594,-3552.988522,11991.336260
405.328956,-536.266849,-2146.597232,9622.677246
405.329264,1072.533697,-370.102971,7328.038826
405.329573,1532.190996,1110.308913,6661.853478
405.329881,2451.505594,2368.659014,6735.874072
405.330189,3064.381992,3256.906145,6439.791695
405.330497,3600.648841,4737.318029,5847.626942
405.330805,4366.744339,4663.297435,5995.668130
405.331113,4060.306139,2960.823768,7254.018232
405.331421,2068.457845,1776.494261,8882.471304
405.331729,536.266849,-0.000000,11843.295072
405.332037,-1685.410096,-1924.535449,13323.706956
405.332345,-3140.991542,-2812.782580,13619.789333
405.332653,-2604.724693,-3478.967927,12065.356855
405.332961,-2374.896044,-3034.844362,10436.903782
405.333269,0.000000,-1850.514855,10066.800811
405.333577,766.095498,-148.041188,8068.244768
405.333885,995.924147,1480.411884,7402.059420
405.334193,1072.533697,2368.659014,7846.182985
405.334501,2757.943793,3330.926739,7994.224174
405.334809,3677.258390,4663.297435,7698.141797
405.335118,3907.087040,3849.070898,7476.080014
405.335426,2911.162892,2368.659014,8142.265362
405.335734,1302.362347,222.061783,11325.150913
405.336042,-689.485948,-1110.308913,12879.583391
405.336350,-2374.896044,-3108.864956,13027.624579
405.336658,-2834.553343,-3997.112087,12657.521608
405.336966,-2451.505594,-3552.988522,12361.439231
405.337274,-306.438199,-3182.885551,9770.718434
405.337582,459.657299,-1258.350101,8438.347739
405.337890,1225.752797,666.185348,8290.306550
405.338198,1762.019645,1258.350101,7031.956449
405.338506,4136.915689,1924.535449,7772.162391
405.338814,3217.601092,4293.194464,8216.285956
405.339122,5362.668486,3182.885551,9030.512492
405.339430,4136.915689,2516.700203,8068.244768
405.339738,1532.190996,1258.350101,9474.636058
405.340046,612.876398,-518.144159,12435.459826
405.340354,-995.924147,-814.226536,12509.480420
405.340663,-2451.505594,-2368.659014,13175.665768
405.340971,-2145.067394,-2886.803174,10807.006753
405.341279,-1608.800546,-2738.761985,9622.677246
405.341587,0.000000,-2072.576638,11177.109724
405.341895,76.609550,-740.205942,9252.574275
405.342203,1302.362347,1184.329507,7772.162391
405.342511,1378.971896,1702.473667,8586.388927
405.342819,2834.553343,2960.823768,8660.409521
405.343127,4060.306139,4219.173869,8142.265362
405.343435,3830.477490,3478.967927,9104.533087
405.343743,1455.581446,2368.659014,8364.327145
405.344051,306.438199,814.226536,11473.192101
405.344359,-612.876398,-74.020594,13767.830521
405.344667,-2834.553343,-1036.288319,12139.377449
405.344975,-1532.190996,-1406.391290,11399.171507
405.345283,-842.705048,-1628.453072,8956.491898
405.345591,-919.314598,-1406.391290,8290.306550
405.345899,919.314598,-1332.370696,9104.533087
405.346208,229.828649,592.164754,7846.182985
405.346516,383.047749,518.144159,8290.306550
405.346824,2298.286494,1036.288319,8660.409521
405.347132,2834.553343,2812.782580,8290.306550
405.347440,2757.943793,2072.576638,8660.409521
405.347748,2451.505594,1998.556043,7846.182985
405.348056,1072.533697,962.267725,9918.759623
405.348364,-995.924147,-666.185348,12287.418637
405.348672,-1991.848295,-1258.350101,11843.295072
405.348980,-1991.848295,-2294.638420,11843.295072
405.349288,-1991.848295,-2146.597232,9400.615463
405.349596,-1072.533697,-2146.597232,8438.347739
405.349904,-689.485948,-2220.617826,8956.491898
405.350212,0.000000,-444.123565,8364.327145
405.350520,995.924147,666.185348,7994.224174
405.350828,1685.410096,1036.288319,10214.842000
405.351136,2911.162892,1776.494261,9104.533087
405.351444,4136.915689,2368.659014,7920.203579
405.351753,3677.258390,1628.453072,7772.162391
405.352061,1838.629195,888.247130,9474.636058
405.352369,-153.219100,-222.061783,11843.295072
405.352677,-1302.362347,-592.164754,13027.624579
405.352985,-1455.581446,-1776.494261,11621.233289
405.353293,-1762.019645,-1406.391290,9918.759623
405.353601,-1378.971896,-2368.659014,8808.450710
405.353909,-842.705048,-1702.473667,9104.533087
405.354217,-306.438199,-592.164754,9030.512492
405.354525,459.657299,370.102971,8438.347739
405.354833,1072.533697,1776.494261,8290.306550
405.355141,2374.896044,2812.782580,8216.285956
405.355449,3677.258390,3404.947333,7846.182985
405.355757,3447.429741,3404.947333,8142.265362
405.356065,2528.115143,1924.535449,8660.409521
405.356373,0.000000,962.267725,10584.944971
405.356681,-919.314598,-0.000000,12731.542202
405.356989,-1991.848295,-444.123565,10732.986159
405.357298,-1455.581446,-1110.308913,10807.006753
405.357606,-612.876398,-1998.556043,8438.347739
405.357914,-459.657299,-1332.370696,8068.244768
405.358222,76.609550,-814.226536,9400.615463
405.358530,383.047749,-0.000000,8808.450710
405.358838,1302.362347,-0.000000,9474.636058
405.359146,2221.676944,1480.411884,9622.677246
405.359454,3677.258390,1776.494261,9178.553681
405.359762,3600.648841,2368.659014,8290.306550
405.360070,3524.039291,1258.350101,9474.636058
405.360378,1915.238745,592.164754,10214.842000
405.360686,-459.657299,444.123565,11029.068536
405.360994,229.828649,-1480.411884,13397.727550
405.361302,0.000000,-1702.473667,9844.739029
405.361610,-1991.848295,-1554.432478,10140.821405
405.361918,383.047749,-3330.926739,11029.068536
405.362226,0.000000,-740.205942,7550.100608
405.362534,-766.095498,-0.000000,9326.594869
405.362843,1991.848295,-888.247130,9918.759623
405.363151,2145.067394,1628.453072,8660.409521
405.363459,2528.115143,1036.288319,9548.656652
405.363767,4290.134789,1702.473667,8586.388927
405.364075,2911.162892,2442.679609,7550.100608
405.364383,1685.410096,592.164754,9844.739029
405.364691,536.266849,370.102971,10362.883188
405.364999,-842.705048,518.144159,11177.109724
405.365307,-2528.115143,-1258.350101,11917.315666
405.365615,-612.876398,-1554.432478,9844.739029
405.365923,-919.314598,-740.205942,8512.368333
405.366231,459.657299,-740.205942,9178.553681
405.366539,842.705048,370.102971,7402.059420
405.366847,842.705048,1628.453072,7328.038826
405.367155,1302.362347,1110.308913,9844.739029
405.367463,2911.162892,2072.576638,8290.306550
405.367771,3677.258390,2960.823768,7105.977043
405.368079,2911.162892,1258.350101,9104.533087
405.368388,1608.800546,962.267725,9178.553681
405.368696,0.000000,444.123565,11843.295072
405.369004,-1225.752797,-518.144159,13101.645173
405.369312,-1532.190996,-1036.288319,12361.439231
405.369620,-1455.581446,-2072.576638,10955.047942
405.369928,-842.705048,-2368.659014,9474.636058
405.370236,-459.657299,-1036.288319,8364.327145
405.370544,306.438199,-888.247130,8512.368333
405.370852,76.609550,-222.061783,8882.471304
405.371160,1072.533697,296.082377,8438.347739
405.371468,2528.115143,1850.514855,9178.553681
405.371776,2757.943793,1924.535449,8734.430116
405.372084,2451.505594,2146.597232,8142.265362
405.372392,2068.457845,222.061783,9992.780217
405.372700,0.000000,-370.102971,12509.480420
405.373008,-1532.190996,-1554.432478,12435.459826
405.373316,-1608.800546,-1406.391290,11991.336260
405.373624,-1455.581446,-2146.597232,10658.965565
405.373933,-1072.533697,-2368.659014,8882.471304
405.374241,0.000000,-1110.308913,8512.368333
405.374549,229.828649,-0.000000,8438.347739
405.374857,842.705048,1036.288319,7476.080014
405.375165,1915.238745,1628.453072,8586.388927
405.375473,2451.505594,2368.659014,8068.244768
405.375781,3064.381992,2738.761985,7105.977043
405.376089,3064.381992,2664.741391,8364.327145
405.376397,1838.629195,1776.494261,9178.553681
405.376705,0.000000,592.164754,11103.089130
405.377013,-842.705048,-0.000000,11769.274478
405.377321,-1378.971896,-592.164754,11769.274478
405.377629,-2068.457845,-1702.473667,11843.295072
405.377937,-919.314598,-1998.556043,9474.636058
405.378245,229.828649,-1480.411884,9030.512492
405.378553,153.219100,-370.102971,8586.388927
405.378861,919.314598,222.061783,7698.141797
405.379170,689.485948,666.185348,8956.491898
405.379478,1685.410096,1850.514855,9252.574275
405.379786,3064.381992,2146.597232,8808.450710
405.380094,3140.991542,2812.782580,8290.306550
405.380402,2145.067394,296.082377,9326.594869
405.380710,1072.533697,296.082377,11251.130318
405.381018,-229.828649,-518.144159,12287.418637
405.381326,-919.314598,-1850.514855,12805.562797
405.381634,-766.095498,-2368.659014,11917.315666
405.381942,-612.876398,-1924.535449,9992.780217
405.382250,153.219100,-1998.556043,8586.388927
405.382558,1072.533697,518.144159,8142.265362
405.382866,2145.067394,1850.514855,6883.915261
405.383174,1302.362347,1480.411884,7698.141797
405.383482,1838.629195,2220.617826,8216.285956
405.383790,2987.772442,2886.803174,7846.182985
405.384098,2987.772442,2368.659014,7920.203579
405.384406,2298.286494,1406.391290,8438.347739
405.384715,995.924147,-148.041188,10732.986159
405.385023,-1149.143247,-962.267725,11843.295072
405.385331,-2221.676944,-2146.597232,13397.727550
405.385639,-2604.724693,-2368.659014,12953.603985
405.385947,-2145.067394,-2072.576638,10807.006753
405.386255,-1225.752797,-2368.659014,9030.512492
405.386563,153.219100,-666.185348,8734.430116
405.386871,919.314598,666.185348,8142.265362
405.387179,766.095498,1702.473667,8216.285956
405.387487,995.924147,1406.391290,9326.594869
405.387795,3064.381992,3108.864956,7772.162391
405.388103,3140.991542,3034.844362,8364.327145
405.388411,2604.724693,1924.535449,8364.327145
405.388719,1532.190996,370.102971,10140.821405
405.389027,-995.924147,-444.123565,12213.398043
405.389335,-1991.848295,-2368.659014,13249.686362
405.389643,-3370.820191,-2812.782580,13841.851115
405.389951,-306.438199,-3552.988522,12879.583391
405.390260,-1072.533697,-1850.514855,7105.977043
405.390568,383.047749,-1850.514855,9252.574275
405.390876,2374.896044,-0.000000,7550.100608
405.391184,1302.362347,3034.844362,5181.441594
405.391492,1991.848295,2516.700203,8734.430116
405.391800,4366.744339,4219.173869,5625.565159
405.392108,3983.696590,3849.070898,7105.977043
405.392416,3064.381992,2664.741391,8290.306550
405.392724,2528.115143,592.164754,10584.944971
405.393032,-306.438199,-962.267725,12583.501014
405.393340,-2604.724693,-2294.638420,13471.748144
405.393648,-2604.724693,-3182.885551,13471.748144
405.393956,-2451.505594,-3404.947333,12509.480420
405.394264,-1762.019645,-2960.823768,10288.862594
405.394572,0.000000,-2072.576638,8364.327145
405.394880,536.266849,-222.061783,8438.347739
405.395188,1072.533697,888.247130,8216.285956
405.395496,1608.800546,1998.556043,6735.874072
405.395805,3677.258390,4071.132681,7328.038826
405.396113,4136.915689,4737.318029,6217.729913
405.396421,3753.867940,3997.112087,7179.997637
405.396729,2451.505594,2146.597232,9326.594869
405.397037,383.047749,222.061783,11547.212695
405.397345,-1915.238745,-1110.308913,13101.645173
405.397653,-2604.724693,-1628.453072,14359.995275
405.397961,-3064.381992,-3849.070898,13841.851115
405.398269,-2834.553343,-3182.885551,11177.109724
405.398577,-766.095498,-2146.597232,9400.615463
405.398885,229.828649,-518.144159,8734.430116
405.399193,995.924147,518.144159,7772.162391
405.399501,1455.581446,1924.535449,7920.203579
405.399809,3447.429741,3108.864956,7402.059420
405.400117,4673.182538,3849.070898,6957.935855
405.400425,3524.039291,3775.050304,7402.059420
405.400733,3217.601092,1924.535449,8290.306550
405.401041,1838.629195,592.164754,9770.718434
405.401349,-1455.581446,-370.102971,11769.274478
405.401656,-1378.971896,-2368.659014,13915.871710
405.401964,-3447.429741,-3627.009116,13471.748144
405.402272,-2834.553343,-3182.885551,12287.418637
405.402580,-919.314598,-3775.050304,10066.800811
405.402888,-1378.971896,-518.144159,9400.615463
405.403196,2757.943793,-2294.638420,11103.089130
405.403504,-919.314598,1924.535449,5181.441594
405.403812,2757.943793,2516.700203,7105.977043
405.404120,4443.353888,3552.988522,7698.141797
405.404428,3600.648841,5181.441594,6217.729913
405.404736,3370.820191,2590.720797,8734.430116
405.405044,2451.505594,1406.391290,7994.224174
405.405352,0.000000,-370.102971,11769.274478
405.405660,-2451.505594,-1406.391290,11695.253884
405.405968,-2298.286494,-2664.741391,13545.768739
405.406276,-3064.381992,-2886.803174,12287.418637
405.406584,-1991.848295,-2960.823768,9474.636058
405.406892,-612.876398,-1110.308913,9622.677246
405.407200,-612.876398,-814.226536,9252.574275
405.407508,2145.067394,1406.391290,8290.306550
405.407816,1225.752797,2590.720797,6883.915261
405.408124,4060.306139,3849.070898,7105.977043
405.408432,4596.572988,4145.153275,7031.956449
405.408739,4749.792088,3997.112087,7179.997637
405.409047,2451.505594,1776.494261,9326.594869
405.409355,1608.800546,222.061783,10362.883188
405.409663,-919.314598,-222.061783,12213.398043
405.409971,-3447.429741,-2516.700203,14434.015869
405.410279,-2604.724693,-4219.173869,13693.809927
405.410587,-2528.115143,-3478.967927,10362.883188
405.410895,-1762.019645,-2220.617826,9474.636058
405.411203,229.828649,-2146.597232,10140.821405
405.411511,919.314598,814.226536,8068.244768
405.411819,1225.752797,1628.453072,8734.430116
405.412127,3447.429741,2072.576638,8068.244768
405.412435,4060.306139,4071.132681,6587.832884
405.412743,4519.963438,3849.070898,7994.224174
405.413051,3370.820191,2368.659014,8586.388927
405.413359,1378.971896,444.123565,10436.903782
405.413667,-689.485948,-592.164754,12139.377449
405.413975,-2451.505594,-2220.617826,12879.583391
405.414283,-2834.553343,-4219.173869,13027.624579
405.414591,-2298.286494,-3627.009116,11473.192101
405.414899,-1608.800546,-2960.823768,9326.594869
405.415207,-229.828649,-2072.576638,9326.594869
405.415515,689.485948,-0.000000,7624.121203
405.415822,1225.752797,1850.514855,6957.935855
405.416130,2911.162892,2812.782580,7105.977043
405.416438,4826.401637,4293.194464,6587.832884
405.416746,5056.230287,4737.318029,6143.709319
405.417054,3677.258390,3404.947333,7254.018232
405.417362,2145.067394,1406.391290,8882.471304
405.417670,995.924147,1036.288319,11399.171507
405.417978,-2298.286494,148.041188,11843.295072
405.418286,-3064.381992,-2738.761985,13101.645173
405.418594,-2298.286494,-3034.844362,12953.603985
405.418902,-2451.505594,-2368.659014,10140.821405
405.419210,-1608.800546,-2220.617826,9696.697840
405.419518,-842.705048,-1702.473667,10584.944971
405.419826,76.609550,592.164754,8660.409521
405.420134,1072.533697,888.247130,9104.533087
405.420442,3140.991542,2590.720797,8512.368333
405.420750,4060.306139,3182.885551,7179.997637
405.421058,3217.601092,3182.885551,7698.141797
405.421366,2681.334243,1850.514855,9252.574275
405.421674,1685.410096,148.041188,10955.047942
405.421982,-459.657299,-222.061783,11695.253884
405.422290,-1225.752797,-1924.535449,12065.356855
405.422598,-995.924147,-2368.659014,11103.089130
405.422905,-1838.629195,-2812.782580,9548.656652
405.423213,-842.705048,-2812.782580,9770.718434
405.423521,-612.876398,-1110.308913,9474.636058
405.423829,0.000000,-370.102971,9030.512492
405.424137,919.314598,148.041188,8142.265362
405.424445,2298.286494,2294.638420,8142.265362
405.424753,4136.915689,2812.782580,8734.430116
405.425061,3753.867940,2368.659014,7550.100608
405.425369,2834.553343,2220.617826,8216.285956
405.425677,1915.238745,814.226536,10288.862594
405.425985,306.438199,444.123565,10732.986159
405.426293,-842.705048,-0.000000,11325.150913
405.426601,-1149.143247,-1628.453072,11177.109724
405.426909,-1225.752797,-1924.535449,9178.553681
405.427217,-612.876398,-2590.720797,9770.718434
405.427525,-689.485948,-740.205942,9104.533087
405.427833,76.609550,-0.000000,8438.347739
405.428141,0.000000,-0.000000,9622.677246
405.428449,919.314598,1554.432478,9548.656652
405.428757,2681.334243,2146.597232,9252.574275
405.429065,3294.210641,2442.679609,7994.224174
405.429373,2451.505594,2146.597232,7772.162391
405.429681,2528.115143,1184.329507,9844.739029
405.429988,1608.800546,814.226536,10510.924376
405.430296,-842.705048,-0.000000,10881.027347
405.430604,-689.485948,-1258.350101,10955.047942
405.430912,-919.314598,-1628.453072,9844.739029
405.431220,-689.485948,-2738.761985,9474.636058
405.431528,-1149.143247,-2220.617826,8364.327145
405.431836,76.609550,-1184.329507,9474.636058
405.432144,459.657299,-518.144159,9696.697840
405.432452,766.095498,888.247130,9770.718434
405.432760,1838.629195,1554.432478,10732.986159
405.433068,3140.991542,2368.659014,9252.574275
405.433376,2681.334243,2294.638420,8882.471304
405.433684,2834.553343,1184.329507,9548.656652
405.433992,995.924147,444.123565,10362.883188
405.434300,0.000000,-296.082377,11621.233289
405.434608,-459.657299,-1702.473667,10955.047942
405.434916,-1072.533697,-1554.432478,10510.924376
405.435224,-1685.410096,-2146.597232,9030.512492
405.435532,-1149.143247,-1628.453072,9548.656652
405.435840,-306.438199,-444.123565,9474.636058
405.436148,0.000000,444.123565,8142.265362
405.436456,0.000000,1110.308913,9178.553681
405.436763,2068.457845,2072.576638,9474.636058
405.437071,2834.553343,2812.782580,9030.512492
405.437379,3830.477490,2664.741391,9178.553681
405.437687,2987.772442,2368.659014,8512.368333
405.437995,1532.190996,962.267725,11029.068536
405.438303,229.828649,518.144159,10881.027347
405.438611,-1225.752797,-592.164754,11769.274478
405.438919,-995.924147,-1332.370696,11251.130318
405.439227,-1225.752797,-1998.556043,9474.636058
405.439535,-919.314598,-1480.411884,9474.636058
405.439843,-229.828649,-1258.350101,8660.409521
405.440151,0.000000,-296.082377,9326.594869
405.440459,306.438199,444.123565,9770.718434
405.440767,1302.362347,1332.370696,9622.677246
405.441075,2374.896044,1554.432478,9400.615463
405.441383,3064.381992,1628.453072,9252.574275
405.441691,1608.800546,1184.329507,9400.615463
405.441999,1532.190996,-0.000000,11029.068536
405.442307,919.314598,-444.123565,10881.027347
405.442615,-536.266849,-1258.350101,11695.253884
405.442923,-689.485948,-1850.514855,11029.068536
405.443231,-995.924147,-1776.494261,9548.656652
405.443539,-383.047749,-1998.556043,9474.636058
405.443846,536.266849,-1332.370696,8512.368333
405.444154,0.000000,666.185348,7994.224174
405.444462,76.609550,592.164754,8734.430116
405.444770,919.314598,1702.473667,8216.285956
405.445078,2528.115143,2368.659014,9918.759623
405.445386,2911.162892,2294.638420,8882.471304
405.445694,2221.676944,1554.432478,9400.615463
405.446002,1455.581446,222.061783,9918.759623
405.446310,76.609550,-0.000000,11399.171507
405.446618,-995.924147,-444.123565,11547.212695
405.446926,-1225.752797,-1258.350101,10955.047942
405.447234,-995.924147,-1110.308913,9844.739029
405.447542,306.438199,-1628.453072,9400.615463
405.447850,766.095498,-0.000000,7402.059420
405.448158,689.485948,1258.350101,7328.038826
405.448466,612.876398,740.205942,8586.388927
405.448774,1072.533697,1628.453072,9030.512492
405.449082,1608.800546,2368.659014,9474.636058
405.449390,2911.162892,1924.535449,9178.553681
405.449698,2145.067394,1850.514855,8512.368333
405.450006,1378.971896,444.123565,10658.965565
405.450314,153.219100,-296.082377,11843.295072
405.450622,-995.924147,-666.185348,11325.150913
405.450929,-1378.971896,-1184.329507,11251.130318
405.451237,-919.314598,-1702.473667,10658.965565
405.451545,-153.219100,-1332.370696,9104.533087
405.451853,766.095498,-1406.391290,8068.244768
405.452161,689.485948,-222.061783,6957.935855
405.452469,0.000000,222.061783,7994.224174
405.452777,612.876398,814.226536,10214.842000
405.453085,1302.362347,1702.473667,10066.800811
405.453393,2451.505594,1850.514855,9622.677246
405.453701,2681.334243,2368.659014,8586.388927
405.454009,1991.848295,296.082377,10362.883188
405.454317,689.485948,-148.041188,11621.233289
405.454625,0.000000,-0.000000,11769.274478
405.454933,-919.314598,-1628.453072,11621.233289
405.455241,-1378.971896,-888.247130,9474.636058
405.455549,229.828649,-1998.556043,9622.677246
405.455857,-229.828649,-962.267725,8586.388927
405.456165,383.047749,-666.185348,7624.121203
405.456473,229.828649,814.226536,7624.121203
405.456781,1378.971896,1332.370696,8142.265362
405.457089,1455.581446,1480.411884,9400.615463
405.457397,2298.286494,2738.761985,8956.491898
405.457705,3447.429741,2442.679609,9252.574275
405.458012,2145.067394,1406.391290,8808.450710
405.458320,1302.362347,296.082377,11177.109724
405.458628,0.000000,222.061783,10955.047942
405.458936,-766.095498,-444.123565,11251.130318
405.459244,-229.828649,-888.247130,10510.924376
405.459552,-689.485948,-666.185348,8956.491898
405.459860,153.219100,-1332.370696,8734.430116
405.460168,612.876398,-962.267725,7772.162391
405.460476,153.219100,370.102971,8216.285956
405.460784,-383.047749,-0.000000,9622.677246
405.461092,536.266849,518.144159,10140.821405
405.461400,2145.067394,1480.411884,10214.842000
405.461708,1915.238745,1628.453072,9548.656652
405.462016,2528.115143,740.205942,10214.842000
405.462324,1685.410096,-0.000000,11103.089130
405.462632,459.657299,222.061783,11103.089130
405.462940,-612.876398,-1036.288319,11843.295072
405.463248,-612.876398,-1258.350101,11251.130318
405.463556,0.000000,-1480.411884,10658.965565
405.463864,-536.266849,-1554.432478,8290.306550
405.464172,1532.190996,-0.000000,7624.121203
405.464480,995.924147,592.164754,7550.100608
405.464788,842.705048,740.205942,8586.388927
405.465095,919.314598,1480.411884,9474.636058
405.465403,1608.800546,1924.535449,9622.677246
405.465711,2681.334243,1184.329507,9474.636058
405.466019,2068.457845,1184.329507,10066.800811
405.466327,1378.971896,-814.226536,11473.192101
405.466635,306.438199,-222.061783,11991.336260
405.466943,-1149.143247,-74.020594,11695.253884
405.467251,-2068.457845,-666.185348,11473.192101
405.467559,153.219100,-962.267725,11251.130318
405.467867,536.266849,-148.041188,8512.368333
405.468175,1532.190996,-0.000000,6365.771101
405.468483,842.705048,888.247130,6661.853478
405.468791,1532.190996,1110.308913,8290.306550
405.469099,919.314598,1776.494261,8438.347739
405.469407,1762.019645,2738.761985,9104.533087
405.469715,2451.505594,2812.782580,8808.450710
405.470023,1915.238745,1702.473667,9178.553681
405.470331,766.095498,-0.000000,11399.171507
405.470639,229.828649,-666.185348,12953.603985
405.470947,-995.924147,-814.226536,12065.356855
405.471255,-2145.067394,-1702.473667,12139.377449
405.471563,0.000000,-1776.494261,10732.986159
405.471870,229.828649,-740.205942,9030.512492
405.472178,1149.143247,-888.247130,7105.977043
405.472486,1455.581446,518.144159,5847.626942
405.472794,459.657299,814.226536,7698.141797
405.473102,536.266849,-0.000000,9400.615463
405.473410,1532.190996,1776.494261,9400.615463
405.473718,2528.115143,2368.659014,8956.491898
405.474026,2145.067394,1258.350101,9326.594869
405.474334,1378.971896,-0.000000,9918.759623
405.474642,-459.657299,-962.267725,11843.295072
405.474950,-1149.143247,-1702.473667,12583.501014
405.475258,-2298.286494,-1998.556043,12657.521608
405.475566,-1762.019645,-2590.720797,12065.356855
405.475874,-1072.533697,-2220.617826,9696.697840
405.476182,1072.533697,-1036.288319,7698.141797
405.476490,1685.410096,518.144159,6143.709319
405.476798,1455.581446,962.267725,6513.812290
405.477106,1378.971896,2072.576638,7402.059420
405.477414,2374.896044,2368.659014,8142.265362
405.477722,2604.724693,3108.864956,7994.224174
405.478030,3140.991542,2368.659014,8512.368333
405.478338,2221.676944,1406.391290,9326.594869
405.478646,842.705048,-740.205942,11251.130318
405.478953,-1378.971896,-666.185348,12361.439231
405.479261,-2451.505594,-1110.308913,12583.501014
405.479569,-1991.848295,-2590.720797,13101.645173
405.479877,-1225.752797,-1776.494261,10510.924376
405.480185,459.657299,-1702.473667,9030.512492
405.480493,1149.143247,-814.226536,6587.832884
405.480801,1225.752797,370.102971,7105.977043
405.481109,1532.190996,444.123565,9326.594869
405.481417,919.314598,2516.700203,8734.430116
405.481725,2604.724693,2960.823768,7772.162391
405.482033,3677.258390,2960.823768,8660.409521
405.482341,2834.553343,2072.576638,8660.409521
405.482649,1991.848295,592.164754,10140.821405
405.482957,0.000000,-0.000000,12287.418637
405.483265,-1915.238745,-1110.308913,12879.583391
405.483573,-2068.457845,-2368.659014,12657.521608
405.483881,-689.485948,-2294.638420,11843.295072
405.484189,0.000000,-2812.782580,9696.697840
405.484497,842.705048,-1036.288319,6883.915261
405.484805,1225.752797,814.226536,7031.956449
405.485113,1532.190996,592.164754,8660.409521
405.485421,1072.533697,1628.453072,9104.533087
405.485729,2221.676944,3182.885551,8142.265362
405.486036,3753.867940,2960.823768,8586.388927
405.486344,2451.505594,1628.453072,8290.306550
405.486652,1072.533697,962.267725,9474.636058
405.486960,995.924147,222.061783,11547.212695
405.487268,-1838.629195,-370.102971,11843.295072
405.487576,-2757.943793,-2146.597232,12731.542202
405.487884,-1991.848295,-1702.473667,11917.315666
405.488192,-842.705048,-2738.761985,10362.883188
405.488500,0.000000,-1332.370696,7328.038826
405.488808,995.924147,296.082377,7402.059420
405.489116,1455.581446,740.205942,9030.512492
405.489424,612.876398,1332.370696,8882.471304
405.489732,1915.238745,2368.659014,8734.430116
405.490040,3294.210641,3701.029710,8438.347739
405.490348,2987.772442,2664.741391,8586.388927
405.490656,2757.943793,1110.308913,10214.842000
405.490964,1378.971896,740.205942,11177.109724
405.491272,-919.314598,370.102971,11473.192101
405.491580,-3217.601092,-2220.617826,13841.851115
405.491888,-1915.238745,-2812.782580,13545.768739
405.492196,-1608.800546,-1702.473667,9918.759623
405.492504,153.219100,-2590.720797,9326.594869
405.492812,459.657299,-592.164754,7105.977043
405.493119,919.314598,666.185348,7698.141797
405.493427,383.047749,1554.432478,9474.636058
405.493735,1838.629195,1702.473667,8142.265362
405.494043,3294.210641,4293.194464,7624.121203
405.494351,3140.991542,3404.947333,8364.327145
405.494659,3217.601092,1924.535449,9474.636058
405.494967,1149.143247,1258.350101,10140.821405
405.495275,-612.876398,222.061783,12287.418637
405.495583,-2145.067394,-1332.370696,12065.356855
405.495891,-2528.115143,-2886.803174,13101.645173
405.496199,-2681.334243,-3330.926739,12065.356855
405.496507,-1532.190996,-2812.782580,8512.368333
405.496815,-459.657299,-1480.411884,8660.409521
405.497123,383.047749,-370.102971,8142.265362
405.497431,1072.533697,370.102971,7920.203579
405.497739,1762.019645,1850.514855,8364.327145
405.498047,3907.087040,2442.679609,7476.080014
405.498355,4290.134789,3775.050304,6735.874072
405.498663,4060.306139,3627.009116,7624.121203
405.498971,2528.115143,1554.432478,9474.636058
405.499279,229.828649,1110.308913,9548.656652
405.499587,-689.485948,-370.102971,12065.356855
405.499895,-1915.238745,-2368.659014,13249.686362
405.500203,-2757.943793,-3182.885551,11621.233289
405.500511,-2068.457845,-3034.844362,9918.759623
405.500819,0.000000,-2812.782580,10140.821405
405.501127,0.000000,-1332.370696,7846.182985
405.501435,153.219100,444.123565,8142.265362
405.501743,1685.410096,1036.288319,8956.491898
405.502051,2911.162892,3256.906145,6735.874072
405.502359,4979.620737,4219.173869,7698.141797
405.502667,4290.134789,3775.050304,7920.203579
405.502975,3370.820191,1998.556043,8142.265362
405.503283,1378.971896,1776.494261,9548.656652
405.503591,-1225.752797,222.061783,11991.336260
405.503899,-2528.115143,-2220.617826,14211.954086
405.504207,-2987.772442,-2812.782580,13841.851115
405.504515,-3064.381992,-2516.700203,10584.944971
405.504823,-995.924147,-2442.679609,9400.615463
405.505131,459.657299,-296.082377,8512.368333
405.505439,229.828649,296.082377,9622.677246
405.505747,459.657299,222.061783,9474.636058
405.506055,1302.362347,1702.473667,9104.533087
405.506363,2834.553343,3923.091493,7846.182985
405.506671,4826.401637,3478.967927,8586.388927
405.506980,3907.087040,2738.761985,8216.285956
405.507288,1608.800546,1628.453072,9474.636058
405.507596,1455.581446,888.247130,11177.109724
405.507904,-612.876398,-1258.350101,11843.295072
405.508212,-2068.457845,-2368.659014,12361.439231
405.508520,-1378.971896,-2738.761985,10362.883188
405.508828,-995.924147,-2960.823768,9252.574275
405.509136,-536.266849,-2072.576638,8216.285956
405.509444,153.219100,-296.082377,8734.430116
405.509752,1838.629195,-74.020594,9030.512492
405.510060,2528.115143,1702.473667,7624.121203
405.510368,4673.182538,3182.885551,7179.997637
405.510676,4673.182538,2886.803174,7920.203579
405.510984,4060.306139,1850.514855,8808.450710
405.511292,2068.457845,1554.432478,9104.533087
405.511600,842.705048,296.082377,9992.780217
405.511908,-1072.533697,-592.164754,12213.398043
405.512216,-2374.896044,-2738.761985,12953.603985
405.512524,-1378.971896,-3108.864956,11103.089130
405.512832,-1915.238745,-2960.823768,9030.512492
405.513140,-766.095498,-3108.864956,9844.739029
405.513448,-536.266849,-1110.308913,8734.430116
405.513757,0.000000,-370.102971,9548.656652
405.514065,1225.752797,962.267725,9918.759623
405.514373,2757.943793,3701.029710,7772.162391
405.514681,4443.353888,3701.029710,8142.265362
405.514989,3370.820191,2886.803174,7179.997637
405.515297,3064.381992,2294.638420,8364.327145
405.515605,919.314598,1332.370696,10288.862594
405.515913,-306.438199,148.041188,11325.150913
405.516221,-2298.286494,-1924.535449,12361.439231
405.516529,-2145.067394,-2516.700203,11399.171507
405.516837,-2757.943793,-2442.679609,10066.800811
405.517145,-1915.238745,-2442.679609,9844.739029
405.517453,0.000000,-148.041188,9548.656652
405.517761,842.705048,740.205942,10362.883188
405.518069,-306.438199,1554.432478,7698.141797
405.518377,2145.067394,2368.659014,8734.430116
405.518685,4673.182538,3108.864956,9400.615463
405.518993,3064.381992,3775.050304,7105.977043
405.519301,2757.943793,1924.535449,9326.594869
405.519609,1915.238745,1480.411884,9844.739029
405.519917,459.657299,740.205942,11103.089130
405.520225,-1378.971896,-518.144159,11621.233289
405.520534,-766.095498,-1776.494261,12139.377449
405.520842,-1455.581446,-2442.679609,9992.780217
405.521150,-1685.410096,-2442.679609,9474.636058
405.521458,-689.485948,-2220.617826,10288.862594
405.521766,-1072.533697,-518.144159,9252.574275
405.522074,0.000000,-148.041188,10584.944971
405.522382,1532.190996,1184.329507,10066.800811
405.522690,3217.601092,2664.741391,8808.450710
405.522998,3830.477490,2072.576638,9104.533087
405.523306,3064.381992,2368.659014,8142.265362
405.523614,2145.067394,1702.473667,9918.759623
405.523922,0.000000,370.102971,10584.944971
405.524230,-306.438199,-444.123565,12509.480420
405.524538,-842.705048,-1850.514855,11769.274478
405.524846,-2451.505594,-2368.659014,10584.944971
405.525154,-1378.971896,-2590.720797,9770.718434
405.525462,-919.314598,-1554.432478,9474.636058
405.525770,-1685.410096,-518.144159,9622.677246
405.526078,0.000000,-444.123565,9548.656652
405.526386,689.485948,1776.494261,8734.430116
405.526694,2068.457845,2072.576638,9326.594869
405.527002,3217.601092,2294.638420,7402.059420
405.527311,3753.867940,2442.679609,8882.471304
405.527619,2298.286494,2294.638420,8660.409521
405.527927,1072.533697,1110.308913,9400.615463
405.528235,919.314598,814.226536,11103.089130
405.528543,-612.876398,-444.123565,10807.006753
405.528851,-689.485948,-1850.514855,9548.656652
405.529159,-995.924147,-2738.761985,9548.656652
405.529467,-1455.581446,-1924.535449,9030.512492
405.529775,-1225.752797,-518.144159,8068.244768
405.530083,229.828649,-222.061783,9474.636058
405.530391,536.266849,222.061783,9252.574275
405.530699,2221.676944,1258.350101,8956.491898
405.531007,3140.991542,2368.659014,8882.471304
405.531315,3370.820191,1702.473667,8808.450710
405.531623,2451.505594,1554.432478,8438.347739
405.531931,1762.019645,1554.432478,10658.965565
405.532239,995.924147,296.082377,11029.068536
405.532547,-153.219100,-222.061783,10436.903782
405.532855,-229.828649,-1628.453072,10955.047942
405.533163,-612.876398,-1924.535449,9474.636058
405.533471,-1225.752797,-1776.494261,9030.512492
405.533779,-842.705048,-962.267725,9918.759623
405.534087,229.828649,-1332.370696,9696.697840
405.534396,612.876398,-0.000000,8956.491898
405.534704,1685.410096,888.247130,9030.512492
405.535012,2681.334243,1480.411884,8956.491898
405.535320,3524.039291,2960.823768,8512.368333
405.535628,3907.087040,1850.514855,8882.471304
405.535936,1302.362347,1998.556043,9326.594869
405.536244,1378.971896,-148.041188,10807.006753
405.536552,76.609550,-592.164754,10658.965565
405.536860,-1302.362347,-2072.576638,10881.027347
405.537168,-1685.410096,-2960.823768,10066.800811
405.537476,-842.705048,-2368.659014,9548.656652
405.537784,-919.314598,-1406.391290,8956.491898
405.538092,-536.266849,-0.000000,8068.244768
405.538400,1302.362347,740.205942,9104.533087
405.538708,1838.629195,2442.679609,8068.244768
405.539016,2451.505594,2590.720797,8216.285956
405.539324,3753.867940,2220.617826,9622.677246
405.539632,2451.505594,2960.823768,8882.471304
405.539940,1532.190996,1406.391290,9696.697840
405.540248,1149.143247,518.144159,11177.109724
405.540556,-459.657299,-0.000000,11399.171507
405.540864,-1302.362347,-1406.391290,11251.130318
405.541173,-1608.800546,-1628.453072,9992.780217
405.541481,-766.095498,-1776.494261,9770.718434
405.541789,-383.047749,-1406.391290,9326.594869
405.542097,-612.876398,-1258.350101,9548.656652
405.542405,0.000000,-444.123565,10362.883188
405.542713,919.314598,592.164754,8512.368333
405.543021,2221.676944,1776.494261,8882.471304
405.543329,3600.648841,2442.679609,8734.430116
405.543637,3217.601092,2368.659014,8586.388927
405.543945,2681.334243,1258.350101,9992.780217
405.544253,1608.800546,370.102971,10658.965565
405.544561,0.000000,-296.082377,10584.944971
405.544869,76.609550,-814.226536,10881.027347
405.545177,-383.047749,-1184.329507,9992.780217
405.545485,-842.705048,-962.267725,9696.697840
405.545793,-459.657299,-666.185348,8956.491898
405.546101,-229.828649,-74.020594,8660.409521
405.546409,0.000000,-148.041188,8882.471304
405.546717,459.657299,962.267725,9104.533087
405.547025,2298.286494,1924.535449,9918.759623
405.547333,2221.676944,2590.720797,9474.636058
405.547641,2528.115143,1924.535449,9474.636058
405.547950,1455.581446,1776.494261,9918.759623
405.548258,1225.752797,-0.000000,10510.924376
405.548566,229.828649,-0.000000,10955.047942
405.548874,-842.705048,-888.247130,10140.821405
405.549182,-306.438199,-1406.391290,10584.944971
405.549490,-383.047749,-1554.432478,8882.471304
405.549798,-306.438199,-1258.350101,8660.409521
405.550106,-689.485948,-296.082377,8216.285956
405.550414,229.828649,-148.041188,9178.553681
405.550722,995.924147,666.185348,8290.306550
405.551030,919.314598,962.267725,8660.409521
405.551338,2911.162892,1776.494261,9548.656652
405.551646,2451.505594,666.185348,9326.594869
405.551954,1608.800546,1036.288319,9770.718434
405.552262,612.876398,-148.041188,10807.006753
405.552570,383.047749,-444.123565,10658.965565
405.552878,-689.485948,-740.205942,11103.089130
405.553186,-153.219100,-592.164754,9474.636058
405.553494,-459.657299,-962.267725,8808.450710
405.553802,-229.828649,-518.144159,8956.491898
405.554110,1608.800546,-666.185348,7550.100608
405.554418,-1838.629195,1110.308913,7254.018232
405.554726,919.314598,-370.102971,10510.924376
405.555035,1455.581446,1110.308913,8734.430116
405.555343,1685.410096,2072.576638,9104.533087
405.555651,2221.676944,1406.391290,9992.780217
405.555959,1762.019645,740.205942,9918.759623
405.556267,536.266849,-370.102971,12287.418637
405.556575,-919.314598,-370.102971,11325.150913
405.556883,76.609550,-1258.350101,12065.356855
405.557191,-153.219100,-1480.411884,10510.924376
405.557499,-1225.752797,-1258.350101,8956.491898
405.557807,76.609550,-1110.308913,8586.388927
405.558115,-306.438199,-592.164754,8364.327145
405.558423,612.876398,1110.308913,8734.430116
405.558731,459.657299,1554.432478,8660.409521
405.559039,2604.724693,2294.638420,8438.347739
405.559347,1991.848295,2146.597232,9252.574275
405.559655,3217.601092,3034.844362,8438.347739
405.559963,2911.162892,1924.535449,9770.718434
405.560271,229.828649,222.061783,10140.821405
405.560579,383.047749,-518.144159,11547.212695
405.560887,-229.828649,-370.102971,10658.965565
405.561195,-766.095498,-1110.308913,10807.006753
405.561503,-536.266849,-1258.350101,9918.759623
405.561812,842.705048,-1406.391290,8882.471304
405.562120,0.000000,-1110.308913,7920.203579
405.562428,0.000000,-74.020594,8216.285956
405.562736,383.047749,666.185348,8882.471304
405.563044,536.266849,370.102971,9622.677246
405.563352,1455.581446,1184.329507,9622.677246
405.563660,3447.429741,1628.453072,10066.800811
405.563968,2221.676944,1184.329507,9474.636058
405.564276,1455.581446,-74.020594,10881.027347
405.564584,919.314598,-814.226536,11547.212695
405.564892,-306.438199,-666.185348,11769.274478
405.565200,-995.924147,-2146.597232,12139.377449
405.565508,-612.876398,-1184.329507,10436.903782
405.565816,536.266849,-1258.350101,9844.739029
405.566124,766.095498,-444.123565,7402.059420
405.566432,1378.971896,592.164754,7476.080014
405.566740,1455.581446,1628.453072,8216.285956
405.567048,1532.190996,1480.411884,8512.368333
405.567356,1455.581446,2368.659014,8142.265362
405.567664,2911.162892,2220.617826,9474.636058
405.567972,2757.943793,1554.432478,9696.697840
405.568280,919.314598,370.102971,10214.842000
405.568589,76.609550,-740.205942,11917.315666
405.568897,-459.657299,-888.247130,11843.295072
405.569205,-1608.800546,-0.000000,10732.986159
405.569513,-306.438199,-1554.432478,10881.027347
405.569821,306.438199,-962.267725,9400.615463
405.570129,536.266849,-222.061783,7920.203579
405.570437,612.876398,296.082377,7254.018232
405.570745,1302.362347,1776.494261,8290.306550
405.571053,1915.238745,1702.473667,8142.265362
405.571361,842.705048,1776.494261,8734.430116
405.571669,2604.724693,1554.432478,9326.594869
405.571977,3064.381992,1480.411884,9178.553681
405.572285,1302.362347,296.082377,10510.924376
405.572593,-153.219100,-1332.370696,11769.274478
405.572901,-766.095498,-1554.432478,13323.706956
405.573209,-1608.800546,-1850.514855,13249.686362
405.573517,-995.924147,-2146.597232,11399.171507
405.573825,536.266849,-1406.391290,9326.594869
405.574133,1378.971896,-962.267725,8290.306550
405.574441,1149.143247,814.226536,6291.750507
405.574749,1915.238745,1850.514855,7105.977043
405.575057,1378.971896,2072.576638,8290.306550
405.575366,1225.752797,2368.659014,8068.244768
405.575674,2911.162892,2072.576638,8438.347739
405.575982,2911.162892,1924.535449,9400.615463
405.576290,1302.362347,296.082377,10436.903782
405.576598,459.657299,-1258.350101,11695.253884
405.576906,-919.314598,-1776.494261,12953.603985
405.577214,-2757.943793,-2368.659014,12509.480420
405.577522,-1991.848295,-2886.803174,12287.418637
405.577830,-689.485948,-1776.494261,10214.842000
405.578138,383.047749,-1184.329507,8512.368333
405.578446,1378.971896,222.061783,6883.915261
405.578754,1685.410096,2220.617826,6513.812290
405.579062,1838.629195,2146.597232,7624.121203
405.579370,1532.190996,3182.885551,7624.121203
405.579678,2987.772442,4071.132681,8142.265362
405.579986,2451.505594,3108.864956,8586.388927
405.580294,1378.971896,2072.576638,9400.615463
405.580602,1072.533697,-0.000000,11843.295072
405.580910,-1685.410096,-1184.329507,12361.439231
405.581218,-2221.676944,-2072.576638,13397.727550
405.581526,-2221.676944,-2886.803174,12583.501014
405.581834,-1991.848295,-1850.514855,10881.027347
405.582142,-459.657299,-1850.514855,9770.718434
405.582451,1225.752797,-222.061783,6735.874072
405.582759,1532.190996,1850.514855,6587.832884
405.583067,1149.143247,1332.370696,7105.977043
405.583375,1685.410096,2294.638420,8882.471304
405.583683,2911.162892,2960.823768,8438.347739
405.583991,2681.334243,2664.741391,7698.141797
405.584299,2451.505594,1776.494261,9104.533087
405.584607,689.485948,-888.247130,11473.192101
405.584915,-1302.362347,-1332.370696,13027.624579
405.585223,-2604.724693,-2960.823768,13545.768739
405.585531,-2681.334243,-2960.823768,12583.501014
405.585839,-1608.800546,-3330.926739,11769.274478
405.586147,-919.314598,-2368.659014,8512.368333
405.586455,1378.971896,-740.205942,8438.347739
405.586763,1302.362347,1036.288319,6069.688724
405.587071,1685.410096,2220.617826,6809.894666
405.587379,2451.505594,2516.700203,7772.162391
405.587687,2911.162892,3404.947333,7772.162391
405.587995,3294.210641,3478.967927,8142.265362
405.588303,2221.676944,2294.638420,9030.512492
405.588611,1149.143247,-222.061783,11103.089130
405.588919,-766.095498,-1702.473667,12879.583391
405.589228,-3064.381992,-1332.370696,11991.336260
405.589536,-2604.724693,-3182.885551,14211.954086
405.589844,-1455.581446,-3108.864956,12509.480420
405.590152,-2451.505594,-1332.370696,8216.285956
405.590460,536.266849,-2220.617826,9252.574275
405.590768,766.095498,740.205942,6365.771101
405.591076,1915.238745,1776.494261,6809.894666
405.591384,2068.457845,2516.700203,6957.935855
405.591692,3447.429741,3182.885551,7920.203579
405.592000,3524.039291,3923.091493,7179.997637
405.592308,2451.505594,2590.720797,9178.553681
405.592616,2911.162892,666.185348,10436.903782
405.592924,0.000000,-1036.288319,10955.047942
405.593232,-1685.410096,-1776.494261,13101.645173
405.593540,-2834.553343,-3849.070898,13545.768739
405.593848,-2834.553343,-4515.256246,13397.727550
405.594156,-2374.896044,-3182.885551,11843.295072
405.594464,-612.876398,-2220.617826,8290.306550
405.594772,2604.724693,-0.000000,8068.244768
405.595080,2221.676944,2220.617826,6587.832884
405.595388,3753.867940,2590.720797,6883.915261
405.595696,3753.867940,4145.153275,6143.709319
405.596005,4596.572988,5255.462188,6661.853478
405.596313,4979.620737,3923.091493,8512.368333
405.596621,3447.429741,3182.885551,8882.471304
405.596929,1149.143247,-666.185348,12065.356855
405.597237,-1225.752797,-1184.329507,12805.562797
405.597545,-2145.067394,-2442.679609,13619.789333
405.597853,-3830.477490,-3627.009116,14285.974681
405.598161,-2221.676944,-2738.761985,12509.480420
405.598469,-536.266849,-2368.659014,10436.903782
405.598777,306.438199,-666.185348,8512.368333
405.599085,1608.800546,962.267725,7550.100608
405.599393,2374.896044,2368.659014,7476.080014
405.599701,2451.505594,2812.782580,7846.182985
405.600009,3600.648841,4293.194464,6513.812290
405.600316,5056.230287,4145.153275,7550.100608
405.600624,4060.306139,3182.885551,8364.327145
405.600932,1532.190996,1036.288319,9474.636058
405.601240,153.219100,-444.123565,12879.583391
405.601548,-1991.848295,-1110.308913,13249.686362
405.601856,-3524.039291,-2442.679609,13619.789333
405.602164,-2451.505594,-2590.720797,12805.562797
405.602472,-1225.752797,-1998.556043,9992.780217
405.602780,-536.266849,-1628.453072,8364.327145
405.603088,306.438199,74.020594,7624.121203
405.603396,536.266849,1480.411884,8216.285956
405.603704,1378.971896,1924.535449,7402.059420
405.604012,2604.724693,3478.967927,7624.121203
405.604320,4826.401637,3849.070898,7624.121203
405.604628,3677.258390,3256.906145,7328.038826
405.604935,2528.115143,962.267725,9474.636058
405.605243,383.047749,-666.185348,11399.171507
405.605551,-689.485948,-1184.329507,12139.377449
405.605859,-2374.896044,-3478.967927,12805.562797
405.606167,-2298.286494,-3256.906145,13101.645173
405.606475,-1838.629195,-3330.926739,10658.965565
405.606783,-995.924147,-1998.556043,9104.533087
405.607091,229.828649,-592.164754,7994.224174
405.607399,1685.410096,814.226536,7772.162391
405.607707,1991.848295,2220.617826,7179.997637
405.608015,2757.943793,2738.761985,7328.038826
405.608323,4290.134789,3404.947333,7328.038826
405.608631,3294.210641,3034.844362,8216.285956
405.608939,2221.676944,1480.411884,8956.491898
405.609247,995.924147,-370.102971,10955.047942
405.609555,-1455.581446,-814.226536,11547.212695
405.609862,-2604.724693,-2738.761985,12805.562797
405.610170,-2911.162892,-3034.844362,12805.562797
405.610478,-2911.162892,-2664.741391,10288.862594
405.610786,-1378.971896,-2368.659014,10214.842000
405.611094,-306.438199,-370.102971,7846.182985
405.611402,842.705048,1036.288319,7476.080014
405.611710,842.705048,1332.370696,7920.203579
405.612018,2681.334243,3330.926739,7402.059420
405.612326,3294.210641,3701.029710,7846.182985
405.612634,3600.648841,4219.173869,7846.182985
405.612942,2987.772442,2516.700203,9474.636058
405.613250,1378.971896,444.123565,9696.697840
405.613558,383.047749,-518.144159,11769.274478
405.613866,-1455.581446,-1480.411884,12213.398043
405.614174,-2987.772442,-2664.741391,12731.542202
405.614481,-2834.553343,-3404.947333,12435.459826
405.614789,-2451.505594,-2812.782580,9474.636058
405.615097,-689.485948,-2146.597232,9918.759623
405.615405,459.657299,-0.000000,8364.327145
405.615713,1225.752797,666.185348,7624.121203
405.616021,2145.067394,1554.432478,8142.265362
405.616329,3677.258390,3997.112087,7994.224174
405.616637,4519.963438,4589.276840,7698.141797
405.616945,3677.258390,2886.803174,9326.594869
405.617253,2298.286494,666.185348,9696.697840
405.617561,383.047749,-0.000000,10807.006753
405.617869,-1149.143247,-1850.514855,13101.645173
405.618177,-2528.115143,-2738.761985,12657.521608
405.618485,-2834.553343,-2886.803174,11843.295072
405.618793,-1991.848295,-3330.926739,10288.862594
405.619101,0.000000,-2294.638420,9696.697840
405.619408,0.000000,-148.041188,7698.141797
405.619716,1685.410096,1036.288319,8586.388927
405.620024,1991.848295,2146.597232,8438.347739
405.620332,3140.991542,4071.132681,7698.141797
405.620640,4060.306139,4219.173869,8290.306550
405.620948,4213.525239,4293.194464,8882.471304
405.621256,2451.505594,2072.576638,9548.656652
405.621564,536.266849,1258.350101,10584.944971
405.621872,0.000000,-370.102971,11769.274478
405.622180,-1915.238745,-962.267725,12583.501014
405.622488,-2834.553343,-2368.659014,12657.521608
405.622796,-2604.724693,-2368.659014,10807.006753
405.623104,-689.485948,-2220.617826,11029.068536
405.623412,-536.266849,-592.164754,8734.430116
405.623720,153.219100,-0.000000,8734.430116
405.624027,842.705048,370.102971,9474.636058
405.624335,1915.238745,1702.473667,8808.450710
405.624643,4136.915689,3256.906145,8142.265362
405.624951,4060.306139,2368.659014,8808.450710
405.625259,3140.991542,1554.432478,8512.368333
405.625567,2757.943793,740.205942,9918.759623
405.625875,919.314598,518.144159,10807.006753
405.626183,-1532.190996,-1184.329507,11991.336260
405.626491,-1149.143247,-2738.761985,11917.315666
405.626799,-1762.019645,-1924.535449,10066.800811
405.627107,-995.924147,-2960.823768,10362.883188
405.627415,-383.047749,-1776.494261,8882.471304
405.627723,-153.219100,-0.000000,8734.430116
405.628031,766.095498,-74.020594,9030.512492
405.628339,2298.286494,1776.494261,7550.100608
405.628646,3294.210641,2812.782580,7328.038826
405.628954,3600.648841,2294.638420,7550.100608
405.629262,4060.306139,1406.391290,8956.491898
405.629570,2145.067394,666.185348,8660.409521
405.629878,383.047749,-962.267725,10214.842000
405.630186,-459.657299,-1406.391290,11251.130318
405.630494,-995.924147,-2516.700203,11621.233289
405.630802,-1608.800546,-2442.679609,10584.944971
405.631110,-1608.800546,-2368.659014,8512.368333
405.631418,76.609550,-2072.576638,9178.553681
405.631726,0.000000,-0.000000,8364.327145
405.632034,383.047749,370.102971,8438.347739
405.632342,1915.238745,1332.370696,8438.347739
405.632650,2834.553343,2664.741391,7994.224174
405.632958,3140.991542,2960.823768,7772.162391
405.633266,3600.648841,2590.720797,8882.471304
405.633573,2145.067394,1776.494261,9178.553681
405.633881,229.828649,296.082377,9992.780217
405.634189,-612.876398,-0.000000,11251.130318
405.634497,-995.924147,-2146.597232,11991.336260
405.634805,-2145.067394,-1406.391290,11547.212695
405.635113,-1685.410096,-2960.823768,9992.780217
405.635421,-766.095498,-1998.556043,9400.615463
405.635729,-1378.971896,-814.226536,8512.368333
405.636037,0.000000,222.061783,9326.594869
405.636345,0.000000,296.082377,9770.718434
405.636653,1991.848295,2738.761985,8808.450710
405.636961,2911.162892,3478.967927,8364.327145
405.637269,3217.601092,3552.988522,9252.574275
405.637577,3524.039291,2072.576638,9400.615463
405.637885,1608.800546,1702.473667,9030.512492
405.638192,306.438199,222.061783,10807.006753
405.638500,-612.876398,-1998.556043,11621.233289
405.638808,-1532.190996,-1998.556043,10584.944971
405.639116,-1915.238745,-2664.741391,10658.965565
405.639424,-842.705048,-2812.782580,10807.006753
405.639732,-995.924147,-1628.453072,9548.656652
405.640040,-689.485948,740.205942,9400.615463
405.640348,306.438199,-148.041188,8882.471304
405.640656,1149.143247,2516.700203,9178.553681
405.640964,3217.601092,2738.761985,8808.450710
405.641272,3753.867940,3256.906145,7846.182985
405.641580,2834.553343,2146.597232,8734.430116
405.641888,2068.457845,1480.411884,9474.636058
405.642196,459.657299,296.082377,11103.089130
405.642504,-842.705048,-814.226536,11991.336260
405.642811,-919.314598,-1184.329507,11547.212695
405.643119,-1685.410096,-1332.370696,9992.780217
405.643427,-1532.190996,-1776.494261,9696.697840
405.643735,153.219100,-1480.411884,8882.471304
405.644043,306.438199,666.185348,8068.244768
405.644351,-229.828649,222.061783,8660.409521
405.644659,2221.676944,1110.308913,9326.594869
405.644967,3140.991542,2294.638420,8364.327145
405.645275,2604.724693,2590.720797,8216.285956
405.645583,2911.162892,1480.411884,9326.594869
405.645891,2681.334243,1258.350101,9474.636058
405.646199,153.219100,444.123565,10288.862594
405.646507,-536.266849,-1480.411884,12361.439231
405.646815,-1302.362347,-1924.535449,11991.336260
405.647123,-1762.019645,-2220.617826,11177.109724
405.647431,-383.047749,-2146.597232,9770.718434
405.647738,-383.047749,-1480.411884,8290.306550
405.648046,-306.438199,-74.020594,8660.409521
405.648354,153.219100,666.185348,8068.244768
405.648662,1532.190996,1184.329507,8734.430116
405.648970,2298.286494,2146.597232,7476.080014
405.649278,3140.991542,2294.638420,8586.388927
405.649586,2834.553343,1332.370696,9252.574275
405.649894,2068.457845,666.185348,9992.780217
405.650202,536.266849,-0.000000,10658.965565
405.650510,-689.485948,-1406.391290,11769.274478
405.650818,-1455.581446,-1628.453072,11399.171507
405.651126,-689.485948,-1184.329507,10288.862594
405.651434,76.609550,-888.247130,8586.388927
405.651742,229.828649,-888.247130,7994.224174
405.652050,536.266849,222.061783,7846.182985
405.652357,766.095498,814.226536,7402.059420
405.652665,842.705048,1036.288319,8882.471304
405.652973,1532.190996,2368.659014,8956.491898
405.653281,2528.115143,2812.782580,8586.388927
405.653589,2374.896044,1776.494261,9622.677246
405.653897,1608.800546,-0.000000,10140.821405
405.654205,459.657299,-222.061783,11251.130318
405.654513,-995.924147,-1628.453072,11695.253884
405.654821,-1072.533697,-1776.494261,11621.233289
405.655129,-1072.533697,-2220.617826,10881.027347
405.655437,-766.095498,-1258.350101,9548.656652
405.655745,383.047749,-1110.308913,8956.491898
405.656053,1915.238745,-444.123565,7920.203579
405.656361,-842.705048,1850.514855,5773.606348
405.656669,1455.581446,148.041188,10288.862594
405.656977,1991.848295,1998.556043,9474.636058
405.657284,2068.457845,2886.803174,8290.306550
405.657592,2604.724693,1850.514855,9252.574275
405.657900,2221.676944,814.226536,9844.739029
405.658208,612.876398,-370.102971,11843.295072
405.658516,-766.095498,-962.267725,11769.274478
405.658824,0.000000,-1850.514855,12139.377449
405.659132,-1455.581446,-2146.597232,10807.006753
405.659440,-153.219100,-1850.514855,10288.862594
405.659748,229.828649,-370.102971,9178.553681
405.660056,1532.190996,-148.041188,7179.997637
405.660364,1225.752797,1702.473667,7105.977043
405.660672,1608.800546,2072.576638,7105.977043
405.660980,1915.238745,2516.700203,8438.347739
405.661288,2451.505594,2368.659014,8956.491898
405.661596,3140.991542,1776.494261,9178.553681
405.661903,1225.752797,1406.391290,9474.636058
405.662211,1378.971896,-962.267725,11473.192101
405.662519,-919.314598,-370.102971,12065.356855
405.662827,-1608.800546,-1406.391290,11843.295072
405.663135,-1149.143247,-1110.308913,11473.192101
405.663443,0.000000,-962.267725,9474.636058
405.663751,995.924147,-518.144159,9548.656652
405.664059,919.314598,-518.144159,7105.977043
405.664367,1838.629195,1480.411884,6957.935855
405.664675,2145.067394,962.267725,7698.141797
405.664983,1455.581446,1480.411884,7476.080014
405.665291,1915.238745,2220.617826,8512.368333
405.665599,2987.772442,2220.617826,9326.594869
405.665907,2451.505594,1480.411884,9474.636058
405.666215,1608.800546,-296.082377,9992.780217
405.666522,0.000000,-888.247130,12287.418637
405.666830,-1455.581446,-2368.659014,13471.748144
405.667138,-1762.019645,-2886.803174,12657.521608
405.667446,-1915.238745,-1776.494261,10510.924376
405.667754,689.485948,-2146.597232,11029.068536
405.668062,306.438199,-0.000000,7031.956449
405.668370,995.924147,1776.494261,7328.038826
405.668678,842.705048,1110.308913,9178.553681
405.668986,536.266849,2368.659014,7994.224174
405.669294,1991.848295,2664.741391,8808.450710
405.669602,2451.505594,3034.844362,8438.347739
405.669910,1915.238745,1110.308913,9400.615463
405.670218,766.095498,-592.164754,10807.006753
405.670526,-919.314598,-1110.308913,12435.459826
405.670834,-1378.971896,-2960.823768,13249.686362
405.671142,-2298.286494,-2368.659014,11399.171507
405.671449,-1685.410096,-1554.432478,11251.130318
405.671757,153.219100,-1628.453072,9918.759623
405.672065,1455.581446,370.102971,7254.018232
405.672373,1915.238745,2072.576638,6439.791695
405.672681,2451.505594,2812.782580,6143.709319
405.672989,1685.410096,2590.720797,7550.100608
405.673297,1991.848295,3330.926739,8882.471304
405.673605,2451.505594,3182.885551,8956.491898
405.673913,1455.581446,2294.638420,9252.574275
405.674221,766.095498,-0.000000,11177.109724
405.674529,-306.438199,-1184.329507,12657.521608
405.674837,-2451.505594,-1924.535449,12657.521608
405.675145,-2145.067394,-3034.844362,13249.686362
405.675453,-1915.238745,-1924.535449,11695.253884
405.675761,-1072.533697,-1480.411884,10214.842000
405.676068,76.609550,-1332.370696,8882.471304
405.676376,1532.190996,-0.000000,6513.812290
405.676684,1762.019645,1628.453072,6217.729913
405.676992,1302.362347,1776.494261,7476.080014
405.677300,2451.505594,2590.720797,7920.203579
405.677608,2451.505594,2738.761985,8512.368333
405.677916,1608.800546,3034.844362,8068.244768
405.678224,1225.752797,444.123565,10732.986159
405.678532,-306.438199,-1480.411884,12805.562797
405.678840,-1915.238745,-2072.576638,12509.480420
405.679148,-1991.848295,-3330.926739,13249.686362
405.679456,-1762.019645,-2812.782580,12361.439231
405.679764,-995.924147,-2072.576638,10288.862594
405.680072,383.047749,-1554.432478,9178.553681
405.680380,1915.238745,-148.041188,6957.935855
405.680687,1991.848295,2146.597232,5329.482782
405.680995,1915.238745,2516.700203,6809.894666
405.681303,3064.381992,2294.638420,7254.018232
405.681611,2911.162892,3701.029710,6217.729913
405.681919,3524.039291,2664.741391,7994.224174
405.682227,1608.800546,1332.370696,9030.512492
405.682535,459.657299,-1110.308913,11917.315666
405.682843,-612.876398,-1776.494261,12953.603985
405.683151,-1685.410096,-1998.556043,12287.418637
405.683459,-2068.457845,-3256.906145,13693.809927
405.683767,-1532.190996,-1998.556043,10807.006753
405.684075,0.000000,-1110.308913,9474.636058
405.684383,1838.629195,-0.000000,7846.182985
405.684691,2451.505594,1628.453072,5921.647536
405.684999,2757.943793,2516.700203,6217.729913
405.685307,3370.820191,2146.597232,6957.935855
405.685614,2987.772442,3552.988522,7846.182985
405.685922,3140.991542,2442.679609,7994.224174
405.686230,2451.505594,2368.659014,9178.553681
405.686538,766.095498,-962.267725,12213.398043
405.686846,-689.485948,-1332.370696,12879.583391
405.687154,-1685.410096,-1628.453072,13101.645173
405.687462,-2757.943793,-2664.741391,12879.583391
405.687770,-1225.752797,-2368.659014,12361.439231
405.688078,459.657299,-1554.432478,10584.944971
405.688386,919.314598,-592.164754,8512.368333
405.688694,919.314598,518.144159,6883.915261
405.689002,1762.019645,2368.659014,7550.100608
405.689310,612.876398,2812.782580,8882.471304
405.689618,1991.848295,2738.761985,8808.450710
405.689926,2145.067394,3552.988522,8586.388927
405.690233,2298.286494,2146.597232,9992.780217
405.690541,842.705048,-444.123565,10436.903782
405.690849,-612.876398,-962.267725,12435.459826
405.691157,-1608.800546,-2368.659014,14063.912898
405.691465,-2145.067394,-2812.782580,12509.480420
405.691773,-1685.410096,-2368.659014,11917.315666
405.692081,153.219100,-1702.473667,10510.924376
405.692389,1455.581446,-666.185348,7476.080014
405.692697,2068.457845,1110.308913,6587.832884
405.693005,2681.334243,2368.659014,5625.565159
405.693313,2298.286494,2368.659014,6883.915261
405.693621,2451.505594,2960.823768,7179.997637
405.693929,2528.115143,2960.823768,7550.100608
405.694237,2145.067394,1924.535449,9474.636058
405.694545,612.876398,518.144159,9918.759623
405.694852,-612.876398,-1628.453072,12139.377449
405.695160,-2221.676944,-2664.741391,13027.624579
405.695468,-3140.991542,-2738.761985,12657.521608
405.695776,-1991.848295,-3182.885551,12879.583391
405.696084,-689.485948,-2368.659014,11177.109724
405.696392,919.314598,-1110.308913,8586.388927
405.696700,1225.752797,-0.000000,7105.977043
405.697008,2145.067394,1702.473667,5995.668130
405.697316,2068.457845,2590.720797,7105.977043
405.697624,1915.238745,3775.050304,7698.141797
405.697932,3294.210641,3923.091493,7698.141797
405.698240,3370.820191,3182.885551,8068.244768
405.698548,1915.238745,1036.288319,9622.677246
405.698856,0.000000,-1036.288319,11473.192101
405.699164,-1608.800546,-2220.617826,12657.521608
405.699472,-3370.820191,-2886.803174,13693.809927
405.699779,-2298.286494,-3849.070898,13619.789333
405.700087,-1302.362347,-2812.782580,11029.068536
405.700395,153.219100,-2516.700203,10214.842000
405.700703,1378.971896,-962.267725,7402.059420
405.701011,1762.019645,1332.370696,5477.523971
405.701319,1685.410096,2146.597232,6883.915261
405.701627,2451.505594,3182.885551,7105.977043
405.701935,3294.210641,4663.297435,6957.935855
405.702243,3524.039291,4145.153275,7920.203579
405.702551,3140.991542,2590.720797,9104.533087
405.702859,1225.752797,-0.000000,10140.821405
405.703167,153.219100,-1480.411884,11695.253884
405.703475,-1991.848295,-2368.659014,12435.459826
405.703783,-2451.505594,-2886.803174,13693.809927
405.704091,-2221.676944,-4219.173869,13619.789333
405.704399,-1225.752797,-2072.576638,9992.780217
405.704707,1072.533697,-1998.556043,8808.450710
405.705014,1302.362347,296.082377,6735.874072
405.705322,1225.752797,1776.494261,6069.688724
405.705630,2221.676944,2368.659014,8068.244768
405.705938,2911.162892,3627.009116,7550.100608
405.706246,3447.429741,4737.318029,8216.285956
405.706554,3907.087040,3182.885551,8512.368333
405.706862,2298.286494,1850.514855,9400.615463
405.707170,229.828649,-888.247130,11695.253884
405.707478,-1455.581446,-592.164754,11621.233289
405.707786,-1225.752797,-2294.638420,14137.933492
405.708094,-2604.724693,-3256.906145,13767.830521
405.708402,-1685.410096,-2664.741391,11251.130318
405.708710,459.657299,-2146.597232,9696.697840
405.709018,536.266849,-518.144159,7179.997637
405.709326,1149.143247,1480.411884,7105.977043
405.709634,536.266849,1850.514855,7920.203579
405.709942,1608.800546,3256.906145,8882.471304
405.710250,2757.943793,3849.070898,8142.265362
405.710558,2834.553343,3997.112087,9030.512492
405.710866,2298.286494,1554.432478,10066.800811
405.711174,229.828649,-518.144159,10362.883188
405.711482,-1302.362347,-740.205942,11177.109724
405.711790,-2068.457845,-2146.597232,12731.542202
405.712097,-2451.505594,-3182.885551,13397.727550
405.712405,-1532.190996,-2960.823768,11547.212695
405.712713,-842.705048,-2220.617826,9474.636058
405.713021,459.657299,-1702.473667,7772.162391
405.713329,919.314598,296.082377,7105.977043
405.713637,842.705048,1332.370696,7920.203579
405.713945,1991.848295,2368.659014,7624.121203
405.714253,2911.162892,4219.173869,7772.162391
405.714561,3830.477490,3404.947333,8290.306550
405.714869,2911.162892,1924.535449,8956.491898
405.715177,2298.286494,370.102971,10140.821405
405.715485,-842.705048,-888.247130,10881.027347
405.715793,-842.705048,-1850.514855,12657.521608
405.716101,-2681.334243,-3034.844362,12879.583391
405.716409,-2145.067394,-2812.782580,12139.377449
405.716717,-306.438199,-2664.741391,10288.862594
405.717025,306.438199,-1110.308913,7846.182985
405.717333,0.000000,-0.000000,6957.935855
405.717641,1149.143247,1480.411884,6957.935855
405.717949,1302.362347,2516.700203,8290.306550
405.718257,2528.115143,3552.988522,8290.306550
405.718565,3140.991542,3627.009116,8882.471304
405.718873,3294.210641,2812.782580,9474.636058
405.719180,1149.143247,962.267725,9326.594869
405.719488,459.657299,-592.164754,10436.903782
405.719796,-1455.581446,-1332.370696,11843.295072
405.720104,-1532.190996,-3182.885551,13545.768739
405.720412,-1608.800546,-2886.803174,11991.336260
405.720720,-919.314598,-2368.659014,10807.006753
405.721028,612.876398,-2442.679609,9252.574275
405.721336,459.657299,-0.000000,7402.059420
405.721644,1378.971896,1406.391290,7698.141797
405.721952,1455.581446,1998.556043,7179.997637
405.722260,2221.676944,3108.864956,7846.182985
405.722568,3370.820191,4145.153275,8438.347739
405.722876,3294.210641,2516.700203,9178.553681
405.723184,2298.286494,1258.350101,10066.800811
405.723492,536.266849,-0.000000,9844.739029
405.723800,-383.047749,-148.041188,10510.924376
405.724108,-1225.752797,-1924.535449,12509.480420
405.724416,-919.314598,-2590.720797,12657.521608
405.724724,-995.924147,-1998.556043,10436.903782
405.725032,-229.828649,-2664.741391,9400.615463
405.725340,153.219100,-1184.329507,8512.368333
405.725648,153.219100,-0.000000,8216.285956
405.725955,-919.314598,666.185348,8956.491898
405.726263,1072.533697,1850.514855,9696.697840
405.726571,2681.334243,3775.050304,9178.553681
405.726879,2987.772442,3034.844362,9252.574275
405.727187,2911.162892,2516.700203,9178.553681
405.727495,2145.067394,740.205942,9474.636058
405.727803,919.314598,370.102971,10214.842000
405.728111,0.000000,-592.164754,11325.150913
405.728419,0.000000,-2664.741391,12953.603985
405.728727,-612.876398,-1850.514855,9992.780217
405.729035,-229.828649,-1924.535449,9474.636058
405.729343,153.219100,-1702.473667,8882.471304
405.729651,-689.485948,74.020594,7846.182985
405.729959,-612.876398,1184.329507,8586.388927
405.730267,383.047749,592.164754,9696.697840
405.730575,1685.410096,2516.700203,9252.574275
405.730883,2145.067394,2368.659014,9474.636058
405.731191,2681.334243,2146.597232,9696.697840
405.731499,1149.143247,1258.350101,9696.697840
405.731807,766.095498,-148.041188,10288.862594
405.732115,306.438199,-370.102971,10214.842000
405.732423,-306.438199,-1480.411884,10658.965565
405.732731,306.438199,-2072.576638,10881.027347
405.733038,-229.828649,-814.226536,8956.491898
405.733346,1378.971896,-1850.514855,9178.553681
405.733654,-842.705048,-888.247130,6883.915261
405.733962,0.000000,814.226536,9030.512492
405.734270,153.219100,370.102971,9770.718434
405.734578,1072.533697,2812.782580,8660.409521
405.734886,2834.553343,2368.659014,10510.924376
405.735194,2681.334243,2516.700203,8734.430116
405.735502,1838.629195,888.247130,9918.759623
405.735810,995.924147,666.185348,9844.739029
405.736118,306.438199,370.102971,10288.862594
405.736426,-766.095498,-1554.432478,11917.315666
405.736734,-536.266849,-1998.556043,11029.068536
405.737042,0.000000,-1702.473667,9918.759623
405.737350,153.219100,-1998.556043,8142.265362
405.737658,-153.219100,-1332.370696,7624.121203
405.737966,76.609550,666.185348,8586.388927
405.738274,153.219100,370.102971,8882.471304
405.738582,612.876398,2516.700203,8808.450710
405.738890,2681.334243,2664.741391,9400.615463
405.739198,2757.943793,3256.906145,8808.450710
405.739506,2068.457845,1998.556043,9474.636058
405.739814,1838.629195,370.102971,9622.677246
405.740121,0.000000,-0.000000,10066.800811
405.740429,-612.876398,-1702.473667,11547.212695
405.740737,-842.705048,-2368.659014,11399.171507
405.741045,-383.047749,-2368.659014,10658.965565
405.741353,-306.438199,-1776.494261,9474.636058
405.741661,0.000000,-1850.514855,8364.327145
405.741969,-1072.533697,-148.041188,8216.285956
405.742277,306.438199,-296.082377,9696.697840
405.742585,1072.533697,2368.659014,8290.306550
405.742893,2298.286494,2664.741391,9104.533087
405.743201,3600.648841,2220.617826,8882.471304
405.743509,2681.334243,2516.700203,8438.347739
405.743817,2374.896044,1406.391290,9326.594869
405.744125,1302.362347,740.205942,9918.759623
405.744433,612.876398,-814.226536,10732.986159
405.744741,-229.828649,-1480.411884,11029.068536
405.745049,-995.924147,-1406.391290,10510.924376
405.745357,153.219100,-2368.659014,9400.615463
405.745665,0.000000,-1184.329507,8438.347739
405.745973,383.047749,-0.000000,7994.224174
405.746281,-612.876398,370.102971,7920.203579
405.746589,229.828649,1480.411884,9548.656652
405.746897,1608.800546,2516.700203,9770.718434
405.747204,2145.067394,2738.761985,9326.594869
405.747512,2298.286494,2368.659014,9992.780217
405.747820,2451.505594,1110.308913,10955.047942
405.748128,153.219100,1036.288319,10362.883188
405.748436,-153.219100,-148.041188,10955.047942
405.748744,-153.219100,-1480.411884,12139.377449
405.749052,-536.266849,-1628.453072,10140.821405
405.749360,-612.876398,-1258.350101,9696.697840
405.749668,842.705048,-1184.329507,9252.574275
405.749976,-536.266849,444.123565,7698.141797
405.750284,-306.438199,740.205942,8068.244768
405.750592,383.047749,1036.288319,9992.780217
405.750900,995.924147,2368.659014,9474.636058
405.751208,2068.457845,1702.473667,9474.636058
405.751516,2374.896044,2146.597232,8956.491898
405.751824,1225.752797,592.164754,9918.759623
405.752132,1149.143247,-592.164754,11251.130318
405.752440,-153.219100,-666.185348,10881.027347
405.752748,-842.705048,-1184.329507,9844.739029
405.753056,0.000000,-962.267725,10436.903782
405.753364,0.000000,370.102971,7994.224174
405.753672,383.047749,296.082377,8216.285956
405.753979,153.219100,962.267725,7031.956449
405.754287,-919.314598,2220.617826,6809.894666
405.754595,-1915.238745,1702.473667,9252.574275
405.754903,-1149.143247,1406.391290,10214.842000
405.755211,-1149.143247,1480.411884,10732.986159
405.755519,-1378.971896,444.123565,11029.068536
405.755827,-1225.752797,-518.144159,10807.006753
405.756135,-2068.457845,-1850.514855,12139.377449
405.756443,-3064.381992,-2442.679609,13027.624579
405.756751,-2374.896044,-2442.679609,11251.130318
405.757059,-2374.896044,-1998.556043,10807.006753
405.757367,-612.876398,-1554.432478,10288.862594
405.757675,842.705048,-444.123565,6809.894666
405.757983,0.000000,1258.350101,6143.709319
405.758291,153.219100,1406.391290,6957.935855
405.758599,-536.266849,2960.823768,6883.915261
405.758907,306.438199,2886.803174,8734.430116
405.759215,0.000000,2664.741391,8956.491898
405.759523,612.876398,2886.803174,8808.450710
405.759831,-536.266849,592.164754,10436.903782
405.760139,-1685.410096,-1110.308913,11547.212695
405.760447,-3140.991542,-3034.844362,12657.521608
405.760755,-3830.477490,-3404.947333,12509.480420
405.761062,-3677.258390,-3849.070898,12139.377449
405.761370,-2911.162892,-3182.885551,10584.944971
405.761678,-536.266849,-2072.576638,9474.636058
405.761986,0.000000,-222.061783,7550.100608
405.762294,0.000000,814.226536,5995.668130
405.762602,-306.438199,1924.535449,6661.853478
405.762910,229.828649,3330.926739,6513.812290
405.763218,995.924147,4441.235652,7105.977043
405.763526,1838.629195,4885.359217,7698.141797
405.763834,1685.410096,4441.235652,8364.327145
405.764142,842.705048,1998.556043,9474.636058
405.764450,-766.095498,-518.144159,11103.089130
405.764758,-2068.457845,-2220.617826,12287.418637
405.765066,-4136.915689,-3775.050304,12361.439231
405.765374,-5209.449386,-2886.803174,12065.356855
405.765682,-3907.087040,-2368.659014,10955.047942
405.765990,-2145.067394,-1184.329507,9992.780217
405.766298,-919.314598,-0.000000,7846.182985
405.766606,-1072.533697,592.164754,7105.977043
405.766914,-1915.238745,592.164754,7698.141797
405.767222,-1532.190996,2368.659014,8364.327145
405.767530,-1608.800546,3182.885551,10584.944971
405.767838,-1149.143247,3775.050304,10362.883188
405.768145,-612.876398,3182.885551,10510.924376
405.768453,-1455.581446,814.226536,11251.130318
405.768761,-1915.238745,-1184.329507,11843.295072
405.769069,-2451.505594,-2072.576638,11769.274478
405.769377,-4749.792088,-3404.947333,11991.336260
405.769685,-4826.401637,-3775.050304,11843.295072
405.769993,-4290.134789,-3256.906145,10288.862594
405.770301,-2298.286494,-1258.350101,9474.636058
405.770609,-995.924147,518.144159,7179.997637
405.770917,153.219100,962.267725,6513.812290
405.771225,-383.047749,1480.411884,6735.874072
405.771533,0.000000,2368.659014,7105.977043
405.771841,-1455.581446,2072.576638,9474.636058
405.772149,-1685.410096,2812.782580,9770.718434
405.772457,-1225.752797,3182.885551,10214.842000
405.772765,-1455.581446,1702.473667,10881.027347
405.773073,-1302.362347,1258.350101,10584.944971
405.773381,-1378.971896,-0.000000,10658.965565
405.773689,-2374.896044,-1036.288319,10510.924376
405.773997,-4213.525239,-2516.700203,11103.089130
405.774305,-5362.668486,-3552.988522,11621.233289
405.774613,-4366.744339,-2368.659014,11103.089130
405.774921,-3524.039291,-814.226536,9622.677246
405.775228,-2221.676944,1406.391290,8512.368333
405.775536,-306.438199,2368.659014,6883.915261
405.775844,229.828649,3552.988522,6217.729913
405.776152,0.000000,2146.597232,8290.306550
405.776460,-1608.800546,2072.576638,8660.409521
405.776768,-2298.286494,888.247130,9844.739029
405.777076,-3600.648841,-148.041188,11769.274478
405.777384,-3217.601092,-0.000000,11177.109724
405.777692,-2911.162892,740.205942,10214.842000
405.778000,-2145.067394,666.185348,9400.615463
405.778308,-1149.143247,962.267725,8808.450710
405.778616,-1455.581446,-888.247130,8808.450710
405.778924,-2604.724693,-2368.659014,9918.759623
405.779232,-3294.210641,-4071.132681,11177.109724
405.779540,-5132.839837,-4737.318029,12435.459826
405.779848,-4673.182538,-3404.947333,12879.583391
405.780156,-3524.039291,-1554.432478,10881.027347
405.780464,-1685.410096,592.164754,9030.512492
405.780772,536.266849,2886.803174,7179.997637
405.781080,1685.410096,4293.194464,5773.606348
405.781388,1302.362347,3478.967927,6291.750507
405.781696,76.609550,2516.700203,6809.894666
405.782004,-1532.190996,296.082377,8142.265362
405.782311,-3600.648841,-814.226536,9918.759623
405.782619,-5439.278036,-1332.370696,11103.089130
405.782927,-5515.887586,-740.205942,11325.150913
405.783235,-4826.401637,148.041188,11029.068536
405.783543,-3677.258390,1924.535449,10066.800811
405.783851,-2298.286494,1702.473667,10066.800811
405.784159,-1302.362347,2072.576638,9548.656652
405.784467,-1915.238745,1332.370696,9326.594869
405.784775,-2221.676944,-592.164754,10732.986159
405.785083,-2911.162892,-2294.638420,12361.439231
405.785391,-4213.525239,-3182.885551,11917.315666
405.785699,-5056.230287,-3108.864956,12213.398043
405.786007,-4136.915689,-3034.844362,12139.377449
405.786315,-3677.258390,-888.247130,10140.821405
405.786623,-1685.410096,296.082377,9104.533087
405.786931,-536.266849,1924.535449,7624.121203
405.787239,0.000000,3182.885551,5625.565159
405.787547,919.314598,3923.091493,5847.626942
405.787855,689.485948,4441.235652,5995.668130
405.788163,612.876398,3034.844362,7476.080014
405.788471,-536.266849,2146.597232,8364.327145
405.788779,-1991.848295,962.267725,9770.718434
405.789086,-2834.553343,-444.123565,10955.047942
405.789394,-3447.429741,-444.123565,11251.130318
405.789702,-3753.867940,-296.082377,11843.295072
405.790010,-3447.429741,-148.041188,11103.089130
405.790318,-2451.505594,222.061783,10436.903782
405.790626,-1685.410096,814.226536,9104.533087
405.790934,-919.314598,-0.000000,8512.368333
405.791242,-1838.629195,-296.082377,9326.594869
405.791550,-2451.505594,-1776.494261,10140.821405
405.791858,-4060.306139,-2516.700203,11769.274478
405.792166,-5822.325785,-3478.967927,13249.686362
405.792474,-5898.935335,-3552.988522,13915.871710
405.792782,-5822.325785,-2886.803174,13545.768739
405.793090,-4443.353888,-1628.453072,12361.439231
405.793398,-2221.676944,592.164754,9844.739029
405.793706,-229.828649,2516.700203,7105.977043
405.794014,2298.286494,4589.276840,5699.585753
405.794322,3447.429741,5995.668130,3997.112087
405.794630,3983.696590,6365.771101,2960.823768
405.794938,3140.991542,5255.462188,3627.009116
405.795246,995.924147,3552.988522,4885.359217
405.795554,-1915.238745,1628.453072,7772.162391
405.795862,-4673.182538,-1480.411884,11177.109724
405.796169,-6818.249932,-3182.885551,14063.912898
405.796477,-7890.783629,-4811.338623,15174.221811
405.796785,-7967.393179,-5551.544565,15618.345376
405.797093,-6511.811733,-4367.215058,14434.015869
405.797401,-4213.525239,-2590.720797,12509.480420
405.797709,-2068.457845,-148.041188,9474.636058
405.798017,76.609550,2146.597232,7624.121203
405.798325,995.924147,3404.947333,6735.874072
405.798633,2451.505594,4737.318029,5625.565159
405.798941,2068.457845,5477.523971,5551.544565
405.799249,229.828649,4145.153275,6809.894666
405.799557,-1991.848295,1628.453072,8586.388927
405.799865,-4673.182538,-740.205942,11399.171507
405.800173,-7354.516781,-3552.988522,14137.933492
405.800481,-8886.707777,-5477.523971,15396.283594
405.800789,-8886.707777,-5551.544565,15470.304188
405.801097,-6971.469032,-5403.503377,15100.201217
405.801405,-4136.915689,-3775.050304,11843.295072
405.801713,-995.924147,-1110.308913,9252.574275
405.802021,1455.581446,1036.288319,7328.038826
405.802329,2757.943793,3552.988522,4811.338623
405.802637,4060.306139,4811.338623,4589.276840
405.802945,4673.182538,6143.709319,3849.070898
405.803253,2911.162892,6513.812290,3108.864956
405.803561,1915.238745,5107.421000,5477.523971
405.803869,153.219100,3627.009116,7476.080014
405.804177,-3677.258390,1628.453072,10214.842000
405.804485,-5745.716235,-1850.514855,13471.748144
405.804793,-7890.783629,-3923.091493,14063.912898
405.805101,-8886.707777,-3997.112087,14285.974681
405.805409,-7507.735880,-4737.318029,14878.139434
405.805717,-5592.497135,-3849.070898,13767.830521
405.806026,-4519.963438,-2886.803174,11473.192101
405.806334,-2451.505594,-1702.473667,10436.903782
405.806642,-612.876398,148.041188,8586.388927
405.806950,-153.219100,2146.597232,7031.956449
405.807258,1455.581446,2738.761985,7550.100608
405.807566,1991.848295,3627.009116,6809.894666
405.807874,1455.581446,2886.803174,6883.915261
405.808182,842.705048,2442.679609,7846.182985
405.808490,0.000000,962.267725,9474.636058
405.808798,-1762.019645,-592.164754,10658.965565
405.809106,-2068.457845,-1110.308913,10140.821405
405.809414,-2451.505594,-1110.308913,10362.883188
405.809722,-2298.286494,-814.226536,9622.677246
405.810030,-2451.505594,296.082377,8882.471304
405.810338,-1225.752797,888.247130,8882.471304
405.810646,-919.314598,444.123565,8586.388927
405.810954,-1378.971896,1406.391290,7920.203579
405.811263,-1991.848295,1924.535449,9474.636058
405.811571,-2451.505594,1776.494261,9918.759623
405.811879,-3753.867940,1258.350101,10362.883188
405.812187,-4826.401637,296.082377,11473.192101
405.812495,-6052.154434,-1184.329507,11917.315666
405.812803,-7201.297681,-2294.638420,13027.624579
405.813111,-7431.126331,-2886.803174,13841.851115
405.813419,-6511.811733,-2368.659014,12805.562797
405.813727,-5822.325785,-2738.761985,12213.398043
405.814035,-4673.182538,-1702.473667,10584.944971
405.814343,-2451.505594,-740.205942,9178.553681
405.814651,-1302.362347,-0.000000,7624.121203
405.814959,306.438199,1332.370696,6809.894666
405.815267,1072.533697,2146.597232,6143.709319
405.815575,1302.362347,2294.638420,6217.729913
405.815883,919.314598,2368.659014,6587.832884
405.816191,919.314598,2368.659014,6809.894666
405.816499,-306.438199,1924.535449,7772.162391
405.816808,-842.705048,1258.350101,8734.430116
405.817116,-1991.848295,296.082377,9992.780217
405.817424,-2911.162892,-444.123565,10584.944971
405.817732,-3753.867940,-740.205942,10881.027347
405.818040,-3983.696590,-1332.370696,11843.295072
405.818348,-3217.601092,-1258.350101,11177.109724
405.818656,-3217.601092,-1258.350101,10955.047942
405.818964,-2374.896044,-1110.308913,11029.068536
405.819272,-2451.505594,-148.041188,10066.800811
405.819580,-1915.238745,444.123565,9770.718434
405.819888,-1532.190996,1110.308913,9992.780217
405.820196,-1072.533697,1258.350101,9474.636058
405.820504,-689.485948,888.247130,8882.471304
405.820812,-1225.752797,1036.288319,9326.594869
405.821120,-1225.752797,888.247130,9844.739029
405.821428,-1838.629195,962.267725,10066.800811
405.821736,-1838.629195,518.144159,9918.759623
405.822045,-2145.067394,666.185348,9770.718434
405.822353,-1915.238745,592.164754,9622.677246
405.822661,-1762.019645,666.185348,9474.636058
405.822969,-995.924147,740.205942,8808.450710
405.823277,-1225.752797,592.164754,8438.347739
405.823585,-1149.143247,814.226536,9104.533087
405.823893,-1455.581446,1258.350101,8734.430116
405.824201,-1838.629195,962.267725,9400.615463
405.824509,-2298.286494,666.185348,9474.636058
405.824817,-2911.162892,296.082377,9918.759623
405.825125,-3600.648841,-370.102971,10510.924376
405.825433,-3983.696590,-666.185348,10881.027347
405.825741,-4136.915689,-1110.308913,10881.027347
405.826049,-3830.477490,-1258.350101,10955.047942
405.826357,-3830.477490,-814.226536,11325.150913
405.826665,-2987.772442,-814.226536,10436.903782
405.826973,-2451.505594,-888.247130,9992.780217
405.827282,-1762.019645,-740.205942,9400.615463
405.827590,-1072.533697,-370.102971,8882.471304
405.827898,-842.705048,-222.061783,9178.553681
405.828206,-766.095498,-0.000000,9030.512492
405.828514,-612.876398,148.041188,8882.471304
405.828822,0.000000,444.123565,8438.347739
405.829130,153.219100,1110.308913,8068.244768
405.829438,153.219100,1258.350101,7846.182985
405.829746,383.047749,1554.432478,7920.203579
405.830054,-306.438199,1628.453072,7698.141797
405.830362,-919.314598,1554.432478,8364.327145
405.830670,-1225.752797,1184.329507,9178.553681
405.830978,-1608.800546,814.226536,9770.718434
405.831286,-2374.896044,740.205942,10436.903782
405.831594,-3064.381992,296.082377,10584.944971
405.831902,-3447.429741,222.061783,10658.965565
405.832210,-3677.258390,222.061783,11029.068536
405.832519,-3677.258390,296.082377,11325.150913
405.832827,-3677.258390,370.102971,11251.130318
405.833135,-3370.820191,296.082377,11029.068536
405.833443,-3370.820191,-0.000000,11029.068536
405.833751,-3370.820191,370.102971,10288.862594
405.834059,-3217.601092,370.102971,9992.780217
405.834367,-3140.991542,814.226536,9696.697840
405.834675,-3064.381992,1036.288319,9400.615463
405.834983,-2528.115143,740.205942,9178.553681
405.835291,-2987.772442,962.267725,9326.594869
405.835599,-2604.724693,444.123565,9104.533087
405.835907,-3370.820191,444.123565,9474.636058
405.836215,-3447.429741,148.041188,9622.677246
405.836523,-3677.258390,-0.000000,9474.636058
405.836831,-4060.306139,-0.000000,9548.656652
405.837139,-3830.477490,-148.041188,9844.739029
405.837447,-4213.525239,-296.082377,9770.718434
405.837756,-4060.306139,-592.164754,9696.697840
405.838064,-3524.039291,-666.185348,9474.636058
405.838372,-3983.696590,-888.247130,9326.594869
405.838680,-3753.867940,-444.123565,9844.739029
405.838988,-3907.087040,-518.144159,9548.656652
405.839296,-3600.648841,-518.144159,9474.636058
405.839604,-3447.429741,-666.185348,9474.636058
405.839912,-3524.039291,-888.247130,9992.780217
405.840220,-3524.039291,-1184.329507,10066.800811
405.840528,-3064.381992,-1184.329507,10584.944971
405.840836,-2451.505594,-1258.350101,10436.903782
405.841144,-2374.896044,-1332.370696,10066.800811
405.841452,-1915.238745,-1184.329507,10140.821405
405.841760,-1225.752797,-518.144159,9770.718434
405.842068,-383.047749,-0.000000,9178.553681
405.842376,459.657299,814.226536,8290.306550
405.842684,842.705048,1480.411884,7476.080014
405.842993,919.314598,2516.700203,7254.018232
405.843301,536.266849,2960.823768,6735.874072
405.843609,1302.362347,3478.967927,6957.935855
405.843917,306.438199,3552.988522,7254.018232
405.844225,-689.485948,3404.947333,7772.162391
405.844533,-1455.581446,2738.761985,9030.512492
405.844841,-2451.505594,1850.514855,10214.842000
405.845149,-3217.601092,592.164754,11103.089130
405.845457,-4060.306139,-444.123565,12435.459826
405.845765,-5362.668486,-1332.370696,12731.542202
405.846073,-5898.935335,-1702.473667,13249.686362
405.846381,-5286.058936,-2294.638420,13767.830521
405.846689,-5286.058936,-2368.659014,12583.501014
405.846997,-5362.668486,-1554.432478,12139.377449
405.847305,-3064.381992,-2442.679609,12731.542202
405.847613,-3217.601092,-666.185348,9696.697840
405.847921,-1685.410096,-592.164754,9992.780217
405.848230,306.438199,-0.000000,8734.430116
405.848538,-689.485948,1184.329507,7402.059420
405.848846,536.266849,666.185348,8364.327145
405.849154,76.609550,1998.556043,6587.832884
405.849462,1225.752797,1406.391290,8364.327145
405.849770,76.609550,2368.659014,7031.956449
405.850078,536.266849,2886.803174,6661.853478
405.850386,1149.143247,2072.576638,7624.121203
405.850694,76.609550,2590.720797,7179.997637
405.851002,-689.485948,2368.659014,8290.306550
405.851310,-1915.238745,1110.308913,9178.553681
405.851618,-3140.991542,-74.020594,10362.883188
405.851926,-4673.182538,-888.247130,11177.109724
405.852234,-4903.011187,-2368.659014,12065.356855
405.852542,-6665.030833,-2590.720797,12583.501014
405.852850,-6588.421283,-3627.009116,13027.624579
405.853158,-5515.887586,-3404.947333,13323.706956
405.853466,-5898.935335,-3330.926739,12583.501014
405.853775,-4903.011187,-2960.823768,12139.377449
405.854083,-3830.477490,-2294.638420,11325.150913
405.854391,-2681.334243,-740.205942,10140.821405
405.854699,-459.657299,296.082377,8364.327145
405.855007,306.438199,2442.679609,6883.915261
405.855315,1838.629195,4589.276840,5033.400406
405.855623,4060.306139,5403.503377,4293.194464
405.855931,3524.039291,6439.791695,3182.885551
405.856239,2451.505594,5329.482782,4367.215058
405.856547,1685.410096,4071.132681,6883.915261
405.856855,-1149.143247,2220.617826,7994.224174
405.857163,-3294.210641,-592.164754,11399.171507
405.857471,-5286.058936,-2516.700203,13027.624579
405.857779,-6665.030833,-3627.009116,14211.954086
405.858087,-7507.735880,-5995.668130,14952.160028
405.858395,-7354.516781,-6291.750507,15026.180623
405.858703,-6358.592633,-5255.462188,14434.015869
405.859012,-5439.278036,-2738.761985,11621.233289
405.859320,-2681.334243,-518.144159,10066.800811
405.859628,0.000000,2368.659014,8290.306550
405.859936,1762.019645,4737.318029,5921.647536
405.860244,3064.381992,6365.771101,4293.194464
405.860552,2834.553343,6957.935855,3701.029710
405.860860,1072.533697,5033.400406,5551.544565
405.861168,-1149.143247,2368.659014,8586.388927
405.861476,-3830.477490,-518.144159,11103.089130
405.861784,-7201.297681,-4293.194464,13841.851115
405.862092,-8350.440928,-5995.668130,15248.242405
405.862400,-8427.050478,-6809.894666,15100.201217
405.862708,-8656.879127,-6365.771101,14285.974681
405.863016,-4979.620737,-3849.070898,11917.315666
405.863324,-2298.286494,-518.144159,8734.430116
405.863632,459.657299,2442.679609,6883.915261
405.863940,3524.039291,5477.523971,4737.318029
405.864249,4903.011187,8142.265362,2812.782580
405.864557,5745.716235,8364.327145,3256.906145
405.864865,3753.867940,7846.182985,3923.091493
405.865173,1378.971896,4441.235652,7105.977043
405.865481,-2221.676944,592.164754,11251.130318
405.865789,-6358.592633,-2812.782580,14508.036463
405.866097,-9193.145976,-6291.750507,17246.798449
405.866405,-10955.165621,-7698.141797,18061.024985
405.866713,-10342.289223,-7105.977043,17172.777854
405.867021,-7048.078582,-4145.153275,14582.057057
405.867329,-3370.820191,-222.061783,9770.718434
405.867637,0.000000,2220.617826,7031.956449
405.867945,1685.410096,3108.864956,4959.379811
405.868253,2834.553343,5847.626942,4071.132681
405.868561,3064.381992,5921.647536,4441.235652
405.868869,1378.971896,4959.379811,5403.503377
405.869177,-1608.800546,2442.679609,7624.121203
405.869486,-3907.087040,-74.020594,10732.986159
405.869794,-6435.202183,-1554.432478,12731.542202
405.870102,-7584.345430,-3256.906145,13989.892304
405.870410,-7814.174080,-3701.029710,14137.933492
405.870718,-6052.154434,-1554.432478,11769.274478
405.871026,-2374.896044,-74.020594,9918.759623
405.871334,1225.752797,814.226536,7550.100608
405.871642,2911.162892,592.164754,6291.750507
405.871950,2834.553343,148.041188,6957.935855
405.872258,2145.067394,370.102971,6957.935855
405.872566,0.000000,-0.000000,7772.162391
405.872874,-1378.971896,370.102971,9400.615463
405.873182,-2451.505594,1258.350101,9474.636058
405.873490,-2221.676944,1480.411884,9696.697840
405.873798,-2834.553343,1110.308913,9178.553681
405.874106,-2834.553343,666.185348,9474.636058
405.874414,-3140.991542,-1184.329507,11695.253884
405.874723,-4290.134789,-2886.803174,12435.459826
405.875031,-5362.668486,-4071.132681,12657.521608
405.875339,-5592.497135,-3182.885551,11769.274478
405.875647,-4979.620737,-2072.576638,10732.986159
405.875955,-3600.648841,444.123565,9992.780217
405.876263,-842.705048,2812.782580,7846.182985
405.876571,1302.362347,4959.379811,5107.421000
405.876879,3064.381992,5477.523971,4145.153275
405.877187,2374.896044,4071.132681,6217.729913
405.877495,229.828649,1184.329507,8734.430116
405.877803,-1762.019645,-296.082377,10807.006753
405.878111,-4060.306139,-1924.535449,11547.212695
405.878419,-6435.202183,-3108.864956,13471.748144
405.878727,-6128.763984,-3997.112087,15248.242405
405.879035,-5209.449386,-2442.679609,13323.706956
405.879343,-3600.648841,-1184.329507,10658.965565
405.879651,-2451.505594,-1110.308913,10066.800811
405.879960,-1685.410096,-1480.411884,9622.677246
405.880268,-1685.410096,-962.267725,9696.697840
405.880576,-1915.238745,592.164754,8068.244768
405.880884,-1455.581446,2368.659014,7550.100608
405.881192,-229.828649,4145.153275,7920.203579
405.881500,1149.143247,4737.318029,6809.894666
405.881808,1225.752797,5995.668130,5477.523971
405.882116,1072.533697,4441.235652,7031.956449
405.882424,-383.047749,1998.556043,8586.388927
405.882732,-3140.991542,-444.123565,11473.192101
405.883040,-4519.963438,-2812.782580,14211.954086
405.883348,-6435.202183,-2738.761985,12361.439231
405.883656,-5362.668486,-2886.803174,13027.624579
405.883964,-3447.429741,-3256.906145,13249.686362
405.884272,-1532.190996,-2220.617826,10584.944971
405.884580,-995.924147,-2664.741391,10066.800811
405.884888,-1072.533697,-2220.617826,8734.430116
405.885197,-2298.286494,-1258.350101,8660.409521
405.885505,-2145.067394,-666.185348,10362.883188
405.885813,-1915.238745,1332.370696,9474.636058
405.886121,0.000000,3256.906145,8290.306550
405.886429,1991.848295,4145.153275,6957.935855
405.886737,4596.572988,4441.235652,6513.812290
405.887045,4060.306139,3775.050304,7105.977043
405.887353,2298.286494,1776.494261,8734.430116
405.887661,0.000000,814.226536,9548.656652
405.887969,-2068.457845,-740.205942,10955.047942
405.888277,-2604.724693,-1406.391290,11695.253884
405.888585,-2068.457845,-1332.370696,11399.171507
405.888893,-383.047749,-1332.370696,11251.130318
405.889201,-842.705048,-1554.432478,9400.615463
405.889509,-306.438199,-2294.638420,9992.780217
405.889817,-2298.286494,-2294.638420,10288.862594
405.890125,-2911.162892,-370.102971,10584.944971
405.890433,-1762.019645,-0.000000,11325.150913
405.890742,-995.924147,2886.803174,9400.615463
405.891050,766.095498,3404.947333,8438.347739
405.891358,1838.629195,3775.050304,7179.997637
405.891666,2068.457845,3330.926739,8142.265362
405.891974,153.219100,2220.617826,9178.553681
405.892282,-536.266849,592.164754,10510.924376
405.892590,-2298.286494,370.102971,10658.965565
405.892898,-2528.115143,-1258.350101,11251.130318
405.893206,-2604.724693,-2072.576638,11251.130318
405.893514,-2528.115143,-2812.782580,10214.842000
405.893822,-2451.505594,-3849.070898,10807.006753
405.894130,-3600.648841,-2368.659014,9696.697840
405.894438,-2068.457845,-1332.370696,10214.842000
405.894746,-1608.800546,518.144159,9178.553681
405.895054,1149.143247,2442.679609,7698.141797
405.895362,3600.648841,4071.132681,6143.709319
405.895670,4596.572988,4219.173869,5033.400406
405.895979,4290.134789,2960.823768,6513.812290
405.896287,1838.629195,2368.659014,7772.162391
405.896595,76.609550,-0.000000,9178.553681
405.896903,-2374.896044,-1406.391290,11843.295072
405.897211,-2451.505594,-2886.803174,13249.686362
405.897519,-2911.162892,-3849.070898,12509.480420
405.897827,-2987.772442,-4145.153275,11399.171507
405.898135,-2221.676944,-4737.318029,11399.171507
405.898443,-3370.820191,-3627.009116,10436.903782
405.898751,-2757.943793,-2368.659014,10510.924376
405.899059,-383.047749,222.061783,9992.780217
405.899367,2221.676944,3182.885551,7698.141797
405.899675,4596.572988,4589.276840,5551.544565
405.899983,5209.449386,5033.400406,4663.297435
405.900291,4903.011187,4811.338623,6069.688724
405.900599,3677.258390,2960.823768,7402.059420
405.900907,766.095498,2516.700203,8734.430116
405.901216,-689.485948,370.102971,11843.295072
405.901524,-1225.752797,-2072.576638,14063.912898
405.901832,-1915.238745,-2368.659014,12509.480420
405.902140,-3140.991542,-3256.906145,11177.109724
405.902448,-2298.286494,-4737.318029,12435.459826
405.902756,-3064.381992,-3701.029710,11325.150913
405.903064,-2451.505594,-1184.329507,11177.109724
405.903372,229.828649,518.144159,9918.759623
405.903680,1532.190996,3404.947333,7402.059420
405.903988,4519.963438,4959.379811,6365.771101
405.904296,5592.497135,4885.359217,6735.874072
405.904604,4060.306139,4959.379811,6217.729913
405.904912,2528.115143,2516.700203,7994.224174
405.905220,1302.362347,2368.659014,9400.615463
405.905528,76.609550,-296.082377,12287.418637
405.905835,-1149.143247,-2294.638420,11991.336260
405.906143,-2374.896044,-3552.988522,11325.150913
405.906451,-2834.553343,-4145.153275,12139.377449
405.906759,-2604.724693,-5107.421000,11843.295072
405.907067,-2451.505594,-2072.576638,11843.295072
405.907375,-842.705048,-518.144159,9992.780217
405.907683,1915.238745,1998.556043,7698.141797
405.907991,3907.087040,4515.256246,6661.853478
405.908299,5515.887586,3923.091493,6661.853478
405.908607,5209.449386,3849.070898,6365.771101
405.908915,3524.039291,3627.009116,6217.729913
405.909223,2911.162892,2146.597232,9252.574275
405.909531,1302.362347,222.061783,11695.253884
405.909839,153.219100,-1776.494261,12065.356855
405.910147,-919.314598,-2442.679609,10807.006753
405.910455,-1838.629195,-3478.967927,9992.780217
405.910762,-2451.505594,-4367.215058,12583.501014
405.911070,-2068.457845,-4367.215058,13027.624579
405.911378,-1378.971896,-1332.370696,9474.636058
405.911686,536.266849,-296.082377,9400.615463
405.911994,1991.848295,1924.535449,8142.265362
405.912302,4443.353888,3404.947333,6809.894666
405.912610,4060.306139,3775.050304,7624.121203
405.912918,4060.306139,3627.009116,6883.915261
405.913226,3140.991542,3404.947333,8142.265362
405.913534,2068.457845,888.247130,11103.089130
405.913842,1302.362347,-814.226536,11843.295072
405.914150,459.657299,-1702.473667,10288.862594
405.914458,-536.266849,-2516.700203,9844.739029
405.914766,-2451.505594,-3552.988522,11177.109724
405.915074,-2145.067394,-4219.173869,12213.398043
405.915382,-2451.505594,-2812.782580,12139.377449
405.915689,-1991.848295,-962.267725,9992.780217
405.915997,383.047749,1332.370696,7846.182985
405.916305,3753.867940,2368.659014,8660.409521
405.916613,3600.648841,4515.256246,6143.709319
405.916921,4290.134789,4145.153275,6439.791695
405.917229,3370.820191,4959.379811,6365.771101
405.917537,1685.410096,2590.720797,9844.739029
405.917845,1915.238745,-0.000000,11325.150913
405.918153,76.609550,-518.144159,9770.718434
405.918461,-842.705048,-2072.576638,10658.965565
405.918769,-1225.752797,-3849.070898,10214.842000
405.919077,-2451.505594,-2738.761985,11103.089130
405.919385,-2374.896044,-3034.844362,12583.501014
405.919693,-1838.629195,-1628.453072,9918.759623
405.920001,-612.876398,-0.000000,9030.512492
405.920309,1838.629195,666.185348,8956.491898
405.920617,3907.087040,2146.597232,7476.080014
405.920924,3753.867940,2664.741391,7920.203579
405.921232,3370.820191,3330.926739,7254.018232
405.921540,2451.505594,2220.617826,9622.677246
405.921848,1991.848295,-0.000000,11177.109724
405.922156,1225.752797,-148.041188,10288.862594
405.922464,76.609550,-1184.329507,9770.718434
405.922772,-1149.143247,-2442.679609,10140.821405
405.923080,-2834.553343,-3478.967927,12065.356855
405.923388,-3677.258390,-3182.885551,12583.501014
405.923696,-2604.724693,-2368.659014,10807.006753
405.924004,-1378.971896,-814.226536,9992.780217
405.924312,995.924147,888.247130,8438.347739
405.924620,2298.286494,2220.617826,7994.224174
405.924928,2834.553343,3404.947333,8068.244768
405.925236,2987.772442,4293.194464,7179.997637
405.925544,1762.019645,3923.091493,8364.327145
405.925851,2757.943793,1184.329507,11177.109724
405.926159,1685.410096,814.226536,9992.780217
405.926467,306.438199,-0.000000,9104.533087
405.926775,383.047749,-1776.494261,9696.697840
405.927083,-2221.676944,-2516.700203,10584.944971
405.927391,-3217.601092,-3182.885551,11399.171507
405.927699,-2757.943793,-2664.741391,11547.212695
405.928007,-1608.800546,-1258.350101,10955.047942
405.928315,459.657299,-666.185348,9918.759623
405.928623,3370.820191,1924.535449,8216.285956
405.928931,3294.210641,2738.761985,7254.018232
405.929239,3370.820191,3330.926739,7476.080014
405.929547,2834.553343,4071.132681,8438.347739
405.929855,3294.210641,2442.679609,9918.759623
405.930163,2451.505594,888.247130,10214.842000
405.930471,1915.238745,-0.000000,8882.471304
405.930778,0.000000,-1924.535449,9770.718434
405.931086,-842.705048,-2886.803174,11917.315666
405.931394,-2528.115143,-3997.112087,11843.295072
405.931702,-3140.991542,-2886.803174,11695.253884
405.932010,-1915.238745,-2220.617826,11399.171507
405.932318,-306.438199,-888.247130,9770.718434
405.932626,2451.505594,962.267725,8734.430116
405.932934,3830.477490,2146.597232,7550.100608
405.933242,3907.087040,3478.967927,6143.709319
405.933550,3217.601092,3552.988522,7994.224174
405.933858,2374.896044,2516.700203,9474.636058
405.934166,1838.629195,1702.473667,9992.780217
405.934474,2451.505594,370.102971,10140.821405
405.934782,842.705048,-518.144159,9030.512492
405.935090,-1532.190996,-2664.741391,10436.903782
405.935398,-2834.553343,-3330.926739,11917.315666
405.935705,-3064.381992,-3775.050304,12509.480420
405.936013,-4060.306139,-1702.473667,11251.130318
405.936321,-1378.971896,-1110.308913,10362.883188
405.936629,1915.238745,666.185348,9252.574275
405.936937,2528.115143,2960.823768,6291.750507
405.937245,4366.744339,3330.926739,7031.956449
405.937553,3983.696590,4441.235652,6217.729913
405.937861,2911.162892,3701.029710,8142.265362
405.938169,2681.334243,1702.473667,9844.739029
405.938477,1991.848295,1628.453072,9252.574275
405.938785,1072.533697,-592.164754,9548.656652
405.939093,-1378.971896,-2220.617826,10066.800811
405.939401,-1762.019645,-2886.803174,11843.295072
405.939709,-3370.820191,-2664.741391,12065.356855
405.940017,-2911.162892,-1850.514855,10732.986159
405.940325,-1302.362347,-1406.391290,11251.130318
405.940633,612.876398,296.082377,9844.739029
405.940940,2604.724693,888.247130,8586.388927
405.941248,2681.334243,2664.741391,7476.080014
405.941556,3447.429741,2812.782580,7846.182985
405.941864,2987.772442,2960.823768,9178.553681
405.942172,2451.505594,1554.432478,10066.800811
405.942480,1149.143247,148.041188,10881.027347
405.942788,1762.019645,-962.267725,9622.677246
405.943096,-995.924147,-1258.350101,9918.759623
405.943404,-2451.505594,-4367.215058,13323.706956
405.943712,-2681.334243,-3256.906145,11547.212695
405.944020,-2374.896044,-1406.391290,10510.924376
405.944328,-1302.362347,-1110.308913,10510.924376
405.944636,766.095498,-0.000000,9178.553681
405.944944,3524.039291,1998.556043,8364.327145
405.945252,3217.601092,3108.864956,6883.915261
405.945560,3140.991542,3256.906145,6513.812290
405.945867,3064.381992,4145.153275,8512.368333
405.946175,2451.505594,3034.844362,9992.780217
405.946483,1838.629195,1258.350101,9992.780217
405.946791,1225.752797,666.185348,9548.656652
405.947099,-306.438199,-740.205942,9844.739029
405.947407,-1608.800546,-3330.926739,11177.109724
405.947715,-2911.162892,-2812.782580,11991.336260
405.948023,-3983.696590,-2664.741391,12509.480420
405.948331,-2374.896044,-1776.494261,10288.862594
405.948639,0.000000,-518.144159,9770.718434
405.948947,1685.410096,1258.350101,9178.553681
405.949255,2911.162892,2146.597232,7476.080014
405.949563,3294.210641,2886.803174,7624.121203
405.949871,2757.943793,3330.926739,8068.244768
405.950179,2374.896044,2590.720797,9548.656652
405.950487,1762.019645,444.123565,11251.130318
405.950794,1302.362347,-296.082377,9770.718434
405.951102,0.000000,-1110.308913,9474.636058
405.951410,-995.924147,-2886.803174,10732.986159
405.951718,-2451.505594,-3404.947333,11769.274478
405.952026,-3140.991542,-2368.659014,11695.253884
405.952334,-1455.581446,-1332.370696,10955.047942
405.952642,76.609550,-444.123565,9104.533087
405.952950,2298.286494,1036.288319,8290.306550
405.953258,3983.696590,1480.411884,7328.038826
405.953566,3294.210641,2590.720797,7105.977043
405.953874,2681.334243,3182.885551,8290.306550
405.954182,2451.505594,2812.782580,9918.759623
405.954490,1838.629195,1628.453072,10881.027347
405.954798,1455.581446,370.102971,9548.656652
405.955106,306.438199,-444.123565,9400.615463
405.955414,-1378.971896,-2072.576638,10510.924376
405.955721,-1685.410096,-3552.988522,11547.212695
405.956029,-2528.115143,-2220.617826,10807.006753
405.956337,-2604.724693,-1110.308913,10658.965565
405.956645,-766.095498,-1110.308913,10955.047942
405.956953,1915.238745,888.247130,8216.285956
405.957261,2374.896044,2294.638420,7254.018232
405.957569,3830.477490,1924.535449,6809.894666
405.957877,3447.429741,3478.967927,7105.977043
405.958185,2374.896044,4071.132681,8882.471304
405.958493,2374.896044,1702.473667,9770.718434
405.958801,1608.800546,1258.350101,9918.759623
405.959109,995.924147,-222.061783,9992.780217
405.959417,-1149.143247,-2590.720797,10214.842000
405.959725,-2451.505594,-3923.091493,12213.398043
405.960033,-3600.648841,-3478.967927,13323.706956
405.960341,-3217.601092,-2368.659014,11917.315666
405.960649,-1838.629195,-2146.597232,11103.089130
405.960956,612.876398,222.061783,9696.697840
405.961264,2911.162892,1628.453072,7105.977043
405.961572,4290.134789,2368.659014,6365.771101
405.961880,4749.792088,2886.803174,6883.915261
405.962188,3677.258390,3923.091493,7328.038826
405.962496,3064.381992,1628.453072,9770.718434
405.962804,2145.067394,740.205942,9992.780217
405.963112,995.924147,-0.000000,9548.656652
405.963420,-459.657299,-1628.453072,10288.862594
405.963728,-2145.067394,-3627.009116,10955.047942
405.964036,-3677.258390,-3256.906145,11843.295072
405.964344,-3524.039291,-2664.741391,12361.439231
405.964652,-2528.115143,-2072.576638,11251.130318
405.964960,-689.485948,-370.102971,10066.800811
405.965268,2451.505594,1480.411884,7328.038826
405.965576,3677.258390,2294.638420,6735.874072
405.965883,2987.772442,3627.009116,5995.668130
405.966191,4290.134789,4145.153275,7105.977043
405.966499,3217.601092,3923.091493,7179.997637
405.966807,2451.505594,2368.659014,9548.656652
405.967115,1991.848295,-666.185348,9918.759623
405.967423,-229.828649,-1184.329507,9696.697840
405.967731,-2145.067394,-3997.112087,11843.295072
405.968039,-3983.696590,-4663.297435,11843.295072
405.968347,-3983.696590,-3849.070898,12583.501014
405.968655,-3140.991542,-2368.659014,12509.480420
405.968963,-995.924147,-1184.329507,11103.089130
405.969271,1532.190996,1776.494261,7994.224174
405.969579,4136.915689,3330.926739,6661.853478
405.969887,4673.182538,3478.967927,7105.977043
405.970195,4213.525239,3849.070898,7031.956449
405.970503,4213.525239,4219.173869,7698.141797
405.970810,2987.772442,2516.700203,8882.471304
405.971118,1762.019645,-370.102971,10881.027347
405.971426,0.000000,-740.205942,10732.986159
405.971734,-1608.800546,-3108.864956,11917.315666
405.972042,-3217.601092,-4441.235652,12065.356855
405.972350,-4519.963438,-3627.009116,12435.459826
405.972658,-3370.820191,-2368.659014,12731.542202
405.972966,-1072.533697,-1702.473667,11399.171507
405.973274,1455.581446,1184.329507,8882.471304
405.973582,3753.867940,2368.659014,7031.956449
405.973890,3983.696590,2812.782580,6957.935855
405.974198,4596.572988,2960.823768,7920.203579
405.974506,4366.744339,4293.194464,7624.121203
405.974814,3294.210641,3701.029710,9030.512492
405.975122,2451.505594,1480.411884,9622.677246
405.975430,383.047749,222.061783,11251.130318
405.975738,-1532.190996,-1702.473667,11251.130318
405.976045,-3294.210641,-3182.885551,11399.171507
405.976353,-3294.210641,-3627.009116,13101.645173
405.976661,-3907.087040,-2294.638420,11769.274478
405.976969,-2451.505594,-1554.432478,11991.336260
405.977277,459.657299,-0.000000,9474.636058
405.977585,2757.943793,2812.782580,6735.874072
405.977893,4519.963438,3997.112087,5847.626942
405.978201,4060.306139,3849.070898,6735.874072
405.978509,3983.696590,4071.132681,7994.224174
405.978817,2451.505594,3849.070898,8142.265362
405.979125,2221.676944,666.185348,10288.862594
405.979433,995.924147,-666.185348,10510.924376
405.979741,-459.657299,-2590.720797,10510.924376
405.980049,-2911.162892,-3627.009116,11991.336260
405.980357,-4213.525239,-3775.050304,12583.501014
405.980665,-3983.696590,-2590.720797,12657.521608
405.980972,-2145.067394,-1776.494261,11843.295072
405.981280,306.438199,-0.000000,9400.615463
405.981588,2604.724693,1110.308913,8290.306550
405.981896,4749.792088,2294.638420,7254.018232
405.982204,3600.648841,2664.741391,5033.400406
405.982512,2911.162892,4441.235652,7105.977043
405.982820,5898.935335,2294.638420,10362.883188
405.983128,1302.362347,3330.926739,7994.224174
405.983436,1455.581446,-370.102971,11325.150913
405.983744,1225.752797,-1480.411884,9844.739029
405.984052,-2757.943793,-2368.659014,10658.965565
405.984360,-3907.087040,-4811.338623,13249.686362
405.984668,-3983.696590,-3552.988522,12213.398043
405.984976,-3830.477490,-3775.050304,13027.624579
405.985284,-2987.772442,-2442.679609,9992.780217
405.985592,1685.410096,222.061783,8734.430116
405.985899,2987.772442,2220.617826,6735.874072
405.986207,3447.429741,3182.885551,6217.729913
405.986515,4903.011187,3775.050304,6291.750507
405.986823,3370.820191,4515.256246,7254.018232
405.987131,3370.820191,2886.803174,8438.347739
405.987439,1838.629195,814.226536,7994.224174
405.987747,306.438199,-296.082377,9918.759623
405.988055,-1532.190996,-2812.782580,10658.965565
405.988363,-3753.867940,-2960.823768,10732.986159
405.988671,-4366.744339,-3701.029710,13545.768739
405.988979,-3983.696590,-3330.926739,11917.315666
405.989287,-1455.581446,-814.226536,10732.986159
405.989595,612.876398,296.082377,9696.697840
405.989903,3907.087040,2072.576638,6883.915261
405.990211,4519.963438,3404.947333,5995.668130
405.990519,4519.963438,3701.029710,6957.935855
405.990826,4519.963438,3997.112087,7254.018232
405.991134,3983.696590,3627.009116,8290.306550
405.991442,2681.334243,1184.329507,10881.027347
405.991750,1532.190996,-814.226536,10510.924376
405.992058,-842.705048,-1998.556043,10955.047942
405.992366,-2528.115143,-3849.070898,12287.418637
405.992674,-4673.182538,-4737.318029,13323.706956
405.992982,-4749.792088,-3256.906145,13545.768739
405.993290,-2757.943793,-2220.617826,12731.542202
405.993598,0.000000,-370.102971,10510.924376
405.993906,2911.162892,1924.535449,7772.162391
405.994214,4443.353888,3182.885551,7031.956449
405.994522,4596.572988,3478.967927,7846.182985
405.994830,4979.620737,4145.153275,6957.935855
405.995138,4213.525239,4441.235652,7846.182985
405.995446,3064.381992,2442.679609,9252.574275
405.995754,2374.896044,444.123565,9548.656652
405.996061,0.000000,-962.267725,9992.780217
405.996369,-1532.190996,-2886.803174,11177.109724
405.996677,-3370.820191,-4145.153275,12657.521608
405.996985,-3907.087040,-4071.132681,13471.748144
405.997293,-3217.601092,-2664.741391,11473.192101
405.997601,-1225.752797,-1406.391290,10288.862594
405.997909,1378.971896,1184.329507,9178.553681
405.998217,2987.772442,2738.761985,6513.812290
405.998525,4443.353888,4071.132681,7105.977043
405.998833,4519.963438,4293.194464,6587.832884
405.999141,4903.011187,5033.400406,6365.771101
405.999449,3830.477490,3478.967927,8734.430116
405.999757,2681.334243,518.144159,9474.636058
406.000065,2145.067394,-740.205942,9104.533087
406.000373,-919.314598,-1924.535449,9474.636058
406.000681,-3447.429741,-4515.256246,11843.295072
406.000988,-4443.353888,-4515.256246,12657.521608
406.001296,-3830.477490,-3108.864956,13545.768739
406.001604,-1762.019645,-2516.700203,11621.233289
406.001912,1149.143247,-888.247130,9326.594869
406.002220,3983.696590,1406.391290,7994.224174
406.002528,4903.011187,2516.700203,6365.771101
406.002836,4290.134789,3552.988522,6217.729913
406.003144,4903.011187,4071.132681,6957.935855
406.003452,3983.696590,2812.782580,8734.430116
406.003760,1915.238745,1628.453072,9400.615463
406.004069,1532.190996,-444.123565,9548.656652
406.004377,0.000000,-814.226536,10140.821405
406.004685,-3294.210641,-3701.029710,12065.356855
406.004993,-4673.182538,-4145.153275,13545.768739
406.005301,-4826.401637,-3404.947333,13693.809927
406.005609,-3677.258390,-2886.803174,12657.521608
