#time,accel_x,accel_y,accel_z
264.111124,536.266849,222.061783,9548.656652
264.111432,536.266849,370.102971,9474.636058
264.111740,842.705048,222.061783,9474.636058
264.112049,306.438199,-0.000000,9474.636058
264.112357,153.219100,296.082377,9696.697840
264.112665,612.876398,-0.000000,9770.718434
264.112973,689.485948,148.041188,9474.636058
264.113281,536.266849,148.041188,9474.636058
264.113589,612.876398,370.102971,9474.636058
264.113898,842.705048,222.061783,9474.636058
264.114206,919.314598,296.082377,9696.697840
264.114514,612.876398,-0.000000,9548.656652
264.114822,1072.533697,296.082377,9918.759623
264.115130,689.485948,296.082377,9622.677246
264.115438,766.095498,370.102971,9696.697840
264.115747,766.095498,222.061783,9622.677246
264.116055,612.876398,148.041188,9548.656652
264.116363,689.485948,-0.000000,9474.636058
264.116671,612.876398,148.041188,9474.636058
264.116979,306.438199,296.082377,9622.677246
264.117287,842.705048,-74.020594,9918.759623
264.117596,612.876398,-0.000000,9770.718434
264.117904,383.047749,-0.000000,9548.656652
264.118212,459.657299,222.061783,9474.636058
264.118520,383.047749,222.061783,9474.636058
264.118828,842.705048,222.061783,9696.697840
264.119136,766.095498,666.185348,9696.697840
264.119445,766.095498,-0.000000,9622.677246
264.119753,766.095498,444.123565,9770.718434
264.120061,689.485948,-148.041188,9474.636058
264.120369,536.266849,222.061783,9696.697840
264.120677,536.266849,-0.000000,9548.656652
264.120985,536.266849,-0.000000,9770.718434
264.121294,612.876398,222.061783,9548.656652
264.121602,1378.971896,-0.000000,9622.677246
264.121910,919.314598,-222.061783,9918.759623
264.122218,919.314598,-666.185348,10362.883188
264.122526,229.828649,-592.164754,10140.821405
264.122835,536.266849,-740.205942,9918.759623
264.123143,459.657299,-518.144159,9918.759623
264.123451,842.705048,-370.102971,10214.842000
264.123759,1225.752797,-0.000000,9992.780217
264.124067,1225.752797,148.041188,9400.615463
264.124375,1991.848295,518.144159,9030.512492
264.124684,2298.286494,740.205942,8734.430116
264.124992,2145.067394,518.144159,9104.533087
264.125300,2374.896044,518.144159,9030.512492
264.125608,1915.238745,296.082377,9252.574275
264.125916,1378.971896,370.102971,9474.636058
264.126224,1455.581446,148.041188,9844.739029
264.126533,1455.581446,-74.020594,9918.759623
264.126841,1608.800546,-0.000000,10288.862594
264.127149,2145.067394,-444.123565,9992.780217
264.127457,1915.238745,-444.123565,9844.739029
264.127765,1915.238745,-222.061783,10066.800811
264.128073,2221.676944,-0.000000,9474.636058
264.128382,2298.286494,222.061783,9474.636058
264.128690,2681.334243,370.102971,9474.636058
264.128998,2604.724693,222.061783,9400.615463
264.129306,2834.553343,592.164754,9622.677246
264.129614,3140.991542,740.205942,9400.615463
264.129922,2911.162892,370.102971,9474.636058
264.130231,2681.334243,370.102971,9548.656652
264.130539,2528.115143,222.061783,9992.780217
264.130847,2911.162892,-0.000000,9696.697840
264.131155,2834.553343,-0.000000,9844.739029
264.131463,3140.991542,-148.041188,10214.842000
264.131771,2604.724693,-296.082377,10510.924376
264.132080,2528.115143,-444.123565,10214.842000
264.132388,3140.991542,-296.082377,10214.842000
264.132696,2987.772442,-0.000000,9696.697840
264.133004,3677.258390,222.061783,9696.697840
264.133312,3830.477490,518.144159,9474.636058
264.133620,4136.915689,666.185348,9326.594869
264.133929,4519.963438,740.205942,9030.512492
264.134237,4290.134789,444.123565,8956.491898
264.134545,4673.182538,518.144159,9326.594869
264.134853,3677.258390,370.102971,9548.656652
264.135161,4213.525239,370.102971,9252.574275
264.135469,4213.525239,-0.000000,9548.656652
264.135778,3983.696590,-0.000000,9474.636058
264.136086,4290.134789,296.082377,9474.636058
264.136394,4519.963438,666.185348,9474.636058
264.136702,4673.182538,1110.308913,9252.574275
264.137010,4903.011187,740.205942,8956.491898
264.137318,5056.230287,1110.308913,9326.594869
264.137627,4519.963438,740.205942,8660.409521
264.137935,4826.401637,1406.391290,8808.450710
264.138243,4136.915689,814.226536,9178.553681
264.138551,4519.963438,1036.288319,9178.553681
264.138859,3524.039291,592.164754,9696.697840
264.139167,3753.867940,148.041188,9770.718434
264.139476,3140.991542,666.185348,9326.594869
264.139784,2451.505594,-0.000000,9918.759623
264.140092,2911.162892,222.061783,10362.883188
264.140400,2528.115143,518.144159,9770.718434
264.140708,2604.724693,666.185348,9992.780217
264.141016,2374.896044,1036.288319,9622.677246
264.141325,2374.896044,1184.329507,10066.800811
264.141633,2298.286494,444.123565,9622.677246
264.141941,1991.848295,296.082377,9918.759623
264.142249,1532.190996,-222.061783,10066.800811
264.142557,1685.410096,-592.164754,10881.027347
264.142866,1455.581446,-666.185348,10807.006753
264.143174,1302.362347,-1184.329507,10732.986159
264.143482,1685.410096,-1554.432478,10881.027347
264.143790,1685.410096,-1776.494261,10510.924376
264.144098,2374.896044,-1702.473667,10732.986159
264.144406,3140.991542,-2072.576638,10510.924376
264.144715,3600.648841,-1702.473667,9252.574275
264.145023,3907.087040,-1036.288319,8882.471304
264.145331,4366.744339,-74.020594,9326.594869
264.145639,4903.011187,222.061783,9030.512492
264.145947,4749.792088,740.205942,8142.265362
264.146255,4903.011187,814.226536,8586.388927
264.146564,4903.011187,740.205942,7920.203579
264.146872,5132.839837,444.123565,8660.409521
264.147180,4596.572988,592.164754,8512.368333
264.147488,4366.744339,296.082377,8438.347739
264.147796,3677.258390,-74.020594,9548.656652
264.148104,2987.772442,-148.041188,9696.697840
264.148413,3294.210641,222.061783,10288.862594
264.148721,3447.429741,592.164754,9696.697840
264.149029,3217.601092,962.267725,8882.471304
264.149337,3907.087040,2146.597232,8438.347739
264.149645,4826.401637,2442.679609,9030.512492
264.149953,4060.306139,3108.864956,8142.265362
264.150262,4213.525239,2590.720797,9030.512492
264.150570,3983.696590,1628.453072,9918.759623
264.150878,2298.286494,592.164754,10288.862594
264.151186,1838.629195,-666.185348,11547.212695
264.151494,1608.800546,-3108.864956,13027.624579
264.151802,306.438199,-3701.029710,13397.727550
264.152111,0.000000,-3552.988522,13101.645173
264.152419,1915.238745,-3627.009116,13767.830521
264.152727,2681.334243,-2146.597232,11103.089130
264.153035,4136.915689,-962.267725,9326.594869
264.153343,6588.421283,1110.308913,8956.491898
264.153651,7584.345430,1406.391290,6957.935855
264.153960,7124.688131,3404.947333,5625.565159
264.154268,7967.393179,4293.194464,4959.379811
264.154576,7431.126331,5107.421000,5181.441594
264.154884,6052.154434,5255.462188,5181.441594
264.155192,5132.839837,4811.338623,6069.688724
264.155500,3907.087040,4071.132681,7031.956449
264.155809,2451.505594,2368.659014,8660.409521
264.156117,766.095498,666.185348,9918.759623
264.156425,229.828649,-1184.329507,11917.315666
264.156733,-919.314598,-3256.906145,13175.665768
264.157041,-2145.067394,-4071.132681,13989.892304
264.157349,-1378.971896,-4071.132681,14730.098246
264.157658,-842.705048,-4737.318029,14211.954086
264.157966,76.609550,-3034.844362,13027.624579
264.158274,1685.410096,-2294.638420,11991.336260
264.158582,3907.087040,-1924.535449,10807.006753
264.158890,4136.915689,-0.000000,8438.347739
264.159198,4979.620737,1406.391290,7402.059420
264.159507,5439.278036,2368.659014,6513.812290
264.159815,5056.230287,3108.864956,6143.709319
264.160123,4903.011187,3627.009116,5773.606348
264.160431,4136.915689,3330.926739,5625.565159
264.160739,2911.162892,1776.494261,7179.997637
264.161048,2145.067394,518.144159,8216.285956
264.161356,842.705048,-1702.473667,9992.780217
264.161664,-229.828649,-3256.906145,12139.377449
264.161972,-1838.629195,-4145.153275,12731.542202
264.162280,-1072.533697,-4071.132681,13619.789333
264.162588,-459.657299,-3330.926739,12657.521608
264.162897,1302.362347,-1998.556043,11251.130318
264.163205,3370.820191,-740.205942,9992.780217
264.163513,4519.963438,1924.535449,7105.977043
264.163821,5745.716235,3997.112087,5625.565159
264.164129,5515.887586,5329.482782,5181.441594
264.164437,5592.497135,5699.585753,5033.400406
264.164746,4979.620737,5329.482782,5181.441594
264.165054,3830.477490,3478.967927,7328.038826
264.165362,1455.581446,888.247130,9474.636058
264.165670,-1991.848295,-814.226536,10807.006753
264.165978,-2834.553343,-2886.803174,14211.954086
264.166286,-4443.353888,-5847.626942,16506.592507
264.166595,-5286.058936,-5551.544565,16358.551318
264.166903,-3294.210641,-4811.338623,15692.365970
264.167211,-1302.362347,-3627.009116,14211.954086
264.167519,1072.533697,-1776.494261,10955.047942
264.167827,3140.991542,2146.597232,7846.182985
264.168135,5286.058936,3775.050304,6365.771101
264.168444,6741.640382,5477.523971,5033.400406
264.168752,6052.154434,7179.997637,3627.009116
264.169060,6281.983084,7031.956449,3256.906145
264.169368,4826.401637,4515.256246,5773.606348
264.169676,1302.362347,1036.288319,8290.306550
264.169984,-1302.362347,-2146.597232,11695.253884
264.170293,-4443.353888,-5625.565159,14508.036463
264.170601,-5975.544884,-7105.977043,16654.633695
264.170909,-5439.278036,-7105.977043,16506.592507
264.171217,-3064.381992,-5477.523971,14656.077652
264.171525,306.438199,-2516.700203,11399.171507
264.171833,3677.258390,1036.288319,8290.306550
264.172142,5592.497135,4885.359217,4811.338623
264.172450,7354.516781,7476.080014,2738.761985
264.172758,8273.831378,8956.491898,2886.803174
264.173066,6894.859482,8586.388927,3034.844362
264.173374,4903.011187,6957.935855,4071.132681
264.173682,2451.505594,3034.844362,7698.141797
264.173991,-1149.143247,-1406.391290,12509.480420
264.174299,-5592.497135,-6143.709319,15322.262999
264.174607,-7737.564530,-8808.450710,18357.107362
264.174915,-8427.050478,-10510.924376,19393.395680
264.175223,-6588.421283,-9178.553681,18061.024985
264.175531,-2987.772442,-5625.565159,14804.118840
264.175840,536.266849,-2738.761985,10881.027347
264.176148,2834.553343,1258.350101,6809.894666
264.176456,5745.716235,5551.544565,3478.967927
264.176764,8503.660028,8068.244768,3627.009116
264.177072,8580.269578,9030.512492,2368.659014
264.177380,7354.516781,9400.615463,1628.453072
264.177689,5975.544884,6513.812290,3256.906145
264.177997,2834.553343,2220.617826,7698.141797
264.178305,-842.705048,-2516.700203,12213.398043
264.178613,-4903.011187,-5847.626942,15174.221811
264.178921,-6588.421283,-7105.977043,15470.304188
264.179229,-5975.544884,-7328.038826,15544.324782
264.179538,-2757.943793,-4589.276840,14508.036463
264.179846,612.876398,-666.185348,10436.903782
264.180154,3370.820191,814.226536,7179.997637
264.180462,5975.544884,4589.276840,5107.421000
264.180770,5745.716235,7179.997637,4071.132681
264.181079,5975.544884,7550.100608,4885.359217
264.181387,4290.134789,6291.750507,5107.421000
264.181695,2145.067394,4071.132681,7476.080014
264.182003,-995.924147,-0.000000,10436.903782
264.182311,-3983.696590,-3256.906145,14137.933492
264.182619,-5822.325785,-5625.565159,17024.736666
264.182928,-7737.564530,-8512.368333,17542.880825
264.183236,-7584.345430,-8956.491898,17764.942608
264.183544,-5592.497135,-6587.832884,15100.201217
264.183852,-1378.971896,-2294.638420,10732.986159
264.184160,2374.896044,666.185348,6587.832884
264.184468,5056.230287,4293.194464,3701.029710
264.184777,7277.907231,6735.874072,2664.741391
264.185085,7507.735880,7105.977043,2442.679609
264.185393,7431.126331,7550.100608,2442.679609
264.185701,5439.278036,5329.482782,4441.235652
264.186009,2987.772442,1702.473667,8586.388927
264.186317,-689.485948,-2072.576638,10881.027347
264.186626,-3524.039291,-3701.029710,13027.624579
264.186934,-4903.011187,-5329.482782,14804.118840
264.187242,-5209.449386,-6069.688724,15766.386565
264.187550,-2604.724693,-4293.194464,15100.201217
264.187858,-229.828649,-1184.329507,11325.150913
264.188166,1532.190996,370.102971,8290.306550
264.188475,3524.039291,2442.679609,6661.853478
264.188783,3830.477490,4515.256246,6365.771101
264.189091,3524.039291,4367.215058,6883.915261
264.189399,2681.334243,4219.173869,7254.018232
264.189707,919.314598,2886.803174,8586.388927
264.190015,-612.876398,-148.041188,11695.253884
264.190324,-2374.896044,-3182.885551,14137.933492
264.190632,-4136.915689,-3997.112087,14952.160028
264.190940,-4749.792088,-4811.338623,15322.262999
264.191248,-4060.306139,-5181.441594,14730.098246
264.191556,-2221.676944,-2590.720797,11991.336260
264.191864,1302.362347,814.226536,9030.512492
264.192172,4213.525239,3256.906145,5255.462188
264.192480,5515.887586,5033.400406,4071.132681
264.192788,7124.688131,5255.462188,3627.009116
264.193096,6205.373534,5329.482782,4145.153275
264.193404,5362.668486,4071.132681,5625.565159
264.193712,3370.820191,2368.659014,7624.121203
264.194019,919.314598,-518.144159,10066.800811
264.194327,-1302.362347,-2368.659014,11843.295072
264.194635,-2604.724693,-3034.844362,13027.624579
264.194943,-2911.162892,-3627.009116,14137.933492
264.195251,-1991.848295,-2960.823768,13915.871710
264.195559,-995.924147,-1258.350101,11325.150913
264.195867,1225.752797,148.041188,10362.883188
264.196175,2681.334243,1332.370696,7698.141797
264.196483,1608.800546,3034.844362,6735.874072
264.196791,2911.162892,2294.638420,7920.203579
264.197099,1915.238745,2664.741391,8068.244768
264.197407,229.828649,518.144159,10436.903782
264.197715,-842.705048,-1036.288319,11621.233289
264.198023,-2451.505594,-2664.741391,12805.562797
264.198331,-2757.943793,-3775.050304,14137.933492
264.198639,-3677.258390,-3552.988522,12805.562797
264.198947,-2221.676944,-2442.679609,12731.542202
264.199255,-689.485948,-888.247130,10362.883188
264.199563,1991.848295,1850.514855,7550.100608
264.199871,3907.087040,3775.050304,4959.379811
264.200179,5975.544884,3775.050304,4071.132681
264.200487,6281.983084,4663.297435,3849.070898
264.200795,4903.011187,3701.029710,4811.338623
264.201103,3600.648841,1628.453072,7105.977043
264.201411,612.876398,-222.061783,9474.636058
264.201719,-612.876398,-1702.473667,11547.212695
264.202027,-1378.971896,-2664.741391,12361.439231
264.202335,-2528.115143,-2220.617826,12139.377449
264.202643,-1532.190996,-2368.659014,12583.501014
264.202951,-612.876398,-962.267725,11473.192101
264.203259,612.876398,148.041188,11029.068536
264.203567,1608.800546,1406.391290,8956.491898
264.203875,2451.505594,2664.741391,6735.874072
264.204183,2451.505594,2368.659014,7328.038826
264.204491,2068.457845,1554.432478,8734.430116
264.204799,995.924147,1258.350101,9400.615463
264.205107,229.828649,-444.123565,11769.274478
264.205415,-2451.505594,-2590.720797,12287.418637
264.205723,-3140.991542,-3701.029710,13323.706956
264.206031,-3524.039291,-3701.029710,13397.727550
264.206339,-2987.772442,-2738.761985,12213.398043
264.206647,-1455.581446,-1184.329507,10732.986159
264.206955,1225.752797,1258.350101,9326.594869
264.207262,3830.477490,3034.844362,7105.977043
264.207570,4826.401637,4737.318029,4959.379811
264.207878,5286.058936,4959.379811,3478.967927
264.208186,4903.011187,4663.297435,3923.091493
264.208494,3983.696590,3034.844362,6069.688724
264.208802,1915.238745,962.267725,8956.491898
264.209110,-459.657299,-1258.350101,10955.047942
264.209418,-2451.505594,-3108.864956,12213.398043
264.209726,-3294.210641,-4293.194464,13471.748144
264.210034,-2757.943793,-3775.050304,13693.809927
264.210342,-2451.505594,-2738.761985,12879.583391
264.210650,-383.047749,-1332.370696,11843.295072
264.210958,1149.143247,1110.308913,9622.677246
264.211266,2451.505594,2590.720797,7624.121203
264.211574,3370.820191,3478.967927,6217.729913
264.211882,3753.867940,3478.967927,6365.771101
264.212190,3294.210641,2960.823768,7328.038826
264.212498,1608.800546,1184.329507,9104.533087
264.212806,-459.657299,-1184.329507,11251.130318
264.213114,-2528.115143,-2886.803174,13101.645173
264.213422,-3447.429741,-4367.215058,14359.995275
264.213730,-4060.306139,-4441.235652,13989.892304
264.214038,-3447.429741,-3404.947333,13175.665768
264.214346,-1378.971896,-1332.370696,11177.109724
264.214654,1455.581446,1406.391290,9326.594869
264.214962,3677.258390,3034.844362,6661.853478
264.215270,5362.668486,5033.400406,4071.132681
264.215578,5669.106685,5551.544565,3775.050304
264.215886,5132.839837,5255.462188,4293.194464
264.216194,3907.087040,4515.256246,5477.523971
264.216502,2145.067394,1406.391290,8956.491898
264.216810,-306.438199,-1258.350101,11399.171507
264.217118,-2451.505594,-3627.009116,12879.583391
264.217426,-4060.306139,-4737.318029,14285.974681
264.217734,-4136.915689,-4811.338623,14508.036463
264.218042,-3294.210641,-3701.029710,13915.871710
264.218350,-1455.581446,-1924.535449,12213.398043
264.218658,1072.533697,518.144159,9918.759623
264.218966,2834.553343,2368.659014,7402.059420
264.219274,4673.182538,3627.009116,5551.544565
264.219582,5056.230287,3849.070898,4885.359217
264.219890,4366.744339,4071.132681,6143.709319
264.220197,3370.820191,1924.535449,7846.182985
264.220505,995.924147,444.123565,9992.780217
264.220813,-1225.752797,-1924.535449,12657.521608
264.221121,-3140.991542,-3997.112087,13545.768739
264.221429,-4290.134789,-4811.338623,13841.851115
264.221737,-3677.258390,-4367.215058,13693.809927
264.222045,-1762.019645,-2590.720797,12287.418637
264.222353,459.657299,-0.000000,9770.718434
264.222661,2528.115143,2220.617826,7476.080014
264.222969,4673.182538,3923.091493,5477.523971
264.223277,5439.278036,4959.379811,4219.173869
264.223585,5669.106685,4959.379811,3997.112087
264.223893,4903.011187,4737.318029,5033.400406
264.224201,2834.553343,2442.679609,7402.059420
264.224509,995.924147,-370.102971,10658.965565
264.224817,-1915.238745,-2294.638420,12287.418637
264.225125,-3600.648841,-4293.194464,13693.809927
264.225433,-4443.353888,-4811.338623,14730.098246
264.225741,-3447.429741,-3404.947333,13767.830521
264.226049,-2145.067394,-2146.597232,12879.583391
264.226357,306.438199,-0.000000,10066.800811
264.226665,2528.115143,2146.597232,8512.368333
264.226973,4213.525239,3256.906145,6439.791695
264.227281,4060.306139,3849.070898,5699.585753
264.227589,4519.963438,3775.050304,6143.709319
264.227897,3294.210641,3108.864956,7402.059420
264.228205,1225.752797,740.205942,9548.656652
264.228513,-689.485948,-1258.350101,11843.295072
264.228821,-2528.115143,-3775.050304,13249.686362
264.229129,-3677.258390,-4959.379811,14285.974681
264.229437,-3524.039291,-4737.318029,13915.871710
264.229745,-3140.991542,-2738.761985,12435.459826
264.230053,-995.924147,-518.144159,10288.862594
264.230361,2298.286494,2146.597232,7846.182985
264.230669,4060.306139,3701.029710,5181.441594
264.230977,5132.839837,4589.276840,3997.112087
264.231285,5209.449386,4589.276840,4219.173869
264.231593,4749.792088,3923.091493,5255.462188
264.231901,3217.601092,2368.659014,7402.059420
264.232209,766.095498,-222.061783,10140.821405
264.232517,-1072.533697,-2294.638420,12361.439231
264.232825,-2987.772442,-3775.050304,13397.727550
264.233133,-3830.477490,-4293.194464,13915.871710
264.233440,-3370.820191,-3330.926739,13693.809927
264.233748,-1685.410096,-1998.556043,12657.521608
264.234056,383.047749,-222.061783,11029.068536
264.234364,1455.581446,2146.597232,8808.450710
264.234672,3600.648841,3627.009116,6661.853478
264.234980,4366.744339,4367.215058,5921.647536
264.235288,4060.306139,3701.029710,6587.832884
264.235596,3140.991542,2886.803174,7476.080014
264.235904,1149.143247,814.226536,9178.553681
264.236212,-919.314598,-1332.370696,11991.336260
264.236520,-3217.601092,-3923.091493,13989.892304
264.236828,-4060.306139,-4663.297435,14137.933492
264.237136,-4213.525239,-3997.112087,13619.789333
264.237444,-2451.505594,-2590.720797,12583.501014
264.237752,-383.047749,-74.020594,10510.924376
264.238060,2221.676944,2146.597232,7994.224174
264.238368,4213.525239,3849.070898,5625.565159
264.238676,4903.011187,4293.194464,4219.173869
264.238984,5132.839837,4145.153275,4589.276840
264.239292,4136.915689,3404.947333,6143.709319
264.239600,2451.505594,1850.514855,7031.956449
264.239908,1302.362347,-518.144159,9844.739029
264.240216,-1072.533697,-2220.617826,11769.274478
264.240524,-2451.505594,-3552.988522,12953.603985
264.240832,-2757.943793,-4293.194464,13841.851115
264.241140,-2221.676944,-3108.864956,13471.748144
264.241448,-1455.581446,-1850.514855,12065.356855
264.241756,459.657299,592.164754,10881.027347
264.242064,2145.067394,2072.576638,7994.224174
264.242372,4290.134789,3849.070898,5403.503377
264.242680,4826.401637,4071.132681,5551.544565
264.242988,4443.353888,3404.947333,6513.812290
264.243296,2681.334243,2072.576638,7846.182985
264.243604,689.485948,-148.041188,10362.883188
264.243912,-1762.019645,-2146.597232,12361.439231
264.244220,-3524.039291,-3997.112087,14582.057057
264.244528,-4979.620737,-4885.359217,14582.057057
264.244836,-4213.525239,-3775.050304,13693.809927
264.245144,-2451.505594,-2072.576638,12583.501014
264.245452,-153.219100,518.144159,9992.780217
264.245760,2757.943793,3108.864956,7105.977043
264.246068,4366.744339,4145.153275,5625.565159
264.246376,5515.887586,4737.318029,4293.194464
264.246683,5209.449386,5033.400406,3775.050304
264.246991,4749.792088,4219.173869,5847.626942
264.247299,2987.772442,2072.576638,7254.018232
264.247607,459.657299,-296.082377,9918.759623
264.247915,-1532.190996,-2220.617826,12583.501014
264.248223,-3294.210641,-4071.132681,13175.665768
264.248531,-3447.429741,-4219.173869,13915.871710
264.248839,-2528.115143,-3478.967927,13767.830521
264.249147,-1149.143247,-1258.350101,12213.398043
264.249455,995.924147,518.144159,9844.739029
264.249763,2604.724693,2590.720797,8216.285956
264.250071,4136.915689,4145.153275,6069.688724
264.250379,4290.134789,3997.112087,5477.523971
264.250687,3830.477490,3552.988522,6661.853478
264.250995,2451.505594,1776.494261,8438.347739
264.251303,842.705048,-962.267725,10732.986159
264.251611,-2221.676944,-2738.761985,13767.830521
264.251919,-4749.792088,-4959.379811,14211.954086
264.252227,-5592.497135,-4885.359217,15100.201217
264.252535,-4519.963438,-3923.091493,14359.995275
264.252843,-2451.505594,-2294.638420,12361.439231
264.253151,229.828649,814.226536,9918.759623
264.253459,2681.334243,2516.700203,7031.956449
264.253767,4443.353888,4441.235652,4515.256246
264.254075,5822.325785,5181.441594,4071.132681
264.254383,5362.668486,5255.462188,4145.153275
264.254691,4366.744339,3849.070898,5773.606348
264.254999,2528.115143,2072.576638,7624.121203
264.255307,383.047749,-592.164754,10362.883188
264.255615,-2221.676944,-2812.782580,12287.418637
264.255923,-3294.210641,-4589.276840,13397.727550
264.256231,-3064.381992,-4663.297435,13915.871710
264.256539,-3064.381992,-3627.009116,13323.706956
264.256847,-1149.143247,-1628.453072,11843.295072
264.257155,1455.581446,1110.308913,9770.718434
264.257463,3140.991542,2664.741391,7105.977043
264.257771,4290.134789,4367.215058,4737.318029
264.258079,5056.230287,4367.215058,5255.462188
264.258387,4290.134789,3552.988522,6291.750507
264.258695,3064.381992,1110.308913,8586.388927
264.259003,0.000000,-1258.350101,10658.965565
264.259311,-2757.943793,-3330.926739,13619.789333
264.259618,-4596.572988,-5329.482782,14878.139434
264.259926,-5056.230287,-5329.482782,14804.118840
264.260234,-3753.867940,-3997.112087,13619.789333
264.260542,-1915.238745,-1998.556043,11843.295072
264.260850,1685.410096,1110.308913,8882.471304
264.261158,4749.792088,3108.864956,6439.791695
264.261466,5592.497135,4737.318029,3775.050304
264.261774,6435.202183,5477.523971,3108.864956
264.262082,5975.544884,5107.421000,3775.050304
264.262390,4903.011187,4071.132681,4959.379811
264.262698,2451.505594,1628.453072,7328.038826
264.263006,76.609550,-962.267725,11177.109724
264.263314,-2528.115143,-3256.906145,13175.665768
264.263622,-3907.087040,-4589.276840,13915.871710
264.263930,-4673.182538,-4811.338623,15100.201217
264.264238,-3217.601092,-4071.132681,14063.912898
264.264546,-1532.190996,-1554.432478,12139.377449
264.264854,842.705048,962.267725,9696.697840
264.265162,2528.115143,2812.782580,7772.162391
264.265470,4366.744339,4145.153275,5995.668130
264.265778,4903.011187,4737.318029,5551.544565
264.266086,3983.696590,4071.132681,6513.812290
264.266394,2451.505594,1924.535449,7994.224174
264.266702,76.609550,-740.205942,10658.965565
264.267010,-2298.286494,-3108.864956,13249.686362
264.267318,-4213.525239,-4811.338623,14434.015869
264.267626,-4979.620737,-5329.482782,14804.118840
264.267934,-3677.258390,-4145.153275,13619.789333
264.268242,-1532.190996,-1776.494261,12139.377449
264.268550,1378.971896,1184.329507,9326.594869
264.268858,3370.820191,2812.782580,6883.915261
264.269166,5286.058936,4367.215058,4071.132681
264.269474,5975.544884,5551.544565,3182.885551
264.269782,5592.497135,5477.523971,4293.194464
264.270090,4749.792088,4515.256246,5403.503377
264.270398,2451.505594,2294.638420,7328.038826
264.270706,0.000000,-666.185348,11325.150913
264.271014,-2068.457845,-2886.803174,13101.645173
264.271322,-3447.429741,-4515.256246,14582.057057
264.271630,-4519.963438,-5181.441594,14952.160028
264.271938,-3753.867940,-3701.029710,14063.912898
264.272246,-2451.505594,-1850.514855,12509.480420
264.272554,536.266849,444.123565,10881.027347
264.272861,2451.505594,2590.720797,7994.224174
264.273169,4290.134789,4367.215058,5551.544565
264.273477,5132.839837,4145.153275,4959.379811
264.273785,4136.915689,3775.050304,6143.709319
264.274093,2757.943793,1924.535449,8364.327145
264.274401,612.876398,-74.020594,10510.924376
264.274709,-1762.019645,-2886.803174,12509.480420
264.275017,-3600.648841,-4589.276840,13767.830521
264.275325,-4290.134789,-4737.318029,14359.995275
264.275633,-3370.820191,-4219.173869,13693.809927
264.275941,-1608.800546,-1702.473667,11843.295072
264.276249,1532.190996,740.205942,8586.388927
264.276557,3370.820191,2960.823768,6143.709319
264.276865,5286.058936,4663.297435,4145.153275
264.277173,6052.154434,5551.544565,3330.926739
264.277481,6205.373534,5255.462188,3775.050304
264.277789,5286.058936,4293.194464,4885.359217
264.278097,2528.115143,2220.617826,7476.080014
264.278405,76.609550,-1332.370696,11029.068536
264.278713,-2604.724693,-2960.823768,13175.665768
264.279021,-4366.744339,-4959.379811,14508.036463
264.279329,-4903.011187,-5255.462188,15100.201217
264.279637,-4213.525239,-4145.153275,14211.954086
264.279945,-2145.067394,-2072.576638,12583.501014
264.280253,1455.581446,814.226536,10066.800811
264.280561,2528.115143,3034.844362,7476.080014
264.280869,4826.401637,4071.132681,5403.503377
264.281177,5209.449386,4441.235652,4811.338623
264.281485,4366.744339,3923.091493,5699.585753
264.281793,3140.991542,2072.576638,7920.203579
264.282101,306.438199,-222.061783,10362.883188
264.282409,-1838.629195,-2738.761985,13175.665768
264.282717,-2834.553343,-4737.318029,14582.057057
264.283025,-4060.306139,-4811.338623,14063.912898
264.283333,-3447.429741,-4071.132681,13619.789333
264.283641,-1378.971896,-1998.556043,11843.295072
264.283949,842.705048,888.247130,9548.656652
264.284256,3370.820191,2516.700203,6809.894666
264.284564,4596.572988,4663.297435,4589.276840
264.284872,5515.887586,4885.359217,3627.009116
264.285180,5362.668486,4885.359217,4367.215058
264.285488,3983.696590,4071.132681,5773.606348
264.285796,2681.334243,1554.432478,7994.224174
264.286104,0.000000,-666.185348,11473.192101
264.286412,-2834.553343,-3182.885551,13101.645173
264.286720,-4443.353888,-4885.359217,14434.015869
264.287028,-4903.011187,-4811.338623,14730.098246
264.287336,-3830.477490,-3701.029710,14137.933492
264.287644,-919.314598,-1258.350101,12509.480420
264.287952,306.438199,888.247130,9844.739029
264.288260,2911.162892,2960.823768,7328.038826
264.288568,4826.401637,3923.091493,4663.297435
264.288876,4903.011187,4589.276840,4737.318029
264.289183,4673.182538,3627.009116,6587.832884
264.289491,2834.553343,2294.638420,8068.244768
264.289799,459.657299,-74.020594,10732.986159
264.290107,-2068.457845,-3108.864956,13101.645173
264.290415,-3677.258390,-4589.276840,14137.933492
264.290723,-4596.572988,-4737.318029,14211.954086
264.291031,-2987.772442,-3997.112087,14211.954086
264.291339,-1608.800546,-1628.453072,11991.336260
264.291647,1149.143247,740.205942,9844.739029
264.291955,3294.210641,3034.844362,6587.832884
264.292263,5056.230287,4515.256246,4145.153275
264.292571,6358.592633,5107.421000,4145.153275
264.292879,5209.449386,4885.359217,4441.235652
264.293187,4826.401637,4145.153275,5625.565159
264.293495,2528.115143,1554.432478,8142.265362
264.293803,-459.657299,-1036.288319,11251.130318
264.294110,-2834.553343,-3478.967927,12953.603985
264.294418,-4443.353888,-4737.318029,14211.954086
264.294726,-4673.182538,-5255.462188,14656.077652
264.295034,-3217.601092,-3997.112087,14211.954086
264.295342,-306.438199,-1924.535449,12583.501014
264.295650,1302.362347,518.144159,9326.594869
264.295958,3447.429741,2664.741391,6513.812290
264.296266,4903.011187,4219.173869,4885.359217
264.296574,5362.668486,4515.256246,4885.359217
264.296882,4596.572988,4071.132681,5921.647536
264.297190,2374.896044,1998.556043,7402.059420
264.297498,0.000000,-666.185348,10214.842000
264.297806,-2528.115143,-2886.803174,13175.665768
264.298114,-4060.306139,-4367.215058,13619.789333
264.298422,-4290.134789,-4737.318029,14804.118840
264.298730,-2911.162892,-4145.153275,13915.871710
264.299038,-1378.971896,-1776.494261,11473.192101
264.299345,1455.581446,444.123565,9400.615463
264.299653,3370.820191,2812.782580,6291.750507
264.299961,5209.449386,4737.318029,4219.173869
264.300269,5898.935335,4959.379811,4515.256246
264.300577,5362.668486,5625.565159,4515.256246
264.300885,3907.087040,4219.173869,5625.565159
264.301193,1608.800546,1850.514855,8142.265362
264.301501,-842.705048,-888.247130,10881.027347
264.301809,-2911.162892,-3256.906145,12731.542202
264.302117,-4366.744339,-4589.276840,14730.098246
264.302425,-4443.353888,-5255.462188,15248.242405
264.302733,-2987.772442,-3182.885551,13767.830521
264.303041,76.609550,-1184.329507,11769.274478
264.303349,1455.581446,1554.432478,8882.471304
264.303657,3524.039291,3182.885551,6365.771101
264.303965,4749.792088,4441.235652,5699.585753
264.304272,4749.792088,4811.338623,5477.523971
264.304580,4060.306139,3552.988522,6661.853478
264.304888,1838.629195,1110.308913,8808.450710
264.305196,-766.095498,-1258.350101,11547.212695
264.305504,-3140.991542,-3997.112087,13323.706956
264.305812,-4213.525239,-5107.421000,14656.077652
264.306120,-4443.353888,-4811.338623,14508.036463
264.306428,-3524.039291,-3627.009116,13471.748144
264.306736,-689.485948,-1850.514855,12139.377449
264.307044,1149.143247,1258.350101,8290.306550
264.307352,3983.696590,3182.885551,6217.729913
264.307660,4903.011187,3923.091493,4293.194464
264.307968,5898.935335,5255.462188,4219.173869
264.308276,5439.278036,4959.379811,4959.379811
264.308584,3907.087040,4145.153275,5403.503377
264.308892,1915.238745,1702.473667,8512.368333
264.309199,-306.438199,-962.267725,11251.130318
264.309507,-2374.896044,-2812.782580,13693.809927
264.309815,-3830.477490,-4071.132681,14211.954086
264.310123,-3677.258390,-4367.215058,13693.809927
264.310431,-2451.505594,-2294.638420,13175.665768
264.310739,-919.314598,-370.102971,11325.150913
264.311047,2068.457845,1776.494261,9474.636058
264.311355,3294.210641,3775.050304,6513.812290
264.311663,4596.572988,4145.153275,5477.523971
264.311971,4136.915689,3404.947333,6069.688724
264.312279,2757.943793,2960.823768,7179.997637
264.312587,1685.410096,296.082377,9548.656652
264.312895,-1072.533697,-2072.576638,11695.253884
264.313203,-3064.381992,-3775.050304,14211.954086
264.313511,-4443.353888,-4811.338623,14434.015869
264.313819,-4519.963438,-4663.297435,14508.036463
264.314126,-3370.820191,-3108.864956,13249.686362
264.314434,0.000000,-1184.329507,11399.171507
264.314742,1991.848295,1702.473667,8142.265362
264.315050,4596.572988,2812.782580,5847.626942
264.315358,5822.325785,4219.173869,3849.070898
264.315666,5975.544884,5107.421000,3034.844362
264.315974,5975.544884,5033.400406,4367.215058
264.316282,4519.963438,3849.070898,5403.503377
264.316590,2528.115143,1554.432478,7624.121203
264.316898,0.000000,-1628.453072,10732.986159
264.317206,-2374.896044,-3478.967927,12657.521608
264.317514,-3907.087040,-4663.297435,13693.809927
264.317822,-4136.915689,-4589.276840,14137.933492
264.318130,-2374.896044,-2738.761985,13323.706956
264.318438,0.000000,-148.041188,11251.130318
264.318746,1685.410096,1554.432478,8808.450710
264.319054,3677.258390,3478.967927,6365.771101
264.319361,4060.306139,3849.070898,5551.544565
264.319669,3907.087040,3997.112087,6365.771101
264.319977,3524.039291,2886.803174,7328.038826
264.320285,995.924147,1036.288319,9400.615463
264.320593,-1838.629195,-1850.514855,11843.295072
264.320901,-3524.039291,-4071.132681,13841.851115
264.321209,-5132.839837,-4959.379811,14730.098246
264.321517,-5209.449386,-5181.441594,15026.180623
264.321825,-3370.820191,-4145.153275,14063.912898
264.322133,0.000000,-1850.514855,11399.171507
264.322441,1991.848295,1110.308913,8216.285956
264.322749,4366.744339,2590.720797,5921.647536
264.323057,5669.106685,5033.400406,3552.988522
264.323365,6205.373534,5255.462188,3404.947333
264.323673,6128.763984,5403.503377,3849.070898
264.323981,4443.353888,4145.153275,5181.441594
264.324288,2145.067394,1036.288319,8216.285956
264.324596,-842.705048,-962.267725,10807.006753
264.324904,-2604.724693,-4071.132681,13175.665768
264.325212,-4213.525239,-4589.276840,14211.954086
264.325520,-3983.696590,-4589.276840,14063.912898
264.325828,-2911.162892,-2368.659014,12953.603985
264.326136,-229.828649,-518.144159,11769.274478
264.326444,2068.457845,1554.432478,9400.615463
264.326752,3064.381992,3108.864956,6513.812290
264.327060,4443.353888,3330.926739,6217.729913
264.327368,3907.087040,3627.009116,6809.894666
264.327676,3753.867940,2368.659014,7698.141797
264.327984,689.485948,1110.308913,9252.574275
264.328292,-1455.581446,-1036.288319,12139.377449
264.328600,-3140.991542,-3256.906145,13989.892304
264.328908,-4443.353888,-4663.297435,14878.139434
264.329215,-4366.744339,-4737.318029,14656.077652
264.329523,-2911.162892,-3330.926739,13471.748144
264.329831,-153.219100,-1110.308913,11695.253884
264.330139,2145.067394,1332.370696,8734.430116
264.330447,3983.696590,3330.926739,5699.585753
264.330755,5822.325785,4663.297435,4071.132681
264.331063,6358.592633,5181.441594,3627.009116
264.331371,5898.935335,5699.585753,4367.215058
264.331679,4519.963438,4293.194464,5403.503377
264.331987,2757.943793,1776.494261,7920.203579
264.332295,-612.876398,-1110.308913,10955.047942
264.332603,-3064.381992,-3330.926739,12731.542202
264.332911,-4136.915689,-4367.215058,14359.995275
264.333219,-4060.306139,-3849.070898,14211.954086
264.333527,-2451.505594,-2442.679609,13027.624579
264.333835,-766.095498,-518.144159,11621.233289
264.334142,1838.629195,1036.288319,9548.656652
264.334450,3447.429741,2368.659014,7105.977043
264.334758,3907.087040,3849.070898,5625.565159
264.335066,3907.087040,3404.947333,6069.688724
264.335374,2911.162892,2664.741391,7179.997637
264.335682,1072.533697,962.267725,9178.553681
264.335990,-536.266849,-1258.350101,11251.130318
264.336298,-3064.381992,-3108.864956,12805.562797
264.336606,-3753.867940,-4737.318029,14359.995275
264.336914,-3677.258390,-5255.462188,14582.057057
264.337222,-2757.943793,-3552.988522,13397.727550
264.337530,-842.705048,-1998.556043,11325.150913
264.337838,2298.286494,888.247130,8808.450710
264.338146,3983.696590,3034.844362,5033.400406
264.338454,5592.497135,4737.318029,3775.050304
264.338762,6511.811733,5033.400406,3552.988522
264.339070,6052.154434,4663.297435,3701.029710
264.339377,4290.134789,4145.153275,5477.523971
264.339685,2374.896044,1406.391290,7920.203579
264.339993,-612.876398,-1702.473667,10955.047942
264.340301,-2681.334243,-3182.885551,12805.562797
264.340609,-3600.648841,-4663.297435,14137.933492
264.340917,-4213.525239,-3923.091493,13767.830521
264.341225,-2757.943793,-2960.823768,13545.768739
264.341533,-689.485948,-740.205942,11621.233289
264.341841,1608.800546,1628.453072,9474.636058
264.342149,3140.991542,2442.679609,7328.038826
264.342457,3753.867940,3404.947333,6217.729913
264.342765,3217.601092,3108.864956,6217.729913
264.343073,2528.115143,2442.679609,7698.141797
264.343381,689.485948,888.247130,9400.615463
264.343689,-1455.581446,-1332.370696,11399.171507
264.343997,-3217.601092,-3182.885551,13841.851115
264.344304,-3907.087040,-4959.379811,14359.995275
264.344612,-4213.525239,-4441.235652,14582.057057
264.344920,-3064.381992,-3182.885551,14137.933492
264.345228,-383.047749,-814.226536,11251.130318
264.345536,2298.286494,1702.473667,8068.244768
264.345844,4519.963438,3849.070898,5551.544565
264.346152,5745.716235,4885.359217,3997.112087
264.346460,6128.763984,5699.585753,3923.091493
264.346768,5745.716235,4885.359217,4737.318029
264.347076,4443.353888,3997.112087,5033.400406
264.347384,2145.067394,1480.411884,8290.306550
264.347692,-306.438199,-1406.391290,11473.192101
264.348000,-2834.553343,-2738.761985,13175.665768
264.348308,-3983.696590,-4071.132681,14285.974681
264.348616,-3370.820191,-3627.009116,14211.954086
264.348924,-1685.410096,-1924.535449,12435.459826
264.349231,842.705048,-444.123565,10955.047942
264.349539,2834.553343,1554.432478,9178.553681
264.349847,3370.820191,3108.864956,6809.894666
264.350155,3907.087040,3478.967927,6291.750507
264.350463,3907.087040,3108.864956,6661.853478
264.350771,2145.067394,2368.659014,7994.224174
264.351079,0.000000,370.102971,9770.718434
264.351387,-2145.067394,-1850.514855,11917.315666
264.351695,-3830.477490,-4515.256246,14211.954086
264.352003,-4519.963438,-4959.379811,15544.324782
264.352311,-4290.134789,-5033.400406,14285.974681
264.352619,-3140.991542,-3256.906145,13471.748144
264.352927,-536.266849,-1110.308913,10955.047942
264.353235,2528.115143,1628.453072,7624.121203
264.353543,4673.182538,4071.132681,4811.338623
264.353851,5822.325785,5107.421000,3404.947333
264.354159,6588.421283,6069.688724,3404.947333
264.354466,5745.716235,5107.421000,3849.070898
264.354774,3907.087040,3701.029710,5699.585753
264.355082,1685.410096,1258.350101,8290.306550
264.355390,-919.314598,-1702.473667,11251.130318
264.355698,-3064.381992,-3552.988522,13027.624579
264.356006,-3753.867940,-4293.194464,13915.871710
264.356314,-3217.601092,-4219.173869,14137.933492
264.356622,-1532.190996,-2368.659014,12583.501014
264.356930,383.047749,-0.000000,10510.924376
264.357238,2221.676944,1924.535449,8216.285956
264.357546,3370.820191,2960.823768,6661.853478
264.357854,3753.867940,3701.029710,5699.585753
264.358162,3370.820191,3701.029710,6217.729913
264.358470,1915.238745,2146.597232,7624.121203
264.358778,536.266849,222.061783,10140.821405
264.359086,-2221.676944,-2590.720797,12213.398043
264.359393,-3600.648841,-4589.276840,14434.015869
264.359701,-5286.058936,-5477.523971,14952.160028
264.360009,-4979.620737,-5477.523971,15248.242405
264.360317,-3600.648841,-4071.132681,13767.830521
264.360625,-995.924147,-1332.370696,11473.192101
264.360933,2221.676944,1554.432478,8364.327145
264.361241,3983.696590,3404.947333,4811.338623
264.361549,6128.763984,5255.462188,3775.050304
264.361857,6894.859482,5699.585753,3775.050304
264.362165,5669.106685,5255.462188,3849.070898
264.362473,4443.353888,3923.091493,5625.565159
264.362781,2451.505594,1628.453072,8290.306550
264.363089,-689.485948,-1184.329507,10955.047942
264.363397,-2911.162892,-3775.050304,12953.603985
264.363705,-3677.258390,-4515.256246,13989.892304
264.364013,-3983.696590,-3627.009116,13989.892304
264.364320,-2757.943793,-1850.514855,13323.706956
264.364628,0.000000,-296.082377,11769.274478
264.364936,1915.238745,2072.576638,8734.430116
264.365244,3447.429741,2960.823768,6809.894666
264.365552,3830.477490,3627.009116,6365.771101
264.365860,4136.915689,3701.029710,6735.874072
264.366168,2757.943793,2812.782580,7402.059420
264.366476,1225.752797,962.267725,9918.759623
264.366784,-1302.362347,-1924.535449,12361.439231
264.367092,-3753.867940,-3552.988522,14063.912898
264.367400,-4596.572988,-5033.400406,15692.365970
264.367708,-4903.011187,-5107.421000,15322.262999
264.368016,-3677.258390,-3478.967927,13767.830521
264.368324,-383.047749,-1184.329507,11843.295072
264.368632,2145.067394,1406.391290,8290.306550
264.368940,4903.011187,3849.070898,5477.523971
264.369247,6128.763984,5551.544565,3627.009116
264.369555,6588.421283,5773.606348,3627.009116
264.369863,6588.421283,5181.441594,4367.215058
264.370171,5209.449386,4219.173869,5181.441594
264.370479,2681.334243,1110.308913,8364.327145
264.370787,-383.047749,-2146.597232,11103.089130
264.371095,-2604.724693,-3701.029710,13471.748144
264.371403,-4290.134789,-4663.297435,13915.871710
264.371711,-3907.087040,-4293.194464,14211.954086
264.372019,-2145.067394,-2072.576638,12213.398043
264.372327,229.828649,-0.000000,11251.130318
264.372635,2987.772442,1332.370696,9252.574275
264.372943,2834.553343,3552.988522,5551.544565
264.373251,4443.353888,4367.215058,6809.894666
264.373559,3447.429741,3478.967927,6587.832884
264.373867,1991.848295,2960.823768,7254.018232
264.374175,0.000000,962.267725,10140.821405
264.374482,-1991.848295,-1110.308913,11769.274478
264.374790,-3524.039291,-4441.235652,14508.036463
264.375098,-5515.887586,-4293.194464,14063.912898
264.375406,-4366.744339,-5329.482782,15692.365970
264.375714,-3677.258390,-4071.132681,14063.912898
264.376022,-689.485948,-1258.350101,10807.006753
264.376330,2911.162892,518.144159,8216.285956
264.376638,4443.353888,3923.091493,4515.256246
264.376946,6358.592633,4589.276840,3849.070898
264.377254,7201.297681,5847.626942,2220.617826
264.377562,7048.078582,5921.647536,3404.947333
264.377870,5056.230287,3923.091493,5403.503377
264.378178,2221.676944,1184.329507,7698.141797
264.378486,-612.876398,-1406.391290,11251.130318
264.378794,-2681.334243,-4219.173869,12879.583391
264.379102,-4136.915689,-4515.256246,13841.851115
264.379409,-3600.648841,-3923.091493,14063.912898
264.379717,-1991.848295,-2220.617826,12435.459826
264.380025,76.609550,-740.205942,11399.171507
264.380333,2451.505594,1110.308913,8438.347739
264.380641,3370.820191,1998.556043,6957.935855
264.380949,3600.648841,2516.700203,5921.647536
264.381257,3677.258390,2738.761985,6735.874072
264.381565,1991.848295,2368.659014,8142.265362
264.381873,76.609550,666.185348,9696.697840
264.382181,-1915.238745,-1776.494261,11695.253884
264.382489,-3907.087040,-3627.009116,14063.912898
264.382797,-4749.792088,-4885.359217,14952.160028
264.383105,-4596.572988,-4737.318029,14804.118840
264.383413,-2681.334243,-3330.926739,13693.809927
264.383721,0.000000,-1036.288319,10955.047942
264.384029,2068.457845,1850.514855,7476.080014
264.384336,4749.792088,3997.112087,5181.441594
264.384644,6435.202183,5107.421000,3552.988522
264.384952,7048.078582,6143.709319,2886.803174
264.385260,6588.421283,6217.729913,4219.173869
264.385568,4903.011187,4293.194464,5255.462188
264.385876,1915.238745,1258.350101,8438.347739
264.386184,-919.314598,-1258.350101,12287.418637
264.386492,-3294.210641,-2960.823768,13397.727550
264.386800,-3830.477490,-3775.050304,14211.954086
264.387108,-3140.991542,-3404.947333,14508.036463
264.387416,-1991.848295,-1850.514855,13101.645173
264.387724,383.047749,-0.000000,11547.212695
264.388032,2298.286494,1776.494261,9696.697840
264.388340,3064.381992,2146.597232,7179.997637
264.388648,3217.601092,3256.906145,7105.977043
264.388956,3447.429741,3330.926739,7179.997637
264.389264,2298.286494,2664.741391,7994.224174
264.389572,383.047749,888.247130,9918.759623
264.389880,-1838.629195,-1480.411884,12213.398043
264.390188,-3830.477490,-3849.070898,14508.036463
264.390496,-4596.572988,-4737.318029,14804.118840
264.390804,-3907.087040,-4737.318029,14359.995275
264.391112,-2374.896044,-2886.803174,13249.686362
264.391420,229.828649,-370.102971,9992.780217
264.391728,3370.820191,1924.535449,6957.935855
264.392036,5362.668486,3997.112087,4663.297435
264.392344,6665.030833,5033.400406,3478.967927
264.392652,7048.078582,5403.503377,3552.988522
264.392960,5592.497135,4811.338623,4145.153275
264.393268,3600.648841,2812.782580,5255.462188
264.393576,1455.581446,148.041188,8512.368333
264.393884,-1378.971896,-2368.659014,11843.295072
264.394192,-4060.306139,-3997.112087,13397.727550
264.394500,-4136.915689,-4737.318029,14211.954086
264.394807,-3753.867940,-4071.132681,14137.933492
264.395115,-1838.629195,-2960.823768,12879.583391
264.395423,153.219100,-888.247130,10955.047942
264.395731,2068.457845,1036.288319,8586.388927
264.396039,3370.820191,1998.556043,6143.709319
264.396347,3753.867940,3627.009116,5551.544565
264.396655,3600.648841,3701.029710,6513.812290
264.396963,2451.505594,2960.823768,7105.977043
264.397271,229.828649,1110.308913,8956.491898
264.397579,-1915.238745,-2220.617826,11843.295072
264.397887,-3677.258390,-4145.153275,13767.830521
264.398195,-4749.792088,-4959.379811,15100.201217
264.398503,-4596.572988,-4959.379811,14582.057057
264.398811,-3217.601092,-3182.885551,12583.501014
264.399119,-612.876398,-740.205942,10214.842000
264.399427,2221.676944,2146.597232,7328.038826
264.399735,4519.963438,3404.947333,5477.523971
264.400043,5822.325785,4737.318029,3552.988522
264.400351,6205.373534,5551.544565,3404.947333
264.400659,5362.668486,4737.318029,4589.276840
264.400967,2911.162892,2886.803174,6365.771101
264.401275,689.485948,592.164754,8882.471304
264.401583,-1762.019645,-1998.556043,12287.418637
264.401891,-3753.867940,-3701.029710,13767.830521
264.402199,-4903.011187,-4367.215058,14508.036463
264.402507,-3294.210641,-3923.091493,14804.118840
264.402815,-1532.190996,-2220.617826,12435.459826
264.403123,306.438199,-0.000000,10584.944971
264.403431,2451.505594,1258.350101,8882.471304
264.403739,4366.744339,2886.803174,6661.853478
264.404047,4519.963438,3923.091493,5847.626942
264.404355,4290.134789,3997.112087,6513.812290
264.404663,3447.429741,2886.803174,7031.956449
264.404971,995.924147,740.205942,9770.718434
264.405279,-995.924147,-1924.535449,12287.418637
264.405587,-3140.991542,-3627.009116,14137.933492
264.405894,-5132.839837,-4367.215058,15470.304188
264.406202,-3983.696590,-4219.173869,15470.304188
264.406510,-2681.334243,-2516.700203,12509.480420
264.406818,229.828649,-0.000000,10584.944971
264.407126,3294.210641,2368.659014,7254.018232
264.407434,5286.058936,4145.153275,5107.421000
264.407742,6052.154434,4663.297435,5033.400406
264.408050,6281.983084,5255.462188,3552.988522
264.408358,5669.106685,5107.421000,5181.441594
264.408666,3524.039291,3256.906145,6587.832884
264.408974,1225.752797,666.185348,9104.533087
264.409282,-1532.190996,-1850.514855,12361.439231
264.409590,-3217.601092,-4145.153275,14137.933492
264.409898,-3907.087040,-4959.379811,14434.015869
264.410206,-3677.258390,-3775.050304,14285.974681
264.410514,-1225.752797,-2368.659014,13027.624579
264.410822,919.314598,-74.020594,10510.924376
264.411130,3447.429741,1924.535449,8438.347739
264.411438,4290.134789,2960.823768,5995.668130
264.411746,4749.792088,4145.153275,5033.400406
264.412054,4596.572988,4071.132681,5995.668130
264.412362,3907.087040,3701.029710,6661.853478
264.412670,1455.581446,1332.370696,9104.533087
264.412978,-919.314598,-1406.391290,11547.212695
264.413286,-3753.867940,-3775.050304,13767.830521
264.413594,-4903.011187,-4737.318029,14804.118840
264.413902,-4519.963438,-4811.338623,14359.995275
264.414210,-2681.334243,-3182.885551,13027.624579
264.414518,-306.438199,-1258.350101,10658.965565
264.414826,2145.067394,1036.288319,8068.244768
264.415134,4903.011187,2368.659014,5551.544565
264.415442,5362.668486,3775.050304,3775.050304
264.415750,5822.325785,4589.276840,3478.967927
264.416058,4903.011187,4441.235652,4737.318029
264.416366,3217.601092,2960.823768,6587.832884
264.416673,459.657299,740.205942,8956.491898
264.416981,-1991.848295,-1850.514855,11695.253884
264.417289,-3600.648841,-3701.029710,14211.954086
264.417597,-4443.353888,-4515.256246,14137.933492
264.417905,-3524.039291,-4071.132681,14211.954086
264.418213,-2221.676944,-2812.782580,12879.583391
264.418521,0.000000,-518.144159,10732.986159
264.418829,2068.457845,1184.329507,9104.533087
264.419137,3370.820191,2738.761985,6809.894666
264.419445,4060.306139,3404.947333,5921.647536
264.419753,4290.134789,3923.091493,5773.606348
264.420061,2681.334243,3034.844362,7254.018232
264.420369,842.705048,814.226536,9992.780217
264.420677,-1378.971896,-1258.350101,11399.171507
264.420985,-3753.867940,-3108.864956,14063.912898
264.421293,-4749.792088,-4219.173869,14730.098246
264.421601,-4443.353888,-3775.050304,14434.015869
264.421909,-2757.943793,-2442.679609,12879.583391
264.422217,-459.657299,-0.000000,10436.903782
264.422525,2298.286494,1406.391290,7772.162391
264.422833,4443.353888,3256.906145,5551.544565
264.423141,5362.668486,4737.318029,4811.338623
264.423449,5515.887586,4811.338623,4071.132681
264.423757,4903.011187,4515.256246,4959.379811
264.424065,3064.381992,3182.885551,6735.874072
264.424373,919.314598,1110.308913,8734.430116
264.424681,-1532.190996,-1628.453072,12139.377449
264.424989,-3217.601092,-3034.844362,13397.727550
264.425297,-3447.429741,-3775.050304,14137.933492
264.425605,-2911.162892,-3849.070898,14063.912898
264.425913,-1532.190996,-2146.597232,12435.459826
264.426221,919.314598,-296.082377,11473.192101
264.426529,2834.553343,1258.350101,8734.430116
264.426837,3217.601092,3182.885551,6439.791695
264.427145,5056.230287,2960.823768,6291.750507
264.427453,4060.306139,3552.988522,6217.729913
264.427760,3064.381992,2590.720797,7402.059420
264.428068,1455.581446,814.226536,9696.697840
264.428376,-1225.752797,-1628.453072,11695.253884
264.428684,-3600.648841,-3627.009116,13693.809927
264.428992,-4213.525239,-4367.215058,14730.098246
264.429300,-4136.915689,-3997.112087,13989.892304
264.429608,-2068.457845,-2664.741391,12435.459826
264.429916,1149.143247,-814.226536,10214.842000
264.430224,3140.991542,2294.638420,6957.935855
264.430532,5132.839837,3552.988522,5033.400406
264.430840,6281.983084,4515.256246,4293.194464
264.431148,5898.935335,4811.338623,4293.194464
264.431456,4903.011187,3923.091493,5181.441594
264.431764,3447.429741,2590.720797,5921.647536
264.432072,1225.752797,222.061783,9030.512492
264.432380,-1072.533697,-1924.535449,11547.212695
264.432688,-2528.115143,-3182.885551,13175.665768
264.432996,-3677.258390,-4219.173869,13767.830521
264.433304,-2911.162892,-3552.988522,13619.789333
264.433612,-995.924147,-1924.535449,12435.459826
264.433920,919.314598,-0.000000,9844.739029
264.434228,2681.334243,1924.535449,8290.306550
264.434536,4213.525239,3108.864956,6217.729913
264.434844,4673.182538,3552.988522,5699.585753
264.435152,4213.525239,3701.029710,6217.729913
264.435460,2451.505594,2368.659014,7254.018232
264.435768,383.047749,-0.000000,10362.883188
264.436076,-2374.896044,-2590.720797,12583.501014
264.436384,-4979.620737,-4293.194464,13989.892304
264.436692,-5592.497135,-4959.379811,15692.365970
264.437000,-4443.353888,-4885.359217,15248.242405
264.437308,-3217.601092,-3182.885551,12731.542202
264.437616,229.828649,-666.185348,10288.862594
264.437924,2987.772442,1850.514855,7624.121203
264.438232,4519.963438,3849.070898,5033.400406
264.438540,5439.278036,4811.338623,3997.112087
264.438847,5898.935335,5181.441594,3849.070898
264.439155,4213.525239,4737.318029,4737.318029
264.439463,2757.943793,3182.885551,6217.729913
264.439771,1149.143247,740.205942,8512.368333
264.440079,-1302.362347,-1628.453072,11843.295072
264.440387,-3294.210641,-3108.864956,13397.727550
264.440695,-4136.915689,-3997.112087,14211.954086
264.441003,-3830.477490,-4145.153275,14878.139434
264.441311,-2221.676944,-2368.659014,13101.645173
264.441619,1302.362347,-74.020594,10658.965565
264.441927,2528.115143,1554.432478,9030.512492
264.442235,3983.696590,2886.803174,6439.791695
264.442543,4060.306139,3701.029710,5329.482782
264.442851,3907.087040,3923.091493,6513.812290
264.443159,2451.505594,2590.720797,7846.182985
264.443467,459.657299,592.164754,9770.718434
264.443775,-1991.848295,-1924.535449,12583.501014
264.444083,-4366.744339,-3775.050304,14211.954086
264.444391,-4519.963438,-4811.338623,15026.180623
264.444699,-4519.963438,-4589.276840,15026.180623
264.445007,-2068.457845,-2886.803174,13323.706956
264.445315,459.657299,-0.000000,9992.780217
264.445623,2834.553343,2146.597232,7402.059420
264.445931,4979.620737,3701.029710,5403.503377
264.446239,5669.106685,4737.318029,3923.091493
264.446547,6052.154434,4737.318029,4145.153275
264.446855,5669.106685,4885.359217,4885.359217
264.447163,3294.210641,3182.885551,5773.606348
264.447471,1991.848295,1184.329507,8438.347739
264.447779,-995.924147,-1406.391290,11547.212695
264.448087,-2757.943793,-3182.885551,13027.624579
264.448395,-3753.867940,-4219.173869,13841.851115
264.448703,-3370.820191,-4071.132681,14508.036463
264.449011,-1838.629195,-2516.700203,12731.542202
264.449319,766.095498,-518.144159,11325.150913
264.449626,2451.505594,1184.329507,8586.388927
264.449934,4213.525239,2368.659014,6143.709319
264.450242,4749.792088,3923.091493,5329.482782
264.450550,3907.087040,3775.050304,5847.626942
264.450858,2987.772442,2590.720797,7105.977043
264.451166,1302.362347,740.205942,9622.677246
264.451474,-1455.581446,-1554.432478,11695.253884
264.451782,-3524.039291,-4293.194464,13397.727550
264.452090,-4290.134789,-5403.503377,14730.098246
264.452398,-3753.867940,-4515.256246,14063.912898
264.452706,-2451.505594,-3182.885551,12361.439231
264.453014,383.047749,-222.061783,10140.821405
264.453322,2911.162892,2072.576638,7179.997637
264.453630,4749.792088,3701.029710,4737.318029
264.453938,6435.202183,4811.338623,3330.926739
264.454246,6741.640382,4959.379811,3849.070898
264.454554,5286.058936,5107.421000,4737.318029
264.454862,3677.258390,3478.967927,6365.771101
264.455170,1455.581446,962.267725,8882.471304
264.455478,-1302.362347,-1554.432478,11473.192101
264.455786,-3600.648841,-3627.009116,13619.789333
264.456094,-4749.792088,-4811.338623,15100.201217
264.456402,-4519.963438,-4811.338623,14804.118840
264.456710,-2681.334243,-2738.761985,13545.768739
264.457018,-459.657299,-222.061783,11251.130318
264.457326,1302.362347,1110.308913,9178.553681
264.457634,3064.381992,3256.906145,6809.894666
264.457942,4290.134789,3701.029710,5921.647536
264.458250,3447.429741,3923.091493,6069.688724
264.458558,2451.505594,2516.700203,7402.059420
264.458866,612.876398,444.123565,9474.636058
264.459174,-1455.581446,-1998.556043,12435.459826
264.459482,-3753.867940,-3627.009116,14063.912898
264.459790,-4290.134789,-4811.338623,14952.160028
264.460098,-4290.134789,-4441.235652,14211.954086
264.460406,-2911.162892,-2442.679609,12287.418637
264.460713,306.438199,-0.000000,9992.780217
264.461021,3370.820191,2516.700203,7105.977043
264.461329,4290.134789,3775.050304,5329.482782
264.461637,5745.716235,5107.421000,3923.091493
264.461945,6052.154434,4737.318029,3627.009116
264.462253,4979.620737,4737.318029,4663.297435
264.462561,2987.772442,3478.967927,5995.668130
264.462869,842.705048,962.267725,9918.759623
264.463177,-1532.190996,-1924.535449,12805.562797
264.463485,-3524.039291,-3404.947333,13693.809927
264.463793,-4366.744339,-5107.421000,14804.118840
264.464101,-4213.525239,-4959.379811,15248.242405
264.464409,-2757.943793,-2590.720797,13693.809927
264.464717,229.828649,-518.144159,10955.047942
264.465025,2451.505594,1480.411884,9030.512492
264.465333,3983.696590,2960.823768,6735.874072
264.465641,4749.792088,3849.070898,5699.585753
264.465949,4290.134789,3849.070898,6365.771101
264.466257,3064.381992,2590.720797,7698.141797
264.466565,766.095498,444.123565,9622.677246
264.466873,-1455.581446,-1850.514855,12583.501014
264.467181,-3140.991542,-3701.029710,14063.912898
264.467489,-4213.525239,-4663.297435,14582.057057
264.467797,-3907.087040,-3627.009116,13619.789333
264.468105,-1455.581446,-2368.659014,11991.336260
264.468413,842.705048,296.082377,9474.636058
264.468721,3983.696590,1776.494261,6957.935855
264.469029,5056.230287,3701.029710,4885.359217
264.469337,6818.249932,4885.359217,3923.091493
264.469645,6588.421283,4959.379811,4367.215058
264.469953,5362.668486,4589.276840,4293.194464
264.470261,3524.039291,3330.926739,5773.606348
264.470569,1302.362347,518.144159,9252.574275
264.470877,-1302.362347,-2146.597232,11621.233289
264.471185,-3294.210641,-4145.153275,13101.645173
264.471492,-4290.134789,-5181.441594,14878.139434
264.471800,-3370.820191,-4441.235652,14508.036463
264.472108,-2604.724693,-2368.659014,12583.501014
264.472416,383.047749,-296.082377,11103.089130
264.472724,2374.896044,1850.514855,8364.327145
264.473032,3753.867940,3256.906145,6513.812290
264.473340,4366.744339,3775.050304,5921.647536
264.473648,4060.306139,3701.029710,6069.688724
264.473956,3294.210641,2146.597232,7550.100608
264.474264,459.657299,296.082377,10066.800811
264.474572,-1685.410096,-2442.679609,12139.377449
264.474880,-3753.867940,-4441.235652,14063.912898
264.475188,-4903.011187,-5033.400406,14878.139434
264.475496,-4443.353888,-4515.256246,14063.912898
264.475804,-2757.943793,-2442.679609,12139.377449
264.476112,536.266849,-0.000000,9770.718434
264.476420,3370.820191,2146.597232,6809.894666
264.476728,4979.620737,3775.050304,4589.276840
264.477036,5822.325785,4589.276840,3849.070898
264.477344,5822.325785,5107.421000,3552.988522
264.477652,4749.792088,4959.379811,4737.318029
264.477960,2681.334243,3108.864956,6809.894666
264.478268,0.000000,222.061783,9474.636058
264.478576,-2757.943793,-2368.659014,12509.480420
264.478884,-4290.134789,-4663.297435,14730.098246
264.479192,-5209.449386,-4737.318029,15026.180623
264.479500,-4519.963438,-4293.194464,15026.180623
264.479808,-2451.505594,-2294.638420,13027.624579
264.480116,689.485948,296.082377,10436.903782
264.480424,2528.115143,2294.638420,8438.347739
264.480732,3983.696590,3552.988522,6217.729913
264.481040,4596.572988,4145.153275,5403.503377
264.481348,4443.353888,3923.091493,6365.771101
264.481656,2604.724693,2738.761985,8142.265362
264.481964,229.828649,148.041188,9696.697840
264.482272,-1685.410096,-2072.576638,12879.583391
264.482579,-3983.696590,-3701.029710,13545.768739
264.482887,-4519.963438,-4515.256246,14359.995275
264.483195,-3753.867940,-3849.070898,14508.036463
264.483503,-1455.581446,-1924.535449,11991.336260
264.483811,1685.410096,-0.000000,9400.615463
264.484119,3677.258390,2294.638420,7402.059420
264.484427,4903.011187,3775.050304,5551.544565
264.484735,5286.058936,4811.338623,4367.215058
264.485043,6052.154434,4885.359217,4367.215058
264.485351,4903.011187,4515.256246,5181.441594
264.485659,2757.943793,2738.761985,6809.894666
264.485967,612.876398,-74.020594,10362.883188
264.486275,-1455.581446,-2442.679609,12731.542202
264.486583,-3677.258390,-3997.112087,14211.954086
264.486891,-4290.134789,-4737.318029,14656.077652
264.487199,-3524.039291,-3923.091493,14137.933492
264.487507,-1149.143247,-1554.432478,11917.315666
264.487815,1532.190996,814.226536,9696.697840
264.488123,3524.039291,2812.782580,7476.080014
264.488432,4443.353888,3552.988522,5847.626942
264.488740,4673.182538,4071.132681,5403.503377
264.489048,4366.744339,3627.009116,6069.688724
264.489356,3064.381992,2294.638420,7698.141797
264.489664,459.657299,222.061783,10214.842000
264.489972,-1685.410096,-2442.679609,12657.521608
264.490280,-3830.477490,-4219.173869,13989.892304
264.490588,-4673.182538,-4885.359217,14804.118840
264.490896,-3907.087040,-4219.173869,14137.933492
264.491204,-1838.629195,-2516.700203,11991.336260
264.491512,1072.533697,-148.041188,9400.615463
264.491820,3677.258390,2146.597232,6957.935855
264.492128,5209.449386,3923.091493,4663.297435
264.492436,6052.154434,4959.379811,3923.091493
264.492744,5975.544884,5329.482782,3775.050304
264.493052,5132.839837,4885.359217,4515.256246
264.493360,3140.991542,2664.741391,6291.750507
264.493668,383.047749,222.061783,9696.697840
264.493976,-2604.724693,-2368.659014,12287.418637
264.494284,-4136.915689,-4811.338623,14656.077652
264.494593,-5286.058936,-4811.338623,14359.995275
264.494901,-3830.477490,-3627.009116,14063.912898
264.495209,-1532.190996,-1480.411884,12065.356855
264.495517,1072.533697,1036.288319,9770.718434
264.495825,2757.943793,2146.597232,7846.182985
264.496133,4136.915689,3627.009116,6735.874072
264.496441,4060.306139,3701.029710,6661.853478
264.496749,2757.943793,3034.844362,6439.791695
264.497057,1762.019645,1406.391290,8808.450710
264.497365,-842.705048,-740.205942,10807.006753
264.497673,-3524.039291,-3404.947333,13619.789333
264.497981,-4903.011187,-4589.276840,14656.077652
264.498289,-5056.230287,-5107.421000,14730.098246
264.498597,-4060.306139,-4219.173869,13841.851115
264.498905,-1378.971896,-1628.453072,11695.253884
264.499213,1378.971896,666.185348,8808.450710
264.499521,3600.648841,2886.803174,6291.750507
264.499829,5515.887586,4737.318029,4293.194464
264.500137,6281.983084,5625.565159,3256.906145
264.500446,6588.421283,5625.565159,3552.988522
264.500754,5515.887586,4959.379811,4293.194464
264.501062,2681.334243,2960.823768,6587.832884
264.501370,-229.828649,-74.020594,10362.883188
264.501678,-2374.896044,-2738.761985,12879.583391
264.501986,-4673.182538,-4293.194464,14656.077652
264.502294,-4749.792088,-4515.256246,15322.262999
264.502602,-3524.039291,-3182.885551,13989.892304
264.502910,-1378.971896,-888.247130,11991.336260
264.503218,1302.362347,740.205942,10214.842000
264.503526,3140.991542,1924.535449,7624.121203
264.503834,2987.772442,3330.926739,6735.874072
264.504142,3753.867940,3256.906145,6735.874072
264.504450,2604.724693,2812.782580,7105.977043
264.504758,1455.581446,1702.473667,8956.491898
264.505066,-689.485948,-592.164754,11251.130318
264.505374,-2298.286494,-2442.679609,13249.686362
264.505682,-3447.429741,-4293.194464,14359.995275
264.505990,-4136.915689,-4663.297435,15100.201217
264.506298,-3140.991542,-4071.132681,13471.748144
264.506607,-1149.143247,-2072.576638,11917.315666
264.506915,1991.848295,296.082377,8586.388927
264.507223,4060.306139,2960.823768,6365.771101
264.507531,5822.325785,3849.070898,4663.297435
264.507839,6665.030833,5181.441594,2886.803174
264.508147,6205.373534,5181.441594,3627.009116
264.508455,5362.668486,4441.235652,4663.297435
264.508763,3753.867940,2294.638420,6809.894666
264.509071,612.876398,-296.082377,9770.718434
264.509379,-2221.676944,-2368.659014,11991.336260
264.509687,-3294.210641,-4293.194464,13693.809927
264.509995,-3907.087040,-4441.235652,13915.871710
264.510303,-2604.724693,-3478.967927,13545.768739
264.510611,0.000000,-962.267725,11399.171507
264.510919,1991.848295,1036.288319,9178.553681
264.511227,3140.991542,2886.803174,7402.059420
264.511535,4290.134789,3108.864956,6735.874072
264.511843,4060.306139,3330.926739,6661.853478
264.512151,2604.724693,2812.782580,7031.956449
264.512460,995.924147,1628.453072,9030.512492
264.512768,-1149.143247,-1184.329507,11843.295072
264.513076,-3064.381992,-2664.741391,14063.912898
264.513384,-5056.230287,-4441.235652,14434.015869
264.513692,-4826.401637,-4959.379811,15100.201217
264.514000,-4213.525239,-3923.091493,14211.954086
264.514308,-1608.800546,-2072.576638,11991.336260
264.514616,1455.581446,814.226536,8882.471304
264.514924,3753.867940,2664.741391,6957.935855
264.515232,5822.325785,4441.235652,5107.421000
264.515540,6281.983084,5181.441594,3404.947333
264.515848,6358.592633,5403.503377,3478.967927
264.516156,5669.106685,4811.338623,4589.276840
264.516464,3524.039291,2886.803174,6587.832884
264.516772,612.876398,-0.000000,9770.718434
264.517080,-2221.676944,-2738.761985,12213.398043
264.517388,-3753.867940,-4071.132681,13471.748144
264.517696,-4060.306139,-4737.318029,14063.912898
264.518004,-3524.039291,-3552.988522,14063.912898
264.518312,-536.266849,-1406.391290,11399.171507
264.518621,1378.971896,1036.288319,10066.800811
264.518929,2911.162892,2072.576638,7846.182985
264.519237,3600.648841,3182.885551,6735.874072
264.519545,3524.039291,2960.823768,6513.812290
264.519853,2757.943793,2590.720797,7105.977043
264.520161,1302.362347,1110.308913,8364.327145
264.520469,-689.485948,-814.226536,10881.027347
264.520777,-2681.334243,-2516.700203,12731.542202
264.521085,-4060.306139,-4441.235652,14285.974681
264.521393,-4213.525239,-5033.400406,15026.180623
264.521701,-3830.477490,-4219.173869,13545.768739
264.522009,-1532.190996,-2368.659014,11547.212695
264.522317,1685.410096,-0.000000,8882.471304
264.522625,3524.039291,2072.576638,6809.894666
264.522933,5362.668486,3478.967927,4959.379811
264.523241,6128.763984,4885.359217,3256.906145
264.523549,6435.202183,5329.482782,3034.844362
264.523857,5056.230287,4737.318029,4589.276840
264.524165,3140.991542,3256.906145,6217.729913
264.524474,612.876398,444.123565,9622.677246
264.524782,-1991.848295,-2368.659014,12583.501014
264.525090,-3677.258390,-4145.153275,13767.830521
264.525398,-4596.572988,-4441.235652,14656.077652
264.525706,-3677.258390,-3478.967927,14285.974681
264.526014,-2374.896044,-1110.308913,11917.315666
264.526322,1225.752797,592.164754,9918.759623
264.526630,2451.505594,2146.597232,8142.265362
264.526938,3294.210641,2886.803174,6365.771101
264.527246,3600.648841,2960.823768,6883.915261
264.527554,2298.286494,3034.844362,7254.018232
264.527862,1762.019645,2294.638420,8660.409521
264.528170,153.219100,-222.061783,10510.924376
264.528478,-1915.238745,-2368.659014,12805.562797
264.528786,-3907.087040,-3849.070898,13915.871710
264.529094,-4826.401637,-4293.194464,14285.974681
264.529402,-3447.429741,-4145.153275,13915.871710
264.529710,-1685.410096,-2220.617826,11547.212695
264.530018,1991.848295,-148.041188,9326.594869
264.530326,3983.696590,2812.782580,6439.791695
264.530635,5209.449386,3849.070898,4959.379811
264.530943,6435.202183,4737.318029,3478.967927
264.531251,6281.983084,5181.441594,3256.906145
264.531559,5132.839837,4811.338623,4737.318029
264.531867,2834.553343,2294.638420,7179.997637
264.532175,229.828649,222.061783,9770.718434
264.532483,-2604.724693,-2664.741391,13175.665768
264.532791,-3907.087040,-4737.318029,14730.098246
264.533099,-5056.230287,-4737.318029,14359.995275
264.533407,-3447.429741,-3552.988522,14434.015869
264.533715,-1455.581446,-1406.391290,11843.295072
264.534023,919.314598,666.185348,10362.883188
264.534331,2451.505594,1924.535449,8734.430116
264.534639,3600.648841,2664.741391,7031.956449
264.534947,3753.867940,2960.823768,6587.832884
264.535255,3064.381992,2812.782580,6217.729913
264.535563,1838.629195,1850.514855,8142.265362
264.535871,306.438199,-222.061783,10510.924376
264.536179,-2145.067394,-1850.514855,11843.295072
264.536488,-3907.087040,-3775.050304,13545.768739
264.536796,-3983.696590,-4219.173869,14211.954086
264.537104,-2757.943793,-3627.009116,12879.583391
264.537412,-1455.581446,-1554.432478,11547.212695
264.537720,1838.629195,666.185348,9326.594869
264.538028,3294.210641,2812.782580,6439.791695
264.538336,5056.230287,4515.256246,4811.338623
264.538644,6128.763984,4959.379811,4071.132681
264.538952,5822.325785,5033.400406,3849.070898
264.539260,4826.401637,4293.194464,5181.441594
264.539568,2221.676944,1850.514855,7624.121203
264.539876,-612.876398,-888.247130,10807.006753
264.540184,-2451.505594,-3552.988522,13323.706956
264.540492,-4136.915689,-4515.256246,14434.015869
264.540800,-4596.572988,-4589.276840,14730.098246
264.541108,-3064.381992,-3256.906145,14211.954086
264.541416,-995.924147,-962.267725,11917.315666
264.541724,1915.238745,962.267725,9918.759623
264.542032,3447.429741,2590.720797,7476.080014
264.542340,4213.525239,3182.885551,6439.791695
264.542649,4213.525239,3330.926739,6439.791695
264.542957,3753.867940,3923.091493,6365.771101
264.543265,2298.286494,2368.659014,7698.141797
264.543573,306.438199,222.061783,10288.862594
264.543881,-1532.190996,-2368.659014,12361.439231
264.544189,-3753.867940,-3997.112087,14211.954086
264.544497,-4596.572988,-4737.318029,14582.057057
264.544805,-3753.867940,-3997.112087,13619.789333
264.545113,-1302.362347,-2368.659014,12139.377449
264.545421,1838.629195,370.102971,9696.697840
264.545729,4060.306139,2590.720797,6143.709319
264.546037,5362.668486,4367.215058,4663.297435
264.546345,6511.811733,4885.359217,3627.009116
264.546653,6128.763984,4959.379811,3627.009116
264.546961,4979.620737,3997.112087,5181.441594
264.547269,2068.457845,2294.638420,7105.977043
264.547577,0.000000,-666.185348,10436.903782
264.547885,-2451.505594,-2960.823768,13397.727550
264.548193,-4673.182538,-4515.256246,14063.912898
264.548502,-4673.182538,-4737.318029,14582.057057
264.548810,-3217.601092,-3256.906145,13915.871710
264.549118,-1149.143247,-962.267725,12065.356855
264.549426,1608.800546,888.247130,9696.697840
264.549734,3370.820191,2516.700203,7698.141797
264.550042,4060.306139,3627.009116,5921.647536
264.550350,4596.572988,3923.091493,5699.585753
264.550658,3370.820191,3997.112087,5847.626942
264.550966,2451.505594,2664.741391,7550.100608
264.551274,0.000000,222.061783,10658.965565
264.551582,-2374.896044,-2220.617826,12657.521608
264.551890,-3907.087040,-4441.235652,14434.015869
264.552198,-5515.887586,-5551.544565,15692.365970
264.552506,-4519.963438,-5107.421000,14285.974681
264.552814,-2145.067394,-3182.885551,12879.583391
264.553122,229.828649,-0.000000,9696.697840
264.553430,2911.162892,2220.617826,7476.080014
264.553738,5056.230287,3775.050304,5403.503377
264.554046,5592.497135,4737.318029,3923.091493
264.554354,5822.325785,4737.318029,3849.070898
264.554663,5362.668486,4071.132681,4515.256246
264.554971,3064.381992,2664.741391,6735.874072
264.555279,0.000000,-666.185348,10510.924376
264.555587,-2451.505594,-2960.823768,12731.542202
264.555895,-4596.572988,-4293.194464,13915.871710
264.556203,-4596.572988,-4737.318029,14804.118840
264.556511,-2987.772442,-3182.885551,13175.665768
264.556819,0.000000,-740.205942,11473.192101
264.557127,1915.238745,1406.391290,9178.553681
264.557435,3907.087040,3330.926739,7254.018232
264.557743,4673.182538,3478.967927,5773.606348
264.558051,4519.963438,3849.070898,5255.462188
264.558359,3907.087040,3627.009116,5995.668130
264.558667,2451.505594,2368.659014,7698.141797
264.558975,306.438199,-0.000000,10288.862594
264.559283,-2528.115143,-2664.741391,13249.686362
264.559591,-4596.572988,-4219.173869,15026.180623
264.559899,-5286.058936,-5107.421000,15322.262999
264.560207,-4903.011187,-4219.173869,14878.139434
264.560516,-2681.334243,-2960.823768,12583.501014
264.560824,76.609550,296.082377,9844.739029
264.561132,2757.943793,2442.679609,7846.182985
264.561440,4903.011187,3849.070898,5551.544565
264.561748,5898.935335,4811.338623,4145.153275
264.562056,6205.373534,4885.359217,3997.112087
264.562364,4749.792088,4145.153275,4959.379811
264.562672,2834.553343,2368.659014,7328.038826
264.562980,766.095498,-0.000000,9622.677246
264.563288,-1915.238745,-2442.679609,12139.377449
264.563596,-3217.601092,-3997.112087,13915.871710
264.563904,-3830.477490,-4219.173869,13915.871710
264.564212,-2604.724693,-3034.844362,13619.789333
264.564520,-383.047749,-518.144159,11473.192101
264.564828,2221.676944,1554.432478,9030.512492
264.565136,3524.039291,3330.926739,7550.100608
264.565444,4136.915689,3404.947333,6217.729913
264.565752,3983.696590,3849.070898,5773.606348
264.566060,3064.381992,3330.926739,6661.853478
264.566368,2068.457845,2220.617826,8364.327145
264.566677,-459.657299,-296.082377,10881.027347
264.566985,-2451.505594,-2368.659014,13471.748144
264.567293,-4749.792088,-4811.338623,14656.077652
264.567601,-5209.449386,-5551.544565,15396.283594
264.567909,-4290.134789,-4737.318029,14508.036463
264.568217,-2298.286494,-2812.782580,12287.418637
264.568525,536.266849,-0.000000,9326.594869
264.568833,3753.867940,2368.659014,7105.977043
264.569141,5669.106685,4071.132681,4515.256246
264.569449,6281.983084,4737.318029,3034.844362
264.569757,6818.249932,4737.318029,3330.926739
264.570065,5515.887586,4515.256246,4663.297435
264.570373,3294.210641,2516.700203,6661.853478
264.570681,536.266849,-148.041188,9474.636058
264.570989,-1838.629195,-2812.782580,12879.583391
264.571297,-4060.306139,-4663.297435,13767.830521
264.571605,-3907.087040,-4071.132681,14285.974681
264.571913,-2834.553343,-3849.070898,14063.912898
264.572221,-919.314598,-814.226536,10955.047942
264.572530,1685.410096,1036.288319,9622.677246
264.572838,2987.772442,2664.741391,7550.100608
264.573146,3524.039291,2886.803174,6513.812290
264.573454,3753.867940,2960.823768,6069.688724
264.573762,3677.258390,2738.761985,6661.853478
264.574070,1685.410096,1850.514855,8808.450710
264.574378,-153.219100,-666.185348,11251.130318
264.574686,-2604.724693,-2960.823768,13397.727550
264.574994,-5209.449386,-5033.400406,14582.057057
264.575302,-5209.449386,-5329.482782,15322.262999
264.575610,-3983.696590,-4441.235652,14211.954086
264.575918,-1991.848295,-2146.597232,11769.274478
264.576226,1378.971896,1036.288319,8956.491898
264.576534,4366.744339,3627.009116,6365.771101
264.576842,6128.763984,4441.235652,4515.256246
264.577150,7354.516781,5033.400406,3478.967927
264.577458,6358.592633,5329.482782,2812.782580
264.577766,5515.887586,4219.173869,4885.359217
264.578074,2604.724693,2442.679609,6957.935855
264.578382,76.609550,-74.020594,10140.821405
264.578691,-2374.896044,-2368.659014,13101.645173
264.578999,-3830.477490,-4071.132681,14285.974681
264.579307,-4213.525239,-4367.215058,14804.118840
264.579615,-2221.676944,-2738.761985,13915.871710
264.579923,-689.485948,-1036.288319,11251.130318
264.580231,1455.581446,1480.411884,9696.697840
264.580539,3064.381992,2294.638420,8216.285956
264.580847,3217.601092,3182.885551,6439.791695
264.581155,3600.648841,3552.988522,7031.956449
264.581463,2681.334243,2812.782580,7476.080014
264.581771,1455.581446,1258.350101,9030.512492
264.582079,-842.705048,-1184.329507,11695.253884
264.582387,-3447.429741,-3182.885551,13841.851115
264.582695,-4596.572988,-4515.256246,15174.221811
264.583003,-5669.106685,-4959.379811,14878.139434
264.583311,-3753.867940,-3627.009116,13989.892304
264.583619,-766.095498,-1480.411884,10955.047942
264.583927,2528.115143,1702.473667,8216.285956
264.584235,4903.011187,3552.988522,6069.688724
264.584544,5975.544884,4663.297435,3701.029710
264.584852,6511.811733,5181.441594,3404.947333
264.585160,6052.154434,4885.359217,3182.885551
264.585467,4826.401637,3997.112087,4959.379811
264.585775,2451.505594,1406.391290,7328.038826
264.586083,0.000000,-1258.350101,10807.006753
264.586391,-2834.553343,-3775.050304,12879.583391
264.586699,-4519.963438,-5477.523971,14582.057057
264.587007,-4136.915689,-5181.441594,15026.180623
264.587315,-2528.115143,-2886.803174,12509.480420
264.587623,0.000000,-370.102971,10732.986159
264.587931,2604.724693,1406.391290,8660.409521
264.588239,3830.477490,3182.885551,6809.894666
264.588547,4136.915689,3552.988522,5995.668130
264.588855,4749.792088,4293.194464,5329.482782
264.589163,3140.991542,3478.967927,6217.729913
264.589471,1685.410096,1406.391290,8660.409521
264.589779,-536.266849,-1110.308913,11251.130318
264.590087,-3294.210641,-3034.844362,13767.830521
264.590395,-5286.058936,-5033.400406,14804.118840
264.590703,-5209.449386,-5773.606348,14804.118840
264.591011,-4060.306139,-3997.112087,13619.789333
264.591319,-1225.752797,-1332.370696,11547.212695
264.591627,1991.848295,1110.308913,8364.327145
264.591935,4443.353888,3108.864956,6587.832884
264.592242,5669.106685,4441.235652,4737.318029
264.592550,5822.325785,5477.523971,3034.844362
264.592858,5822.325785,4811.338623,4367.215058
264.593166,3983.696590,3849.070898,5403.503377
264.593474,1608.800546,1702.473667,7846.182985
264.593782,-842.705048,-1332.370696,11917.315666
264.594090,-3753.867940,-3701.029710,13471.748144
264.594398,-4596.572988,-4589.276840,14804.118840
264.594706,-4290.134789,-4811.338623,14878.139434
264.595014,-2834.553343,-2886.803174,13027.624579
264.595322,-229.828649,-370.102971,10807.006753
264.595630,2298.286494,1628.453072,9030.512492
264.595938,3677.258390,3034.844362,6661.853478
264.596246,4596.572988,3997.112087,5995.668130
264.596554,5056.230287,4367.215058,5699.585753
264.596862,3600.648841,3404.947333,6291.750507
264.597170,2221.676944,1998.556043,7920.203579
264.597478,-229.828649,-444.123565,11473.192101
264.597786,-2604.724693,-3108.864956,13471.748144
264.598094,-4979.620737,-4811.338623,14804.118840
264.598402,-5286.058936,-5551.544565,15322.262999
264.598710,-4213.525239,-4145.153275,14211.954086
264.599018,-536.266849,-1554.432478,11769.274478
264.599325,2374.896044,1480.411884,8660.409521
264.599633,3907.087040,2960.823768,6957.935855
264.599941,5209.449386,4515.256246,4663.297435
264.600249,5898.935335,5033.400406,3701.029710
264.600557,5362.668486,4959.379811,4441.235652
264.600865,4443.353888,3701.029710,5551.544565
264.601173,2221.676944,1406.391290,8586.388927
264.601481,-995.924147,-1480.411884,11473.192101
264.601789,-3447.429741,-3256.906145,13471.748144
264.602097,-4366.744339,-4145.153275,14804.118840
264.602405,-4213.525239,-4441.235652,14952.160028
264.602713,-2374.896044,-2738.761985,13101.645173
264.603021,76.609550,-296.082377,10807.006753
264.603329,3064.381992,1480.411884,8808.450710
264.603637,4366.744339,3034.844362,6439.791695
264.603945,4903.011187,3849.070898,5329.482782
264.604253,5286.058936,3997.112087,5995.668130
264.604561,4596.572988,3627.009116,5995.668130
264.604869,2451.505594,2220.617826,7550.100608
264.605177,153.219100,-370.102971,10510.924376
264.605485,-2068.457845,-2960.823768,12805.562797
264.605793,-4826.401637,-4663.297435,14952.160028
264.606100,-4826.401637,-5625.565159,14582.057057
264.606408,-3907.087040,-4071.132681,13841.851115
264.606716,-995.924147,-1332.370696,11769.274478
264.607024,1685.410096,1258.350101,8290.306550
264.607332,4443.353888,3478.967927,6143.709319
264.607640,5592.497135,4145.153275,4293.194464
264.607948,5745.716235,4811.338623,3404.947333
264.608256,5745.716235,4515.256246,4071.132681
264.608564,4443.353888,3182.885551,6069.688724
264.608872,1685.410096,592.164754,8660.409521
264.609180,-919.314598,-1406.391290,11399.171507
264.609488,-3217.601092,-3775.050304,13693.809927
264.609796,-4749.792088,-4959.379811,14359.995275
264.610104,-4749.792088,-4737.318029,14656.077652
264.610412,-3217.601092,-3404.947333,13471.748144
264.610720,0.000000,-1184.329507,11177.109724
264.611028,1915.238745,888.247130,8660.409521
264.611336,3830.477490,1998.556043,6957.935855
264.611644,4060.306139,3627.009116,5699.585753
264.611952,4519.963438,4145.153275,5329.482782
264.612260,3983.696590,3701.029710,6217.729913
264.612568,1991.848295,2220.617826,7698.141797
264.612876,-383.047749,-296.082377,10732.986159
264.613183,-2604.724693,-2886.803174,13101.645173
264.613491,-4519.963438,-4663.297435,14285.974681
264.613799,-5362.668486,-4737.318029,14508.036463
264.614107,-3983.696590,-3923.091493,13915.871710
264.614415,-1608.800546,-1110.308913,11547.212695
264.614723,1378.971896,1480.411884,8882.471304
264.615031,3753.867940,3552.988522,6365.771101
264.615339,5209.449386,4663.297435,4737.318029
264.615647,5975.544884,4959.379811,4663.297435
264.615955,4826.401637,4737.318029,5033.400406
264.616263,3677.258390,3849.070898,6365.771101
264.616571,1608.800546,1184.329507,8512.368333
264.616879,-1225.752797,-666.185348,11621.233289
264.617187,-3140.991542,-3256.906145,13767.830521
264.617495,-4596.572988,-4663.297435,14952.160028
264.617803,-4366.744339,-4145.153275,14730.098246
264.618111,-2834.553343,-3108.864956,13545.768739
264.618419,0.000000,-370.102971,11325.150913
264.618727,2681.334243,1554.432478,9326.594869
264.619035,3217.601092,3034.844362,7105.977043
264.619343,4519.963438,3627.009116,5773.606348
264.619651,4903.011187,4145.153275,5625.565159
264.619958,3447.429741,3627.009116,6439.791695
264.620266,1991.848295,2220.617826,7994.224174
264.620574,-306.438199,-296.082377,10732.986159
264.620882,-2604.724693,-2886.803174,13323.706956
264.621190,-4673.182538,-4441.235652,14508.036463
264.621498,-5056.230287,-4811.338623,14952.160028
264.621806,-3830.477490,-3849.070898,13915.871710
264.622114,-1225.752797,-1184.329507,10807.006753
264.622422,1838.629195,1702.473667,8142.265362
264.622730,4443.353888,2960.823768,6439.791695
264.623038,5132.839837,4219.173869,4663.297435
264.623346,6281.983084,4367.215058,4441.235652
264.623654,5209.449386,4515.256246,4663.297435
264.623962,3294.210641,2738.761985,6291.750507
264.624270,1302.362347,1258.350101,8586.388927
264.624578,-383.047749,-962.267725,11103.089130
264.624886,-2374.896044,-3330.926739,12879.583391
264.625194,-3753.867940,-4219.173869,13323.706956
264.625502,-3600.648841,-4589.276840,13767.830521
264.625810,-2068.457845,-3182.885551,13175.665768
264.626118,459.657299,-888.247130,10510.924376
264.626426,2221.676944,1554.432478,7920.203579
264.626734,4213.525239,2812.782580,6439.791695
264.627041,4673.182538,3701.029710,5329.482782
264.627349,4443.353888,3775.050304,5625.565159
264.627657,4060.306139,3552.988522,6809.894666
264.627965,2145.067394,1184.329507,8290.306550
264.628273,0.000000,-962.267725,10807.006753
264.628581,-2834.553343,-3404.947333,13989.892304
264.628889,-4903.011187,-4737.318029,15174.221811
264.629197,-5439.278036,-5403.503377,15026.180623
264.629505,-3753.867940,-3997.112087,13989.892304
264.629813,-1225.752797,-1406.391290,11695.253884
264.630121,2374.896044,1110.308913,7920.203579
264.630429,4136.915689,3182.885551,5773.606348
264.630737,5286.058936,4219.173869,4737.318029
264.631045,5745.716235,4441.235652,4071.132681
264.631353,5209.449386,4367.215058,5181.441594
264.631661,4060.306139,3701.029710,5995.668130
264.631969,1532.190996,2146.597232,7698.141797
264.632277,-612.876398,-592.164754,11177.109724
264.632585,-2298.286494,-2960.823768,13249.686362
264.632893,-4060.306139,-4293.194464,14137.933492
264.633201,-3524.039291,-4145.153275,14285.974681
264.633509,-1685.410096,-2664.741391,13027.624579
264.633816,306.438199,-370.102971,10584.944971
264.634124,2298.286494,1776.494261,9104.533087
264.634432,4136.915689,2812.782580,7772.162391
264.634740,4519.963438,3923.091493,5625.565159
264.635048,4673.182538,3701.029710,6291.750507
264.635356,3753.867940,2664.741391,7476.080014
264.635664,1378.971896,888.247130,9104.533087
264.635972,-842.705048,-1406.391290,11695.253884
264.636280,-3524.039291,-3108.864956,13397.727550
264.636588,-4903.011187,-4811.338623,15470.304188
264.636896,-5132.839837,-4737.318029,15026.180623
264.637204,-3447.429741,-2812.782580,13249.686362
264.637512,-689.485948,-888.247130,11695.253884
264.637820,2374.896044,1850.514855,8438.347739
264.638128,3983.696590,3775.050304,5699.585753
264.638436,4979.620737,4515.256246,5033.400406
264.638744,5132.839837,4959.379811,4663.297435
264.639052,4290.134789,4737.318029,4959.379811
264.639360,3140.991542,3330.926739,6661.853478
264.639668,919.314598,1036.288319,8586.388927
264.639976,-1608.800546,-1480.411884,11251.130318
264.640284,-2145.067394,-3701.029710,14137.933492
264.640591,-3983.696590,-4219.173869,14359.995275
264.640899,-3907.087040,-4367.215058,14359.995275
264.641207,-1838.629195,-2738.761985,13101.645173
264.641515,766.095498,222.061783,10140.821405
264.641823,2681.334243,1850.514855,8142.265362
264.642131,4290.134789,3034.844362,6217.729913
264.642439,5592.497135,3256.906145,5107.421000
264.642747,4519.963438,3775.050304,5477.523971
264.643055,3600.648841,2590.720797,7105.977043
264.643363,1838.629195,518.144159,8734.430116
264.643671,-995.924147,-1332.370696,11103.089130
264.643979,-3524.039291,-3627.009116,13545.768739
264.644287,-5056.230287,-4959.379811,14952.160028
264.644595,-5132.839837,-4959.379811,14878.139434
264.644903,-3217.601092,-3775.050304,13027.624579
264.645211,-383.047749,-666.185348,10362.883188
264.645519,2451.505594,2072.576638,8216.285956
264.645827,4749.792088,3701.029710,5847.626942
264.646135,5286.058936,4737.318029,3997.112087
264.646443,5745.716235,5255.462188,3997.112087
264.646751,5209.449386,4737.318029,4293.194464
264.647059,3447.429741,3330.926739,5995.668130
264.647367,1378.971896,888.247130,8586.388927
264.647674,-1225.752797,-1702.473667,11473.192101
264.647982,-3600.648841,-3997.112087,13915.871710
264.648290,-4673.182538,-5329.482782,15026.180623
264.648598,-4290.134789,-4663.297435,14434.015869
264.648906,-2528.115143,-2960.823768,12953.603985
264.649214,153.219100,-444.123565,10584.944971
264.649522,3064.381992,1850.514855,7994.224174
264.649830,4213.525239,3108.864956,6439.791695
264.650138,4366.744339,3034.844362,5921.647536
264.650446,3907.087040,3182.885551,6291.750507
264.650754,2757.943793,1924.535449,7328.038826
264.651062,842.705048,444.123565,9474.636058
264.651370,-1762.019645,-1850.514855,11843.295072
264.651678,-3983.696590,-3478.967927,13915.871710
264.651986,-4979.620737,-4737.318029,14804.118840
264.652294,-4673.182538,-4367.215058,14582.057057
264.652602,-3064.381992,-2368.659014,12435.459826
264.652910,459.657299,-222.061783,9992.780217
264.653218,2604.724693,2220.617826,7105.977043
264.653526,4979.620737,4219.173869,5477.523971
264.653834,5592.497135,4811.338623,4367.215058
264.654142,6128.763984,5403.503377,3627.009116
264.654449,5132.839837,5329.482782,4515.256246
264.654757,3830.477490,3256.906145,6587.832884
264.655065,1991.848295,962.267725,9104.533087
264.655373,-995.924147,-1480.411884,11769.274478
264.655681,-3140.991542,-3256.906145,14063.912898
264.655989,-4290.134789,-4663.297435,14878.139434
264.656297,-4136.915689,-4737.318029,15174.221811
264.656605,-2221.676944,-2738.761985,13471.748144
264.656913,766.095498,222.061783,10140.821405
264.657221,2757.943793,2146.597232,8734.430116
264.657529,4749.792088,2812.782580,7254.018232
264.657837,4673.182538,3775.050304,5699.585753
264.658145,4443.353888,3627.009116,6587.832884
264.658453,3524.039291,2442.679609,7179.997637
264.658761,1072.533697,1036.288319,8882.471304
264.659069,-1225.752797,-1406.391290,11843.295072
264.659377,-3370.820191,-4071.132681,14137.933492
264.659685,-5056.230287,-4663.297435,15174.221811
264.659993,-4596.572988,-4959.379811,14582.057057
264.660301,-3217.601092,-3256.906145,12583.501014
264.660609,76.609550,-962.267725,9992.780217
264.660917,3370.820191,2368.659014,7179.997637
264.661225,4903.011187,3997.112087,5699.585753
264.661532,6128.763984,4515.256246,4367.215058
264.661840,6281.983084,5181.441594,3552.988522
264.662148,5669.106685,4515.256246,4293.194464
264.662456,3907.087040,3404.947333,5625.565159
264.662764,1378.971896,1554.432478,8882.471304
264.663072,-1149.143247,-1776.494261,11547.212695
264.663380,-3447.429741,-3627.009116,13323.706956
264.663688,-4826.401637,-5255.462188,14434.015869
264.663996,-4213.525239,-4737.318029,14730.098246
264.664304,-2068.457845,-2294.638420,12435.459826
264.664612,459.657299,148.041188,10214.842000
264.664920,2987.772442,1998.556043,8216.285956
264.665228,4826.401637,3330.926739,5995.668130
264.665536,4979.620737,3627.009116,5403.503377
264.665844,4979.620737,3330.926739,5699.585753
264.666152,3140.991542,3034.844362,6365.771101
264.666460,612.876398,518.144159,9548.656652
264.666768,-2221.676944,-1332.370696,12583.501014
264.667076,-4136.915689,-3701.029710,14359.995275
264.667384,-5515.887586,-5551.544565,15248.242405
264.667692,-5132.839837,-5551.544565,15100.201217
264.668000,-3830.477490,-3552.988522,13027.624579
264.668307,-459.657299,-666.185348,10732.986159
264.668615,2528.115143,2294.638420,7402.059420
264.668923,4519.963438,3627.009116,5255.462188
264.669231,5975.544884,4367.215058,3923.091493
264.669539,5592.497135,4663.297435,3478.967927
264.669847,4903.011187,4589.276840,4737.318029
264.670155,3600.648841,3108.864956,5995.668130
264.670463,536.266849,1776.494261,8142.265362
264.670771,-1608.800546,-1554.432478,11843.295072
264.671079,-3753.867940,-3775.050304,13841.851115
264.671387,-4903.011187,-4663.297435,14730.098246
264.671695,-4366.744339,-4293.194464,14656.077652
264.672003,-2911.162892,-2442.679609,12213.398043
264.672311,306.438199,370.102971,10658.965565
264.672619,3064.381992,2368.659014,8512.368333
264.672927,4366.744339,3182.885551,6143.709319
264.673235,5056.230287,3701.029710,5181.441594
264.673543,4826.401637,3330.926739,5625.565159
264.673851,2681.334243,1924.535449,7476.080014
264.674159,919.314598,148.041188,9770.718434
264.674467,-1608.800546,-2072.576638,13175.665768
264.674775,-4060.306139,-3552.988522,14359.995275
264.675083,-4443.353888,-4885.359217,15100.201217
264.675390,-4519.963438,-4959.379811,14656.077652
264.675698,-2757.943793,-3034.844362,13027.624579
264.676006,76.609550,-0.000000,10362.883188
264.676314,2911.162892,2368.659014,7846.182985
264.676622,5362.668486,3775.050304,5625.565159
264.676930,6358.592633,4515.256246,3627.009116
264.677238,6435.202183,5329.482782,3404.947333
264.677546,4979.620737,4737.318029,4441.235652
264.677854,3830.477490,3997.112087,6439.791695
264.678162,1455.581446,1628.453072,8956.491898
264.678470,-1378.971896,-1406.391290,12065.356855
264.678778,-3294.210641,-3478.967927,13915.871710
264.679086,-4213.525239,-4515.256246,14656.077652
264.679394,-4366.744339,-4219.173869,14211.954086
264.679702,-2374.896044,-1776.494261,12731.542202
264.680010,919.314598,962.267725,9992.780217
264.680318,3524.039291,2368.659014,8068.244768
264.680626,4673.182538,3404.947333,6069.688724
264.680934,4979.620737,3552.988522,5551.544565
264.681242,4366.744339,2812.782580,6513.812290
264.681550,2911.162892,1924.535449,7698.141797
264.681858,536.266849,-0.000000,10066.800811
264.682165,-1149.143247,-2368.659014,12731.542202
264.682473,-3217.601092,-3997.112087,14063.912898
264.682781,-4903.011187,-4885.359217,14730.098246
264.683089,-4519.963438,-5107.421000,14804.118840
264.683397,-2681.334243,-2812.782580,12731.542202
264.683705,229.828649,-148.041188,10362.883188
264.684013,3447.429741,2590.720797,7624.121203
264.684321,4903.011187,3997.112087,4737.318029
264.684629,6588.421283,5255.462188,4145.153275
264.684937,6741.640382,5107.421000,3330.926739
264.685245,6052.154434,4811.338623,3775.050304
264.685553,3830.477490,3701.029710,5995.668130
264.685861,1762.019645,1258.350101,8660.409521
264.686169,-1762.019645,-2072.576638,11547.212695
264.686477,-3830.477490,-3404.947333,13915.871710
264.686785,-4749.792088,-5329.482782,15174.221811
264.687093,-5209.449386,-4367.215058,14730.098246
264.687401,-2987.772442,-2146.597232,13397.727550
264.687709,229.828649,592.164754,10584.944971
264.688017,2451.505594,2516.700203,8734.430116
264.688325,3830.477490,3404.947333,7254.018232
264.688633,4366.744339,3330.926739,6587.832884
264.688941,4060.306139,3552.988522,7105.977043
264.689249,1762.019645,2220.617826,8364.327145
264.689557,153.219100,444.123565,10658.965565
264.689865,-1455.581446,-1776.494261,13397.727550
264.690173,-4596.572988,-3775.050304,14063.912898
264.690481,-5056.230287,-4885.359217,14952.160028
264.690789,-4519.963438,-4219.173869,14211.954086
264.691097,-1685.410096,-2664.741391,12731.542202
264.691405,459.657299,-0.000000,9474.636058
264.691713,3677.258390,2960.823768,7105.977043
264.692021,5132.839837,4293.194464,4959.379811
264.692329,6588.421283,5107.421000,3627.009116
264.692637,7048.078582,5181.441594,3478.967927
264.692945,5286.058936,4959.379811,3997.112087
264.693254,3907.087040,2886.803174,6661.853478
264.693562,1685.410096,888.247130,9030.512492
264.693870,-1149.143247,-1924.535449,11843.295072
264.694178,-3983.696590,-3108.864956,13545.768739
264.694486,-4443.353888,-4811.338623,14211.954086
264.694794,-3983.696590,-4071.132681,14285.974681
264.695102,-2145.067394,-1628.453072,12361.439231
264.695410,1149.143247,666.185348,9622.677246
264.695718,2834.553343,1776.494261,7402.059420
264.696026,4290.134789,2442.679609,6957.935855
264.696334,4596.572988,1776.494261,6217.729913
264.696642,3140.991542,1776.494261,6809.894666
264.696950,1532.190996,222.061783,8660.409521
264.697258,-842.705048,-1332.370696,10362.883188
264.697566,-2451.505594,-2590.720797,12731.542202
264.697874,-4213.525239,-4293.194464,14137.933492
264.698182,-4979.620737,-4811.338623,14359.995275
264.698490,-4443.353888,-4515.256246,14359.995275
264.698798,-2451.505594,-2590.720797,12213.398043
264.699106,919.314598,-0.000000,9252.574275
264.699414,4060.306139,3256.906145,6587.832884
264.699722,5592.497135,4737.318029,4663.297435
264.700030,6358.592633,5403.503377,3478.967927
264.700338,6665.030833,5921.647536,3182.885551
264.700646,5286.058936,5255.462188,4219.173869
264.700954,3830.477490,3775.050304,6069.688724
264.701262,766.095498,1554.432478,8734.430116
264.701570,-1685.410096,-1776.494261,12287.418637
264.701878,-3907.087040,-3701.029710,13841.851115
264.702186,-4903.011187,-4589.276840,14656.077652
264.702494,-4060.306139,-3923.091493,14582.057057
264.702802,-1915.238745,-1776.494261,12583.501014
264.703110,689.485948,592.164754,10066.800811
264.703419,2681.334243,2664.741391,8882.471304
264.703727,4443.353888,2886.803174,7402.059420
264.704035,3907.087040,3404.947333,5921.647536
264.704343,4136.915689,2590.720797,7105.977043
264.704651,2145.067394,2072.576638,8660.409521
264.704959,-306.438199,-0.000000,10881.027347
264.705267,-2298.286494,-1850.514855,13323.706956
264.705575,-4673.182538,-3330.926739,14285.974681
264.705883,-5439.278036,-4737.318029,15692.365970
264.706191,-4903.011187,-4367.215058,15174.221811
264.706499,-2528.115143,-2738.761985,12583.501014
264.706807,766.095498,-592.164754,10510.924376
264.707115,2604.724693,2738.761985,5921.647536
264.707423,4979.620737,3997.112087,4811.338623
264.707731,6511.811733,4589.276840,3997.112087
264.708039,5975.544884,4959.379811,3034.844362
264.708347,4903.011187,4219.173869,4219.173869
264.708655,3524.039291,3108.864956,5995.668130
264.708963,766.095498,518.144159,9178.553681
264.709271,-1685.410096,-2146.597232,12065.356855
264.709579,-3677.258390,-3701.029710,13471.748144
264.709887,-4903.011187,-4737.318029,14359.995275
264.710195,-4136.915689,-4145.153275,14137.933492
264.710503,-1991.848295,-1406.391290,12139.377449
264.710811,842.705048,740.205942,9918.759623
264.711119,3217.601092,1628.453072,8216.285956
264.711427,4826.401637,3108.864956,6513.812290
264.711735,4290.134789,2812.782580,5847.626942
264.712043,3140.991542,2368.659014,7031.956449
264.712351,1838.629195,1110.308913,8660.409521
264.712659,0.000000,-148.041188,10362.883188
264.712967,-2451.505594,-1702.473667,12213.398043
264.713275,-4136.915689,-3849.070898,13397.727550
264.713584,-4749.792088,-4663.297435,14730.098246
264.713892,-3753.867940,-4663.297435,14137.933492
264.714200,-2451.505594,-3256.906145,12361.439231
264.714508,612.876398,-148.041188,9844.739029
264.714816,3370.820191,2368.659014,6365.771101
264.715124,5439.278036,3997.112087,5033.400406
264.715432,6358.592633,4515.256246,4515.256246
264.715740,6894.859482,5329.482782,2812.782580
264.716048,5745.716235,4663.297435,4515.256246
264.716356,3370.820191,2886.803174,6883.915261
264.716664,1225.752797,962.267725,9104.533087
264.716972,-1455.581446,-1406.391290,11695.253884
264.717280,-3370.820191,-3404.947333,13323.706956
264.717588,-4136.915689,-4219.173869,14063.912898
264.717896,-3677.258390,-3478.967927,14434.015869
264.718204,-1072.533697,-1628.453072,12509.480420
264.718512,1455.581446,1184.329507,9326.594869
264.718820,3294.210641,2886.803174,7920.203579
264.719128,4519.963438,3034.844362,6661.853478
264.719436,3753.867940,2812.782580,6291.750507
264.719744,3217.601092,2368.659014,7550.100608
264.720052,1608.800546,1258.350101,8438.347739
264.720360,-383.047749,-222.061783,10807.006753
264.720668,-2221.676944,-2220.617826,12435.459826
264.720976,-3524.039291,-3478.967927,14211.954086
264.721284,-4749.792088,-4515.256246,15248.242405
264.721592,-3983.696590,-3923.091493,14952.160028
264.721900,-2068.457845,-2368.659014,12361.439231
264.722208,1149.143247,888.247130,9474.636058
264.722516,3677.258390,3034.844362,6661.853478
264.722824,5822.325785,4737.318029,4811.338623
264.723132,6665.030833,5625.565159,3997.112087
264.723440,6435.202183,5699.585753,3256.906145
264.723749,5669.106685,4515.256246,4663.297435
264.724057,3140.991542,2960.823768,6661.853478
264.724365,612.876398,296.082377,9178.553681
264.724673,-2374.896044,-2294.638420,11843.295072
264.724981,-4290.134789,-4293.194464,14211.954086
264.725289,-5132.839837,-5033.400406,14878.139434
264.725597,-4290.134789,-3775.050304,15026.180623
264.725905,-1762.019645,-1554.432478,12731.542202
264.726213,689.485948,666.185348,10066.800811
264.726521,2528.115143,2368.659014,8216.285956
264.726829,3907.087040,3034.844362,6957.935855
264.727137,4290.134789,3034.844362,6365.771101
264.727445,2987.772442,2516.700203,7105.977043
264.727753,1608.800546,1332.370696,8216.285956
264.728061,-383.047749,-444.123565,10510.924376
264.728369,-2604.724693,-2590.720797,12583.501014
264.728677,-4519.963438,-4737.318029,14211.954086
264.728985,-5056.230287,-4737.318029,14952.160028
264.729293,-4596.572988,-4367.215058,13841.851115
264.729601,-2451.505594,-2220.617826,11769.274478
264.729909,1072.533697,-74.020594,9326.594869
264.730217,3753.867940,3182.885551,6513.812290
264.730525,5592.497135,4145.153275,4293.194464
264.730833,6818.249932,5329.482782,3256.906145
264.731141,6818.249932,5255.462188,3256.906145
264.731449,5286.058936,4441.235652,4737.318029
264.731757,3217.601092,2516.700203,6735.874072
264.732065,842.705048,222.061783,9178.553681
264.732373,-2145.067394,-2368.659014,12213.398043
264.732681,-3907.087040,-3997.112087,14063.912898
264.732989,-4443.353888,-4737.318029,14878.139434
264.733297,-3600.648841,-4441.235652,14285.974681
264.733606,-995.924147,-1628.453072,12213.398043
264.733914,1455.581446,740.205942,9918.759623
264.734222,3064.381992,2368.659014,7550.100608
264.734530,4519.963438,3108.864956,6439.791695
264.734838,4443.353888,3256.906145,6365.771101
264.735146,3370.820191,2368.659014,7031.956449
264.735454,2145.067394,1776.494261,8734.430116
264.735762,536.266849,-370.102971,10288.862594
264.736070,-1991.848295,-2442.679609,13027.624579
264.736378,-3983.696590,-3775.050304,14211.954086
264.736686,-4903.011187,-4885.359217,15100.201217
264.736994,-4596.572988,-4589.276840,14508.036463
264.737302,-2068.457845,-2812.782580,12435.459826
264.737610,1225.752797,-0.000000,9474.636058
264.737918,3753.867940,2812.782580,6957.935855
264.738226,6588.421283,4441.235652,4885.359217
264.738534,6894.859482,5477.523971,3478.967927
264.738842,6894.859482,5773.606348,3701.029710
264.739150,5822.325785,4737.318029,4737.318029
264.739458,3983.696590,3034.844362,6661.853478
264.739766,1149.143247,1110.308913,9326.594869
264.740074,-842.705048,-2072.576638,11547.212695
264.740382,-2681.334243,-3775.050304,13693.809927
264.740690,-3983.696590,-4441.235652,14434.015869
264.740998,-3524.039291,-3627.009116,14434.015869
264.741306,-1149.143247,-1184.329507,12287.418637
264.741614,1225.752797,1480.411884,9400.615463
264.741922,3600.648841,2516.700203,8364.327145
264.742230,4596.572988,3552.988522,6217.729913
264.742538,3907.087040,3404.947333,6291.750507
264.742846,3140.991542,2664.741391,7550.100608
264.743154,1762.019645,1776.494261,8216.285956
264.743462,76.609550,-74.020594,10584.944971
264.743771,-2604.724693,-2294.638420,12731.542202
264.744079,-4290.134789,-4071.132681,14508.036463
264.744387,-5515.887586,-5033.400406,15840.407159
264.744695,-5056.230287,-4737.318029,14804.118840
264.745003,-2834.553343,-3108.864956,13471.748144
264.745311,-459.657299,-740.205942,9770.718434
264.745619,2681.334243,2146.597232,7105.977043
264.745927,5286.058936,3627.009116,4737.318029
264.746235,5898.935335,4589.276840,4145.153275
264.746543,6052.154434,5181.441594,3108.864956
264.746851,4903.011187,4737.318029,4293.194464
264.747159,3217.601092,2812.782580,6365.771101
264.747467,1149.143247,592.164754,8364.327145
264.747775,-1532.190996,-2146.597232,11547.212695
264.748083,-3447.429741,-3849.070898,13397.727550
264.748391,-4366.744339,-4811.338623,13693.809927
264.748699,-3600.648841,-4145.153275,13767.830521
264.749007,-1532.190996,-1702.473667,12213.398043
264.749315,1532.190996,740.205942,9474.636058
264.749623,2987.772442,2220.617826,7402.059420
264.749931,4366.744339,3256.906145,7031.956449
264.750239,3600.648841,3034.844362,5995.668130
264.750547,3294.210641,2516.700203,6809.894666
264.750855,1608.800546,1480.411884,8512.368333
264.751163,0.000000,-222.061783,10288.862594
264.751471,-2374.896044,-2294.638420,12583.501014
264.751779,-4060.306139,-4071.132681,14211.954086
264.752087,-5286.058936,-4959.379811,15174.221811
264.752395,-4443.353888,-4589.276840,14952.160028
264.752703,-2298.286494,-3182.885551,12435.459826
264.753011,0.000000,-148.041188,9844.739029
264.753319,3753.867940,2516.700203,7476.080014
264.753627,5439.278036,4589.276840,4811.338623
264.753936,6128.763984,5255.462188,3923.091493
264.754244,6665.030833,5107.421000,3701.029710
264.754552,5515.887586,4589.276840,4737.318029
264.754860,3524.039291,2516.700203,6513.812290
264.755168,1149.143247,740.205942,8956.491898
264.755476,-1072.533697,-2072.576638,11991.336260
264.755784,-2757.943793,-3775.050304,13693.809927
264.756092,-4060.306139,-4367.215058,14359.995275
264.756400,-3140.991542,-3627.009116,14211.954086
264.756708,-842.705048,-1110.308913,12287.418637
264.757016,1532.190996,1628.453072,9474.636058
264.757324,4136.915689,2738.761985,7328.038826
264.757632,4596.572988,3182.885551,6069.688724
264.757940,4366.744339,3108.864956,6143.709319
264.758248,3447.429741,2516.700203,7550.100608
264.758556,1762.019645,1036.288319,9030.512492
264.758864,-383.047749,-296.082377,10436.903782
264.759172,-2604.724693,-2516.700203,13027.624579
264.759480,-4060.306139,-4071.132681,14582.057057
264.759788,-4903.011187,-4811.338623,15470.304188
264.760096,-4826.401637,-4441.235652,14730.098246
264.760404,-1225.752797,-2294.638420,12213.398043
264.760712,1072.533697,962.267725,8734.430116
264.761020,4366.744339,3701.029710,6661.853478
264.761328,5898.935335,5107.421000,4219.173869
264.761636,6665.030833,5625.565159,3034.844362
264.761944,6052.154434,4737.318029,3923.091493
264.762252,4826.401637,3923.091493,5033.400406
264.762560,2911.162892,2368.659014,7031.956449
264.762868,-459.657299,-444.123565,9770.718434
264.763176,-2451.505594,-2664.741391,12213.398043
264.763484,-4443.353888,-4737.318029,14582.057057
264.763792,-4903.011187,-4959.379811,15174.221811
264.764101,-3447.429741,-3627.009116,14211.954086
264.764409,-1302.362347,-1110.308913,11547.212695
264.764717,1838.629195,1332.370696,9474.636058
264.765025,2987.772442,2368.659014,7846.182985
264.765333,4136.915689,3627.009116,6513.812290
264.765641,3753.867940,3701.029710,5699.585753
264.765949,3140.991542,2812.782580,6661.853478
264.766257,1149.143247,1702.473667,8438.347739
264.766565,-842.705048,-888.247130,10955.047942
264.766873,-3064.381992,-2590.720797,12953.603985
264.767181,-4749.792088,-5107.421000,14285.974681
264.767489,-5592.497135,-6143.709319,15174.221811
264.767797,-4749.792088,-5329.482782,14730.098246
264.768105,-2604.724693,-2738.761985,12805.562797
264.768413,612.876398,518.144159,9696.697840
264.768721,3907.087040,3552.988522,6513.812290
264.769029,5669.106685,5329.482782,4071.132681
264.769337,7048.078582,5773.606348,3701.029710
264.769645,6741.640382,5329.482782,2886.803174
264.769953,5209.449386,4441.235652,4515.256246
264.770261,3140.991542,2294.638420,7105.977043
264.770569,153.219100,-222.061783,9622.677246
264.770877,-2068.457845,-2664.741391,12583.501014
264.771185,-4366.744339,-4589.276840,14434.015869
264.771493,-4366.744339,-4737.318029,15026.180623
264.771801,-2757.943793,-3923.091493,13989.892304
264.772109,-1149.143247,-1332.370696,12065.356855
264.772417,1378.971896,1036.288319,9178.553681
264.772725,3677.258390,2368.659014,7772.162391
264.773033,4290.134789,3775.050304,6291.750507
264.773341,4290.134789,3478.967927,6143.709319
264.773649,3370.820191,2812.782580,7179.997637
264.773957,1838.629195,1406.391290,8364.327145
264.774266,-153.219100,-740.205942,10732.986159
264.774574,-2451.505594,-2960.823768,13027.624579
264.774882,-4366.744339,-4663.297435,14878.139434
264.775190,-4979.620737,-5847.626942,15692.365970
264.775498,-4443.353888,-4885.359217,14285.974681
264.775806,-1762.019645,-1924.535449,11769.274478
264.776114,1532.190996,1110.308913,9104.533087
264.776422,4903.011187,4219.173869,5847.626942
264.776730,7354.516781,5329.482782,3627.009116
264.777038,7431.126331,5773.606348,3256.906145
264.777346,7124.688131,5329.482782,3330.926739
264.777654,5669.106685,4293.194464,5107.421000
264.777962,3064.381992,2368.659014,6957.935855
264.778270,842.705048,-0.000000,9178.553681
264.778578,-2068.457845,-2590.720797,12287.418637
264.778886,-4060.306139,-4293.194464,14211.954086
264.779194,-3983.696590,-5255.462188,15174.221811
264.779502,-3524.039291,-3775.050304,14211.954086
264.779810,-919.314598,-888.247130,12065.356855
264.780118,1991.848295,1184.329507,9474.636058
264.780426,3447.429741,2738.761985,7772.162391
264.780734,4290.134789,4071.132681,6439.791695
264.781042,3907.087040,3849.070898,5921.647536
264.781350,3140.991542,3182.885551,7105.977043
264.781658,1532.190996,1554.432478,8438.347739
264.781966,-153.219100,-592.164754,10140.821405
264.782274,-2987.772442,-2960.823768,12805.562797
264.782582,-4749.792088,-4515.256246,15100.201217
264.782890,-6128.763984,-5699.585753,15544.324782
264.783198,-5439.278036,-5551.544565,15396.283594
264.783506,-2987.772442,-2812.782580,12509.480420
264.783814,919.314598,962.267725,9326.594869
264.784122,3217.601092,3478.967927,6439.791695
264.784431,5898.935335,5255.462188,4441.235652
264.784739,6511.811733,5699.585753,3627.009116
264.785047,5975.544884,5551.544565,3627.009116
264.785355,4366.744339,4589.276840,4737.318029
264.785663,2834.553343,2368.659014,7402.059420
264.785971,0.000000,-0.000000,9622.677246
264.786279,-2757.943793,-2590.720797,12657.521608
264.786587,-3600.648841,-4737.318029,14730.098246
264.786895,-5669.106685,-5107.421000,14730.098246
264.787203,-4060.306139,-4293.194464,15248.242405
264.787511,-842.705048,-1702.473667,11769.274478
264.787819,1915.238745,1036.288319,9474.636058
264.788127,2987.772442,2516.700203,7105.977043
264.788435,4519.963438,3775.050304,5773.606348
264.788743,4443.353888,3552.988522,6661.853478
264.789051,3217.601092,2516.700203,6661.853478
264.789359,2528.115143,1850.514855,8216.285956
264.789667,0.000000,-222.061783,10436.903782
264.789975,-2604.724693,-2886.803174,12805.562797
264.790283,-4443.353888,-4515.256246,14582.057057
264.790591,-5286.058936,-5181.441594,15396.283594
264.790899,-4903.011187,-4737.318029,14434.015869
264.791207,-2221.676944,-2220.617826,12139.377449
264.791515,1378.971896,814.226536,9104.533087
264.791823,4290.134789,3627.009116,6291.750507
264.792131,6205.373534,4959.379811,4589.276840
264.792439,6971.469032,5551.544565,3701.029710
264.792748,6128.763984,5181.441594,3627.009116
264.793056,4673.182538,3775.050304,5033.400406
264.793364,2834.553343,2220.617826,7254.018232
264.793672,995.924147,-518.144159,10066.800811
264.793980,-1838.629195,-3256.906145,12139.377449
264.794288,-3524.039291,-4885.359217,14434.015869
264.794596,-4443.353888,-5255.462188,15026.180623
264.794904,-3064.381992,-3627.009116,13989.892304
264.795212,0.000000,-740.205942,11473.192101
264.795520,2298.286494,1554.432478,9178.553681
264.795828,4136.915689,3034.844362,7105.977043
264.796136,5286.058936,3923.091493,5921.647536
264.796444,4903.011187,3775.050304,5995.668130
264.796753,3983.696590,3034.844362,7105.977043
264.797061,2451.505594,1924.535449,7772.162391
264.797369,-153.219100,-592.164754,10584.944971
264.797677,-2374.896044,-2590.720797,12509.480420
264.797985,-3753.867940,-3997.112087,14211.954086
264.798293,-4903.011187,-4959.379811,15026.180623
264.798601,-3600.648841,-4441.235652,14211.954086
264.798909,-1225.752797,-2146.597232,11917.315666
264.799217,1608.800546,1036.288319,9474.636058
264.799525,4673.182538,3701.029710,6365.771101
264.799833,6052.154434,4959.379811,3923.091493
264.800141,6205.373534,5625.565159,3478.967927
264.800449,5669.106685,4885.359217,4071.132681
264.800758,4749.792088,3997.112087,5329.482782
264.801066,2604.724693,2072.576638,7476.080014
264.801374,-383.047749,-222.061783,9844.739029
264.801682,-2987.772442,-3330.926739,12287.418637
264.801990,-4136.915689,-4959.379811,15174.221811
264.802298,-4596.572988,-4811.338623,14878.139434
264.802606,-3907.087040,-3627.009116,13693.809927
264.802914,-995.924147,-962.267725,11991.336260
264.803222,1608.800546,1184.329507,9326.594869
264.803530,2834.553343,3330.926739,7254.018232
264.803838,4519.963438,3478.967927,6735.874072
264.804146,4366.744339,3182.885551,5699.585753
264.804454,3140.991542,2294.638420,6809.894666
264.804763,1149.143247,1184.329507,8438.347739
264.805071,-995.924147,-1036.288319,10436.903782
264.805379,-3217.601092,-3108.864956,12805.562797
264.805687,-4749.792088,-4737.318029,14137.933492
264.805995,-5439.278036,-5329.482782,14656.077652
264.806303,-4443.353888,-4145.153275,14063.912898
264.806611,-1991.848295,-1554.432478,11843.295072
264.806919,1608.800546,1924.535449,8512.368333
264.807227,4366.744339,3701.029710,6069.688724
264.807535,5669.106685,5403.503377,3923.091493
264.807843,5898.935335,5625.565159,3552.988522
264.808151,5439.278036,4737.318029,4737.318029
264.808459,4519.963438,4219.173869,5255.462188
264.808768,1455.581446,1184.329507,7698.141797
264.809076,-842.705048,-1332.370696,10584.944971
264.809384,-3064.381992,-3552.988522,13175.665768
264.809692,-4443.353888,-4515.256246,14804.118840
264.810000,-4749.792088,-4959.379811,14804.118840
264.810308,-2834.553343,-3478.967927,14211.954086
264.810616,-306.438199,-1036.288319,11547.212695
264.810924,1762.019645,1332.370696,8956.491898
264.811232,3600.648841,3034.844362,7476.080014
264.811540,4903.011187,3997.112087,6217.729913
264.811848,4903.011187,3701.029710,6143.709319
264.812156,3753.867940,2812.782580,6809.894666
264.812464,2298.286494,1702.473667,8512.368333
264.812773,0.000000,-370.102971,10288.862594
264.813081,-2451.505594,-2516.700203,12583.501014
264.813389,-4290.134789,-4811.338623,14582.057057
264.813697,-4826.401637,-5773.606348,15544.324782
264.814005,-3753.867940,-4441.235652,14434.015869
264.814313,-995.924147,-1924.535449,11473.192101
264.814621,1838.629195,1776.494261,8438.347739
264.814929,4673.182538,3923.091493,6365.771101
264.815237,6358.592633,5329.482782,3997.112087
264.815545,6588.421283,6291.750507,3256.906145
264.815853,6128.763984,5181.441594,4145.153275
264.816161,4749.792088,4145.153275,5403.503377
264.816469,1991.848295,2146.597232,8364.327145
264.816777,0.000000,-592.164754,10807.006753
264.817086,-2681.334243,-2886.803174,12509.480420
264.817394,-4213.525239,-4663.297435,14582.057057
264.817702,-4366.744339,-4885.359217,15470.304188
264.818010,-3140.991542,-3701.029710,14063.912898
264.818318,0.000000,-1110.308913,12065.356855
264.818626,2451.505594,1036.288319,8882.471304
264.818934,3983.696590,2812.782580,7105.977043
264.819242,5132.839837,3701.029710,6439.791695
264.819550,4366.744339,4293.194464,5181.441594
264.819858,4136.915689,3182.885551,6661.853478
264.820166,2145.067394,1924.535449,8290.306550
264.820474,-306.438199,-518.144159,10214.842000
264.820782,-2757.943793,-2812.782580,13027.624579
264.821091,-4903.011187,-5255.462188,14952.160028
264.821399,-5592.497135,-5403.503377,15692.365970
264.821707,-4596.572988,-4589.276840,14656.077652
264.822015,-1991.848295,-1850.514855,12139.377449
264.822323,842.705048,1554.432478,7920.203579
264.822631,4749.792088,3330.926739,7105.977043
264.822939,5669.106685,4959.379811,3552.988522
264.823247,5439.278036,5773.606348,3849.070898
264.823555,5975.544884,4145.153275,5477.523971
264.823863,3830.477490,4441.235652,4219.173869
264.824171,2528.115143,1554.432478,8142.265362
264.824479,-459.657299,-0.000000,8882.471304
264.824787,-2145.067394,-3330.926739,12953.603985
264.825096,-4290.134789,-4663.297435,14211.954086
264.825404,-4596.572988,-4811.338623,14285.974681
264.825712,-3600.648841,-4737.318029,14656.077652
264.826020,-995.924147,-2072.576638,11251.130318
264.826328,842.705048,1110.308913,9770.718434
264.826636,3370.820191,2368.659014,7624.121203
264.826944,4596.572988,3997.112087,5773.606348
264.827252,4060.306139,4441.235652,4885.359217
264.827560,3907.087040,3478.967927,6809.894666
264.827868,2604.724693,2072.576638,8438.347739
264.828176,-229.828649,-518.144159,9918.759623
264.828484,-2145.067394,-2590.720797,12731.542202
264.828792,-4596.572988,-4589.276840,14063.912898
264.829101,-4903.011187,-4737.318029,14952.160028
264.829409,-3983.696590,-4515.256246,14508.036463
264.829717,-1762.019645,-1998.556043,11843.295072
264.830025,1532.190996,1332.370696,9104.533087
264.830333,4443.353888,3478.967927,6143.709319
264.830641,5898.935335,4293.194464,4811.338623
264.830949,5669.106685,4885.359217,4293.194464
264.831257,5439.278036,4441.235652,4441.235652
264.831565,3983.696590,3997.112087,5847.626942
264.831873,2145.067394,2146.597232,7994.224174
264.832181,153.219100,-0.000000,10214.842000
264.832489,-2221.676944,-2368.659014,12731.542202
264.832797,-4366.744339,-4219.173869,14285.974681
264.833106,-3907.087040,-4589.276840,14952.160028
264.833414,-2987.772442,-3404.947333,13841.851115
264.833722,-995.924147,-1554.432478,12287.418637
264.834030,1838.629195,1480.411884,9104.533087
264.834338,3907.087040,3330.926739,7105.977043
264.834646,4673.182538,4293.194464,5773.606348
264.834954,4596.572988,3997.112087,5921.647536
264.835262,3217.601092,3182.885551,6957.935855
264.835570,1915.238745,1924.535449,8216.285956
264.835878,383.047749,-740.205942,10881.027347
264.836186,-2451.505594,-2886.803174,13249.686362
264.836494,-4366.744339,-4885.359217,14878.139434
264.836802,-5132.839837,-5255.462188,14730.098246
264.837111,-3907.087040,-4145.153275,13915.871710
264.837419,-1608.800546,-1702.473667,11917.315666
264.837727,2451.505594,1258.350101,8808.450710
264.838035,4366.744339,3552.988522,5995.668130
264.838343,5822.325785,5107.421000,4071.132681
264.838651,6435.202183,5181.441594,3701.029710
264.838959,5286.058936,5625.565159,3849.070898
264.839267,4060.306139,3923.091493,5551.544565
264.839575,2221.676944,1850.514855,7550.100608
264.839883,-383.047749,-592.164754,10436.903782
264.840191,-3294.210641,-2738.761985,12953.603985
264.840499,-4826.401637,-5329.482782,14582.057057
264.840807,-4903.011187,-5921.647536,15544.324782
264.841116,-4290.134789,-4145.153275,14434.015869
264.841424,-1532.190996,-1702.473667,11769.274478
264.841732,1455.581446,888.247130,9178.553681
264.842040,3294.210641,2516.700203,7328.038826
264.842348,4213.525239,3701.029710,5921.647536
264.842656,4596.572988,3701.029710,5403.503377
264.842964,3830.477490,2812.782580,6661.853478
264.843272,2068.457845,1702.473667,8142.265362
264.843580,-383.047749,-740.205942,9992.780217
264.843888,-2987.772442,-2664.741391,12657.521608
264.844196,-4749.792088,-4737.318029,14137.933492
264.844504,-5209.449386,-5329.482782,14582.057057
264.844812,-4136.915689,-4663.297435,13767.830521
264.845120,-1532.190996,-2294.638420,11621.233289
264.845429,1225.752797,1036.288319,8142.265362
264.845737,4290.134789,3923.091493,6291.750507
264.846045,5592.497135,4663.297435,4515.256246
264.846353,6128.763984,5329.482782,3552.988522
264.846661,5822.325785,5033.400406,4367.215058
264.846969,4290.134789,4293.194464,5181.441594
264.847277,2451.505594,2146.597232,7772.162391
264.847585,0.000000,-0.000000,10510.924376
264.847893,-2757.943793,-2886.803174,12879.583391
264.848201,-4673.182538,-4737.318029,15026.180623
264.848509,-4366.744339,-5107.421000,15396.283594
264.848817,-3370.820191,-3552.988522,13841.851115
264.849125,-306.438199,-1110.308913,11843.295072
264.849434,2298.286494,1628.453072,9178.553681
264.849742,4136.915689,3330.926739,7402.059420
264.850050,5209.449386,3775.050304,6217.729913
264.850358,4903.011187,4071.132681,6217.729913
264.850666,3217.601092,2960.823768,8142.265362
264.850974,2145.067394,1332.370696,8808.450710
264.851282,-612.876398,-666.185348,11103.089130
264.851590,-3447.429741,-2812.782580,14285.974681
264.851898,-5056.230287,-4367.215058,15396.283594
264.852206,-5362.668486,-4959.379811,15396.283594
264.852514,-4060.306139,-3627.009116,14434.015869
264.852822,-383.047749,-1480.411884,11917.315666
264.853130,2604.724693,1776.494261,8216.285956
264.853439,4826.401637,4441.235652,5551.544565
264.853747,6741.640382,5181.441594,4071.132681
264.854055,6818.249932,5921.647536,3404.947333
264.854363,6281.983084,5625.565159,3849.070898
264.854671,4673.182538,4219.173869,4959.379811
264.854979,2757.943793,1924.535449,7994.224174
264.855287,-536.266849,-444.123565,10732.986159
264.855595,-3524.039291,-3330.926739,13619.789333
264.855903,-4903.011187,-5033.400406,14508.036463
264.856211,-5056.230287,-5403.503377,15100.201217
264.856519,-3600.648841,-3775.050304,14285.974681
264.856827,-766.095498,-1036.288319,11473.192101
264.857135,1838.629195,1480.411884,8882.471304
264.857444,4060.306139,2960.823768,7105.977043
264.857752,5209.449386,3775.050304,5921.647536
264.858060,3983.696590,3701.029710,6143.709319
264.858368,3524.039291,2442.679609,7031.956449
264.858676,1455.581446,1110.308913,8142.265362
264.858984,-919.314598,-1406.391290,10807.006753
264.859292,-3217.601092,-3478.967927,12805.562797
264.859600,-4979.620737,-5107.421000,14211.954086
264.859908,-5439.278036,-6069.688724,14804.118840
264.860216,-4290.134789,-4737.318029,13175.665768
264.860524,-995.924147,-2072.576638,11251.130318
264.860832,1608.800546,1184.329507,8142.265362
264.861140,4903.011187,3404.947333,5255.462188
264.861449,6741.640382,4737.318029,3108.864956
264.861757,6818.249932,4811.338623,3108.864956
264.862065,6052.154434,4663.297435,3997.112087
264.862373,4136.915689,3849.070898,5551.544565
264.862681,1838.629195,2220.617826,8216.285956
264.862989,-1225.752797,-592.164754,11029.068536
264.863297,-3447.429741,-3330.926739,13693.809927
264.863605,-5439.278036,-5181.441594,15174.221811
264.863913,-5592.497135,-5477.523971,15618.345376
264.864221,-3983.696590,-3701.029710,14211.954086
264.864529,-995.924147,-296.082377,11695.253884
264.864837,1685.410096,1628.453072,9104.533087
264.865145,4366.744339,3627.009116,6809.894666
264.865454,4979.620737,4811.338623,5847.626942
264.865762,4979.620737,4737.318029,5773.606348
264.866070,3677.258390,3627.009116,6587.832884
264.866378,1915.238745,1776.494261,8882.471304
264.866686,-383.047749,-666.185348,10807.006753
264.866994,-3064.381992,-2294.638420,12435.459826
264.867302,-4366.744339,-4737.318029,15100.201217
264.867610,-5132.839837,-4737.318029,14878.139434
264.867918,-4366.744339,-4145.153275,14359.995275
264.868226,-612.876398,-666.185348,11621.233289
264.868534,2145.067394,2072.576638,7994.224174
264.868842,4596.572988,3849.070898,5847.626942
264.869150,6052.154434,5477.523971,3923.091493
264.869459,6511.811733,5625.565159,4145.153275
264.869767,6358.592633,5033.400406,4811.338623
264.870075,4673.182538,3997.112087,5255.462188
264.870383,1915.238745,1924.535449,8438.347739
264.870691,-766.095498,-1776.494261,11621.233289
264.870999,-3140.991542,-3256.906145,13545.768739
264.871307,-5286.058936,-5181.441594,15100.201217
264.871615,-5132.839837,-5699.585753,15692.365970
264.871923,-4060.306139,-3997.112087,14063.912898
264.872231,-536.266849,-740.205942,11843.295072
264.872539,2374.896044,1850.514855,9178.553681
264.872847,4366.744339,3182.885551,6439.791695
264.873155,5132.839837,4219.173869,5995.668130
264.873464,5056.230287,3849.070898,5995.668130
264.873772,4213.525239,3034.844362,6513.812290
264.874080,1915.238745,1924.535449,8290.306550
264.874388,-306.438199,-296.082377,11103.089130
264.874696,-2834.553343,-2886.803174,12435.459826
264.875004,-4213.525239,-4293.194464,14434.015869
264.875312,-5132.839837,-5181.441594,15026.180623
264.875620,-3600.648841,-4219.173869,13101.645173
264.875928,-1149.143247,-1406.391290,10955.047942
264.876236,1762.019645,1406.391290,8586.388927
264.876544,4596.572988,3701.029710,5995.668130
264.876852,6205.373534,5033.400406,3997.112087
264.877160,6588.421283,5181.441594,3849.070898
264.877468,6281.983084,4293.194464,4071.132681
264.877777,4443.353888,3552.988522,5403.503377
264.878085,1915.238745,1110.308913,8216.285956
264.878393,-689.485948,-1332.370696,10510.924376
264.878701,-3447.429741,-3330.926739,12731.542202
264.879009,-4749.792088,-5255.462188,15396.283594
264.879317,-4290.134789,-5699.585753,14952.160028
264.879625,-2834.553343,-3701.029710,13545.768739
264.879933,76.609550,-1036.288319,11473.192101
264.880241,2145.067394,1554.432478,8068.244768
264.880549,3830.477490,3552.988522,6735.874072
264.880857,4903.011187,3478.967927,6143.709319
264.881165,4136.915689,3404.947333,5995.668130
