#time,accel_x,accel_y,accel_z
233.398991,2834.553343,-0.000000,9474.636058
233.399299,2911.162892,-74.020594,10140.821405
233.399607,3064.381992,-222.061783,9770.718434
233.399915,3064.381992,-296.082377,9474.636058
233.400223,3447.429741,-148.041188,9548.656652
233.400531,2987.772442,222.061783,9548.656652
233.400839,3447.429741,148.041188,9622.677246
233.401147,3370.820191,-0.000000,9548.656652
233.401455,3600.648841,370.102971,9104.533087
233.401763,3524.039291,740.205942,9104.533087
233.402071,3753.867940,962.267725,9104.533087
233.402379,3524.039291,1258.350101,9252.574275
233.402687,3447.429741,1406.391290,9104.533087
233.402995,3370.820191,1258.350101,9252.574275
233.403303,2987.772442,740.205942,9622.677246
233.403611,2681.334243,-0.000000,10066.800811
233.403919,2451.505594,-296.082377,10881.027347
233.404227,1915.238745,-1110.308913,11103.089130
233.404535,1915.238745,-1406.391290,11473.192101
233.404843,2298.286494,-1406.391290,11547.212695
233.405151,2528.115143,-1258.350101,10436.903782
233.405459,2987.772442,-518.144159,10140.821405
233.405767,3753.867940,-444.123565,9844.739029
233.406075,4060.306139,-222.061783,9326.594869
233.406383,4060.306139,-0.000000,9326.594869
233.406691,3830.477490,-148.041188,9104.533087
233.406999,4519.963438,296.082377,9178.553681
233.407307,4366.744339,-0.000000,9474.636058
233.407615,3983.696590,222.061783,9030.512492
233.407923,4519.963438,-0.000000,9252.574275
233.408231,4366.744339,-0.000000,9326.594869
233.408539,4519.963438,222.061783,9178.553681
233.408847,4826.401637,148.041188,9178.553681
233.409155,5056.230287,296.082377,8734.430116
233.409463,5209.449386,666.185348,8734.430116
233.409771,5209.449386,1110.308913,8438.347739
233.410080,5515.887586,666.185348,8734.430116
233.410388,5286.058936,888.247130,8956.491898
233.410696,5209.449386,1036.288319,8882.471304
233.411004,5056.230287,1702.473667,8660.409521
233.411312,5056.230287,1258.350101,8956.491898
233.411620,5209.449386,1406.391290,8882.471304
233.411928,4903.011187,1332.370696,9104.533087
233.412236,4366.744339,1110.308913,9400.615463
233.412544,3677.258390,1036.288319,9548.656652
233.412852,3677.258390,740.205942,10362.883188
233.413160,3294.210641,-0.000000,10732.986159
233.413468,2757.943793,-74.020594,10807.006753
233.413776,2451.505594,-148.041188,10881.027347
233.414084,2221.676944,-518.144159,11103.089130
233.414392,2068.457845,-666.185348,11177.109724
233.414700,2911.162892,-222.061783,11029.068536
233.415008,2451.505594,-444.123565,11029.068536
233.415316,3370.820191,-0.000000,10584.944971
233.415624,3524.039291,-296.082377,9992.780217
233.415932,3830.477490,-222.061783,10288.862594
233.416240,3830.477490,-444.123565,10288.862594
233.416548,3907.087040,-814.226536,9474.636058
233.416856,4443.353888,-962.267725,10140.821405
233.417164,4290.134789,-1036.288319,9770.718434
233.417472,4596.572988,-1184.329507,9548.656652
233.417780,4749.792088,-518.144159,9400.615463
233.418088,5132.839837,-296.082377,8586.388927
233.418396,5439.278036,-0.000000,8660.409521
233.418704,5439.278036,666.185348,8586.388927
233.419012,5592.497135,888.247130,8290.306550
233.419320,5132.839837,1480.411884,7550.100608
233.419628,4903.011187,1554.432478,7254.018232
233.419936,4826.401637,2146.597232,7179.997637
233.420244,4749.792088,2960.823768,7179.997637
233.420552,4060.306139,3256.906145,7105.977043
233.420860,4060.306139,3478.967927,7402.059420
233.421168,3294.210641,3330.926739,7920.203579
233.421476,2604.724693,2886.803174,9178.553681
233.421784,2528.115143,1998.556043,9992.780217
233.422092,1608.800546,962.267725,9844.739029
233.422400,229.828649,-222.061783,10584.944971
233.422708,-153.219100,-1998.556043,12879.583391
233.423016,-1302.362347,-3108.864956,13397.727550
233.423324,-1915.238745,-4145.153275,14211.954086
233.423632,-2221.676944,-5329.482782,14434.015869
233.423940,-1532.190996,-5181.441594,14211.954086
233.424248,-1455.581446,-4441.235652,12583.501014
233.424556,1225.752797,-2886.803174,12583.501014
233.424864,2911.162892,-1184.329507,10214.842000
233.425172,4136.915689,814.226536,7698.141797
233.425480,6052.154434,1702.473667,7476.080014
233.425788,6741.640382,2516.700203,6217.729913
233.426096,5822.325785,3034.844362,5625.565159
233.426404,5669.106685,2886.803174,5847.626942
233.426712,5209.449386,2812.782580,5847.626942
233.427020,3830.477490,2960.823768,5921.647536
233.427328,2681.334243,3330.926739,5255.462188
233.427636,2451.505594,3478.967927,6735.874072
233.427944,1455.581446,2590.720797,7328.038826
233.428252,612.876398,1554.432478,9178.553681
233.428560,306.438199,-0.000000,10288.862594
233.428868,-1685.410096,-1480.411884,10658.965565
233.429176,-1915.238745,-2738.761985,12583.501014
233.429484,-2451.505594,-4293.194464,14656.077652
233.429792,-2451.505594,-3997.112087,14952.160028
233.430100,-2834.553343,-3997.112087,14211.954086
233.430408,-2221.676944,-3701.029710,14063.912898
233.430716,-612.876398,-3849.070898,13767.830521
233.431024,0.000000,-2664.741391,11695.253884
233.431333,1685.410096,-1554.432478,10807.006753
233.431641,2145.067394,-74.020594,8438.347739
233.431949,3140.991542,1628.453072,7179.997637
233.432257,4366.744339,3701.029710,6513.812290
233.432566,5132.839837,4737.318029,4811.338623
233.432874,4979.620737,6143.709319,3849.070898
233.433182,4979.620737,5995.668130,4219.173869
233.433490,4903.011187,4959.379811,5847.626942
233.433799,1915.238745,3701.029710,6587.832884
233.434107,842.705048,1480.411884,8882.471304
233.434415,-689.485948,-518.144159,11029.068536
233.434724,-3064.381992,-3256.906145,13027.624579
233.435032,-4290.134789,-3997.112087,14508.036463
233.435340,-4060.306139,-3849.070898,15026.180623
233.435648,-3524.039291,-4145.153275,14211.954086
233.435957,-1762.019645,-3182.885551,12657.521608
233.436265,459.657299,-1332.370696,11251.130318
233.436573,1608.800546,-148.041188,9474.636058
233.436881,2834.553343,1776.494261,7179.997637
233.437190,3907.087040,3108.864956,6661.853478
233.437498,4366.744339,3775.050304,6365.771101
233.437806,4290.134789,4219.173869,5773.606348
233.438114,3370.820191,3552.988522,6587.832884
233.438423,2221.676944,2072.576638,7698.141797
233.438731,229.828649,-222.061783,8734.430116
233.439039,-1685.410096,-1998.556043,11473.192101
233.439348,-2451.505594,-3775.050304,13323.706956
233.439656,-3064.381992,-4293.194464,13989.892304
233.439964,-2757.943793,-4219.173869,13841.851115
233.440272,-1302.362347,-4071.132681,13027.624579
233.440581,306.438199,-2590.720797,11991.336260
233.440889,2221.676944,-1036.288319,10288.862594
233.441197,3140.991542,444.123565,8216.285956
233.441505,4596.572988,2294.638420,7031.956449
233.441814,5132.839837,3108.864956,6217.729913
233.442122,4979.620737,4367.215058,4959.379811
233.442430,4903.011187,5033.400406,4663.297435
233.442738,4443.353888,5107.421000,4663.297435
233.443047,3600.648841,4589.276840,5107.421000
233.443355,2451.505594,2664.741391,7624.121203
233.443663,919.314598,-222.061783,10584.944971
233.443972,-1915.238745,-2368.659014,12287.418637
233.444280,-3217.601092,-4145.153275,14285.974681
233.444588,-4290.134789,-5403.503377,15396.283594
233.444896,-4366.744339,-4737.318029,15766.386565
233.445205,-2374.896044,-3108.864956,14952.160028
233.445513,-306.438199,-1110.308913,12509.480420
233.445821,1608.800546,1036.288319,10066.800811
233.446129,4213.525239,3330.926739,8216.285956
233.446438,5132.839837,4589.276840,6217.729913
233.446746,5669.106685,4959.379811,5255.462188
233.447054,5515.887586,5625.565159,4885.359217
233.447362,4596.572988,5551.544565,5329.482782
233.447671,3447.429741,3552.988522,6661.853478
233.447979,1532.190996,1628.453072,7772.162391
233.448287,-689.485948,-148.041188,9696.697840
233.448596,-2528.115143,-2590.720797,11991.336260
233.448904,-3907.087040,-5107.421000,14434.015869
233.449212,-3830.477490,-5699.585753,15544.324782
233.449520,-4136.915689,-5773.606348,15692.365970
233.449829,-3064.381992,-4737.318029,14804.118840
233.450137,-919.314598,-2812.782580,12657.521608
233.450445,919.314598,-962.267725,10288.862594
233.450753,2451.505594,1628.453072,7920.203579
233.451062,3447.429741,3404.947333,5995.668130
233.451370,4366.744339,4441.235652,5773.606348
233.451678,4136.915689,4885.359217,4885.359217
233.451986,3600.648841,4737.318029,4293.194464
233.452295,2757.943793,4515.256246,4811.338623
233.452603,1608.800546,2368.659014,6143.709319
233.452911,76.609550,-0.000000,8586.388927
233.453220,-1608.800546,-1850.514855,10510.924376
233.453528,-3064.381992,-4219.173869,12731.542202
233.453836,-3830.477490,-5255.462188,14063.912898
233.454144,-3677.258390,-5477.523971,14730.098246
233.454453,-3140.991542,-4293.194464,14285.974681
233.454761,-1608.800546,-2442.679609,12805.562797
233.455069,-153.219100,-296.082377,11177.109724
233.455377,2068.457845,2442.679609,8216.285956
233.455686,4366.744339,4219.173869,6735.874072
233.455994,4979.620737,5033.400406,5699.585753
233.456302,4903.011187,5181.441594,4663.297435
233.456610,4749.792088,5403.503377,4811.338623
233.456919,3447.429741,3627.009116,5847.626942
233.457227,842.705048,2664.741391,6809.894666
233.457535,229.828649,444.123565,9696.697840
233.457844,-1378.971896,-1628.453072,11621.233289
233.458152,-2298.286494,-3552.988522,12953.603985
233.458460,-3524.039291,-4219.173869,13471.748144
233.458768,-3447.429741,-5551.544565,15470.304188
233.459077,-3217.601092,-5107.421000,15840.407159
233.459385,-3140.991542,-3627.009116,13841.851115
233.459693,-842.705048,-1998.556043,13101.645173
233.460001,689.485948,-592.164754,10807.006753
233.460310,1302.362347,2146.597232,7846.182985
233.460618,3600.648841,2960.823768,6883.915261
233.460926,3830.477490,4589.276840,5403.503377
233.461234,4060.306139,4959.379811,5625.565159
233.461543,4519.963438,4441.235652,4737.318029
233.461851,3753.867940,4293.194464,4663.297435
233.462159,2757.943793,1702.473667,6217.729913
233.462467,1378.971896,666.185348,7254.018232
233.462776,0.000000,-1480.411884,9696.697840
233.463084,-1455.581446,-3478.967927,11621.233289
233.463392,-3064.381992,-4811.338623,14137.933492
233.463701,-3677.258390,-5033.400406,13989.892304
233.464009,-2528.115143,-3849.070898,13841.851115
233.464317,-1608.800546,-2516.700203,12583.501014
233.464625,76.609550,-296.082377,11177.109724
233.464934,1915.238745,1850.514855,9474.636058
233.465242,2834.553343,3701.029710,7624.121203
233.465550,3753.867940,4589.276840,6957.935855
233.465858,3983.696590,4293.194464,6513.812290
233.466167,3370.820191,4441.235652,6365.771101
233.466475,2834.553343,4219.173869,6143.709319
233.466783,1838.629195,2812.782580,7402.059420
233.467091,919.314598,1332.370696,9030.512492
233.467400,0.000000,-444.123565,11177.109724
233.467708,-1302.362347,-2590.720797,12583.501014
233.468016,-2911.162892,-3775.050304,13915.871710
233.468325,-3370.820191,-5255.462188,14656.077652
233.468633,-3064.381992,-5181.441594,14878.139434
233.468941,-1762.019645,-3923.091493,14285.974681
233.469249,-536.266849,-2146.597232,13027.624579
233.469558,919.314598,-0.000000,10584.944971
233.469866,2834.553343,2516.700203,7772.162391
233.470174,4060.306139,3923.091493,6587.832884
233.470482,4903.011187,4737.318029,5329.482782
233.470791,5439.278036,5107.421000,4367.215058
233.471099,4519.963438,5329.482782,4737.318029
233.471407,3524.039291,3478.967927,5255.462188
233.471715,2681.334243,2664.741391,6143.709319
233.472024,1455.581446,592.164754,7920.203579
233.472332,-612.876398,-1776.494261,9918.759623
233.472640,-2298.286494,-3923.091493,12139.377449
233.472949,-4213.525239,-5181.441594,14137.933492
233.473257,-3983.696590,-5773.606348,14656.077652
233.473565,-3524.039291,-5181.441594,14582.057057
233.473873,-1991.848295,-3701.029710,13471.748144
233.474182,76.609550,-1924.535449,11769.274478
233.474490,1685.410096,962.267725,8734.430116
233.474798,3677.258390,3627.009116,6587.832884
233.475106,5132.839837,4293.194464,5477.523971
233.475415,4979.620737,4959.379811,5403.503377
233.475723,4826.401637,4811.338623,4737.318029
233.476031,3907.087040,4293.194464,5551.544565
233.476339,2451.505594,2368.659014,6439.791695
233.476648,1378.971896,1628.453072,8290.306550
233.476956,153.219100,-296.082377,10066.800811
233.477264,-1685.410096,-2590.720797,11843.295072
233.477573,-2528.115143,-4219.173869,13471.748144
233.477881,-3677.258390,-5329.482782,14730.098246
233.478189,-4366.744339,-5255.462188,15396.283594
233.478497,-3064.381992,-4293.194464,14656.077652
233.478806,-1302.362347,-2442.679609,13545.768739
233.479114,306.438199,-74.020594,11029.068536
233.479422,2451.505594,2886.803174,8142.265362
233.479730,4366.744339,3923.091493,6513.812290
233.480039,4673.182538,5033.400406,4589.276840
233.480347,5132.839837,6069.688724,4589.276840
233.480655,4519.963438,5255.462188,5033.400406
233.480963,3447.429741,3997.112087,5403.503377
233.481272,2145.067394,2516.700203,7328.038826
233.481580,766.095498,888.247130,9178.553681
233.481888,-1225.752797,-1850.514855,10658.965565
233.482197,-2834.553343,-3552.988522,12953.603985
233.482505,-3983.696590,-4737.318029,14211.954086
233.482813,-4826.401637,-5699.585753,15100.201217
233.483121,-3600.648841,-4515.256246,14804.118840
233.483430,-1991.848295,-2738.761985,13249.686362
233.483738,153.219100,-814.226536,11473.192101
233.484046,1915.238745,1776.494261,8364.327145
233.484354,4060.306139,4145.153275,6661.853478
233.484663,4979.620737,4959.379811,5773.606348
233.484971,4826.401637,5329.482782,4219.173869
233.485279,4213.525239,5329.482782,5255.462188
233.485587,2757.943793,3552.988522,6513.812290
233.485896,1302.362347,1850.514855,7772.162391
233.486204,0.000000,370.102971,9030.512492
233.486512,-1608.800546,-1628.453072,11251.130318
233.486820,-2987.772442,-3849.070898,12953.603985
233.487129,-4366.744339,-5329.482782,14656.077652
233.487437,-4903.011187,-5551.544565,15692.365970
233.487745,-4366.744339,-5995.668130,15322.262999
233.488054,-3140.991542,-3849.070898,14359.995275
233.488362,-1149.143247,-2146.597232,12879.583391
233.488670,995.924147,-0.000000,9400.615463
233.488978,3370.820191,3478.967927,7179.997637
233.489287,4596.572988,4293.194464,5551.544565
233.489595,4749.792088,5033.400406,3923.091493
233.489903,5592.497135,6291.750507,4293.194464
233.490211,4673.182538,5255.462188,4885.359217
233.490520,3140.991542,3701.029710,4885.359217
233.490828,2528.115143,2368.659014,6587.832884
233.491136,536.266849,-0.000000,8734.430116
233.491444,-1378.971896,-2294.638420,10881.027347
233.491753,-2987.772442,-3775.050304,12583.501014
233.492061,-3830.477490,-4293.194464,14211.954086
233.492369,-4596.572988,-5847.626942,14730.098246
233.492678,-3524.039291,-4367.215058,14730.098246
233.492986,-1608.800546,-2590.720797,13989.892304
233.493294,0.000000,-814.226536,11177.109724
233.493602,2528.115143,2072.576638,8808.450710
233.493911,3907.087040,2960.823768,7328.038826
233.494219,4596.572988,4367.215058,4885.359217
233.494527,4673.182538,5329.482782,5477.523971
233.494835,4519.963438,4367.215058,6217.729913
233.495144,3294.210641,2960.823768,5995.668130
233.495452,2374.896044,2146.597232,7402.059420
233.495760,1455.581446,888.247130,9104.533087
233.496068,-459.657299,-1776.494261,10510.924376
233.496377,-2145.067394,-3627.009116,12139.377449
233.496685,-3064.381992,-4293.194464,13989.892304
233.496993,-3830.477490,-5995.668130,14804.118840
233.497302,-3294.210641,-5847.626942,14804.118840
233.497610,-1762.019645,-4145.153275,14137.933492
233.497918,-459.657299,-2146.597232,11917.315666
233.498226,1608.800546,222.061783,9992.780217
233.498535,3447.429741,3478.967927,7328.038826
233.498843,4979.620737,4441.235652,6069.688724
233.499151,4903.011187,5255.462188,4367.215058
233.499459,5209.449386,6217.729913,4293.194464
233.499768,4903.011187,5033.400406,4737.318029
233.500076,3140.991542,3256.906145,5921.647536
233.500384,1838.629195,2072.576638,7476.080014
233.500692,536.266849,518.144159,9474.636058
233.501001,-1378.971896,-2368.659014,11399.171507
233.501309,-2987.772442,-3330.926739,12731.542202
233.501617,-3524.039291,-3923.091493,14211.954086
233.501926,-4213.525239,-4811.338623,14434.015869
233.502234,-2757.943793,-3701.029710,14434.015869
233.502542,-766.095498,-2368.659014,13767.830521
233.502850,766.095498,296.082377,10510.924376
233.503159,3140.991542,1702.473667,8660.409521
233.503467,4366.744339,4367.215058,6735.874072
233.503775,4903.011187,5033.400406,4959.379811
233.504083,4903.011187,5329.482782,5107.421000
233.504392,4519.963438,4515.256246,5847.626942
233.504700,3294.210641,4071.132681,6069.688724
233.505008,2528.115143,2294.638420,6661.853478
233.505316,459.657299,370.102971,9030.512492
233.505625,-459.657299,-2146.597232,11399.171507
233.505933,-2834.553343,-3404.947333,13101.645173
233.506241,-4213.525239,-5181.441594,14804.118840
233.506550,-5056.230287,-6513.812290,16062.468941
233.506858,-4443.353888,-6069.688724,15840.407159
233.507166,-2681.334243,-5033.400406,14434.015869
233.507474,-1072.533697,-2960.823768,12805.562797
233.507783,1072.533697,370.102971,9770.718434
233.508091,3677.258390,2960.823768,7476.080014
233.508399,4903.011187,3923.091493,5625.565159
233.508707,5056.230287,5107.421000,3849.070898
233.509016,5515.887586,6661.853478,3627.009116
233.509324,4213.525239,4663.297435,4367.215058
233.509632,3370.820191,3627.009116,4885.359217
233.509940,2451.505594,2368.659014,6735.874072
233.510249,536.266849,-148.041188,9104.533087
233.510557,-2298.286494,-2738.761985,10732.986159
233.510865,-4060.306139,-3478.967927,13101.645173
233.511173,-4136.915689,-4441.235652,14582.057057
233.511482,-5056.230287,-5403.503377,14211.954086
233.511790,-3753.867940,-4219.173869,14434.015869
233.512098,-1302.362347,-2886.803174,13915.871710
233.512407,0.000000,444.123565,10066.800811
233.512715,2528.115143,1480.411884,9252.574275
233.513023,4749.792088,4219.173869,6439.791695
233.513331,4596.572988,5403.503377,4071.132681
233.513640,4826.401637,5181.441594,4959.379811
233.513948,4519.963438,4663.297435,5847.626942
233.514256,3370.820191,3627.009116,6587.832884
233.514564,2221.676944,2368.659014,6957.935855
233.514873,229.828649,-74.020594,9326.594869
233.515181,-1532.190996,-2220.617826,11695.253884
233.515489,-2681.334243,-3775.050304,13175.665768
233.515797,-3830.477490,-4959.379811,14656.077652
233.516106,-4443.353888,-6143.709319,15618.345376
233.516414,-3983.696590,-5847.626942,15248.242405
233.516722,-2451.505594,-4145.153275,13915.871710
233.517031,-536.266849,-2072.576638,12139.377449
233.517339,2451.505594,1480.411884,9252.574275
233.517647,4443.353888,3182.885551,6883.915261
233.517955,6052.154434,5181.441594,3997.112087
233.518264,5592.497135,6217.729913,4145.153275
233.518572,5822.325785,5921.647536,4663.297435
233.518880,4213.525239,4367.215058,4589.276840
233.519188,2757.943793,3404.947333,6217.729913
233.519497,995.924147,888.247130,7994.224174
233.519805,-1149.143247,-592.164754,9992.780217
233.520113,-2528.115143,-2886.803174,11991.336260
233.520421,-2757.943793,-3108.864956,13397.727550
233.520730,-4673.182538,-4959.379811,14211.954086
233.521038,-3983.696590,-5255.462188,15026.180623
233.521346,-2604.724693,-4293.194464,15026.180623
233.521655,-1149.143247,-1924.535449,12731.542202
233.521963,1225.752797,444.123565,10140.821405
233.522271,3524.039291,1850.514855,8438.347739
233.522579,4749.792088,4441.235652,5255.462188
233.522888,5286.058936,6143.709319,4811.338623
233.523196,5822.325785,5995.668130,4737.318029
233.523504,4519.963438,5033.400406,4737.318029
233.523812,3524.039291,3775.050304,6143.709319
233.524121,1915.238745,2516.700203,7550.100608
233.524429,153.219100,-0.000000,9992.780217
233.524737,-1685.410096,-2368.659014,11917.315666
233.525045,-3140.991542,-3627.009116,12953.603985
233.525354,-4749.792088,-5699.585753,15100.201217
233.525662,-4979.620737,-6661.853478,15914.427753
233.525970,-4213.525239,-5921.647536,15914.427753
233.526279,-2987.772442,-4219.173869,14508.036463
233.526587,0.000000,-1406.391290,11621.233289
233.526895,1991.848295,592.164754,9400.615463
233.527203,4519.963438,3627.009116,6513.812290
233.527512,5745.716235,4811.338623,4219.173869
233.527820,6052.154434,5847.626942,4145.153275
233.528128,5669.106685,4885.359217,4737.318029
233.528436,4366.744339,4441.235652,4737.318029
233.528745,2911.162892,3108.864956,5773.606348
233.529053,1225.752797,1036.288319,7402.059420
233.529361,-536.266849,-444.123565,9400.615463
233.529669,-1915.238745,-2516.700203,11399.171507
233.529978,-3677.258390,-4885.359217,12879.583391
233.530286,-4519.963438,-4811.338623,14508.036463
233.530594,-4060.306139,-5477.523971,15100.201217
233.530903,-2911.162892,-4293.194464,14285.974681
233.531211,-1149.143247,-1850.514855,12139.377449
233.531519,1149.143247,-0.000000,10288.862594
233.531827,2604.724693,2886.803174,8438.347739
233.532136,4826.401637,4515.256246,5847.626942
233.532444,5286.058936,5625.565159,4811.338623
233.532752,4826.401637,5329.482782,4959.379811
233.533060,3753.867940,4589.276840,5625.565159
233.533368,2604.724693,3404.947333,6661.853478
233.533676,1225.752797,1776.494261,7994.224174
233.533984,-306.438199,-0.000000,9696.697840
233.534292,-2298.286494,-2442.679609,11843.295072
233.534600,-4136.915689,-3552.988522,14063.912898
233.534908,-4060.306139,-5551.544565,15248.242405
233.535216,-4213.525239,-5847.626942,15914.427753
233.535525,-3830.477490,-5033.400406,15248.242405
233.535833,-1762.019645,-3034.844362,13767.830521
233.536141,612.876398,-592.164754,10955.047942
233.536449,2834.553343,2220.617826,8512.368333
233.536757,4826.401637,4219.173869,6439.791695
233.537065,5132.839837,5255.462188,4737.318029
233.537373,5669.106685,6365.771101,4737.318029
233.537681,4979.620737,5255.462188,4811.338623
233.537989,3907.087040,4589.276840,4737.318029
233.538297,2604.724693,3330.926739,6069.688724
233.538605,766.095498,1184.329507,8216.285956
233.538913,-766.095498,-666.185348,9770.718434
233.539221,-2374.896044,-3034.844362,12139.377449
233.539529,-3217.601092,-4367.215058,13471.748144
233.539837,-3753.867940,-5551.544565,14434.015869
233.540145,-3524.039291,-5255.462188,14804.118840
233.540453,-2604.724693,-3849.070898,14359.995275
233.540761,-1072.533697,-2368.659014,12509.480420
233.541069,766.095498,-0.000000,10584.944971
233.541377,2757.943793,2960.823768,8216.285956
233.541685,4673.182538,4219.173869,6143.709319
233.541993,5209.449386,5477.523971,5181.441594
233.542302,4519.963438,5329.482782,4737.318029
233.542610,3907.087040,4811.338623,5329.482782
233.542918,2374.896044,2960.823768,6439.791695
233.543226,1072.533697,1924.535449,8290.306550
233.543534,0.000000,-74.020594,9992.780217
233.543842,-1762.019645,-2886.803174,11473.192101
233.544150,-3294.210641,-4145.153275,13249.686362
233.544458,-3600.648841,-5847.626942,14359.995275
233.544766,-4060.306139,-6291.750507,15322.262999
233.545074,-3294.210641,-5107.421000,14952.160028
233.545382,-1685.410096,-2960.823768,13323.706956
233.545690,306.438199,-1184.329507,11029.068536
233.545998,2221.676944,1406.391290,8290.306550
233.546306,4136.915689,3775.050304,5773.606348
233.546614,5592.497135,5329.482782,4811.338623
233.546922,5209.449386,5033.400406,5181.441594
233.547230,5056.230287,4737.318029,4663.297435
233.547538,3677.258390,4811.338623,4441.235652
233.547846,2221.676944,2812.782580,5625.565159
233.548154,1149.143247,814.226536,7920.203579
233.548462,-153.219100,-888.247130,10066.800811
233.548771,-1762.019645,-2886.803174,11769.274478
233.549079,-3370.820191,-4515.256246,13323.706956
233.549387,-3677.258390,-5551.544565,14211.954086
233.549695,-3677.258390,-4885.359217,14730.098246
233.550003,-2298.286494,-3701.029710,13545.768739
233.550311,-766.095498,-2072.576638,12657.521608
233.550619,1072.533697,518.144159,10436.903782
233.550927,2604.724693,2886.803174,7550.100608
233.551235,4596.572988,5181.441594,5403.503377
233.551543,4749.792088,4885.359217,5477.523971
233.551851,4519.963438,5255.462188,4811.338623
233.552159,4136.915689,5255.462188,5033.400406
233.552467,3370.820191,3256.906145,6735.874072
233.552775,1762.019645,1480.411884,8216.285956
233.553083,-383.047749,-518.144159,10436.903782
233.553391,-2221.676944,-3034.844362,12731.542202
233.553699,-3830.477490,-4885.359217,14137.933492
233.554007,-4136.915689,-6069.688724,15100.201217
233.554315,-3907.087040,-5847.626942,16136.489536
233.554623,-2681.334243,-4959.379811,14582.057057
233.554931,-1072.533697,-2812.782580,12953.603985
233.555239,995.924147,-518.144159,11251.130318
233.555548,2911.162892,2072.576638,8068.244768
233.555856,4673.182538,5033.400406,6069.688724
233.556164,5439.278036,5181.441594,5181.441594
233.556472,4903.011187,5551.544565,4071.132681
233.556780,4826.401637,5477.523971,4959.379811
233.557088,3677.258390,3849.070898,5181.441594
233.557396,2374.896044,1998.556043,6365.771101
233.557704,536.266849,518.144159,8438.347739
233.558012,-919.314598,-1332.370696,10732.986159
233.558320,-2451.505594,-3775.050304,12435.459826
233.558628,-3677.258390,-4737.318029,14063.912898
233.558936,-3677.258390,-4885.359217,14878.139434
233.559244,-3830.477490,-4589.276840,13915.871710
233.559552,-2451.505594,-3108.864956,14063.912898
233.559860,-306.438199,-814.226536,11843.295072
233.560168,1991.848295,1554.432478,9622.677246
233.560476,3447.429741,2812.782580,8364.327145
233.560784,4443.353888,4737.318029,5107.421000
233.561092,4826.401637,5625.565159,4663.297435
233.561400,4903.011187,5181.441594,5477.523971
233.561708,4290.134789,4515.256246,5921.647536
233.562017,2987.772442,2664.741391,7476.080014
233.562325,842.705048,888.247130,7920.203579
233.562633,-612.876398,-1480.411884,10140.821405
233.562941,-2681.334243,-3552.988522,12657.521608
233.563249,-3830.477490,-4885.359217,14804.118840
233.563557,-4903.011187,-5551.544565,15322.262999
233.563865,-4290.134789,-5551.544565,15692.365970
233.564173,-3217.601092,-4293.194464,14804.118840
233.564481,-919.314598,-2146.597232,12731.542202
233.564789,1302.362347,-148.041188,10881.027347
233.565097,2911.162892,2516.700203,8068.244768
233.565405,4673.182538,3849.070898,5921.647536
233.565713,4903.011187,4885.359217,4737.318029
233.566021,4749.792088,5329.482782,4293.194464
233.566329,4826.401637,4293.194464,4737.318029
233.566637,3217.601092,3182.885551,5033.400406
233.566945,2374.896044,2294.638420,6735.874072
233.567253,919.314598,222.061783,7698.141797
233.567561,-306.438199,-1258.350101,9622.677246
233.567869,-2145.067394,-3182.885551,11917.315666
233.568177,-3064.381992,-4145.153275,13471.748144
233.568485,-3830.477490,-4811.338623,13841.851115
233.568794,-3524.039291,-4441.235652,14063.912898
233.569102,-1532.190996,-3701.029710,13619.789333
233.569410,0.000000,-814.226536,11917.315666
233.569718,1149.143247,1110.308913,10732.986159
233.570026,2604.724693,2960.823768,7254.018232
233.570334,4290.134789,4737.318029,5551.544565
233.570642,4366.744339,4959.379811,5181.441594
233.570950,5669.106685,4737.318029,5403.503377
233.571258,4136.915689,4145.153275,5625.565159
233.571566,2834.553343,2516.700203,6661.853478
233.571874,689.485948,666.185348,8142.265362
233.572182,-459.657299,-666.185348,10214.842000
233.572490,-2298.286494,-2960.823768,12805.562797
233.572798,-3600.648841,-4737.318029,13989.892304
233.573106,-4290.134789,-5255.462188,14656.077652
233.573414,-3830.477490,-5107.421000,15026.180623
233.573722,-2604.724693,-4219.173869,14211.954086
233.574030,-1455.581446,-2072.576638,12361.439231
233.574338,919.314598,-0.000000,10881.027347
233.574646,2604.724693,1776.494261,8438.347739
233.574954,4443.353888,4145.153275,6069.688724
233.575263,4903.011187,5033.400406,4811.338623
233.575571,4903.011187,5107.421000,4737.318029
233.575879,4136.915689,4737.318029,5033.400406
233.576187,3907.087040,3627.009116,5773.606348
233.576495,2145.067394,2072.576638,6291.750507
233.576803,995.924147,370.102971,7846.182985
233.577111,-919.314598,-740.205942,9770.718434
233.577419,-1991.848295,-2886.803174,11843.295072
233.577727,-2987.772442,-4293.194464,13545.768739
233.578035,-3524.039291,-4811.338623,14359.995275
233.578343,-3217.601092,-4885.359217,14730.098246
233.578651,-2298.286494,-3478.967927,13915.871710
233.578959,-689.485948,-1480.411884,12065.356855
233.579267,766.095498,370.102971,10584.944971
233.579575,2911.162892,3108.864956,7994.224174
233.579883,4290.134789,4737.318029,5847.626942
233.580191,4903.011187,5625.565159,4811.338623
233.580499,4826.401637,5033.400406,5107.421000
233.580807,3983.696590,4515.256246,5773.606348
233.581115,2451.505594,2516.700203,6513.812290
233.581423,919.314598,740.205942,8438.347739
233.581731,-459.657299,-814.226536,10214.842000
233.582040,-2834.553343,-2960.823768,12509.480420
233.582348,-3907.087040,-4811.338623,14285.974681
233.582656,-4596.572988,-5329.482782,15322.262999
233.582964,-4136.915689,-5329.482782,15470.304188
233.583272,-3064.381992,-3997.112087,14878.139434
233.583580,-842.705048,-1998.556043,12509.480420
233.583888,1378.971896,296.082377,10288.862594
233.584196,3830.477490,2072.576638,8290.306550
233.584504,4290.134789,4293.194464,5255.462188
233.584812,4903.011187,5255.462188,4515.256246
233.585120,5439.278036,5329.482782,4959.379811
233.585428,4596.572988,4589.276840,5033.400406
233.585736,3830.477490,4145.153275,5403.503377
233.586044,3064.381992,2072.576638,6735.874072
233.586352,536.266849,370.102971,8068.244768
233.586660,-1072.533697,-1036.288319,9918.759623
233.586968,-1991.848295,-3034.844362,12731.542202
233.587276,-3370.820191,-4515.256246,13841.851115
233.587584,-3677.258390,-5329.482782,14656.077652
233.587892,-3217.601092,-4589.276840,14878.139434
233.588200,-1991.848295,-2664.741391,14211.954086
233.588509,-229.828649,-1184.329507,12213.398043
233.588817,2068.457845,962.267725,9548.656652
233.589125,3830.477490,3775.050304,6957.935855
233.589433,5056.230287,4885.359217,4811.338623
233.589741,5209.449386,5847.626942,4737.318029
233.590049,5056.230287,5699.585753,5181.441594
233.590357,4366.744339,4441.235652,5255.462188
233.590665,2604.724693,2664.741391,6439.791695
233.590973,842.705048,518.144159,8438.347739
233.591281,-919.314598,-1480.411884,10807.006753
233.591589,-2911.162892,-3923.091493,13619.789333
233.591897,-4673.182538,-5107.421000,14952.160028
233.592205,-5056.230287,-5773.606348,15322.262999
233.592513,-4519.963438,-5625.565159,15692.365970
233.592821,-2987.772442,-4219.173869,14434.015869
233.593129,-1072.533697,-2220.617826,12509.480420
233.593437,1608.800546,-0.000000,9770.718434
233.593745,3677.258390,1998.556043,7994.224174
233.594053,4366.744339,4071.132681,6143.709319
233.594361,4749.792088,5107.421000,4663.297435
233.594669,5056.230287,5403.503377,4589.276840
233.594977,4136.915689,4663.297435,4811.338623
233.595286,3294.210641,3552.988522,5477.523971
233.595594,2298.286494,2146.597232,6365.771101
233.595902,536.266849,518.144159,8142.265362
233.596210,0.000000,-1776.494261,9474.636058
233.596518,-2145.067394,-3627.009116,12213.398043
233.596826,-3677.258390,-4737.318029,14359.995275
233.597134,-3830.477490,-5255.462188,14582.057057
233.597442,-3907.087040,-4293.194464,14211.954086
233.597750,-2068.457845,-3108.864956,13545.768739
233.598058,-229.828649,-1110.308913,11473.192101
233.598366,1838.629195,888.247130,9622.677246
233.598674,3370.820191,3256.906145,6957.935855
233.598982,4903.011187,4737.318029,5329.482782
233.599290,5132.839837,5625.565159,4959.379811
233.599598,4903.011187,5551.544565,5107.421000
233.599906,4136.915689,4441.235652,5403.503377
233.600214,2374.896044,2516.700203,6661.853478
233.600522,689.485948,814.226536,8956.491898
233.600830,-1532.190996,-1258.350101,10807.006753
233.601138,-2987.772442,-3478.967927,13471.748144
233.601446,-4366.744339,-5403.503377,15026.180623
233.601754,-4826.401637,-5921.647536,15396.283594
233.602063,-4290.134789,-4959.379811,15322.262999
233.602371,-2834.553343,-4071.132681,14359.995275
233.602679,-1072.533697,-1998.556043,12435.459826
233.602987,1455.581446,-0.000000,10288.862594
233.603295,2911.162892,2072.576638,8216.285956
233.603603,4060.306139,4589.276840,5921.647536
233.603911,4903.011187,5255.462188,5033.400406
233.604219,4749.792088,5255.462188,4959.379811
233.604527,4290.134789,4663.297435,4811.338623
233.604835,3370.820191,3849.070898,5477.523971
233.605143,1991.848295,2072.576638,6883.915261
233.605451,612.876398,592.164754,8216.285956
233.605759,-536.266849,-1776.494261,10140.821405
233.606067,-2374.896044,-3330.926739,12583.501014
233.606375,-3294.210641,-5181.441594,13841.851115
233.606683,-3600.648841,-5181.441594,14582.057057
233.606991,-3370.820191,-4515.256246,14656.077652
233.607299,-2298.286494,-3108.864956,13323.706956
233.607607,0.000000,-518.144159,11547.212695
233.607915,1991.848295,814.226536,9474.636058
233.608223,3983.696590,3552.988522,6513.812290
233.608532,5132.839837,5329.482782,5107.421000
233.608840,5056.230287,6069.688724,5329.482782
233.609148,5362.668486,5625.565159,4885.359217
233.609456,4213.525239,4515.256246,5403.503377
233.609764,2604.724693,2812.782580,6957.935855
233.610072,689.485948,814.226536,9030.512492
233.610380,-1532.190996,-1480.411884,10955.047942
233.610688,-2834.553343,-3404.947333,13175.665768
233.610996,-4366.744339,-4811.338623,15248.242405
233.611304,-4903.011187,-5625.565159,15174.221811
233.611612,-4060.306139,-5033.400406,15618.345376
233.611920,-2604.724693,-3849.070898,14508.036463
233.612228,-689.485948,-1702.473667,12657.521608
233.612536,1302.362347,296.082377,10362.883188
233.612844,2757.943793,2368.659014,7698.141797
233.613152,4290.134789,4145.153275,5921.647536
233.613460,4903.011187,4663.297435,5107.421000
233.613768,5132.839837,5477.523971,5033.400406
233.614076,4596.572988,4959.379811,4663.297435
233.614384,3447.429741,3997.112087,5181.441594
233.614692,2451.505594,2368.659014,6365.771101
233.615000,689.485948,-0.000000,8290.306550
233.615309,-689.485948,-2072.576638,10436.903782
233.615617,-2068.457845,-3701.029710,12361.439231
233.615925,-3447.429741,-5033.400406,13767.830521
233.616233,-3983.696590,-5403.503377,14878.139434
233.616541,-3294.210641,-4811.338623,14434.015869
233.616849,-2068.457845,-2886.803174,13323.706956
233.617157,-306.438199,-1036.288319,11177.109724
233.617465,1455.581446,1036.288319,9030.512492
233.617773,3447.429741,3330.926739,6957.935855
233.618081,4596.572988,5255.462188,5551.544565
233.618389,5362.668486,5477.523971,4737.318029
233.618697,4749.792088,5403.503377,4737.318029
233.619005,4213.525239,4367.215058,5255.462188
233.619313,2604.724693,2368.659014,7105.977043
233.619621,766.095498,666.185348,8882.471304
233.619929,-1149.143247,-2146.597232,11029.068536
233.620237,-3370.820191,-4219.173869,12805.562797
233.620545,-4290.134789,-5625.565159,14730.098246
233.620853,-4826.401637,-6069.688724,15174.221811
233.621161,-4213.525239,-5477.523971,15544.324782
233.621469,-2604.724693,-3701.029710,14211.954086
233.621778,-383.047749,-1554.432478,11991.336260
233.622086,1532.190996,518.144159,9844.739029
233.622394,3370.820191,2442.679609,7105.977043
233.622702,4596.572988,4367.215058,5403.503377
233.623010,4979.620737,5477.523971,4737.318029
233.623318,5132.839837,5477.523971,4589.276840
233.623626,4673.182538,5181.441594,4737.318029
233.623934,3447.429741,3997.112087,5181.441594
233.624242,2374.896044,2072.576638,6809.894666
233.624550,153.219100,148.041188,8290.306550
233.624858,-1225.752797,-2220.617826,10584.944971
233.625166,-2757.943793,-4737.318029,13175.665768
233.625474,-3907.087040,-5921.647536,14582.057057
233.625782,-4366.744339,-6365.771101,15470.304188
233.626090,-3830.477490,-5107.421000,14582.057057
233.626398,-1762.019645,-3034.844362,13693.809927
233.626706,383.047749,-666.185348,10955.047942
233.627014,1991.848295,1850.514855,8808.450710
233.627322,4213.525239,4293.194464,6735.874072
233.627630,5669.106685,6069.688724,4737.318029
233.627938,5439.278036,6291.750507,4145.153275
233.628246,5822.325785,5699.585753,4737.318029
233.628555,4136.915689,4515.256246,5181.441594
233.628863,1838.629195,2220.617826,7328.038826
233.629171,-383.047749,-74.020594,9326.594869
233.629479,-2528.115143,-2442.679609,11843.295072
233.629787,-4673.182538,-5329.482782,14434.015869
233.630095,-5209.449386,-5477.523971,15544.324782
233.630403,-4673.182538,-5625.565159,15618.345376
233.630711,-4519.963438,-5033.400406,15174.221811
233.631019,-2298.286494,-3552.988522,14211.954086
233.631327,0.000000,-666.185348,11473.192101
233.631635,2068.457845,1184.329507,9844.739029
233.631943,4290.134789,3701.029710,6809.894666
233.632251,4903.011187,5033.400406,5033.400406
233.632559,5209.449386,5255.462188,5033.400406
233.632867,5209.449386,5773.606348,4811.338623
233.633175,4366.744339,5403.503377,4515.256246
233.633483,3064.381992,3404.947333,5329.482782
233.633791,1455.581446,1850.514855,7031.956449
233.634099,0.000000,-148.041188,9030.512492
233.634407,-1838.629195,-2516.700203,11695.253884
233.634715,-3064.381992,-4515.256246,13545.768739
233.635023,-3370.820191,-5403.503377,15248.242405
233.635332,-4213.525239,-5699.585753,15174.221811
233.635640,-3447.429741,-4219.173869,14804.118840
233.635948,-1378.971896,-2220.617826,13101.645173
233.636256,612.876398,-222.061783,10881.027347
233.636564,2757.943793,2072.576638,8290.306550
233.636872,4749.792088,4737.318029,5847.626942
233.637180,5515.887586,5847.626942,4663.297435
233.637488,6128.763984,5477.523971,4737.318029
233.637796,4979.620737,5181.441594,5329.482782
233.638104,4290.134789,3627.009116,5995.668130
233.638412,2298.286494,1702.473667,7698.141797
233.638720,-76.609550,-518.144159,9548.656652
233.639028,-2145.067394,-2368.659014,11547.212695
233.639336,-3753.867940,-4441.235652,14211.954086
233.639644,-4596.572988,-5107.421000,15100.201217
233.639952,-4826.401637,-5551.544565,15248.242405
233.640260,-3983.696590,-4885.359217,14730.098246
233.640568,-1991.848295,-3034.844362,13323.706956
233.640876,0.000000,-1258.350101,11843.295072
233.641184,2068.457845,1258.350101,9178.553681
233.641492,3677.258390,3256.906145,6735.874072
233.641800,4519.963438,4737.318029,5255.462188
233.642108,4903.011187,5329.482782,5033.400406
233.642416,5056.230287,5699.585753,4515.256246
233.642724,4290.134789,4737.318029,4885.359217
233.643032,2757.943793,2960.823768,5921.647536
233.643340,1302.362347,1628.453072,7328.038826
233.643648,0.000000,-592.164754,9104.533087
233.643956,-1608.800546,-2368.659014,11103.089130
233.644264,-2757.943793,-4589.276840,13101.645173
233.644573,-3294.210641,-5329.482782,14211.954086
233.644881,-3983.696590,-5255.462188,15100.201217
233.645189,-2451.505594,-4145.153275,14211.954086
233.645497,-1225.752797,-1850.514855,12953.603985
233.645805,842.705048,-0.000000,10732.986159
233.646113,2681.334243,2146.597232,8586.388927
233.646421,4060.306139,4441.235652,5699.585753
233.646729,5592.497135,5477.523971,4959.379811
233.647037,5975.544884,5625.565159,5033.400406
233.647345,4979.620737,5255.462188,5181.441594
233.647653,3677.258390,3552.988522,6217.729913
233.647961,1225.752797,2072.576638,7179.997637
233.648269,0.000000,-148.041188,9400.615463
233.648577,-2451.505594,-2220.617826,11695.253884
233.648885,-3753.867940,-4145.153275,13989.892304
233.649193,-4596.572988,-5403.503377,14952.160028
233.649501,-4826.401637,-5329.482782,15174.221811
233.649809,-3753.867940,-4811.338623,15396.283594
233.650117,-2451.505594,-3701.029710,13767.830521
233.650425,-612.876398,-888.247130,12287.418637
233.650733,1532.190996,814.226536,9474.636058
233.651041,3447.429741,2960.823768,7179.997637
233.651349,4366.744339,4811.338623,5477.523971
233.651657,4903.011187,5551.544565,4737.318029
233.651965,4519.963438,5699.585753,4959.379811
233.652273,4213.525239,5107.421000,5033.400406
233.652581,3217.601092,3330.926739,5625.565159
233.652889,1838.629195,1628.453072,6957.935855
233.653197,-306.438199,-592.164754,9104.533087
233.653505,-1915.238745,-2368.659014,11399.171507
233.653814,-3064.381992,-4441.235652,13471.748144
233.654122,-4290.134789,-5403.503377,14508.036463
233.654430,-4596.572988,-5403.503377,15248.242405
233.654738,-3140.991542,-4515.256246,14434.015869
233.655046,-919.314598,-2442.679609,12583.501014
233.655354,536.266849,-0.000000,10510.924376
233.655662,2987.772442,2146.597232,8512.368333
233.655970,4749.792088,4441.235652,6069.688724
233.656278,5592.497135,5403.503377,4663.297435
233.656586,5745.716235,5477.523971,4811.338623
233.656894,5592.497135,4959.379811,4737.318029
233.657202,3983.696590,3404.947333,5773.606348
233.657510,2221.676944,1850.514855,7624.121203
233.657818,76.609550,-222.061783,9844.739029
233.658126,-1685.410096,-2516.700203,11917.315666
233.658434,-3830.477490,-4589.276840,13841.851115
233.658742,-4673.182538,-5847.626942,15174.221811
233.659050,-4903.011187,-5995.668130,15766.386565
233.659358,-3830.477490,-5181.441594,15396.283594
233.659666,-1838.629195,-3108.864956,13693.809927
233.659974,76.609550,-740.205942,11991.336260
233.660282,1608.800546,962.267725,9326.594869
233.660590,3600.648841,3997.112087,6809.894666
233.660898,5132.839837,5625.565159,4885.359217
233.661206,5439.278036,6439.791695,4145.153275
233.661514,5362.668486,6217.729913,4071.132681
233.661822,4979.620737,5033.400406,4293.194464
233.662130,3217.601092,3627.009116,6069.688724
233.662438,1302.362347,1184.329507,7698.141797
233.662747,-689.485948,-666.185348,9696.697840
233.663055,-2451.505594,-3552.988522,12287.418637
233.663363,-3983.696590,-5255.462188,13989.892304
233.663671,-4596.572988,-5847.626942,15100.201217
233.663979,-4213.525239,-5551.544565,15248.242405
233.664287,-3064.381992,-3997.112087,14211.954086
233.664595,-1302.362347,-1776.494261,12213.398043
233.664903,2068.457845,518.144159,10214.842000
233.665211,3753.867940,3478.967927,7105.977043
233.665519,5362.668486,5107.421000,5477.523971
233.665827,6358.592633,5847.626942,4293.194464
233.666135,6052.154434,6143.709319,4145.153275
233.666443,5439.278036,5181.441594,4885.359217
233.666751,3294.210641,3034.844362,6291.750507
233.667059,1685.410096,518.144159,8512.368333
233.667367,-1072.533697,-1628.453072,9992.780217
233.667675,-2987.772442,-3923.091493,12435.459826
233.667983,-4136.915689,-4959.379811,14211.954086
233.668291,-4903.011187,-5477.523971,15026.180623
233.668599,-4366.744339,-5551.544565,15470.304188
233.668907,-3140.991542,-4367.215058,14508.036463
233.669215,-1685.410096,-2368.659014,13619.789333
233.669523,919.314598,-148.041188,10807.006753
233.669831,2451.505594,2146.597232,8512.368333
233.670139,4673.182538,3849.070898,6735.874072
233.670447,4903.011187,5625.565159,4663.297435
233.670755,5286.058936,5773.606348,4589.276840
233.671063,4749.792088,5403.503377,4367.215058
233.671371,4060.306139,4293.194464,4959.379811
233.671679,2987.772442,2072.576638,5847.626942
233.671988,919.314598,518.144159,8216.285956
233.672296,-612.876398,-1776.494261,9844.739029
233.672604,-2374.896044,-3849.070898,11843.295072
233.672912,-3983.696590,-4737.318029,13915.871710
233.673220,-4443.353888,-5551.544565,14434.015869
233.673528,-3753.867940,-4811.338623,14952.160028
233.673836,-2374.896044,-3404.947333,13915.871710
233.674144,-383.047749,-814.226536,11621.233289
233.674452,2068.457845,740.205942,9918.759623
233.674760,4136.915689,3552.988522,7624.121203
233.675068,4903.011187,5107.421000,5329.482782
233.675376,5286.058936,5477.523971,4811.338623
233.675684,5592.497135,5477.523971,4737.318029
233.675992,4213.525239,4515.256246,5107.421000
233.676300,2451.505594,2516.700203,6587.832884
233.676608,919.314598,814.226536,8438.347739
233.676916,-995.924147,-1628.453072,10362.883188
233.677224,-2834.553343,-3256.906145,12583.501014
233.677532,-4290.134789,-4811.338623,14285.974681
233.677840,-4903.011187,-5403.503377,15174.221811
233.678148,-4443.353888,-4959.379811,15618.345376
233.678456,-3217.601092,-3775.050304,14730.098246
233.678764,-766.095498,-1850.514855,13323.706956
233.679072,919.314598,-0.000000,11177.109724
233.679380,2834.553343,2220.617826,8660.409521
233.679688,3983.696590,4145.153275,6439.791695
233.679996,4826.401637,5477.523971,5255.462188
233.680304,4673.182538,5403.503377,4737.318029
233.680612,4290.134789,4811.338623,5033.400406
233.680920,3753.867940,4145.153275,5255.462188
233.681229,2374.896044,2516.700203,5995.668130
233.681537,842.705048,444.123565,8142.265362
233.681845,-842.705048,-1628.453072,9992.780217
233.682153,-2221.676944,-3404.947333,12435.459826
233.682461,-3447.429741,-4441.235652,13471.748144
233.682769,-3907.087040,-4515.256246,13989.892304
233.683077,-3294.210641,-4219.173869,14656.077652
233.683385,-1991.848295,-2516.700203,13545.768739
233.683693,153.219100,-740.205942,11177.109724
233.684001,2145.067394,740.205942,9770.718434
233.684309,3370.820191,2960.823768,7698.141797
233.684617,4903.011187,4959.379811,6217.729913
233.684925,5286.058936,4811.338623,5403.503377
233.685233,4673.182538,4959.379811,5329.482782
233.685541,4060.306139,3923.091493,5625.565159
233.685849,2911.162892,2146.597232,6957.935855
233.686157,536.266849,518.144159,8364.327145
233.686465,-995.924147,-1628.453072,10510.924376
233.686773,-2681.334243,-3256.906145,12583.501014
233.687081,-4903.011187,-4589.276840,14285.974681
233.687389,-4596.572988,-5403.503377,15174.221811
233.687697,-4213.525239,-4885.359217,15174.221811
233.688005,-3140.991542,-4071.132681,14359.995275
233.688313,-1455.581446,-2368.659014,12583.501014
233.688621,459.657299,-148.041188,11103.089130
233.688929,1838.629195,1332.370696,8734.430116
233.689237,3907.087040,3404.947333,6661.853478
233.689545,4443.353888,5107.421000,4811.338623
233.689853,5056.230287,5699.585753,4663.297435
233.690162,4903.011187,5329.482782,4219.173869
233.690470,4136.915689,4663.297435,4663.297435
233.690778,2757.943793,2812.782580,5921.647536
233.691086,1149.143247,592.164754,7624.121203
233.691394,-1225.752797,-1850.514855,9992.780217
233.691702,-2451.505594,-3404.947333,12435.459826
233.692010,-3983.696590,-4737.318029,13841.851115
233.692318,-4213.525239,-5033.400406,14508.036463
233.692626,-3447.429741,-4515.256246,14804.118840
233.692934,-2298.286494,-2590.720797,13027.624579
233.693242,0.000000,-740.205942,11473.192101
233.693550,1991.848295,1036.288319,9844.739029
233.693858,3524.039291,3182.885551,7476.080014
233.694166,5362.668486,4589.276840,6217.729913
233.694474,5975.544884,4811.338623,4589.276840
233.694782,5209.449386,5403.503377,4959.379811
233.695090,4826.401637,4293.194464,5699.585753
233.695398,2604.724693,3108.864956,6217.729913
233.695706,919.314598,518.144159,8586.388927
233.696014,-1149.143247,-1554.432478,10214.842000
233.696322,-2451.505594,-3404.947333,12953.603985
233.696630,-4213.525239,-4959.379811,14063.912898
233.696938,-4290.134789,-5181.441594,15026.180623
233.697246,-3677.258390,-5329.482782,15396.283594
233.697554,-2451.505594,-4589.276840,14582.057057
233.697862,-1685.410096,-2146.597232,12879.583391
233.698170,842.705048,-592.164754,11325.150913
233.698478,2834.553343,1776.494261,8586.388927
233.698786,3830.477490,3997.112087,6217.729913
233.699094,4979.620737,4515.256246,5551.544565
233.699403,4596.572988,5625.565159,4737.318029
233.699711,4979.620737,5329.482782,4663.297435
233.700019,3907.087040,4737.318029,4737.318029
233.700327,2451.505594,2664.741391,6217.729913
233.700635,229.828649,1036.288319,7698.141797
233.700943,-995.924147,-1258.350101,9992.780217
233.701251,-2604.724693,-3034.844362,12213.398043
233.701559,-3677.258390,-4441.235652,13693.809927
233.701867,-3830.477490,-4367.215058,14582.057057
233.702175,-3677.258390,-4071.132681,14656.077652
233.702483,-1838.629195,-2368.659014,13619.789333
233.702791,0.000000,-1036.288319,11917.315666
233.703099,1608.800546,1406.391290,9844.739029
233.703407,4136.915689,2960.823768,8290.306550
233.703715,4213.525239,4737.318029,6809.894666
233.704023,4749.792088,5033.400406,5551.544565
233.704331,4213.525239,4737.318029,5403.503377
233.704639,3907.087040,4737.318029,5773.606348
233.704947,2451.505594,2886.803174,7105.977043
233.705255,536.266849,1110.308913,8142.265362
233.705563,-1378.971896,-740.205942,10140.821405
233.705871,-2221.676944,-3404.947333,12805.562797
233.706179,-3677.258390,-4811.338623,14878.139434
233.706487,-4366.744339,-5773.606348,15100.201217
233.706795,-3524.039291,-5773.606348,15248.242405
233.707103,-2451.505594,-4441.235652,14582.057057
233.707411,-1072.533697,-2294.638420,12879.583391
233.707719,1225.752797,-592.164754,10732.986159
233.708027,2834.553343,2072.576638,7994.224174
233.708335,4443.353888,3849.070898,5625.565159
233.708644,4903.011187,4811.338623,5033.400406
233.708952,5592.497135,5033.400406,4589.276840
233.709260,4596.572988,5403.503377,4219.173869
233.709568,3677.258390,4219.173869,4293.194464
233.709876,2298.286494,2664.741391,5995.668130
233.710184,153.219100,592.164754,7994.224174
233.710492,-1378.971896,-1480.411884,10066.800811
233.710800,-2834.553343,-3404.947333,12361.439231
233.711108,-3983.696590,-4737.318029,14285.974681
233.711416,-4903.011187,-5403.503377,14952.160028
233.711724,-3677.258390,-4811.338623,14508.036463
233.712032,-2221.676944,-3256.906145,13397.727550
233.712340,-229.828649,-1332.370696,11399.171507
233.712648,2451.505594,740.205942,9104.533087
233.712956,3677.258390,2812.782580,7105.977043
233.713264,5056.230287,4663.297435,5033.400406
233.713572,6128.763984,4959.379811,4811.338623
233.713880,5515.887586,5329.482782,4885.359217
233.714188,4366.744339,4811.338623,5033.400406
233.714496,2834.553343,3256.906145,6217.729913
233.714804,995.924147,1036.288319,8068.244768
233.715112,-1225.752797,-888.247130,10288.862594
233.715420,-2451.505594,-3627.009116,13249.686362
233.715728,-4443.353888,-5181.441594,15100.201217
233.716036,-4826.401637,-6513.812290,15766.386565
233.716344,-4136.915689,-5329.482782,16284.530724
233.716652,-3140.991542,-4663.297435,15026.180623
233.716960,-1149.143247,-2516.700203,12657.521608
233.717268,1072.533697,-148.041188,10807.006753
233.717577,3447.429741,2368.659014,7698.141797
233.717885,5286.058936,3849.070898,5477.523971
233.718193,5286.058936,4959.379811,4885.359217
233.718501,6205.373534,5921.647536,4367.215058
233.718809,5286.058936,5403.503377,4589.276840
233.719117,4136.915689,4737.318029,4441.235652
233.719425,2681.334243,2960.823768,6365.771101
233.719733,689.485948,814.226536,8512.368333
233.720041,-1455.581446,-1258.350101,10510.924376
233.720349,-3447.429741,-3404.947333,13027.624579
233.720657,-4136.915689,-4959.379811,14508.036463
233.720965,-4366.744339,-5255.462188,15248.242405
233.721273,-3524.039291,-4737.318029,14878.139434
233.721581,-1915.238745,-2664.741391,13545.768739
233.721889,153.219100,-1036.288319,11547.212695
233.722197,2221.676944,1258.350101,9400.615463
233.722505,3524.039291,3330.926739,7105.977043
233.722813,5286.058936,4515.256246,5551.544565
233.723121,5132.839837,5107.421000,5181.441594
233.723429,5286.058936,5181.441594,5255.462188
233.723737,3830.477490,4515.256246,5403.503377
233.724045,2145.067394,2590.720797,7031.956449
233.724353,229.828649,592.164754,8734.430116
233.724661,-1762.019645,-1628.453072,11029.068536
233.724969,-3524.039291,-3627.009116,13619.789333
233.725277,-5132.839837,-5107.421000,15396.283594
233.725585,-5056.230287,-5995.668130,15988.448347
233.725893,-4060.306139,-5551.544565,15322.262999
233.726201,-2528.115143,-4219.173869,14063.912898
233.726509,0.000000,-1702.473667,11991.336260
233.726818,1838.629195,296.082377,9548.656652
233.727126,3600.648841,2590.720797,7105.977043
233.727434,5132.839837,4293.194464,5477.523971
233.727742,5439.278036,5255.462188,4959.379811
233.728050,5592.497135,5551.544565,4589.276840
233.728358,4903.011187,4811.338623,4071.132681
233.728666,3524.039291,4515.256246,5477.523971
233.728974,1838.629195,2368.659014,6587.832884
233.729282,76.609550,296.082377,8956.491898
233.729590,-1762.019645,-1554.432478,10955.047942
233.729898,-3217.601092,-3330.926739,13175.665768
233.730206,-4519.963438,-4441.235652,14582.057057
233.730514,-4060.306139,-4959.379811,15100.201217
233.730822,-3294.210641,-4145.153275,14878.139434
233.731130,-1532.190996,-3108.864956,12953.603985
233.731438,536.266849,-962.267725,11325.150913
233.731746,2374.896044,1332.370696,9326.594869
233.732054,3983.696590,2886.803174,6735.874072
233.732362,5056.230287,4441.235652,5477.523971
233.732670,5362.668486,4663.297435,5403.503377
233.732978,4826.401637,4737.318029,4737.318029
233.733286,3447.429741,4145.153275,5255.462188
233.733594,2145.067394,2516.700203,6587.832884
233.733902,306.438199,814.226536,8216.285956
233.734210,-1378.971896,-1332.370696,10807.006753
233.734518,-2911.162892,-3775.050304,13101.645173
233.734826,-4136.915689,-5255.462188,14434.015869
233.735134,-4979.620737,-5921.647536,15988.448347
233.735442,-4060.306139,-5773.606348,15544.324782
233.735750,-2528.115143,-4663.297435,14137.933492
233.736058,-1072.533697,-1998.556043,12213.398043
233.736366,1225.752797,148.041188,9918.759623
233.736674,3217.601092,2442.679609,7179.997637
233.736982,4290.134789,4145.153275,5847.626942
233.737290,5592.497135,5329.482782,4811.338623
233.737598,5669.106685,5921.647536,3627.009116
233.737906,5439.278036,5255.462188,4367.215058
233.738214,3907.087040,4219.173869,4885.359217
233.738522,2145.067394,2516.700203,6587.832884
233.738830,76.609550,296.082377,9104.533087
233.739138,-2068.457845,-1628.453072,10658.965565
233.739447,-3600.648841,-3478.967927,13101.645173
233.739755,-3677.258390,-5477.523971,14582.057057
233.740063,-4826.401637,-4737.318029,14656.077652
233.740371,-3524.039291,-4219.173869,14730.098246
233.740679,-1225.752797,-2442.679609,13323.706956
233.740987,153.219100,-666.185348,10658.965565
233.741295,2451.505594,1406.391290,9030.512492
233.741603,4673.182538,3330.926739,6957.935855
233.741911,4903.011187,5033.400406,4811.338623
233.742219,5822.325785,5255.462188,4737.318029
233.742527,5745.716235,5181.441594,4885.359217
233.742835,3753.867940,4663.297435,5477.523971
233.743143,2911.162892,2368.659014,7105.977043
233.743451,459.657299,370.102971,8808.450710
233.743759,-1838.629195,-2294.638420,11621.233289
233.744067,-3677.258390,-4293.194464,13397.727550
233.744375,-4749.792088,-5477.523971,14878.139434
233.744683,-4903.011187,-6587.832884,16062.468941
233.744991,-4290.134789,-6365.771101,15914.427753
233.745299,-2987.772442,-4589.276840,14508.036463
233.745607,-689.485948,-2590.720797,12213.398043
233.745915,1455.581446,-0.000000,9696.697840
233.746223,3983.696590,2960.823768,6661.853478
233.746531,5439.278036,4515.256246,4959.379811
233.746839,5745.716235,5847.626942,4219.173869
233.747147,5822.325785,5921.647536,3478.967927
233.747455,5515.887586,5255.462188,3997.112087
233.747763,3830.477490,3997.112087,4663.297435
233.748071,1915.238745,1924.535449,6587.832884
233.748379,-383.047749,-0.000000,9400.615463
233.748687,-2451.505594,-2220.617826,11843.295072
233.748995,-4213.525239,-4219.173869,13693.809927
233.749303,-5056.230287,-4959.379811,14730.098246
233.749611,-4596.572988,-4811.338623,15470.304188
233.749919,-3140.991542,-4515.256246,14730.098246
233.750227,-1685.410096,-2368.659014,13323.706956
233.750535,536.266849,-666.185348,11251.130318
233.750843,2757.943793,1702.473667,9326.594869
233.751151,4136.915689,3701.029710,6143.709319
233.751459,5056.230287,5107.421000,5181.441594
233.751767,5515.887586,5773.606348,5181.441594
233.752075,5286.058936,5255.462188,4737.318029
233.752383,4290.134789,4663.297435,5403.503377
233.752691,2681.334243,2664.741391,6809.894666
233.752999,306.438199,-0.000000,8956.491898
233.753307,-1532.190996,-1924.535449,11473.192101
233.753615,-3294.210641,-4145.153275,13545.768739
233.753923,-4443.353888,-5625.565159,15174.221811
233.754231,-4596.572988,-6365.771101,15766.386565
233.754539,-4136.915689,-5403.503377,15692.365970
233.754847,-2298.286494,-3701.029710,14211.954086
233.755155,-229.828649,-1924.535449,12435.459826
233.755463,2374.896044,-0.000000,9326.594869
233.755771,3907.087040,3108.864956,6587.832884
233.756079,5439.278036,4663.297435,5551.544565
233.756387,5362.668486,5921.647536,4293.194464
233.756695,5669.106685,6291.750507,4145.153275
233.757003,4903.011187,5033.400406,4515.256246
233.757311,2911.162892,4293.194464,5477.523971
233.757619,1072.533697,1332.370696,7254.018232
233.757927,-842.705048,-74.020594,9844.739029
233.758235,-2911.162892,-2516.700203,12287.418637
233.758543,-4213.525239,-4367.215058,13841.851115
233.758851,-4903.011187,-4811.338623,14804.118840
233.759159,-4213.525239,-4885.359217,15100.201217
233.759468,-2987.772442,-4071.132681,14211.954086
233.759776,-536.266849,-1702.473667,12583.501014
233.760084,842.705048,-0.000000,10658.965565
233.760392,3140.991542,2368.659014,7772.162391
233.760700,4903.011187,4589.276840,5551.544565
233.761008,5898.935335,5329.482782,4663.297435
233.761316,5669.106685,5625.565159,4293.194464
233.761624,5132.839837,5329.482782,4737.318029
233.761932,3830.477490,3256.906145,6365.771101
233.762240,1302.362347,1924.535449,7105.977043
233.762548,0.000000,-666.185348,9770.718434
233.762856,-2298.286494,-2886.803174,12361.439231
233.763164,-4060.306139,-4737.318029,14137.933492
233.763472,-4979.620737,-5921.647536,15322.262999
233.763780,-5132.839837,-6069.688724,15618.345376
233.764088,-3983.696590,-5477.523971,15322.262999
233.764396,-1685.410096,-3775.050304,13841.851115
233.764704,0.000000,-1480.411884,11695.253884
233.765012,2298.286494,1332.370696,9474.636058
233.765320,4443.353888,3256.906145,6513.812290
233.765628,5592.497135,4959.379811,4737.318029
233.765936,6052.154434,5773.606348,3775.050304
233.766244,5898.935335,5847.626942,3775.050304
233.766552,5056.230287,4737.318029,4145.153275
233.766860,3294.210641,3552.988522,5773.606348
233.767168,1378.971896,962.267725,7328.038826
233.767476,-383.047749,-592.164754,9030.512492
233.767784,-2374.896044,-2590.720797,11251.130318
233.768092,-3753.867940,-4145.153275,13323.706956
233.768400,-4596.572988,-5033.400406,14434.015869
233.768708,-4366.744339,-4959.379811,14434.015869
233.769016,-3294.210641,-3627.009116,14063.912898
233.769324,-919.314598,-2294.638420,12435.459826
233.769632,1378.971896,296.082377,10510.924376
233.769940,2451.505594,2516.700203,8586.388927
233.770248,3677.258390,4219.173869,6439.791695
233.770556,5056.230287,5107.421000,5255.462188
233.770864,5132.839837,5477.523971,4811.338623
233.771172,4596.572988,4737.318029,5255.462188
233.771480,3064.381992,3256.906145,6291.750507
233.771788,1302.362347,1406.391290,8068.244768
233.772096,-766.095498,-592.164754,9918.759623
233.772404,-2757.943793,-2812.782580,12213.398043
233.772712,-3677.258390,-4515.256246,14137.933492
233.773020,-4826.401637,-5403.503377,14878.139434
233.773328,-4596.572988,-5625.565159,15692.365970
233.773636,-3677.258390,-4589.276840,14878.139434
233.773944,-1915.238745,-2960.823768,13249.686362
233.774252,383.047749,-666.185348,11695.253884
233.774560,2757.943793,1332.370696,8808.450710
233.774868,4443.353888,3256.906145,6809.894666
233.775176,5286.058936,4811.338623,5255.462188
233.775484,5592.497135,5403.503377,4515.256246
233.775792,5286.058936,5181.441594,4589.276840
233.776100,4290.134789,4663.297435,5181.441594
233.776408,3294.210641,3108.864956,6143.709319
233.776716,995.924147,1332.370696,7550.100608
233.777024,-689.485948,-740.205942,9474.636058
233.777332,-2451.505594,-2442.679609,11843.295072
233.777640,-3524.039291,-3552.988522,13323.706956
233.777948,-3983.696590,-4367.215058,14285.974681
233.778256,-3753.867940,-4663.297435,14804.118840
233.778564,-2528.115143,-3404.947333,13989.892304
233.778872,-536.266849,-1628.453072,12731.542202
233.779180,766.095498,74.020594,10732.986159
233.779489,2681.334243,2220.617826,8512.368333
233.779797,4290.134789,4219.173869,7031.956449
233.780105,5132.839837,5329.482782,5033.400406
233.780413,5209.449386,5699.585753,5033.400406
233.780721,5056.230287,5181.441594,5107.421000
233.781029,3524.039291,3775.050304,6365.771101
233.781337,1302.362347,1184.329507,7254.018232
233.781645,-229.828649,-740.205942,9918.759623
233.781953,-2681.334243,-2960.823768,12435.459826
233.782261,-4213.525239,-4885.359217,14582.057057
233.782569,-5286.058936,-5625.565159,15248.242405
233.782877,-4903.011187,-5699.585753,15766.386565
233.783185,-3600.648841,-5107.421000,14878.139434
233.783493,-1915.238745,-3034.844362,13249.686362
233.783801,536.266849,-962.267725,11103.089130
233.784109,2834.553343,1406.391290,8290.306550
233.784417,4673.182538,3775.050304,5847.626942
233.784725,6052.154434,4589.276840,4811.338623
233.785033,5745.716235,5921.647536,3701.029710
233.785341,5592.497135,5551.544565,3997.112087
233.785649,4826.401637,4811.338623,4515.256246
233.785957,2834.553343,3108.864956,5625.565159
233.786265,919.314598,740.205942,7402.059420
233.786573,-995.924147,-1258.350101,10140.821405
233.786881,-2451.505594,-3182.885551,12583.501014
233.787189,-4443.353888,-5107.421000,13545.768739
233.787497,-4596.572988,-5181.441594,14656.077652
233.787805,-4060.306139,-4959.379811,14285.974681
233.788113,-2451.505594,-3627.009116,14137.933492
233.788421,-383.047749,-1554.432478,12213.398043
233.788729,1378.971896,518.144159,9474.636058
233.789037,3600.648841,2812.782580,7476.080014
233.789345,5056.230287,4885.359217,5477.523971
233.789653,6205.373534,5847.626942,4737.318029
233.789961,5898.935335,5847.626942,4515.256246
233.790269,5132.839837,5107.421000,4737.318029
233.790577,3524.039291,3849.070898,5847.626942
233.790885,1302.362347,1332.370696,7994.224174
233.791193,-919.314598,-1110.308913,10362.883188
233.791501,-3064.381992,-3849.070898,12731.542202
233.791809,-4290.134789,-5033.400406,14878.139434
233.792117,-5209.449386,-6143.709319,15322.262999
233.792425,-5286.058936,-5847.626942,15840.407159
233.792733,-3600.648841,-4663.297435,15322.262999
233.793041,-1378.971896,-2368.659014,13249.686362
233.793349,995.924147,-148.041188,10732.986159
233.793657,3294.210641,1998.556043,8734.430116
233.793965,4596.572988,3923.091493,5773.606348
233.794273,5669.106685,5181.441594,4959.379811
233.794581,5362.668486,5551.544565,4515.256246
233.794889,4673.182538,5551.544565,4515.256246
233.795197,3907.087040,4145.153275,5329.482782
233.795505,2145.067394,2590.720797,6291.750507
233.795813,383.047749,444.123565,7846.182985
233.796121,-1149.143247,-1184.329507,9992.780217
233.796429,-2911.162892,-3108.864956,12065.356855
233.796737,-4136.915689,-3997.112087,13915.871710
233.797045,-3677.258390,-4367.215058,14508.036463
233.797353,-2834.553343,-4145.153275,14285.974681
233.797661,-1532.190996,-2516.700203,13249.686362
233.797969,153.219100,-888.247130,11695.253884
233.798277,2528.115143,1184.329507,9622.677246
233.798585,2987.772442,2960.823768,7846.182985
233.798893,4673.182538,3997.112087,6587.832884
233.799201,4749.792088,4959.379811,5181.441594
233.799510,4979.620737,5033.400406,5477.523971
233.799818,3830.477490,4441.235652,5847.626942
233.800126,2681.334243,2738.761985,6735.874072
233.800434,459.657299,666.185348,8512.368333
233.800742,-1838.629195,-1332.370696,10584.944971
233.801050,-3294.210641,-3034.844362,12953.603985
233.801358,-4749.792088,-4737.318029,14656.077652
233.801666,-4903.011187,-5625.565159,15174.221811
233.801974,-4519.963438,-5255.462188,15100.201217
233.802282,-3064.381992,-3997.112087,14359.995275
233.802590,-1072.533697,-1924.535449,12805.562797
233.802898,1302.362347,-148.041188,10658.965565
233.803206,2834.553343,1924.535449,7994.224174
233.803514,4060.306139,3256.906145,6365.771101
233.803822,5362.668486,4737.318029,5107.421000
233.804130,5132.839837,4737.318029,4737.318029
233.804438,4749.792088,4811.338623,4441.235652
233.804746,3600.648841,3701.029710,5181.441594
233.805054,2298.286494,2294.638420,6365.771101
233.805362,229.828649,888.247130,7550.100608
233.805670,-1149.143247,-962.267725,9992.780217
233.805978,-2374.896044,-2960.823768,11695.253884
233.806286,-2834.553343,-3923.091493,13249.686362
233.806594,-3370.820191,-4737.318029,13841.851115
233.806902,-3294.210641,-4441.235652,13915.871710
233.807210,-2221.676944,-3330.926739,13619.789333
233.807518,-766.095498,-1554.432478,11843.295072
233.807826,995.924147,370.102971,9918.759623
233.808134,2528.115143,1924.535449,8290.306550
233.808442,3907.087040,4071.132681,6513.812290
233.808750,4749.792088,4663.297435,5255.462188
233.809058,4749.792088,4737.318029,5181.441594
233.809366,4136.915689,4737.318029,5699.585753
233.809674,3064.381992,3182.885551,6439.791695
233.809982,1378.971896,1332.370696,7920.203579
233.810290,-612.876398,-888.247130,9696.697840
233.810598,-2604.724693,-2590.720797,12435.459826
233.810906,-3600.648841,-4589.276840,13989.892304
233.811214,-4443.353888,-5107.421000,15322.262999
233.811522,-4443.353888,-4663.297435,15248.242405
233.811830,-3140.991542,-3701.029710,15174.221811
233.812138,-1149.143247,-2072.576638,12879.583391
233.812446,1149.143247,-222.061783,10658.965565
233.812754,2757.943793,1702.473667,8290.306550
233.813062,5209.449386,3627.009116,6217.729913
233.813370,5362.668486,4589.276840,5329.482782
233.813678,5209.449386,5107.421000,4515.256246
233.813986,5669.106685,5107.421000,4959.379811
233.814294,4290.134789,4515.256246,5107.421000
233.814602,2451.505594,2812.782580,6217.729913
233.814910,995.924147,1480.411884,7476.080014
233.815218,-383.047749,-814.226536,9622.677246
233.815526,-1762.019645,-2664.741391,12435.459826
233.815834,-3064.381992,-3997.112087,13471.748144
233.816142,-3370.820191,-4663.297435,14730.098246
233.816450,-3753.867940,-4663.297435,15026.180623
233.816758,-2374.896044,-3330.926739,13767.830521
233.817066,-459.657299,-1554.432478,12287.418637
233.817374,1225.752797,148.041188,10362.883188
233.817682,2911.162892,2368.659014,8142.265362
233.817990,4519.963438,4441.235652,6513.812290
233.818298,5515.887586,4959.379811,4737.318029
233.818606,4826.401637,5107.421000,5033.400406
233.818914,4826.401637,4515.256246,5551.544565
233.819222,3140.991542,3034.844362,6439.791695
233.819530,995.924147,1258.350101,8216.285956
233.819839,-995.924147,-1036.288319,10288.862594
233.820147,-3217.601092,-3034.844362,12879.583391
233.820455,-4903.011187,-5033.400406,14285.974681
233.820763,-4443.353888,-5181.441594,15100.201217
233.821071,-4213.525239,-4885.359217,15026.180623
233.821379,-3064.381992,-4293.194464,13989.892304
233.821687,-995.924147,-2220.617826,12879.583391
233.821995,1072.533697,-222.061783,10584.944971
233.822303,2681.334243,1998.556043,7698.141797
233.822611,4749.792088,3478.967927,6069.688724
233.822919,5592.497135,4663.297435,4663.297435
233.823227,5439.278036,5033.400406,4441.235652
233.823535,4979.620737,4737.318029,4219.173869
233.823843,3370.820191,3849.070898,4959.379811
233.824151,2068.457845,2516.700203,6513.812290
233.824459,612.876398,962.267725,7920.203579
233.824767,-766.095498,-1184.329507,10362.883188
233.825075,-2834.553343,-3034.844362,11917.315666
233.825383,-3447.429741,-4589.276840,14211.954086
233.825691,-4136.915689,-5107.421000,15100.201217
233.825999,-3600.648841,-4811.338623,14952.160028
233.826307,-2757.943793,-3478.967927,13323.706956
233.826615,-383.047749,-1554.432478,11917.315666
233.826923,1685.410096,444.123565,9992.780217
233.827231,3370.820191,2886.803174,7698.141797
233.827539,5056.230287,4737.318029,5625.565159
233.827847,5745.716235,5329.482782,4589.276840
233.828155,5669.106685,5477.523971,4737.318029
233.828463,4826.401637,4589.276840,5403.503377
233.828771,2911.162892,2960.823768,6809.894666
233.829079,612.876398,666.185348,8216.285956
233.829387,-1302.362347,-1258.350101,10510.924376
233.829695,-3140.991542,-3108.864956,13027.624579
233.830003,-4903.011187,-4589.276840,14434.015869
233.830311,-5056.230287,-4885.359217,15248.242405
233.830619,-4519.963438,-4811.338623,15396.283594
233.830927,-2604.724693,-3849.070898,14211.954086
233.831235,-1225.752797,-1850.514855,12879.583391
233.831543,995.924147,-222.061783,10510.924376
233.831851,2528.115143,1924.535449,8364.327145
233.832159,4213.525239,3997.112087,6143.709319
233.832467,4826.401637,4959.379811,5403.503377
233.832775,4596.572988,4885.359217,4589.276840
233.833083,4826.401637,4885.359217,4885.359217
233.833391,3830.477490,3997.112087,5625.565159
233.833699,1608.800546,2368.659014,6735.874072
233.834007,536.266849,592.164754,8068.244768
233.834315,-842.705048,-1036.288319,9918.759623
233.834623,-2451.505594,-2664.741391,11621.233289
233.834931,-3370.820191,-4219.173869,13249.686362
233.835239,-3677.258390,-4885.359217,14508.036463
233.835547,-2911.162892,-4441.235652,14582.057057
233.835855,-1991.848295,-3256.906145,13545.768739
233.836163,76.609550,-962.267725,11843.295072
233.836471,1991.848295,888.247130,9770.718434
233.836779,3830.477490,3034.844362,7624.121203
233.837087,5439.278036,4811.338623,5255.462188
233.837395,5898.935335,5551.544565,4367.215058
233.837703,5362.668486,5255.462188,4663.297435
233.838011,4749.792088,4367.215058,5403.503377
233.838319,3370.820191,2960.823768,7179.997637
233.838627,536.266849,666.185348,8882.471304
233.838935,-1532.190996,-1554.432478,10881.027347
233.839243,-3447.429741,-3404.947333,13249.686362
233.839551,-4979.620737,-4885.359217,14878.139434
233.839858,-5515.887586,-4959.379811,15470.304188
233.840166,-4213.525239,-5033.400406,15766.386565
233.840474,-2374.896044,-3997.112087,14730.098246
233.840782,0.000000,-2368.659014,12583.501014
233.841090,1532.190996,-222.061783,10214.842000
233.841398,3140.991542,1998.556043,7846.182985
233.841706,4673.182538,3775.050304,5921.647536
233.842014,4903.011187,4959.379811,4811.338623
233.842322,5286.058936,5625.565159,4589.276840
233.842630,4903.011187,5329.482782,4367.215058
233.842938,3370.820191,4219.173869,5403.503377
233.843246,2451.505594,2738.761985,5995.668130
233.843554,459.657299,666.185348,7994.224174
233.843862,-1302.362347,-1332.370696,10362.883188
233.844170,-2911.162892,-3552.988522,12065.356855
233.844478,-3830.477490,-4589.276840,13471.748144
233.844786,-4519.963438,-5107.421000,15100.201217
233.845094,-3370.820191,-5181.441594,14952.160028
233.845402,-1915.238745,-3330.926739,13545.768739
233.845710,0.000000,-1776.494261,11695.253884
233.846018,1762.019645,888.247130,9622.677246
233.846326,3677.258390,3034.844362,7328.038826
233.846633,4749.792088,4737.318029,5625.565159
233.846941,5669.106685,5403.503377,4515.256246
233.847249,6281.983084,5847.626942,5107.421000
233.847557,4903.011187,4441.235652,4959.379811
233.847865,3294.210641,2738.761985,6291.750507
233.848173,612.876398,1184.329507,8438.347739
233.848481,-1225.752797,-1702.473667,11399.171507
233.848789,-3677.258390,-3701.029710,13175.665768
233.849097,-4826.401637,-4663.297435,14730.098246
233.849405,-5132.839837,-5181.441594,15396.283594
233.849713,-3447.429741,-5181.441594,15618.345376
233.850021,-2834.553343,-3552.988522,14359.995275
233.850329,-536.266849,-1924.535449,12657.521608
233.850637,1915.238745,-0.000000,10510.924376
233.850945,2987.772442,2368.659014,7772.162391
233.851253,4443.353888,3701.029710,6291.750507
233.851561,4979.620737,4885.359217,5329.482782
233.851869,5132.839837,5477.523971,4663.297435
233.852177,4443.353888,5255.462188,4737.318029
233.852485,4060.306139,3775.050304,5403.503377
233.852793,1685.410096,2516.700203,6883.915261
233.853100,-229.828649,-0.000000,8882.471304
233.853408,-1838.629195,-1850.514855,10807.006753
233.853716,-3370.820191,-3775.050304,12879.583391
233.854024,-4366.744339,-5033.400406,14508.036463
233.854332,-4290.134789,-5181.441594,14878.139434
233.854640,-3370.820191,-4737.318029,14434.015869
233.854948,-1225.752797,-2886.803174,13841.851115
233.855256,0.000000,-1036.288319,11177.109724
233.855564,2834.553343,1628.453072,9030.512492
233.855872,4290.134789,3627.009116,7105.977043
233.856180,5439.278036,5329.482782,5033.400406
233.856488,5745.716235,5847.626942,4367.215058
233.856796,5975.544884,5995.668130,4367.215058
233.857104,4596.572988,4441.235652,4885.359217
233.857412,2374.896044,2294.638420,7179.997637
233.857720,459.657299,-0.000000,8660.409521
233.858028,-2068.457845,-2368.659014,11917.315666
233.858336,-4290.134789,-4145.153275,13545.768739
233.858644,-5362.668486,-5033.400406,14878.139434
233.858952,-5209.449386,-5403.503377,16136.489536
233.859260,-4366.744339,-5033.400406,15322.262999
233.859568,-2528.115143,-3478.967927,13841.851115
233.859875,-229.828649,-1850.514855,12213.398043
233.860183,1685.410096,222.061783,9696.697840
233.860491,3064.381992,2294.638420,7254.018232
233.860799,4596.572988,3849.070898,5847.626942
233.861107,5286.058936,5033.400406,4959.379811
233.861415,5132.839837,5699.585753,4441.235652
233.861723,4903.011187,5625.565159,4663.297435
233.862031,3140.991542,4515.256246,5329.482782
233.862339,1685.410096,1998.556043,6365.771101
233.862647,-229.828649,-296.082377,8290.306550
233.862955,-1455.581446,-1776.494261,10658.965565
233.863263,-3294.210641,-3775.050304,12509.480420
233.863571,-3677.258390,-5107.421000,13989.892304
233.863879,-3907.087040,-5403.503377,14285.974681
233.864187,-2451.505594,-4959.379811,14434.015869
233.864495,-1378.971896,-3404.947333,12879.583391
233.864803,689.485948,-1110.308913,10881.027347
233.865111,2757.943793,1110.308913,8808.450710
233.865419,4060.306139,3478.967927,6513.812290
233.865727,5439.278036,5033.400406,5181.441594
233.866035,5898.935335,5477.523971,4441.235652
233.866343,5592.497135,5699.585753,4515.256246
233.866650,4596.572988,4663.297435,5403.503377
233.866958,2528.115143,2294.638420,7105.977043
233.867266,-153.219100,222.061783,9400.615463
233.867574,-2834.553343,-2516.700203,11991.336260
233.867882,-3753.867940,-3997.112087,13915.871710
233.868190,-4979.620737,-4885.359217,14582.057057
233.868498,-4903.011187,-4885.359217,15618.345376
233.868806,-3753.867940,-4737.318029,15026.180623
233.869114,-2298.286494,-2886.803174,13397.727550
233.869422,306.438199,-1480.411884,12435.459826
233.869730,2068.457845,814.226536,9622.677246
233.870038,3294.210641,2220.617826,7402.059420
233.870346,4826.401637,3923.091493,6365.771101
233.870654,4979.620737,5181.441594,4811.338623
233.870962,4979.620737,5625.565159,4293.194464
233.871270,4596.572988,5329.482782,4811.338623
233.871578,3294.210641,4145.153275,5551.544565
233.871886,1685.410096,2072.576638,7179.997637
233.872194,76.609550,222.061783,8956.491898
233.872502,-2145.067394,-1850.514855,11325.150913
233.872810,-3447.429741,-3775.050304,13397.727550
233.873118,-4060.306139,-4811.338623,14656.077652
233.873425,-3830.477490,-5181.441594,14656.077652
233.873733,-3140.991542,-4367.215058,14211.954086
233.874041,-1302.362347,-2590.720797,12953.603985
233.874349,919.314598,-222.061783,10732.986159
233.874657,2911.162892,1998.556043,8882.471304
233.874965,4903.011187,3701.029710,6809.894666
233.875273,5822.325785,5033.400406,5477.523971
233.875581,5669.106685,5329.482782,4811.338623
233.875889,5362.668486,5033.400406,5107.421000
233.876197,3753.867940,3997.112087,5847.626942
233.876505,1455.581446,1702.473667,7920.203579
233.876813,-612.876398,-222.061783,10362.883188
233.877121,-2604.724693,-2886.803174,11843.295072
233.877429,-4749.792088,-3849.070898,14063.912898
233.877737,-5056.230287,-4885.359217,15100.201217
233.878045,-4749.792088,-4959.379811,15544.324782
233.878353,-3753.867940,-4885.359217,15100.201217
233.878661,-2374.896044,-3034.844362,13323.706956
233.878969,-536.266849,-1554.432478,11695.253884
233.879277,2068.457845,444.123565,9548.656652
233.879585,3830.477490,3034.844362,7105.977043
233.879892,4826.401637,4367.215058,5107.421000
233.880200,5439.278036,5329.482782,3923.091493
233.880508,5362.668486,5847.626942,3701.029710
233.880816,4903.011187,5033.400406,4367.215058
233.881124,3140.991542,3627.009116,5551.544565
233.881432,1378.971896,1628.453072,6883.915261
233.881740,-459.657299,-888.247130,9104.533087
233.882048,-2221.676944,-2886.803174,11251.130318
233.882356,-3753.867940,-4663.297435,13397.727550
233.882664,-4213.525239,-5181.441594,14359.995275
233.882972,-4060.306139,-5107.421000,14730.098246
233.883280,-2681.334243,-4367.215058,13767.830521
233.883588,-995.924147,-2590.720797,12509.480420
233.883896,995.924147,-370.102971,10658.965565
233.884204,3447.429741,1554.432478,8216.285956
233.884512,5362.668486,3701.029710,5921.647536
233.884820,6205.373534,5033.400406,3923.091493
233.885128,6435.202183,5477.523971,3923.091493
233.885436,5592.497135,5181.441594,4663.297435
233.885744,3907.087040,3478.967927,6069.688724
233.886052,1608.800546,1554.432478,7772.162391
233.886360,-612.876398,-962.267725,9474.636058
233.886667,-2528.115143,-2738.761985,12139.377449
233.886975,-4903.011187,-3997.112087,14211.954086
233.887283,-5515.887586,-4737.318029,15174.221811
233.887591,-4903.011187,-5033.400406,15544.324782
233.887899,-3524.039291,-4367.215058,15322.262999
233.888207,-1762.019645,-2516.700203,13693.809927
233.888515,153.219100,-888.247130,11695.253884
233.888823,1762.019645,1036.288319,9474.636058
233.889131,3600.648841,3478.967927,7105.977043
233.889439,4903.011187,4663.297435,5477.523971
233.889747,5362.668486,5477.523971,4589.276840
233.890055,5439.278036,6143.709319,4219.173869
233.890363,4596.572988,4885.359217,4959.379811
233.890671,2681.334243,3330.926739,5625.565159
233.890979,842.705048,1184.329507,7550.100608
233.891287,-919.314598,-740.205942,10066.800811
233.891595,-2911.162892,-2960.823768,11991.336260
233.891903,-4366.744339,-4367.215058,14211.954086
233.892211,-4826.401637,-5107.421000,15026.180623
233.892519,-4136.915689,-4811.338623,14952.160028
233.892827,-2757.943793,-3256.906145,13693.809927
233.893135,-306.438199,-1998.556043,12287.418637
233.893442,1685.410096,592.164754,9918.759623
233.893750,3907.087040,2368.659014,7994.224174
233.894058,4979.620737,3701.029710,6661.853478
233.894366,5898.935335,4885.359217,5181.441594
233.894674,5975.544884,4885.359217,4885.359217
233.894982,5056.230287,4663.297435,5181.441594
233.895290,3294.210641,3182.885551,6291.750507
233.895598,1532.190996,1184.329507,8364.327145
233.895906,-919.314598,-888.247130,9770.718434
233.896214,-2451.505594,-2516.700203,11843.295072
233.896522,-3983.696590,-3923.091493,13915.871710
233.896830,-4519.963438,-4737.318029,14952.160028
233.897138,-4443.353888,-4737.318029,15396.283594
233.897446,-3217.601092,-3997.112087,14730.098246
233.897754,-1455.581446,-2516.700203,13175.665768
233.898062,612.876398,-666.185348,11251.130318
233.898370,2068.457845,1184.329507,9030.512492
233.898678,3983.696590,2146.597232,6883.915261
233.898986,5056.230287,3923.091493,5255.462188
233.899294,4979.620737,5033.400406,4885.359217
233.899602,4749.792088,5181.441594,4441.235652
233.899910,3830.477490,4589.276840,4737.318029
233.900217,2528.115143,3108.864956,6069.688724
233.900525,842.705048,1258.350101,7254.018232
233.900833,-919.314598,-814.226536,9474.636058
233.901141,-3064.381992,-2590.720797,11473.192101
233.901449,-4136.915689,-4515.256246,13249.686362
233.901757,-4290.134789,-4811.338623,14434.015869
233.902065,-4136.915689,-4737.318029,14359.995275
233.902373,-2451.505594,-3552.988522,13471.748144
233.902681,-536.266849,-1628.453072,11695.253884
233.902989,1608.800546,370.102971,9992.780217
233.903297,3600.648841,2146.597232,7994.224174
233.903605,5132.839837,3478.967927,5773.606348
233.903913,5592.497135,4589.276840,4959.379811
233.904221,6281.983084,4737.318029,4811.338623
233.904529,4519.963438,4737.318029,5625.565159
233.904837,3140.991542,3256.906145,6661.853478
233.905145,1532.190996,1480.411884,7846.182985
233.905453,-612.876398,-370.102971,9770.718434
233.905761,-2757.943793,-2294.638420,12065.356855
233.906069,-4290.134789,-3701.029710,13767.830521
233.906377,-4366.744339,-4515.256246,15248.242405
233.906684,-3983.696590,-5033.400406,14878.139434
233.906992,-3600.648841,-3849.070898,14656.077652
233.907300,-1762.019645,-2516.700203,13545.768739
233.907608,919.314598,-1036.288319,11695.253884
233.907916,1991.848295,1258.350101,8290.306550
233.908224,3600.648841,2664.741391,7105.977043
233.908532,5132.839837,3775.050304,6291.750507
233.908840,5056.230287,5329.482782,4589.276840
233.909148,4979.620737,5033.400406,4811.338623
233.909456,4979.620737,4959.379811,4589.276840
233.909764,3140.991542,3478.967927,5625.565159
233.910072,842.705048,1628.453072,7402.059420
233.910380,-689.485948,-444.123565,9474.636058
233.910688,-2298.286494,-2368.659014,11843.295072
233.910996,-4443.353888,-4293.194464,13915.871710
233.911304,-4749.792088,-5033.400406,15174.221811
233.911612,-3907.087040,-4441.235652,14582.057057
233.911920,-2374.896044,-3256.906145,14137.933492
233.912228,0.000000,-1554.432478,11695.253884
233.912536,1532.190996,444.123565,9992.780217
233.912844,3600.648841,2294.638420,8216.285956
233.913152,4596.572988,3552.988522,5995.668130
233.913459,5745.716235,4293.194464,5403.503377
233.913767,5209.449386,4515.256246,5033.400406
233.914075,4903.011187,4663.297435,5551.544565
233.914383,3524.039291,3330.926739,6439.791695
233.914691,1302.362347,1258.350101,7846.182985
233.914999,-995.924147,-666.185348,9844.739029
233.915307,-2681.334243,-2442.679609,11843.295072
233.915615,-3983.696590,-3923.091493,14211.954086
233.915923,-4979.620737,-5033.400406,14730.098246
233.916231,-3753.867940,-4589.276840,14730.098246
233.916539,-2451.505594,-4219.173869,14656.077652
233.916847,-1072.533697,-2442.679609,13027.624579
233.917155,766.095498,-962.267725,11177.109724
233.917463,2298.286494,1110.308913,9030.512492
233.917771,3830.477490,2738.761985,6735.874072
233.918079,4519.963438,4145.153275,5995.668130
233.918387,5286.058936,4885.359217,5255.462188
233.918695,4979.620737,5329.482782,4441.235652
233.919003,4519.963438,4663.297435,4811.338623
233.919311,2681.334243,3552.988522,6439.791695
233.919619,1072.533697,1554.432478,7698.141797
233.919927,-1225.752797,-962.267725,10362.883188
233.920234,-3370.820191,-2960.823768,12361.439231
233.920542,-4366.744339,-4441.235652,14359.995275
233.920850,-4903.011187,-4959.379811,15248.242405
233.921158,-3753.867940,-4367.215058,15174.221811
233.921466,-2451.505594,-2886.803174,13323.706956
233.921774,0.000000,-962.267725,11843.295072
233.922082,2374.896044,444.123565,10066.800811
233.922390,3753.867940,2664.741391,7402.059420
233.922698,5209.449386,3923.091493,6217.729913
233.923006,6205.373534,4515.256246,5255.462188
233.923314,5362.668486,4737.318029,5255.462188
233.923622,3983.696590,3701.029710,5625.565159
233.923930,2987.772442,3256.906145,6957.935855
233.924238,536.266849,1110.308913,8512.368333
233.924546,-1532.190996,-444.123565,10510.924376
233.924854,-2987.772442,-2368.659014,12805.562797
233.925162,-4749.792088,-3997.112087,14211.954086
233.925470,-4903.011187,-4663.297435,14952.160028
233.925778,-4213.525239,-4663.297435,15100.201217
233.926086,-2451.505594,-3923.091493,14508.036463
233.926394,-919.314598,-2442.679609,12583.501014
233.926702,766.095498,-518.144159,10807.006753
233.927009,2604.724693,1554.432478,8512.368333
233.927317,4213.525239,3256.906145,6439.791695
233.927625,4979.620737,4515.256246,5403.503377
233.927933,5132.839837,4811.338623,4663.297435
233.928241,5056.230287,4811.338623,4441.235652
233.928549,4979.620737,4589.276840,5181.441594
233.928857,2451.505594,2664.741391,5921.647536
233.929165,459.657299,518.144159,7476.080014
233.929473,-1685.410096,-1554.432478,9548.656652
233.929781,-2987.772442,-3108.864956,11917.315666
233.930089,-4290.134789,-4737.318029,13471.748144
233.930397,-4290.134789,-4737.318029,14211.954086
233.930705,-3064.381992,-4589.276840,13989.892304
233.931013,-1608.800546,-3330.926739,13397.727550
233.931321,689.485948,-1628.453072,11103.089130
233.931629,2221.676944,148.041188,8438.347739
233.931937,3677.258390,1702.473667,7402.059420
233.932245,4979.620737,3182.885551,5773.606348
233.932553,5439.278036,3997.112087,4959.379811
233.932861,5669.106685,3849.070898,5403.503377
233.933169,4290.134789,3404.947333,5477.523971
233.933467,2834.553343,2516.700203,6735.874072
233.933775,459.657299,1258.350101,8734.430116
233.934083,-995.924147,-666.185348,9918.759623
233.934391,-2834.553343,-2220.617826,11917.315666
233.934699,-3370.820191,-3552.988522,13619.789333
233.935007,-4136.915689,-4441.235652,14434.015869
233.935315,-3524.039291,-4811.338623,15100.201217
233.935623,-2374.896044,-3478.967927,14656.077652
233.935932,-1072.533697,-2368.659014,12509.480420
233.936240,459.657299,-592.164754,10807.006753
233.936548,2145.067394,1480.411884,8734.430116
233.936856,3677.258390,2960.823768,7031.956449
233.937164,4519.963438,3997.112087,5995.668130
233.937472,4596.572988,4811.338623,5329.482782
233.937780,4903.011187,4737.318029,5403.503377
233.938088,3907.087040,4589.276840,5847.626942
233.938396,1915.238745,2590.720797,6661.853478
233.938704,0.000000,1554.432478,8364.327145
233.939013,-1685.410096,-1036.288319,10510.924376
233.939321,-3064.381992,-2220.617826,12065.356855
233.939629,-3753.867940,-3330.926739,13619.789333
233.939937,-3830.477490,-3552.988522,14211.954086
233.940245,-3140.991542,-3404.947333,14063.912898
233.940553,-1149.143247,-2294.638420,13101.645173
233.940861,383.047749,-518.144159,11103.089130
233.941169,2681.334243,444.123565,9474.636058
233.941477,3983.696590,2072.576638,7920.203579
233.941786,4903.011187,3330.926739,6143.709319
233.942094,5209.449386,3775.050304,5847.626942
233.942402,4903.011187,4219.173869,5773.606348
233.942710,4136.915689,3552.988522,5995.668130
233.943018,2834.553343,2368.659014,7254.018232
233.943326,919.314598,1332.370696,8512.368333
233.943634,-459.657299,-444.123565,10510.924376
233.943942,-2528.115143,-2368.659014,12213.398043
233.944250,-3677.258390,-3849.070898,13619.789333
233.944558,-4213.525239,-4663.297435,14878.139434
233.944867,-3983.696590,-4959.379811,15174.221811
233.945175,-2528.115143,-4441.235652,14656.077652
233.945483,-766.095498,-2886.803174,13101.645173
233.945791,689.485948,-666.185348,10584.944971
233.946099,2298.286494,666.185348,8216.285956
233.946407,3983.696590,2812.782580,6661.853478
233.946715,4903.011187,3997.112087,5403.503377
233.947023,4826.401637,4737.318029,4145.153275
233.947331,4903.011187,4737.318029,4293.194464
233.947640,4443.353888,4515.256246,4885.359217
233.947948,2374.896044,3108.864956,5995.668130
233.948256,536.266849,1110.308913,7550.100608
233.948564,-1072.533697,-740.205942,9770.718434
233.948872,-3064.381992,-2368.659014,11695.253884
233.949180,-3677.258390,-3775.050304,13619.789333
233.949488,-4290.134789,-4145.153275,14063.912898
233.949796,-3600.648841,-3701.029710,14285.974681
233.950104,-2145.067394,-2960.823768,13545.768739
233.950413,0.000000,-962.267725,11029.068536
233.950721,1838.629195,222.061783,9548.656652
233.951029,3753.867940,2146.597232,7994.224174
233.951337,4519.963438,3330.926739,5995.668130
233.951645,4979.620737,4145.153275,5551.544565
233.951953,4979.620737,4219.173869,5625.565159
233.952261,3983.696590,4145.153275,5921.647536
233.952569,2451.505594,2812.782580,7179.997637
233.952877,842.705048,1036.288319,8586.388927
233.953185,-1072.533697,-444.123565,10288.862594
233.953494,-2681.334243,-2664.741391,12583.501014
233.953802,-3830.477490,-3849.070898,13989.892304
233.954110,-4366.744339,-4441.235652,14952.160028
233.954418,-3830.477490,-4811.338623,15396.283594
233.954726,-2681.334243,-3997.112087,14285.974681
233.955034,-1149.143247,-2146.597232,12509.480420
233.955342,1762.019645,-296.082377,10584.944971
233.955650,3140.991542,1628.453072,7624.121203
233.955958,4903.011187,3182.885551,5773.606348
233.956267,5209.449386,4737.318029,4959.379811
233.956575,5592.497135,5477.523971,4071.132681
233.956883,5286.058936,5255.462188,4367.215058
233.957191,4366.744339,4811.338623,5403.503377
233.957499,1991.848295,3108.864956,6809.894666
233.957807,153.219100,888.247130,8586.388927
233.958115,-2145.067394,-1480.411884,10658.965565
233.958423,-4136.915689,-3182.885551,12435.459826
233.958731,-4826.401637,-4367.215058,14285.974681
233.959039,-4443.353888,-4737.318029,15396.283594
233.959348,-3677.258390,-4441.235652,14359.995275
233.959656,-2145.067394,-2442.679609,12509.480420
233.959964,995.924147,-1110.308913,11399.171507
233.960272,2451.505594,1184.329507,9030.512492
233.960580,4136.915689,3034.844362,7105.977043
233.960888,5362.668486,3775.050304,5625.565159
233.961196,5286.058936,4737.318029,4959.379811
233.961504,4903.011187,4441.235652,5255.462188
233.961812,3983.696590,4219.173869,6069.688724
233.962121,2298.286494,2368.659014,7179.997637
233.962429,0.000000,666.185348,8512.368333
233.962737,-1608.800546,-1184.329507,10510.924376
233.963045,-2987.772442,-3108.864956,12213.398043
233.963353,-3983.696590,-4293.194464,13767.830521
233.963661,-4366.744339,-4737.318029,14952.160028
233.963969,-3524.039291,-4959.379811,14804.118840
233.964277,-2451.505594,-4219.173869,14063.912898
233.964585,-306.438199,-2368.659014,12139.377449
233.964893,1915.238745,-814.226536,10214.842000
233.965202,3294.210641,1184.329507,7624.121203
233.965510,4903.011187,2590.720797,5625.565159
233.965818,5362.668486,4219.173869,4959.379811
233.966126,5439.278036,4811.338623,4367.215058
233.966434,5132.839837,5107.421000,4219.173869
233.966742,4213.525239,4663.297435,5033.400406
233.967050,1685.410096,2442.679609,6809.894666
233.967358,-383.047749,592.164754,8586.388927
233.967666,-2068.457845,-1332.370696,11177.109724
233.967975,-3830.477490,-2812.782580,12953.603985
233.968283,-4213.525239,-3849.070898,13989.892304
233.968591,-4519.963438,-4145.153275,14730.098246
233.968899,-3677.258390,-3775.050304,14804.118840
233.969207,-1455.581446,-2294.638420,13323.706956
233.969515,459.657299,-296.082377,11177.109724
233.969823,2145.067394,1036.288319,9326.594869
233.970131,3677.258390,2590.720797,7105.977043
233.970439,5592.497135,3627.009116,6069.688724
233.970747,5286.058936,4737.318029,5255.462188
233.971056,5056.230287,4737.318029,5181.441594
233.971364,4213.525239,4515.256246,5847.626942
233.971672,2604.724693,2886.803174,7328.038826
233.971980,383.047749,740.205942,9252.574275
233.972288,-1685.410096,-888.247130,11695.253884
233.972596,-3677.258390,-2812.782580,12583.501014
233.972904,-4673.182538,-4589.276840,14359.995275
233.973212,-4673.182538,-4811.338623,15618.345376
233.973520,-3907.087040,-4811.338623,15618.345376
233.973829,-2834.553343,-3923.091493,14285.974681
233.974137,-919.314598,-2220.617826,12213.398043
233.974445,1302.362347,-1036.288319,9844.739029
233.974753,2911.162892,1480.411884,7698.141797
233.975061,4903.011187,3108.864956,6365.771101
233.975369,5745.716235,4589.276840,4885.359217
233.975677,5132.839837,5477.523971,3775.050304
233.975985,5975.544884,5181.441594,4885.359217
233.976293,4903.011187,4737.318029,4737.318029
233.976601,2145.067394,2960.823768,6217.729913
233.976910,459.657299,222.061783,8808.450710
233.977218,-1838.629195,-1628.453072,11029.068536
233.977526,-4060.306139,-3182.885551,13471.748144
233.977834,-4366.744339,-4441.235652,14211.954086
233.978142,-4749.792088,-4515.256246,15026.180623
233.978450,-3524.039291,-4145.153275,14359.995275
233.978758,-1608.800546,-2368.659014,12509.480420
233.979066,536.266849,-962.267725,10807.006753
233.979374,1915.238745,814.226536,9548.656652
233.979683,3907.087040,2442.679609,6809.894666
233.979991,4903.011187,3701.029710,5995.668130
233.980299,5745.716235,4293.194464,5181.441594
233.980607,5132.839837,4885.359217,5033.400406
233.980915,4749.792088,4589.276840,5551.544565
233.981223,2604.724693,2960.823768,6883.915261
233.981531,306.438199,740.205942,8438.347739
233.981839,-1685.410096,-1480.411884,10881.027347
233.982147,-3677.258390,-3627.009116,13323.706956
233.982456,-4673.182538,-5033.400406,14656.077652
233.982764,-5286.058936,-5773.606348,15248.242405
233.983072,-4213.525239,-5625.565159,15100.201217
233.983380,-2681.334243,-4145.153275,13915.871710
233.983688,-229.828649,-2294.638420,11843.295072
233.983996,1608.800546,-0.000000,9622.677246
233.984304,3677.258390,2368.659014,7550.100608
233.984612,5209.449386,4145.153275,5699.585753
233.984920,5822.325785,4959.379811,4515.256246
233.985228,5898.935335,5477.523971,4071.132681
233.985537,5439.278036,5403.503377,3997.112087
233.985845,3677.258390,4515.256246,5255.462188
233.986153,1608.800546,2294.638420,6809.894666
233.986461,-1149.143247,-74.020594,9104.533087
233.986769,-3524.039291,-2220.617826,11695.253884
233.987077,-4366.744339,-3627.009116,13619.789333
233.987385,-4596.572988,-4737.318029,14952.160028
233.987693,-5209.449386,-4959.379811,15396.283594
233.988001,-3524.039291,-3997.112087,14359.995275
233.988310,-1225.752797,-2146.597232,12731.542202
233.988618,1225.752797,-370.102971,10658.965565
233.988926,2987.772442,1480.411884,8142.265362
233.989234,4519.963438,3182.885551,6735.874072
233.989542,6205.373534,4663.297435,5403.503377
233.989850,5669.106685,5181.441594,5033.400406
233.990158,5286.058936,5403.503377,5329.482782
233.990466,3983.696590,4885.359217,6143.709319
233.990774,2221.676944,2516.700203,7920.203579
233.991082,-383.047749,666.185348,9474.636058
233.991391,-2528.115143,-1628.453072,11991.336260
233.991699,-3753.867940,-3108.864956,13693.809927
233.992007,-4596.572988,-4589.276840,14878.139434
233.992315,-4903.011187,-4663.297435,16432.571912
233.992623,-3447.429741,-5181.441594,15618.345376
233.992931,-2145.067394,-3701.029710,14063.912898
233.993239,-306.438199,-1554.432478,11843.295072
233.993547,2068.457845,-0.000000,9622.677246
233.993855,4136.915689,2294.638420,7179.997637
233.994164,5592.497135,4145.153275,5551.544565
233.994472,6052.154434,4737.318029,4219.173869
233.994780,6358.592633,5255.462188,3997.112087
233.995088,5209.449386,5477.523971,4737.318029
233.995396,3677.258390,3849.070898,5625.565159
233.995704,1302.362347,1850.514855,7254.018232
233.996012,-1532.190996,-518.144159,9696.697840
233.996320,-2911.162892,-2368.659014,11843.295072
233.996628,-3907.087040,-3404.947333,13545.768739
233.996936,-4213.525239,-4145.153275,13989.892304
233.997245,-2681.334243,-4441.235652,14434.015869
233.997553,-2374.896044,-3775.050304,13915.871710
233.997861,-919.314598,-1776.494261,11991.336260
233.998169,995.924147,-296.082377,10288.862594
233.998477,3370.820191,1480.411884,8438.347739
233.998785,4443.353888,3182.885551,6439.791695
233.999093,5362.668486,3923.091493,5773.606348
233.999401,5975.544884,5033.400406,5107.421000
233.999709,4979.620737,4959.379811,5255.462188
234.000018,3830.477490,3997.112087,5699.585753
234.000326,1762.019645,2294.638420,7402.059420
234.000634,-306.438199,-0.000000,9696.697840
234.000942,-2221.676944,-1702.473667,11473.192101
234.001250,-3753.867940,-3256.906145,13175.665768
234.001558,-4519.963438,-5329.482782,14434.015869
234.001866,-4519.963438,-5773.606348,14285.974681
234.002174,-3294.210641,-5403.503377,15100.201217
234.002482,-2451.505594,-4219.173869,13693.809927
234.002790,-383.047749,-1628.453072,11399.171507
234.003099,2528.115143,370.102971,9400.615463
234.003407,4366.744339,2368.659014,6809.894666
234.003715,5362.668486,4219.173869,5181.441594
234.004023,6205.373534,5107.421000,4293.194464
234.004331,6511.811733,5551.544565,4293.194464
234.004639,4749.792088,4885.359217,4219.173869
234.004947,3447.429741,3478.967927,5921.647536
234.005255,1149.143247,1480.411884,7328.038826
234.005563,-1378.971896,-222.061783,9104.533087
234.005872,-3140.991542,-2368.659014,11843.295072
234.006180,-4060.306139,-3404.947333,13027.624579
234.006488,-3983.696590,-4515.256246,14211.954086
234.006796,-4136.915689,-4737.318029,15026.180623
234.007104,-2757.943793,-3775.050304,14137.933492
234.007412,-1149.143247,-1998.556043,12509.480420
234.007720,766.095498,-222.061783,10732.986159
234.008028,2757.943793,1480.411884,8290.306550
234.008336,4366.744339,3330.926739,6587.832884
234.008645,5286.058936,4737.318029,5773.606348
234.008953,5439.278036,5033.400406,4737.318029
234.009261,4903.011187,5329.482782,5255.462188
234.009569,3370.820191,4071.132681,6809.894666
234.009877,1302.362347,2072.576638,7698.141797
234.010185,-1072.533697,148.041188,9622.677246
234.010493,-2757.943793,-2146.597232,12065.356855
234.010801,-4290.134789,-3849.070898,13249.686362
234.011109,-5209.449386,-5033.400406,14878.139434
234.011417,-4826.401637,-5921.647536,15766.386565
234.011726,-3447.429741,-4959.379811,15248.242405
234.012034,-1302.362347,-3627.009116,13175.665768
234.012342,383.047749,-1110.308913,11251.130318
234.012650,2681.334243,592.164754,9326.594869
234.012958,4290.134789,2516.700203,6661.853478
234.013266,5822.325785,4737.318029,5033.400406
234.013574,6741.640382,5403.503377,3997.112087
234.013882,5592.497135,4885.359217,4737.318029
234.014190,4673.182538,4885.359217,4959.379811
234.014499,2911.162892,3108.864956,6513.812290
234.014807,459.657299,1332.370696,7772.162391
234.015115,-1915.238745,-518.144159,10066.800811
234.015423,-3524.039291,-2146.597232,12213.398043
234.015731,-4290.134789,-3478.967927,13767.830521
234.016039,-4443.353888,-4293.194464,14508.036463
234.016347,-3447.429741,-3627.009116,14656.077652
234.016655,-2451.505594,-3849.070898,13693.809927
234.016963,-459.657299,-1850.514855,12213.398043
234.017271,1455.581446,-0.000000,10362.883188
234.017580,2834.553343,1554.432478,8290.306550
234.017888,4519.963438,3627.009116,6735.874072
234.018196,5669.106685,4811.338623,5551.544565
234.018504,5592.497135,4885.359217,4959.379811
234.018812,5209.449386,4737.318029,5181.441594
234.019120,3524.039291,3775.050304,6439.791695
234.019428,1455.581446,1702.473667,8142.265362
234.019736,-1072.533697,-444.123565,9844.739029
234.020044,-2987.772442,-2738.761985,11843.295072
234.020353,-4290.134789,-4071.132681,13841.851115
234.020661,-4903.011187,-5181.441594,15026.180623
234.020969,-4826.401637,-5773.606348,15100.201217
234.021277,-3447.429741,-5107.421000,15100.201217
234.021585,-1762.019645,-3108.864956,13471.748144
234.021893,153.219100,-1332.370696,11399.171507
234.022201,3064.381992,1110.308913,8808.450710
234.022509,4673.182538,2886.803174,6365.771101
234.022817,5975.544884,4515.256246,5033.400406
234.023125,6435.202183,5033.400406,4071.132681
234.023434,5898.935335,4737.318029,3552.988522
234.023742,5439.278036,4367.215058,4737.318029
234.024050,2681.334243,2738.761985,5847.626942
234.024358,919.314598,444.123565,7846.182985
234.024666,-1762.019645,-1036.288319,9992.780217
234.024974,-2987.772442,-2442.679609,12065.356855
234.025282,-3983.696590,-3775.050304,13397.727550
234.025590,-4060.306139,-4219.173869,13989.892304
234.025898,-3677.258390,-4515.256246,14434.015869
234.026207,-1915.238745,-2812.782580,13397.727550
234.026515,-459.657299,-1406.391290,11621.233289
234.026823,1455.581446,148.041188,10066.800811
234.027131,2911.162892,1998.556043,8512.368333
234.027439,4136.915689,3256.906145,6883.915261
234.027747,5439.278036,4737.318029,5551.544565
234.028055,5362.668486,5181.441594,4885.359217
234.028363,4290.134789,4515.256246,4959.379811
234.028671,3524.039291,3256.906145,6883.915261
234.028979,1455.581446,1702.473667,7846.182985
234.029288,-1225.752797,-666.185348,10584.944971
234.029596,-2834.553343,-2590.720797,11991.336260
234.029904,-4443.353888,-4145.153275,14063.912898
234.030212,-5209.449386,-5329.482782,15544.324782
234.030520,-4366.744339,-5181.441594,15322.262999
234.030828,-3524.039291,-4589.276840,14582.057057
234.031136,-1455.581446,-2516.700203,13397.727550
234.031444,612.876398,-962.267725,10955.047942
234.031752,2374.896044,814.226536,9104.533087
234.032061,3983.696590,3034.844362,6661.853478
234.032369,5439.278036,4441.235652,4737.318029
234.032677,5362.668486,5033.400406,4441.235652
234.032985,5056.230287,4737.318029,4515.256246
234.033293,4366.744339,4219.173869,5255.462188
234.033601,2298.286494,2812.782580,6661.853478
234.033909,153.219100,962.267725,7920.203579
234.034217,-1302.362347,-814.226536,9918.759623
234.034525,-2987.772442,-2368.659014,11917.315666
234.034833,-4136.915689,-3627.009116,13027.624579
234.035142,-3983.696590,-3997.112087,13619.789333
234.035450,-2451.505594,-3552.988522,14211.954086
234.035758,-1915.238745,-2960.823768,13619.789333
234.036066,-536.266849,-1554.432478,11843.295072
234.036374,1838.629195,-370.102971,10214.842000
234.036682,3140.991542,2220.617826,8438.347739
234.036990,4290.134789,3552.988522,6661.853478
234.037298,4979.620737,4367.215058,5403.503377
234.037606,4826.401637,4737.318029,5551.544565
234.037915,4443.353888,4515.256246,5477.523971
234.038223,2987.772442,3182.885551,6513.812290
234.038531,842.705048,1628.453072,8364.327145
234.038839,-1225.752797,-888.247130,10214.842000
234.039147,-2528.115143,-2738.761985,12065.356855
234.039455,-4136.915689,-4219.173869,14359.995275
234.039763,-4903.011187,-4959.379811,14804.118840
234.040071,-4443.353888,-4811.338623,15322.262999
234.040379,-3140.991542,-4145.153275,14656.077652
234.040687,-1685.410096,-2368.659014,13101.645173
234.040995,1072.533697,-370.102971,11473.192101
234.041303,3140.991542,1480.411884,8956.491898
234.041611,4903.011187,3330.926739,6217.729913
234.041919,6052.154434,4515.256246,4959.379811
234.042227,5669.106685,5181.441594,4367.215058
234.042535,5362.668486,4811.338623,4367.215058
234.042843,4213.525239,4071.132681,5181.441594
234.043151,2374.896044,2886.803174,6217.729913
234.043460,0.000000,962.267725,8216.285956
234.043768,-1455.581446,-1184.329507,9992.780217
234.044076,-2834.553343,-2738.761985,11843.295072
234.044384,-4060.306139,-3849.070898,13397.727550
234.044692,-4366.744339,-3923.091493,14211.954086
234.045000,-3370.820191,-4145.153275,14508.036463
234.045308,-2221.676944,-3034.844362,13249.686362
234.045616,0.000000,-1258.350101,12435.459826
234.045924,1762.019645,-148.041188,10436.903782
234.046232,2757.943793,1850.514855,7476.080014
234.046540,4903.011187,4071.132681,6365.771101
234.046848,5515.887586,4737.318029,4959.379811
234.047156,5286.058936,4811.338623,5255.462188
234.047464,4749.792088,4367.215058,5329.482782
234.047772,2987.772442,3256.906145,6439.791695
234.048080,1149.143247,1036.288319,7994.224174
234.048388,-995.924147,-370.102971,9992.780217
234.048696,-3370.820191,-3256.906145,12509.480420
234.049005,-4366.744339,-4441.235652,14063.912898
234.049313,-5056.230287,-4885.359217,14730.098246
234.049621,-4979.620737,-4515.256246,14804.118840
234.049929,-3294.210641,-3849.070898,14434.015869
234.050237,-1149.143247,-1998.556043,13027.624579
234.050545,1072.533697,-444.123565,10584.944971
234.050853,2911.162892,1332.370696,8364.327145
234.051161,4213.525239,3552.988522,6217.729913
234.051469,5822.325785,4293.194464,5699.585753
234.051777,5056.230287,4589.276840,4737.318029
234.052085,4749.792088,4737.318029,4663.297435
234.052393,3677.258390,3627.009116,5403.503377
234.052701,2068.457845,2738.761985,6143.709319
234.053009,536.266849,888.247130,7846.182985
234.053317,-1532.190996,-1110.308913,9622.677246
234.053625,-2298.286494,-2812.782580,12213.398043
234.053933,-3677.258390,-3627.009116,13175.665768
234.054241,-4060.306139,-4145.153275,14137.933492
234.054549,-3447.429741,-4145.153275,14211.954086
234.054858,-1991.848295,-3034.844362,13545.768739
234.055166,-766.095498,-1554.432478,11547.212695
234.055474,1149.143247,-74.020594,9622.677246
234.055782,3524.039291,1776.494261,7476.080014
234.056090,4749.792088,3701.029710,6661.853478
234.056398,4903.011187,4885.359217,5255.462188
234.056706,4903.011187,4737.318029,5181.441594
234.057014,4519.963438,4071.132681,5477.523971
234.057322,2528.115143,2812.782580,6439.791695
234.057630,383.047749,1110.308913,8216.285956
234.057938,-1072.533697,-1480.411884,10362.883188
234.058246,-3677.258390,-3330.926739,12065.356855
234.058554,-4136.915689,-4663.297435,14211.954086
234.058862,-4290.134789,-5255.462188,14952.160028
234.059170,-4060.306139,-4737.318029,14656.077652
234.059478,-2757.943793,-3552.988522,13693.809927
234.059786,-536.266849,-1702.473667,12213.398043
234.060094,1685.410096,-222.061783,10214.842000
234.060403,3140.991542,1406.391290,8142.265362
234.060711,5209.449386,3256.906145,6365.771101
234.061019,5975.544884,4367.215058,4811.338623
234.061327,5362.668486,4515.256246,4885.359217
234.061635,4903.011187,4589.276840,4737.318029
234.061943,3753.867940,3923.091493,5773.606348
234.062251,1838.629195,2738.761985,6957.935855
234.062559,-306.438199,814.226536,8364.327145
234.062867,-1608.800546,-666.185348,10658.965565
234.063175,-2681.334243,-2516.700203,12213.398043
234.063483,-3753.867940,-3849.070898,13989.892304
234.063791,-3753.867940,-3997.112087,14730.098246
234.064099,-3294.210641,-3997.112087,14359.995275
234.064407,-1991.848295,-2812.782580,13767.830521
234.064715,153.219100,-666.185348,11843.295072
234.065023,2451.505594,888.247130,9770.718434
234.065331,3907.087040,2664.741391,7920.203579
234.065639,5286.058936,4293.194464,5995.668130
234.065947,5669.106685,4663.297435,5181.441594
234.066256,5515.887586,4959.379811,5403.503377
234.066564,4903.011187,4293.194464,5625.565159
234.066872,2911.162892,2960.823768,6439.791695
234.067180,612.876398,1036.288319,8438.347739
234.067488,-1225.752797,-888.247130,10436.903782
234.067796,-3447.429741,-2664.741391,13101.645173
234.068104,-4749.792088,-4219.173869,14582.057057
234.068412,-4903.011187,-4441.235652,15248.242405
234.068720,-4749.792088,-4515.256246,14656.077652
234.069028,-2757.943793,-3923.091493,14285.974681
234.069336,-689.485948,-1924.535449,12213.398043
234.069644,1072.533697,-444.123565,10436.903782
234.069952,2987.772442,962.267725,8068.244768
234.070260,4979.620737,2664.741391,6365.771101
234.070568,5669.106685,3552.988522,4959.379811
234.070876,5515.887586,4145.153275,4515.256246
234.071184,4596.572988,4737.318029,4737.318029
234.071492,3753.867940,3997.112087,5033.400406
234.071801,2298.286494,2812.782580,6143.709319
234.072109,536.266849,888.247130,7772.162391
234.072417,-1378.971896,-888.247130,9992.780217
234.072725,-2528.115143,-3182.885551,11991.336260
234.073033,-3983.696590,-4589.276840,13619.789333
234.073341,-3983.696590,-4885.359217,14434.015869
234.073649,-3600.648841,-4589.276840,14137.933492
234.073957,-1838.629195,-2960.823768,13323.706956
234.074265,0.000000,-1258.350101,11399.171507
234.074573,2068.457845,592.164754,9400.615463
234.074881,3524.039291,2368.659014,7105.977043
234.075189,4979.620737,3923.091493,5403.503377
234.075497,5439.278036,4737.318029,5033.400406
234.075805,5898.935335,4515.256246,4959.379811
234.076113,4290.134789,4589.276840,4959.379811
234.076421,2911.162892,3182.885551,6735.874072
234.076729,536.266849,962.267725,8216.285956
234.077037,-2068.457845,-1036.288319,10658.965565
234.077345,-4213.525239,-3552.988522,13027.624579
234.077654,-4749.792088,-4663.297435,14804.118840
234.077962,-5669.106685,-4737.318029,15470.304188
234.078270,-5439.278036,-4737.318029,15100.201217
234.078578,-3064.381992,-3552.988522,13841.851115
234.078886,-842.705048,-1776.494261,12287.418637
234.079194,1378.971896,-222.061783,10362.883188
234.079502,3064.381992,1406.391290,7994.224174
234.079810,4749.792088,3034.844362,5773.606348
234.080118,5056.230287,4515.256246,5329.482782
234.080426,5822.325785,4737.318029,4663.297435
234.080734,5209.449386,4589.276840,5033.400406
234.081042,3907.087040,3849.070898,5551.544565
234.081350,1991.848295,2738.761985,6513.812290
234.081658,229.828649,592.164754,8438.347739
234.081966,-1608.800546,-1332.370696,10881.027347
234.082274,-3064.381992,-3552.988522,12731.542202
234.082582,-3830.477490,-4219.173869,14359.995275
234.082890,-3983.696590,-4959.379811,14656.077652
234.083199,-3983.696590,-3997.112087,14656.077652
234.083507,-1608.800546,-2516.700203,13175.665768
234.083815,306.438199,-814.226536,11621.233289
234.084123,2604.724693,1036.288319,9326.594869
234.084431,4290.134789,3034.844362,7624.121203
234.084739,5286.058936,4737.318029,6291.750507
234.085047,5975.544884,5403.503377,4885.359217
234.085355,5975.544884,5181.441594,5033.400406
234.085663,4903.011187,4737.318029,5847.626942
234.085971,2757.943793,3034.844362,7105.977043
234.086279,383.047749,1258.350101,8808.450710
234.086587,-2068.457845,-1258.350101,11177.109724
234.086895,-3983.696590,-3330.926739,13323.706956
234.087203,-5209.449386,-4737.318029,15100.201217
234.087511,-5056.230287,-4737.318029,15692.365970
234.087819,-4366.744339,-4515.256246,14434.015869
234.088127,-2834.553343,-2960.823768,14285.974681
234.088435,-229.828649,-1628.453072,12287.418637
234.088743,2068.457845,222.061783,10288.862594
234.089052,3217.601092,1702.473667,7476.080014
234.089360,4979.620737,3478.967927,6143.709319
234.089668,5822.325785,4515.256246,4811.338623
234.089976,4903.011187,4663.297435,4737.318029
234.090284,5056.230287,4441.235652,4589.276840
234.090592,3677.258390,3627.009116,5107.421000
234.090900,2068.457845,2220.617826,6661.853478
234.091208,0.000000,296.082377,8512.368333
234.091516,-1685.410096,-1628.453072,10362.883188
234.091824,-2834.553343,-3330.926739,12065.356855
234.092132,-3983.696590,-4589.276840,13619.789333
234.092440,-4596.572988,-4959.379811,14508.036463
234.092748,-3064.381992,-4515.256246,14211.954086
234.093056,-1762.019645,-2812.782580,13027.624579
234.093364,306.438199,-592.164754,10881.027347
234.093672,2604.724693,666.185348,9178.553681
234.093980,4136.915689,2738.761985,6957.935855
234.094288,5286.058936,4367.215058,5477.523971
234.094597,5975.544884,4737.318029,5181.441594
234.094905,5362.668486,4959.379811,4441.235652
234.095213,4443.353888,3849.070898,5329.482782
234.095521,2451.505594,2220.617826,7328.038826
234.095829,0.000000,296.082377,8290.306550
234.096137,-2451.505594,-1776.494261,11177.109724
234.096445,-4060.306139,-3404.947333,13249.686362
234.096753,-4826.401637,-4959.379811,14804.118840
234.097061,-5286.058936,-4441.235652,15248.242405
234.097369,-3677.258390,-4293.194464,14508.036463
234.097677,-2298.286494,-3182.885551,13471.748144
234.097985,-306.438199,-1406.391290,12287.418637
234.098293,1838.629195,-148.041188,9918.759623
234.098601,3217.601092,1850.514855,7402.059420
234.098909,4673.182538,3478.967927,6143.709319
234.099217,5439.278036,4663.297435,4663.297435
234.099525,5132.839837,4959.379811,4959.379811
234.099833,5439.278036,4663.297435,4367.215058
234.100141,3983.696590,3775.050304,5403.503377
234.100450,2145.067394,2146.597232,7105.977043
234.100758,-153.219100,-0.000000,8734.430116
234.101066,-2298.286494,-1480.411884,10658.965565
234.101374,-3524.039291,-3182.885551,13027.624579
234.101682,-4366.744339,-4071.132681,14508.036463
234.101990,-4443.353888,-4737.318029,14508.036463
234.102298,-3600.648841,-4145.153275,14582.057057
234.102606,-1378.971896,-2886.803174,13101.645173
234.102914,459.657299,-222.061783,11473.192101
234.103222,2757.943793,962.267725,9474.636058
234.103530,3830.477490,2960.823768,7105.977043
234.103838,5745.716235,4589.276840,5699.585753
234.104146,6205.373534,5329.482782,4589.276840
234.104454,6128.763984,5477.523971,4737.318029
234.104762,5286.058936,4293.194464,5551.544565
234.105070,2374.896044,2368.659014,7031.956449
234.105378,0.000000,296.082377,9474.636058
234.105686,-2834.553343,-1998.556043,11769.274478
234.105995,-4596.572988,-3775.050304,14359.995275
234.106303,-5745.716235,-4737.318029,15470.304188
234.106611,-6358.592633,-4811.338623,15544.324782
234.106919,-4290.134789,-4441.235652,15840.407159
234.107227,-2757.943793,-3034.844362,13989.892304
234.107535,76.609550,-1258.350101,11843.295072
234.107843,1532.190996,592.164754,10140.821405
234.108151,3600.648841,2368.659014,7994.224174
234.108459,4903.011187,4145.153275,5773.606348
234.108767,5898.935335,4737.318029,4663.297435
234.109075,6281.983084,4959.379811,4589.276840
234.109383,5209.449386,4441.235652,4441.235652
234.109691,4290.134789,3923.091493,5477.523971
234.109999,2221.676944,2368.659014,7105.977043
234.110307,-153.219100,-296.082377,8512.368333
234.110615,-1991.848295,-1850.514855,10881.027347
234.110923,-3677.258390,-3330.926739,13175.665768
234.111231,-3983.696590,-4589.276840,14508.036463
234.111539,-3983.696590,-4737.318029,14211.954086
234.111848,-2987.772442,-3849.070898,14211.954086
234.112156,-766.095498,-2442.679609,12805.562797
234.112464,919.314598,-518.144159,10510.924376
234.112772,2987.772442,1036.288319,8808.450710
234.113080,4673.182538,2886.803174,6809.894666
234.113388,5592.497135,4663.297435,5107.421000
234.113696,5975.544884,4663.297435,4885.359217
234.114004,4749.792088,4219.173869,5255.462188
234.114312,3753.867940,3330.926739,5625.565159
234.114620,2451.505594,1924.535449,7624.121203
234.114928,-536.266849,-296.082377,9770.718434
234.115236,-3064.381992,-2368.659014,12065.356855
234.115544,-4749.792088,-4219.173869,14063.912898
234.115852,-5439.278036,-4885.359217,14730.098246
234.116160,-5286.058936,-4811.338623,14730.098246
234.116468,-4136.915689,-4663.297435,14804.118840
234.116776,-1838.629195,-2886.803174,13323.706956
234.117084,536.266849,-1258.350101,11029.068536
234.117393,2528.115143,592.164754,9178.553681
234.117701,3907.087040,2442.679609,6809.894666
234.118009,5362.668486,4515.256246,5255.462188
234.118317,5975.544884,5255.462188,4663.297435
234.118625,5822.325785,5477.523971,4071.132681
234.118933,5209.449386,4515.256246,4367.215058
234.119241,3294.210641,3034.844362,5995.668130
234.119549,1149.143247,1850.514855,7402.059420
234.119857,-919.314598,-296.082377,9696.697840
234.120165,-2681.334243,-2220.617826,11769.274478
234.120473,-4290.134789,-3997.112087,13619.789333
234.120781,-4596.572988,-5033.400406,14730.098246
234.121089,-4136.915689,-4589.276840,14804.118840
234.121397,-2834.553343,-3997.112087,14359.995275
234.121705,-612.876398,-2220.617826,12361.439231
234.122013,1685.410096,296.082377,10807.006753
234.122321,3677.258390,1850.514855,8956.491898
234.122629,5515.887586,3923.091493,6291.750507
234.122937,6511.811733,5255.462188,4737.318029
234.123246,6358.592633,5477.523971,4515.256246
234.123554,5898.935335,4885.359217,5403.503377
234.123862,3524.039291,3627.009116,6513.812290
234.124170,2298.286494,1924.535449,7920.203579
234.124478,-689.485948,-148.041188,9844.739029
234.124786,-3370.820191,-2294.638420,12953.603985
234.125094,-4673.182538,-3552.988522,14285.974681
234.125402,-5439.278036,-4441.235652,15248.242405
234.125710,-5056.230287,-4589.276840,15470.304188
234.126018,-3677.258390,-4071.132681,14508.036463
234.126326,-2145.067394,-2442.679609,13767.830521
234.126634,-383.047749,-888.247130,11843.295072
234.126942,1838.629195,1184.329507,9326.594869
234.127250,3830.477490,2664.741391,7328.038826
234.127558,4979.620737,4145.153275,5847.626942
234.127866,5515.887586,4959.379811,5033.400406
234.128174,5515.887586,5107.421000,4441.235652
234.128482,4596.572988,4515.256246,4589.276840
234.128791,3140.991542,3108.864956,5921.647536
234.129099,383.047749,1332.370696,7994.224174
234.129407,-1072.533697,-296.082377,9696.697840
234.129715,-3447.429741,-2368.659014,12065.356855
234.130023,-3677.258390,-3701.029710,12805.562797
234.130331,-4366.744339,-4663.297435,14137.933492
234.130639,-3983.696590,-4441.235652,13915.871710
234.130947,-2834.553343,-3478.967927,13397.727550
234.131255,-536.266849,-1628.453072,12435.459826
234.131563,1991.848295,-222.061783,10436.903782
234.131871,3217.601092,1480.411884,7772.162391
234.132179,5362.668486,3108.864956,6291.750507
234.132487,5898.935335,4515.256246,4589.276840
234.132795,5745.716235,4367.215058,5181.441594
234.133103,4903.011187,3701.029710,5551.544565
234.133411,3370.820191,2960.823768,6439.791695
234.133719,766.095498,962.267725,8142.265362
234.134027,-1915.238745,-740.205942,10214.842000
234.134336,-3294.210641,-2886.803174,12509.480420
234.134644,-4903.011187,-4071.132681,14137.933492
234.134952,-5209.449386,-4737.318029,14804.118840
234.135260,-4903.011187,-4219.173869,14730.098246
234.135568,-3370.820191,-3775.050304,14285.974681
234.135876,-689.485948,-2220.617826,12953.603985
234.136184,919.314598,-444.123565,10807.006753
234.136492,2757.943793,1184.329507,8808.450710
234.136800,4749.792088,3034.844362,6439.791695
234.137108,5669.106685,4441.235652,5033.400406
234.137416,5669.106685,5033.400406,4441.235652
234.137724,5209.449386,5107.421000,4589.276840
234.138032,4596.572988,4515.256246,5255.462188
234.138341,2834.553343,2738.761985,6217.729913
234.138649,459.657299,1480.411884,8142.265362
234.138957,-842.705048,-1110.308913,10066.800811
234.139265,-3524.039291,-2516.700203,12213.398043
234.139573,-4290.134789,-4293.194464,13767.830521
234.139881,-4749.792088,-4219.173869,14730.098246
234.140189,-3830.477490,-3923.091493,14211.954086
234.140497,-2451.505594,-3182.885551,13841.851115
234.140805,-459.657299,-1406.391290,12139.377449
234.141113,1762.019645,-148.041188,10584.944971
234.141422,3907.087040,1480.411884,8438.347739
234.141730,5209.449386,3330.926739,6365.771101
234.142038,6358.592633,4219.173869,5329.482782
234.142346,5975.544884,4515.256246,5181.441594
234.142654,5056.230287,4367.215058,5329.482782
234.142962,4213.525239,3552.988522,6143.709319
234.143270,1991.848295,1850.514855,7328.038826
234.143578,-306.438199,-148.041188,9474.636058
234.143886,-2528.115143,-2072.576638,12065.356855
234.144194,-4060.306139,-4145.153275,13693.809927
234.144503,-4979.620737,-4589.276840,14656.077652
234.144811,-4673.182538,-4293.194464,15026.180623
234.145119,-3600.648841,-3478.967927,14656.077652
234.145427,-1608.800546,-2368.659014,13175.665768
234.145735,383.047749,-444.123565,10955.047942
234.146043,2145.067394,1184.329507,9474.636058
234.146351,3524.039291,2738.761985,6883.915261
234.146659,4903.011187,4367.215058,5625.565159
234.146967,5745.716235,4737.318029,5329.482782
234.147276,4979.620737,4737.318029,4589.276840
234.147584,4290.134789,3997.112087,4885.359217
234.147892,2987.772442,2960.823768,6365.771101
234.148200,919.314598,1036.288319,7772.162391
234.148508,-1532.190996,-1480.411884,9696.697840
234.148816,-3217.601092,-2960.823768,12139.377449
234.149124,-4366.744339,-4663.297435,13915.871710
234.149432,-4979.620737,-4663.297435,14656.077652
234.149740,-4136.915689,-4441.235652,14211.954086
234.150048,-2374.896044,-3256.906145,12953.603985
234.150357,0.000000,-1036.288319,11251.130318
234.150665,2451.505594,444.123565,9474.636058
234.150973,3753.867940,1850.514855,7179.997637
234.151281,5669.106685,3923.091493,5773.606348
234.151589,5669.106685,4219.173869,4515.256246
234.151897,5745.716235,4515.256246,5181.441594
234.152205,4749.792088,4293.194464,5551.544565
234.152513,3217.601092,2590.720797,6735.874072
234.152821,842.705048,740.205942,8438.347739
234.153129,-1762.019645,-1184.329507,10807.006753
234.153438,-3907.087040,-3182.885551,12731.542202
234.153746,-4979.620737,-4219.173869,14582.057057
234.154054,-5592.497135,-4737.318029,15248.242405
234.154362,-4903.011187,-4145.153275,14804.118840
234.154670,-3140.991542,-3552.988522,14137.933492
234.154978,-1302.362347,-1554.432478,12361.439231
234.155286,1608.800546,-148.041188,10732.986159
234.155594,2757.943793,2072.576638,8142.265362
234.155902,4826.401637,3923.091493,6883.915261
234.156211,5592.497135,4737.318029,5033.400406
234.156519,5592.497135,4885.359217,4737.318029
234.156827,5515.887586,5107.421000,5033.400406
234.157135,3907.087040,4441.235652,4663.297435
234.157443,2298.286494,2516.700203,7031.956449
234.157751,0.000000,518.144159,8512.368333
234.158059,-1915.238745,-1258.350101,10881.027347
234.158367,-3830.477490,-2960.823768,13027.624579
234.158675,-4826.401637,-4219.173869,13841.851115
234.158983,-4213.525239,-4219.173869,14359.995275
234.159292,-3677.258390,-3923.091493,14359.995275
234.159600,-1991.848295,-2442.679609,13175.665768
234.159908,306.438199,-814.226536,11843.295072
234.160216,2681.334243,814.226536,9696.697840
234.160524,4903.011187,2442.679609,7550.100608
234.160832,5822.325785,3923.091493,5699.585753
234.161140,5898.935335,4811.338623,4811.338623
234.161448,6665.030833,4811.338623,5625.565159
234.161756,5286.058936,3775.050304,5403.503377
234.162065,2451.505594,3108.864956,6513.812290
234.162373,1302.362347,222.061783,9104.533087
234.162681,-2068.457845,-814.226536,10288.862594
234.162989,-3830.477490,-2812.782580,13545.768739
234.163297,-4213.525239,-3775.050304,13693.809927
234.163605,-5439.278036,-4441.235652,14656.077652
234.163913,-3983.696590,-4737.318029,15026.180623
234.164221,-2987.772442,-3404.947333,13471.748144
234.164529,-842.705048,-1776.494261,13175.665768
234.164837,842.705048,-666.185348,10288.862594
234.165146,3064.381992,1332.370696,8586.388927
234.165454,4826.401637,2590.720797,7105.977043
234.165762,5439.278036,3775.050304,5847.626942
234.166070,5592.497135,4885.359217,4959.379811
234.166378,5286.058936,4663.297435,4441.235652
234.166686,4290.134789,4071.132681,5107.421000
234.166994,2604.724693,2886.803174,5995.668130
234.167302,1225.752797,1036.288319,7920.203579
234.167610,-1378.971896,-962.267725,9474.636058
234.167918,-2757.943793,-2664.741391,11325.150913
234.168227,-4060.306139,-4071.132681,13249.686362
