#time,accel_x,accel_y,accel_z
230.315652,2451.505594,-444.123565,9696.697840
230.315960,2757.943793,-0.000000,9844.739029
230.316269,2681.334243,-296.082377,9770.718434
230.316577,2911.162892,-0.000000,9696.697840
230.316885,2987.772442,-0.000000,9474.636058
230.317194,3064.381992,518.144159,9326.594869
230.317502,3907.087040,296.082377,9696.697840
230.317810,3677.258390,296.082377,9622.677246
230.318118,3677.258390,-0.000000,9030.512492
230.318427,2911.162892,444.123565,9030.512492
230.318735,3217.601092,888.247130,8586.388927
230.319043,3370.820191,1036.288319,9474.636058
230.319352,3370.820191,1184.329507,9326.594869
230.319660,3294.210641,962.267725,9400.615463
230.319968,2681.334243,1036.288319,9474.636058
230.320277,2757.943793,-0.000000,10066.800811
230.320585,2604.724693,-74.020594,10510.924376
230.320893,2145.067394,-592.164754,10881.027347
230.321202,1915.238745,-888.247130,11029.068536
230.321510,1762.019645,-962.267725,11103.089130
230.321818,2221.676944,-888.247130,11029.068536
230.322127,2834.553343,-518.144159,9918.759623
230.322435,3217.601092,-370.102971,9918.759623
230.322743,3600.648841,-370.102971,9992.780217
230.323051,3830.477490,-370.102971,9622.677246
230.323360,3677.258390,-296.082377,9548.656652
230.323668,3983.696590,-0.000000,9474.636058
230.323976,3983.696590,-74.020594,9474.636058
230.324285,4136.915689,-0.000000,9252.574275
230.324593,4443.353888,296.082377,9030.512492
230.324901,4596.572988,-0.000000,9400.615463
230.325210,4673.182538,222.061783,9178.553681
230.325518,4903.011187,222.061783,9252.574275
230.325826,4903.011187,-0.000000,8586.388927
230.326135,5132.839837,444.123565,8808.450710
230.326443,5209.449386,666.185348,8512.368333
230.326751,5286.058936,888.247130,8290.306550
230.327060,5592.497135,962.267725,8438.347739
230.327368,5439.278036,1184.329507,8660.409521
230.327676,5592.497135,962.267725,8956.491898
230.327985,5822.325785,1702.473667,8882.471304
230.328293,4903.011187,1258.350101,8956.491898
230.328601,5286.058936,1702.473667,8586.388927
230.328909,4673.182538,1332.370696,8956.491898
230.329218,4519.963438,1184.329507,9474.636058
230.329526,3600.648841,518.144159,9844.739029
230.329834,3217.601092,592.164754,10732.986159
230.330143,3217.601092,-370.102971,10732.986159
230.330451,2451.505594,-518.144159,11325.150913
230.330759,2451.505594,-740.205942,11177.109724
230.331068,2145.067394,-592.164754,11103.089130
230.331376,2451.505594,-592.164754,10955.047942
230.331684,2757.943793,-592.164754,10584.944971
230.331993,2757.943793,-1036.288319,10584.944971
230.332301,4060.306139,-518.144159,10510.924376
230.332609,4443.353888,-222.061783,9918.759623
230.332918,4060.306139,-296.082377,9918.759623
230.333226,4366.744339,-222.061783,9474.636058
230.333534,4366.744339,-518.144159,9548.656652
230.333843,4519.963438,-518.144159,9548.656652
230.334151,4596.572988,-296.082377,9178.553681
230.334459,5209.449386,-370.102971,9326.594869
230.334767,4903.011187,-296.082377,8882.471304
230.335076,5209.449386,-444.123565,8882.471304
230.335384,5515.887586,222.061783,8660.409521
230.335692,5515.887586,814.226536,8290.306550
230.336001,4979.620737,1036.288319,8068.244768
230.336309,5132.839837,1480.411884,7550.100608
230.336617,4749.792088,1850.514855,7698.141797
230.336926,4673.182538,1776.494261,7994.224174
230.337234,4673.182538,2664.741391,7624.121203
230.337542,4290.134789,2812.782580,7402.059420
230.337851,3524.039291,3034.844362,7624.121203
230.338159,2911.162892,2812.782580,8364.327145
230.338467,2911.162892,2590.720797,9474.636058
230.338776,2145.067394,1406.391290,9696.697840
230.339084,536.266849,370.102971,10066.800811
230.339392,0.000000,-1258.350101,11843.295072
230.339700,-536.266849,-2664.741391,13249.686362
230.340009,-1302.362347,-3552.988522,13915.871710
230.340317,-1991.848295,-4885.359217,14211.954086
230.340625,-1915.238745,-5107.421000,14508.036463
230.340934,-1532.190996,-4589.276840,13619.789333
230.341242,0.000000,-3404.947333,12435.459826
230.341550,2221.676944,-1998.556043,11473.192101
230.341859,2987.772442,-0.000000,8956.491898
230.342167,5132.839837,1332.370696,8142.265362
230.342475,6358.592633,2146.597232,7105.977043
230.342784,5822.325785,2960.823768,5699.585753
230.343092,5439.278036,3552.988522,5477.523971
230.343400,5056.230287,3256.906145,5477.523971
230.343709,4213.525239,3108.864956,5847.626942
230.344017,2834.553343,3182.885551,5995.668130
230.344325,2374.896044,3552.988522,6809.894666
230.344634,1838.629195,2368.659014,7179.997637
230.344942,689.485948,1924.535449,8512.368333
230.345250,459.657299,814.226536,10732.986159
230.345558,-919.314598,-296.082377,10732.986159
230.345867,-2068.457845,-1480.411884,11843.295072
230.346175,-2221.676944,-3108.864956,14063.912898
230.346483,-3064.381992,-3923.091493,14508.036463
230.346792,-3064.381992,-3997.112087,14952.160028
230.347100,-2604.724693,-4441.235652,14730.098246
230.347408,-1532.190996,-3997.112087,14211.954086
230.347717,-919.314598,-3552.988522,12509.480420
230.348025,536.266849,-1702.473667,11103.089130
230.348333,2145.067394,-444.123565,9622.677246
230.348642,2757.943793,1406.391290,7328.038826
230.348950,3753.867940,3108.864956,7105.977043
230.349258,4749.792088,4219.173869,5699.585753
230.349567,4979.620737,5107.421000,4219.173869
230.349875,4443.353888,6291.750507,4367.215058
230.350183,4826.401637,5625.565159,5477.523971
230.350492,2911.162892,4219.173869,5995.668130
230.350800,1149.143247,2738.761985,7698.141797
230.351108,-153.219100,962.267725,9992.780217
230.351416,-2681.334243,-1702.473667,12139.377449
230.351725,-3064.381992,-3404.947333,13767.830521
230.352033,-4290.134789,-3997.112087,14582.057057
230.352341,-4290.134789,-4663.297435,14508.036463
230.352649,-2528.115143,-4441.235652,14285.974681
230.352957,-1302.362347,-2590.720797,12361.439231
230.353265,229.828649,-1924.535449,10807.006753
230.353573,2528.115143,-74.020594,8808.450710
230.353881,3370.820191,1406.391290,7105.977043
230.354189,4060.306139,2516.700203,6513.812290
230.354497,4443.353888,3552.988522,6291.750507
230.354805,4596.572988,4071.132681,5995.668130
230.355113,3753.867940,3182.885551,5773.606348
230.355421,2757.943793,2368.659014,6735.874072
230.355729,1225.752797,592.164754,7994.224174
230.356037,-153.219100,-962.267725,9474.636058
230.356345,-1149.143247,-2886.803174,11769.274478
230.356653,-2068.457845,-3256.906145,12287.418637
230.356961,-1915.238745,-4663.297435,13323.706956
230.357270,-1072.533697,-4071.132681,13175.665768
230.357578,-153.219100,-3108.864956,12361.439231
230.357886,995.924147,-2294.638420,11251.130318
230.358194,2145.067394,-1036.288319,9548.656652
230.358502,3064.381992,888.247130,8290.306550
230.358810,4443.353888,2146.597232,7105.977043
230.359118,4213.525239,2960.823768,6365.771101
230.359426,4366.744339,4071.132681,5477.523971
230.359734,4366.744339,4589.276840,5107.421000
230.360042,3600.648841,4441.235652,4959.379811
230.360350,3294.210641,3627.009116,6809.894666
230.360658,2145.067394,1332.370696,8882.471304
230.360966,-1149.143247,-222.061783,9992.780217
230.361274,-1532.190996,-2812.782580,12953.603985
230.361582,-3370.820191,-3330.926739,14137.933492
230.361890,-3370.820191,-4219.173869,15100.201217
230.362198,-2834.553343,-3552.988522,14211.954086
230.362507,-995.924147,-1628.453072,13397.727550
230.362815,995.924147,-740.205942,11769.274478
230.363123,2451.505594,1406.391290,9030.512492
230.363431,4366.744339,2886.803174,7994.224174
230.363739,5209.449386,3701.029710,5995.668130
230.364047,5592.497135,4293.194464,5551.544565
230.364355,4749.792088,5329.482782,5625.565159
230.364663,4290.134789,3997.112087,6069.688724
230.364971,2834.553343,3182.885551,7105.977043
230.365279,842.705048,2368.659014,7994.224174
230.365587,-536.266849,-0.000000,10436.903782
230.365895,-2451.505594,-1850.514855,12583.501014
230.366203,-3447.429741,-4145.153275,14359.995275
230.366511,-4060.306139,-4959.379811,16210.510130
230.366819,-3830.477490,-4811.338623,14952.160028
230.367127,-3370.820191,-5033.400406,15470.304188
230.367435,-1532.190996,-2886.803174,13471.748144
230.367743,0.000000,-888.247130,10881.027347
230.368052,1608.800546,1036.288319,8586.388927
230.368360,2681.334243,2664.741391,6735.874072
230.368668,3294.210641,3775.050304,6143.709319
230.368976,3677.258390,4219.173869,5625.565159
230.369284,4519.963438,4959.379811,4811.338623
230.369592,3983.696590,4737.318029,4219.173869
230.369900,2757.943793,3478.967927,5477.523971
230.370208,1378.971896,1480.411884,7772.162391
230.370516,-536.266849,-222.061783,9474.636058
230.370824,-2298.286494,-2294.638420,11769.274478
230.371132,-3753.867940,-4219.173869,12805.562797
230.371440,-3983.696590,-4737.318029,13989.892304
230.371748,-4213.525239,-4293.194464,14359.995275
230.372056,-2451.505594,-3256.906145,13693.809927
230.372364,-1302.362347,-1406.391290,12065.356855
230.372672,459.657299,222.061783,9696.697840
230.372980,1991.848295,2146.597232,8142.265362
230.373289,3524.039291,2886.803174,6587.832884
230.373597,3753.867940,3108.864956,5773.606348
230.373905,2987.772442,3923.091493,5921.647536
230.374213,2757.943793,3404.947333,6069.688724
230.374521,2145.067394,2368.659014,6365.771101
230.374829,1225.752797,1924.535449,7698.141797
230.375137,612.876398,518.144159,9178.553681
230.375445,-689.485948,-1110.308913,10658.965565
230.375753,-1455.581446,-2738.761985,12065.356855
230.376061,-2604.724693,-3849.070898,13471.748144
230.376369,-3217.601092,-4515.256246,14434.015869
230.376677,-3524.039291,-4515.256246,14656.077652
230.376985,-2451.505594,-2664.741391,13841.851115
230.377293,-766.095498,-2146.597232,12065.356855
230.377601,536.266849,-444.123565,10140.821405
230.377909,1991.848295,1776.494261,7402.059420
230.378217,2834.553343,2442.679609,6513.812290
230.378526,3524.039291,3404.947333,6439.791695
230.378834,4366.744339,4071.132681,5477.523971
230.379142,4366.744339,4219.173869,4959.379811
230.379450,3140.991542,3108.864956,4589.276840
230.379758,2451.505594,2442.679609,5847.626942
230.380066,1608.800546,1406.391290,7846.182985
230.380374,-153.219100,-370.102971,9696.697840
230.380682,-1608.800546,-2220.617826,11621.233289
230.380990,-2757.943793,-3701.029710,13693.809927
230.381298,-3370.820191,-4515.256246,13989.892304
230.381606,-3217.601092,-3701.029710,14211.954086
230.381914,-1838.629195,-2294.638420,13397.727550
230.382222,-612.876398,-814.226536,11917.315666
230.382530,1378.971896,592.164754,10214.842000
230.382838,2757.943793,2516.700203,7920.203579
230.383146,3753.867940,3034.844362,6957.935855
230.383454,4749.792088,2886.803174,6365.771101
230.383762,4213.525239,3849.070898,6069.688724
230.384071,3677.258390,3701.029710,6291.750507
230.384379,2987.772442,2886.803174,6143.709319
230.384687,2298.286494,2516.700203,7698.141797
230.384995,1378.971896,1110.308913,9326.594869
230.385303,0.000000,-814.226536,11103.089130
230.385611,-1149.143247,-2664.741391,12657.521608
230.385919,-2374.896044,-3775.050304,13767.830521
230.386227,-2987.772442,-4737.318029,14582.057057
230.386535,-3217.601092,-4885.359217,15618.345376
230.386843,-2451.505594,-3701.029710,14359.995275
230.387151,-766.095498,-2146.597232,12657.521608
230.387459,995.924147,-0.000000,10214.842000
230.387767,2911.162892,2516.700203,7476.080014
230.388075,4213.525239,3330.926739,6513.812290
230.388383,4596.572988,4145.153275,5329.482782
230.388691,4903.011187,4589.276840,4663.297435
230.388999,4519.963438,4663.297435,4737.318029
230.389308,3677.258390,3404.947333,5107.421000
230.389616,2834.553343,2516.700203,6365.771101
230.389924,1685.410096,1258.350101,7994.224174
230.390232,-459.657299,-1184.329507,9918.759623
230.390540,-1608.800546,-3034.844362,11917.315666
230.390848,-2987.772442,-3775.050304,13397.727550
230.391156,-3830.477490,-4515.256246,14359.995275
230.391464,-3217.601092,-4293.194464,13989.892304
230.391772,-2068.457845,-2590.720797,13323.706956
230.392080,0.000000,-1110.308913,11917.315666
230.392388,1302.362347,962.267725,9400.615463
230.392696,2757.943793,2516.700203,7031.956449
230.393004,3907.087040,2960.823768,6957.935855
230.393312,4060.306139,3775.050304,5995.668130
230.393620,3370.820191,3552.988522,6069.688724
230.393928,2757.943793,3478.967927,6365.771101
230.394236,1838.629195,2516.700203,7105.977043
230.394544,1302.362347,1258.350101,8512.368333
230.394853,229.828649,370.102971,9992.780217
230.395161,-995.924147,-1924.535449,11473.192101
230.395469,-2221.676944,-3256.906145,12435.459826
230.395777,-3217.601092,-4293.194464,13841.851115
230.396085,-3753.867940,-5107.421000,14730.098246
230.396393,-2451.505594,-4589.276840,14582.057057
230.396701,-1915.238745,-2516.700203,13101.645173
230.397009,-153.219100,-888.247130,11177.109724
230.397317,1838.629195,1480.411884,8660.409521
230.397625,3217.601092,2960.823768,6661.853478
230.397933,3600.648841,3701.029710,5847.626942
230.398241,3983.696590,4219.173869,5255.462188
230.398549,4366.744339,4663.297435,5033.400406
230.398857,3447.429741,3997.112087,5329.482782
230.399165,2681.334243,3330.926739,5995.668130
230.399473,1991.848295,2368.659014,7179.997637
230.399781,0.000000,518.144159,9178.553681
230.400090,-1608.800546,-1776.494261,11473.192101
230.400398,-2834.553343,-3404.947333,12805.562797
230.400706,-3983.696590,-4071.132681,14656.077652
230.401014,-5439.278036,-5107.421000,15026.180623
230.401322,-3370.820191,-3330.926739,14952.160028
230.401630,-2221.676944,-2072.576638,13471.748144
230.401938,0.000000,-814.226536,11251.130318
230.402246,1991.848295,1998.556043,8290.306550
230.402554,3447.429741,2812.782580,7105.977043
230.402862,4443.353888,3404.947333,5625.565159
230.403170,4290.134789,4367.215058,5255.462188
230.403478,4060.306139,4145.153275,5773.606348
230.403786,2374.896044,3108.864956,6217.729913
230.404094,2145.067394,3034.844362,6809.894666
230.404402,995.924147,2146.597232,8068.244768
230.404710,0.000000,-222.061783,10288.862594
230.405018,-1302.362347,-2368.659014,11991.336260
230.405327,-3983.696590,-3108.864956,13175.665768
230.405635,-3753.867940,-6217.729913,15100.201217
230.405943,-4213.525239,-5329.482782,15618.345376
230.406251,-3753.867940,-4441.235652,14804.118840
230.406559,-1685.410096,-3256.906145,13323.706956
230.406867,0.000000,-740.205942,10362.883188
230.407175,2374.896044,1924.535449,7624.121203
230.407483,3753.867940,2738.761985,6291.750507
230.407791,4519.963438,3775.050304,5625.565159
230.408099,4749.792088,4441.235652,4811.338623
230.408407,4673.182538,4737.318029,4589.276840
230.408715,3983.696590,3108.864956,4885.359217
230.409023,3064.381992,2738.761985,6069.688724
230.409331,1838.629195,2220.617826,7920.203579
230.409639,-229.828649,-370.102971,9770.718434
230.409947,-1225.752797,-2220.617826,11399.171507
230.410255,-2987.772442,-3182.885551,12361.439231
230.410563,-4136.915689,-4737.318029,14063.912898
230.410872,-2911.162892,-4737.318029,14582.057057
230.411180,-2451.505594,-2590.720797,14137.933492
230.411488,-459.657299,-1776.494261,12953.603985
230.411796,1302.362347,814.226536,9178.553681
230.412104,3064.381992,2368.659014,7846.182985
230.412412,4290.134789,3478.967927,6291.750507
230.412720,4443.353888,4145.153275,5551.544565
230.413028,4290.134789,3775.050304,5995.668130
230.413336,3524.039291,3182.885551,5773.606348
230.413644,2911.162892,2812.782580,7031.956449
230.413952,1991.848295,2146.597232,7994.224174
230.414260,536.266849,444.123565,9474.636058
230.414568,-536.266849,-1332.370696,11103.089130
230.414876,-1838.629195,-2516.700203,12139.377449
230.415184,-3217.601092,-4145.153275,13841.851115
230.415492,-3600.648841,-5625.565159,15100.201217
230.415800,-3524.039291,-4737.318029,15396.283594
230.416109,-2374.896044,-4071.132681,13841.851115
230.416417,-612.876398,-2368.659014,12213.398043
230.416725,1149.143247,-0.000000,9548.656652
230.417033,3600.648841,2960.823768,7254.018232
230.417341,4979.620737,3478.967927,6217.729913
230.417649,4826.401637,3923.091493,4737.318029
230.417957,4366.744339,4811.338623,4293.194464
230.418265,4903.011187,3849.070898,5255.462188
230.418573,3600.648841,3330.926739,5181.441594
230.418881,2451.505594,2960.823768,6957.935855
230.419189,1608.800546,1332.370696,8734.430116
230.419497,-689.485948,-666.185348,10288.862594
230.419805,-2681.334243,-2516.700203,12287.418637
230.420113,-3064.381992,-3108.864956,12879.583391
230.420421,-3830.477490,-4737.318029,14285.974681
230.420729,-2681.334243,-3701.029710,14878.139434
230.421037,-1991.848295,-3034.844362,13915.871710
230.421346,-766.095498,-666.185348,11843.295072
230.421654,1378.971896,1184.329507,9992.780217
230.421962,3217.601092,2590.720797,7994.224174
230.422270,4136.915689,3330.926739,5995.668130
230.422578,4366.744339,4589.276840,5329.482782
230.422886,4136.915689,3997.112087,6069.688724
230.423194,3830.477490,3552.988522,6291.750507
230.423502,2374.896044,2960.823768,6809.894666
230.423810,1685.410096,1998.556043,7994.224174
230.424118,689.485948,444.123565,9696.697840
230.424426,-1225.752797,-1480.411884,11769.274478
230.424734,-2451.505594,-2960.823768,13027.624579
230.425042,-3677.258390,-5329.482782,14434.015869
230.425350,-3907.087040,-5403.503377,15840.407159
230.425658,-3524.039291,-4885.359217,15544.324782
230.425966,-2604.724693,-3478.967927,14137.933492
230.426274,-383.047749,-1554.432478,11621.233289
230.426582,1991.848295,1924.535449,8586.388927
230.426891,3907.087040,2812.782580,6809.894666
230.427199,4366.744339,4071.132681,4885.359217
230.427507,4826.401637,5107.421000,4737.318029
230.427815,4673.182538,3923.091493,4811.338623
230.428123,3294.210641,3478.967927,4811.338623
230.428431,2451.505594,2886.803174,6957.935855
230.428739,1608.800546,2146.597232,7772.162391
230.429047,0.000000,296.082377,9030.512492
230.429355,-1838.629195,-1702.473667,10510.924376
230.429663,-2681.334243,-2590.720797,12139.377449
230.429971,-4366.744339,-4663.297435,13619.789333
230.430279,-4060.306139,-5033.400406,14730.098246
230.430587,-3677.258390,-4071.132681,14508.036463
230.430895,-1915.238745,-2812.782580,13175.665768
230.431203,-536.266849,-222.061783,10362.883188
230.431511,2068.457845,1998.556043,8142.265362
230.431819,3830.477490,3034.844362,7105.977043
230.432128,3983.696590,4071.132681,5033.400406
230.432436,4673.182538,4811.338623,5107.421000
230.432744,4443.353888,3997.112087,5847.626942
230.433052,3294.210641,3478.967927,6069.688724
230.433360,2451.505594,2516.700203,6809.894666
230.433668,1149.143247,1406.391290,8438.347739
230.433976,0.000000,-740.205942,9844.739029
230.434284,-1838.629195,-2516.700203,12065.356855
230.434592,-2221.676944,-4145.153275,13767.830521
230.434900,-4443.353888,-6069.688724,14952.160028
230.435208,-3830.477490,-5773.606348,15692.365970
230.435516,-3370.820191,-4885.359217,14730.098246
230.435824,-1302.362347,-3034.844362,13101.645173
230.436132,536.266849,296.082377,9696.697840
230.436440,2834.553343,1924.535449,7772.162391
230.436748,4903.011187,3849.070898,6291.750507
230.437056,4903.011187,4737.318029,4663.297435
230.437364,4979.620737,4811.338623,4515.256246
230.437673,4213.525239,3849.070898,5699.585753
230.437981,3677.258390,3627.009116,5625.565159
230.438289,2528.115143,2960.823768,6439.791695
230.438597,919.314598,1480.411884,7994.224174
230.438905,0.000000,-222.061783,9548.656652
230.439213,-1915.238745,-1850.514855,11621.233289
230.439521,-2911.162892,-3256.906145,13101.645173
230.439829,-3753.867940,-5033.400406,14359.995275
230.440137,-3907.087040,-4589.276840,14878.139434
230.440445,-2451.505594,-3552.988522,14063.912898
230.440753,-766.095498,-1850.514855,12435.459826
230.441061,1455.581446,1332.370696,10214.842000
230.441369,3600.648841,2072.576638,8438.347739
230.441677,4290.134789,3552.988522,5625.565159
230.441985,4366.744339,3997.112087,5403.503377
230.442293,5439.278036,4515.256246,6217.729913
230.442601,3983.696590,2960.823768,6217.729913
230.442910,2834.553343,2812.782580,7105.977043
230.443218,1378.971896,1924.535449,8438.347739
230.443526,383.047749,740.205942,9104.533087
230.443834,-766.095498,-1628.453072,11399.171507
230.444142,-2068.457845,-2368.659014,13101.645173
230.444450,-3677.258390,-4515.256246,14508.036463
230.444758,-3753.867940,-5699.585753,15026.180623
230.445066,-3370.820191,-4441.235652,15544.324782
230.445374,-2298.286494,-3404.947333,13915.871710
230.445682,0.000000,-1998.556043,11843.295072
230.445990,1838.629195,1184.329507,8734.430116
230.446298,3600.648841,2738.761985,7254.018232
230.446606,4826.401637,3701.029710,6587.832884
230.446914,4596.572988,3997.112087,5255.462188
230.447222,4443.353888,4589.276840,4959.379811
230.447530,3217.601092,3034.844362,5551.544565
230.447838,2834.553343,3182.885551,5921.647536
230.448147,1915.238745,2886.803174,6957.935855
230.448455,995.924147,1184.329507,8734.430116
230.448763,0.000000,-444.123565,9918.759623
230.449071,-1838.629195,-1406.391290,11547.212695
230.449379,-2604.724693,-3330.926739,13027.624579
230.449687,-4136.915689,-4293.194464,13915.871710
230.449995,-3447.429741,-3849.070898,14952.160028
230.450303,-1378.971896,-3478.967927,14656.077652
230.450611,-1838.629195,-888.247130,10732.986159
230.450919,1149.143247,-0.000000,10732.986159
230.451227,2911.162892,2146.597232,8068.244768
230.451535,3217.601092,4367.215058,5255.462188
230.451843,4366.744339,3627.009116,6661.853478
230.452151,4213.525239,4515.256246,4959.379811
230.452459,3677.258390,4293.194464,5403.503377
230.452767,2604.724693,3627.009116,6217.729913
230.453075,1532.190996,1850.514855,8068.244768
230.453383,-153.219100,296.082377,9992.780217
230.453692,-1149.143247,-2146.597232,11843.295072
230.454000,-3370.820191,-3404.947333,13841.851115
230.454308,-4136.915689,-5699.585753,15322.262999
230.454616,-4596.572988,-5329.482782,15692.365970
230.454924,-4290.134789,-4293.194464,14508.036463
230.455232,-1991.848295,-3404.947333,13471.748144
230.455540,-459.657299,-1702.473667,11251.130318
230.455848,1455.581446,1258.350101,8734.430116
230.456156,3370.820191,2664.741391,6883.915261
230.456464,4519.963438,4441.235652,5255.462188
230.456772,4673.182538,4515.256246,4663.297435
230.457080,5056.230287,5107.421000,5181.441594
230.457388,4136.915689,4293.194464,4515.256246
230.457696,2987.772442,3108.864956,4959.379811
230.458004,1762.019645,1776.494261,7031.956449
230.458312,229.828649,-0.000000,8882.471304
230.458620,-1455.581446,-1702.473667,11177.109724
230.458929,-2451.505594,-3256.906145,13027.624579
230.459237,-3217.601092,-4515.256246,13915.871710
230.459545,-3294.210641,-4293.194464,14730.098246
230.459853,-3064.381992,-3775.050304,13619.789333
230.460161,-1149.143247,-1924.535449,12731.542202
230.460469,229.828649,-370.102971,10881.027347
230.460777,1991.848295,1554.432478,8660.409521
230.461086,3294.210641,3182.885551,6587.832884
230.461394,4136.915689,4219.173869,5921.647536
230.461702,4366.744339,4515.256246,6143.709319
230.462010,4749.792088,4737.318029,5551.544565
230.462318,3524.039291,3997.112087,5847.626942
230.462627,2451.505594,2442.679609,7105.977043
230.462935,766.095498,888.247130,8882.471304
230.463243,-536.266849,-1258.350101,11325.150913
230.463551,-2298.286494,-2960.823768,12509.480420
230.463859,-3447.429741,-4959.379811,14137.933492
230.464167,-3830.477490,-5625.565159,15100.201217
230.464476,-4596.572988,-5181.441594,15026.180623
230.464784,-3064.381992,-4441.235652,13693.809927
230.465092,-689.485948,-1850.514855,12657.521608
230.465400,995.924147,-0.000000,9844.739029
230.465708,2604.724693,2368.659014,7698.141797
230.466017,4290.134789,3923.091493,6217.729913
230.466325,4903.011187,4515.256246,5255.462188
230.466633,4903.011187,4737.318029,5181.441594
230.466941,4749.792088,4293.194464,4885.359217
230.467249,3600.648841,3330.926739,4737.318029
230.467557,2528.115143,2220.617826,6069.688724
230.467866,1149.143247,740.205942,8364.327145
230.468174,-306.438199,-444.123565,10066.800811
230.468482,-1991.848295,-2442.679609,11621.233289
230.468790,-2834.553343,-3701.029710,13249.686362
230.469098,-2834.553343,-4515.256246,13767.830521
230.469407,-2757.943793,-3923.091493,13693.809927
230.469715,-1685.410096,-3034.844362,13323.706956
230.470023,-689.485948,-2072.576638,12361.439231
230.470331,612.876398,-0.000000,10362.883188
230.470639,2068.457845,2294.638420,8438.347739
230.470947,3677.258390,3775.050304,6883.915261
230.471256,3907.087040,4367.215058,6217.729913
230.471564,4749.792088,4071.132681,5625.565159
230.471872,3983.696590,4515.256246,5921.647536
230.472180,3447.429741,3627.009116,6809.894666
230.472488,1915.238745,1924.535449,7550.100608
230.472797,842.705048,592.164754,9696.697840
230.473105,-612.876398,-1554.432478,11769.274478
230.473413,-2451.505594,-3256.906145,12879.583391
230.473721,-3830.477490,-3923.091493,13841.851115
230.474029,-3524.039291,-4737.318029,15174.221811
230.474337,-3217.601092,-4219.173869,15100.201217
230.474646,-1608.800546,-3182.885551,13471.748144
230.474954,-536.266849,-1258.350101,12287.418637
230.475262,1608.800546,518.144159,9548.656652
230.475570,3217.601092,2590.720797,7105.977043
230.475878,4213.525239,3552.988522,6069.688724
230.476187,4519.963438,3552.988522,5107.421000
230.476495,4366.744339,4219.173869,5329.482782
230.476803,3524.039291,3404.947333,5921.647536
230.477111,2528.115143,1924.535449,5921.647536
230.477419,1532.190996,1554.432478,6587.832884
230.477727,766.095498,370.102971,8512.368333
230.478036,-536.266849,-814.226536,9844.739029
230.478344,-1378.971896,-2146.597232,11843.295072
230.478652,-2145.067394,-3182.885551,12953.603985
230.478960,-2604.724693,-4071.132681,13323.706956
230.479268,-2604.724693,-3849.070898,14063.912898
230.479577,-1991.848295,-3034.844362,13323.706956
230.479885,-689.485948,-814.226536,11769.274478
230.480193,1149.143247,740.205942,9844.739029
230.480501,2528.115143,2146.597232,7994.224174
230.480809,3753.867940,3701.029710,6069.688724
230.481118,4443.353888,4219.173869,5329.482782
230.481426,3907.087040,4145.153275,5847.626942
230.481734,3524.039291,3478.967927,5995.668130
230.482042,2068.457845,2664.741391,7031.956449
230.482350,1149.143247,1702.473667,8512.368333
230.482658,0.000000,-0.000000,9770.718434
230.482967,-1762.019645,-1702.473667,11843.295072
230.483275,-2757.943793,-3404.947333,13323.706956
230.483583,-3140.991542,-4145.153275,14211.954086
230.483891,-4136.915689,-4959.379811,15174.221811
230.484199,-3140.991542,-4589.276840,14804.118840
230.484508,-2068.457845,-2590.720797,13175.665768
230.484816,0.000000,-814.226536,11399.171507
230.485124,1838.629195,1406.391290,8142.265362
230.485432,3753.867940,2960.823768,7031.956449
230.485740,4749.792088,3923.091493,6069.688724
230.486048,4979.620737,4219.173869,5033.400406
230.486357,4290.134789,4071.132681,4737.318029
230.486665,3907.087040,3256.906145,5551.544565
230.486973,2145.067394,2368.659014,6143.709319
230.487281,1915.238745,1480.411884,7254.018232
230.487589,612.876398,370.102971,8734.430116
230.487898,-995.924147,-962.267725,10214.842000
230.488206,-1991.848295,-2886.803174,12731.542202
230.488514,-2987.772442,-4293.194464,13989.892304
230.488822,-3524.039291,-4885.359217,14582.057057
230.489130,-2911.162892,-3997.112087,14285.974681
230.489438,-2068.457845,-2664.741391,13545.768739
230.489747,-383.047749,-1184.329507,11769.274478
230.490055,1455.581446,962.267725,9696.697840
230.490363,3217.601092,2886.803174,6957.935855
230.490671,4366.744339,3849.070898,5403.503377
230.490979,4749.792088,4219.173869,5403.503377
230.491288,4979.620737,4219.173869,5699.585753
230.491596,3677.258390,3330.926739,5551.544565
230.491904,2681.334243,2590.720797,6439.791695
230.492212,766.095498,1036.288319,8364.327145
230.492520,-459.657299,-740.205942,10214.842000
230.492828,-2298.286494,-2146.597232,12287.418637
230.493137,-3217.601092,-3923.091493,14063.912898
230.493445,-4060.306139,-3923.091493,14878.139434
230.493753,-3983.696590,-4441.235652,15322.262999
230.494061,-2987.772442,-3552.988522,14508.036463
230.494369,-842.705048,-2072.576638,13175.665768
230.494678,919.314598,666.185348,10436.903782
230.494986,2681.334243,1554.432478,8438.347739
230.495294,4060.306139,3478.967927,6291.750507
230.495602,4290.134789,3849.070898,5329.482782
230.495910,4903.011187,3849.070898,5329.482782
230.496218,4443.353888,3849.070898,5477.523971
230.496527,2911.162892,2886.803174,6069.688724
230.496835,2451.505594,2220.617826,6365.771101
230.497143,1608.800546,1258.350101,7624.121203
230.497451,612.876398,-74.020594,9326.594869
230.497759,-459.657299,-1406.391290,10955.047942
230.498068,-1532.190996,-2960.823768,12731.542202
230.498376,-1991.848295,-4589.276840,13619.789333
230.498684,-2987.772442,-4515.256246,14508.036463
230.498992,-2911.162892,-3034.844362,14211.954086
230.499300,-536.266849,-1924.535449,13027.624579
230.499608,766.095498,296.082377,10658.965565
230.499917,2757.943793,2368.659014,8586.388927
230.500225,3907.087040,3404.947333,6587.832884
230.500533,4749.792088,4367.215058,5255.462188
230.500841,4826.401637,4515.256246,5477.523971
230.501149,4366.744339,3997.112087,5995.668130
230.501458,3524.039291,2664.741391,5995.668130
230.501766,1838.629195,1702.473667,7476.080014
230.502074,459.657299,370.102971,9178.553681
230.502382,-1149.143247,-1332.370696,10955.047942
230.502690,-2911.162892,-3108.864956,13249.686362
230.502998,-4136.915689,-4293.194464,14359.995275
230.503307,-4136.915689,-4885.359217,15692.365970
230.503615,-3830.477490,-4441.235652,15322.262999
230.503923,-2298.286494,-2886.803174,14137.933492
230.504231,-919.314598,-1480.411884,11547.212695
230.504539,1302.362347,1036.288319,9770.718434
230.504848,3217.601092,2368.659014,7846.182985
230.505156,4136.915689,3478.967927,6217.729913
230.505464,4366.744339,4367.215058,4885.359217
230.505772,4443.353888,4367.215058,4959.379811
230.506080,4136.915689,3256.906145,5255.462188
230.506388,2834.553343,2590.720797,5329.482782
230.506697,1455.581446,1924.535449,6809.894666
230.507005,1149.143247,740.205942,7476.080014
230.507313,0.000000,-962.267725,9474.636058
230.507621,-1838.629195,-2368.659014,11769.274478
230.507929,-2911.162892,-3701.029710,13397.727550
230.508238,-3217.601092,-4589.276840,14434.015869
230.508546,-3983.696590,-4219.173869,14656.077652
230.508854,-2681.334243,-2812.782580,13545.768739
230.509162,-842.705048,-1110.308913,12065.356855
230.509470,995.924147,740.205942,9770.718434
230.509778,2681.334243,2368.659014,7624.121203
230.510087,4136.915689,3256.906145,5921.647536
230.510395,4596.572988,3404.947333,5403.503377
230.510703,4366.744339,3923.091493,4885.359217
230.511011,4213.525239,3552.988522,6143.709319
230.511319,3064.381992,2294.638420,6661.853478
230.511628,1149.143247,1480.411884,8142.265362
230.511936,0.000000,-296.082377,9474.636058
230.512244,-1532.190996,-1998.556043,11399.171507
230.512552,-3140.991542,-3627.009116,13619.789333
230.512860,-3983.696590,-4663.297435,14434.015869
230.513168,-3830.477490,-4589.276840,14804.118840
230.513477,-3140.991542,-3923.091493,14285.974681
230.513785,-1991.848295,-2442.679609,13175.665768
230.514093,-383.047749,-518.144159,11695.253884
230.514401,1685.410096,1036.288319,9474.636058
230.514709,3294.210641,2812.782580,6957.935855
230.515018,3907.087040,3775.050304,5847.626942
230.515326,4443.353888,3849.070898,5403.503377
230.515634,4290.134789,3849.070898,5181.441594
230.515942,3447.429741,3552.988522,5181.441594
230.516250,2757.943793,2738.761985,5847.626942
230.516558,1302.362347,1850.514855,7105.977043
230.516867,689.485948,222.061783,8586.388927
230.517175,-536.266849,-1406.391290,11029.068536
230.517483,-2145.067394,-2738.761985,12509.480420
230.517791,-3447.429741,-4145.153275,13767.830521
230.518099,-3524.039291,-4219.173869,14804.118840
230.518408,-2834.553343,-3997.112087,14359.995275
230.518716,-1838.629195,-2738.761985,12879.583391
230.519024,76.609550,-740.205942,10732.986159
230.519332,2145.067394,1332.370696,9400.615463
230.519640,3447.429741,3108.864956,6957.935855
230.519948,4826.401637,4293.194464,5403.503377
230.520257,5132.839837,4737.318029,4959.379811
230.520565,5056.230287,4589.276840,5255.462188
230.520873,4443.353888,3997.112087,5699.585753
230.521181,2911.162892,2368.659014,7105.977043
230.521489,1072.533697,1110.308913,8586.388927
230.521798,-306.438199,-444.123565,10510.924376
230.522106,-2374.896044,-2368.659014,12805.562797
230.522414,-3524.039291,-3997.112087,14434.015869
230.522722,-4213.525239,-4959.379811,15322.262999
230.523030,-3677.258390,-4441.235652,15544.324782
230.523338,-2451.505594,-3775.050304,14582.057057
230.523647,-995.924147,-2368.659014,13027.624579
230.523955,306.438199,-0.000000,10807.006753
230.524263,2604.724693,1628.453072,8808.450710
230.524571,3907.087040,3108.864956,7031.956449
230.524879,4060.306139,3775.050304,5033.400406
230.525188,3753.867940,4293.194464,5403.503377
230.525496,4060.306139,3701.029710,5033.400406
230.525804,3753.867940,3330.926739,5255.462188
230.526112,2834.553343,2220.617826,6217.729913
230.526420,1455.581446,1480.411884,7179.997637
230.526728,76.609550,-296.082377,8956.491898
230.527037,-1149.143247,-1702.473667,11177.109724
230.527345,-2298.286494,-3182.885551,12805.562797
230.527653,-3140.991542,-4663.297435,14063.912898
230.527961,-3217.601092,-4071.132681,14359.995275
230.528269,-2834.553343,-3701.029710,13767.830521
230.528578,-1072.533697,-1628.453072,12435.459826
230.528886,459.657299,-222.061783,10584.944971
230.529194,2068.457845,1480.411884,8734.430116
230.529502,3677.258390,3182.885551,6735.874072
230.529810,4826.401637,3849.070898,5699.585753
230.530118,5132.839837,4811.338623,4737.318029
230.530427,4673.182538,3997.112087,5773.606348
230.530735,3983.696590,3182.885551,6069.688724
230.531043,1762.019645,2146.597232,7179.997637
230.531351,306.438199,296.082377,9252.574275
230.531659,-1378.971896,-1332.370696,10881.027347
230.531968,-2528.115143,-3108.864956,13101.645173
230.532276,-4136.915689,-4293.194464,13915.871710
230.532584,-4213.525239,-4811.338623,14878.139434
230.532892,-4213.525239,-4367.215058,15100.201217
230.533200,-2681.334243,-3552.988522,14063.912898
230.533508,-1149.143247,-1332.370696,12287.418637
230.533817,612.876398,148.041188,9992.780217
230.534125,2757.943793,1924.535449,8290.306550
230.534433,3524.039291,3182.885551,5773.606348
230.534741,4519.963438,3923.091493,5255.462188
230.535049,4749.792088,4145.153275,4959.379811
230.535358,4749.792088,3923.091493,4811.338623
230.535666,3370.820191,2886.803174,4885.359217
230.535974,2451.505594,2146.597232,5847.626942
230.536282,1455.581446,1110.308913,7920.203579
230.536590,0.000000,-592.164754,9474.636058
230.536898,-1225.752797,-2368.659014,11917.315666
230.537207,-2911.162892,-4145.153275,13619.789333
230.537515,-4136.915689,-4663.297435,15470.304188
230.537823,-3907.087040,-4589.276840,14952.160028
230.538131,-2834.553343,-3256.906145,13989.892304
230.538439,-842.705048,-1924.535449,12361.439231
230.538748,536.266849,444.123565,10140.821405
230.539056,2681.334243,2442.679609,8290.306550
230.539364,4596.572988,3997.112087,5773.606348
230.539672,5209.449386,4885.359217,5033.400406
230.539980,5439.278036,4737.318029,5625.565159
230.540288,5209.449386,4219.173869,5773.606348
230.540597,3447.429741,3256.906145,6587.832884
230.540905,1225.752797,1480.411884,7920.203579
230.541213,-76.609550,-0.000000,9400.615463
230.541521,-1838.629195,-1850.514855,11843.295072
230.541829,-3217.601092,-3404.947333,13915.871710
230.542138,-4290.134789,-4441.235652,14878.139434
230.542446,-4673.182538,-4515.256246,15322.262999
230.542754,-3447.429741,-3923.091493,14878.139434
230.543062,-1608.800546,-2368.659014,13545.768739
230.543370,-383.047749,-666.185348,11399.171507
230.543678,1762.019645,1332.370696,9030.512492
230.543987,3600.648841,2368.659014,7772.162391
230.544295,4213.525239,3849.070898,5033.400406
230.544603,4290.134789,4219.173869,5255.462188
230.544911,4749.792088,3627.009116,5107.421000
230.545219,3677.258390,3701.029710,4737.318029
230.545528,2834.553343,2738.761985,5847.626942
230.545836,1991.848295,1702.473667,6587.832884
230.546144,766.095498,-0.000000,8882.471304
230.546452,-766.095498,-1480.411884,10214.842000
230.546760,-2145.067394,-3182.885551,12509.480420
230.547068,-3140.991542,-4737.318029,14211.954086
230.547377,-3753.867940,-4959.379811,14804.118840
230.547685,-2757.943793,-4219.173869,14582.057057
230.547993,-2221.676944,-2368.659014,12583.501014
230.548301,76.609550,-592.164754,11843.295072
230.548609,2145.067394,1702.473667,8734.430116
230.548918,3830.477490,3478.967927,6809.894666
230.549226,4903.011187,4441.235652,5255.462188
230.549534,5132.839837,4589.276840,4663.297435
230.549842,4979.620737,3775.050304,5403.503377
230.550150,3140.991542,3182.885551,6069.688724
230.550458,2298.286494,1776.494261,7328.038826
230.550767,766.095498,592.164754,9252.574275
230.551075,-1225.752797,-1184.329507,10658.965565
230.551383,-2528.115143,-2738.761985,12509.480420
230.551691,-3753.867940,-3923.091493,14211.954086
230.551999,-4213.525239,-4515.256246,14656.077652
230.552308,-3983.696590,-4515.256246,15174.221811
230.552616,-2987.772442,-3256.906145,14063.912898
230.552924,-1225.752797,-1702.473667,12435.459826
230.553232,459.657299,-222.061783,10584.944971
230.553540,1991.848295,2220.617826,7920.203579
230.553848,3830.477490,3330.926739,6735.874072
230.554157,4519.963438,4145.153275,5255.462188
230.554465,4366.744339,4219.173869,4737.318029
230.554773,4749.792088,3849.070898,5033.400406
230.555081,4060.306139,3330.926739,5477.523971
230.555389,2451.505594,2368.659014,5995.668130
230.555698,1378.971896,1184.329507,7328.038826
230.556006,766.095498,-222.061783,9104.533087
230.556314,-1378.971896,-2220.617826,10881.027347
230.556622,-2528.115143,-3330.926739,12879.583391
230.556930,-3447.429741,-4219.173869,14285.974681
230.557238,-3677.258390,-4293.194464,14656.077652
230.557547,-3753.867940,-3552.988522,13915.871710
230.557855,-1149.143247,-1776.494261,12879.583391
230.558163,536.266849,-0.000000,11103.089130
230.558471,2145.067394,1998.556043,8586.388927
230.558779,3983.696590,3552.988522,6587.832884
230.559087,5132.839837,4293.194464,5625.565159
230.559395,4903.011187,4219.173869,5329.482782
230.559704,4673.182538,3849.070898,5625.565159
230.560012,3140.991542,2960.823768,6217.729913
230.560320,1762.019645,1776.494261,7328.038826
230.560628,-306.438199,592.164754,9178.553681
230.560936,-842.705048,-814.226536,10807.006753
230.561244,-2221.676944,-2590.720797,12657.521608
230.561552,-3830.477490,-3701.029710,13915.871710
230.561861,-3907.087040,-4293.194464,14730.098246
230.562169,-3983.696590,-3849.070898,14878.139434
230.562477,-3140.991542,-3182.885551,13915.871710
230.562785,-995.924147,-1850.514855,12731.542202
230.563093,536.266849,-222.061783,10288.862594
230.563401,2298.286494,2072.576638,8142.265362
230.563709,3294.210641,3182.885551,6587.832884
230.564017,4213.525239,4071.132681,4885.359217
230.564326,3907.087040,4737.318029,4737.318029
230.564634,4903.011187,4071.132681,5551.544565
230.564942,3600.648841,3775.050304,4737.318029
230.565250,2528.115143,2368.659014,6439.791695
230.565558,1072.533697,518.144159,7624.121203
230.565866,-459.657299,-1036.288319,10066.800811
230.566174,-2374.896044,-3034.844362,12361.439231
230.566483,-3983.696590,-4293.194464,13841.851115
230.566791,-4366.744339,-4737.318029,15248.242405
230.567099,-4290.134789,-4663.297435,14878.139434
230.567407,-2681.334243,-3182.885551,13915.871710
230.567715,-536.266849,-1480.411884,11547.212695
230.568023,1455.581446,518.144159,9844.739029
230.568331,3370.820191,2442.679609,7476.080014
230.568639,4903.011187,3997.112087,5625.565159
230.568948,5056.230287,4663.297435,5033.400406
230.569256,5209.449386,4663.297435,4737.318029
230.569564,4826.401637,4219.173869,5403.503377
230.569872,3217.601092,3182.885551,6217.729913
230.570180,1302.362347,1628.453072,7624.121203
230.570488,0.000000,-0.000000,9770.718434
230.570796,-1915.238745,-2146.597232,11843.295072
230.571104,-3524.039291,-3775.050304,13915.871710
230.571413,-4443.353888,-4737.318029,15026.180623
230.571721,-4213.525239,-4737.318029,15692.365970
230.572029,-3677.258390,-4219.173869,15544.324782
230.572337,-2298.286494,-1850.514855,13323.706956
230.572645,-229.828649,-592.164754,11547.212695
230.572953,2757.943793,814.226536,10214.842000
230.573261,3140.991542,3478.967927,6365.771101
230.573570,4443.353888,4367.215058,5699.585753
230.573878,5132.839837,4441.235652,5625.565159
230.574186,4290.134789,5255.462188,4293.194464
230.574494,4213.525239,3701.029710,5699.585753
230.574802,3600.648841,3182.885551,5255.462188
230.575110,2068.457845,1554.432478,6809.894666
230.575418,0.000000,-0.000000,8512.368333
230.575726,-842.705048,-1776.494261,11029.068536
230.576035,-2834.553343,-3478.967927,13175.665768
230.576343,-3677.258390,-4367.215058,13767.830521
230.576651,-3447.429741,-4219.173869,14656.077652
230.576959,-2911.162892,-4145.153275,14656.077652
230.577267,-1225.752797,-1924.535449,13027.624579
230.577575,766.095498,-0.000000,10362.883188
230.577883,2451.505594,1628.453072,8734.430116
230.578192,3983.696590,3034.844362,6957.935855
230.578500,5056.230287,4367.215058,5107.421000
230.578808,5132.839837,4367.215058,5255.462188
230.579116,4749.792088,3775.050304,5699.585753
230.579424,3370.820191,2886.803174,6217.729913
230.579732,2298.286494,1776.494261,7254.018232
230.580040,536.266849,-222.061783,9178.553681
230.580348,-1149.143247,-1406.391290,10214.842000
230.580657,-2374.896044,-2442.679609,12287.418637
230.580965,-3294.210641,-3775.050304,13619.789333
230.581273,-3753.867940,-4219.173869,14434.015869
230.581581,-3294.210641,-3923.091493,14582.057057
230.581889,-2911.162892,-3330.926739,13989.892304
230.582197,-612.876398,-1702.473667,12953.603985
230.582505,1072.533697,296.082377,11103.089130
230.582813,2145.067394,1924.535449,8290.306550
230.583122,3524.039291,3182.885551,6883.915261
230.583430,3983.696590,3849.070898,5995.668130
230.583738,4136.915689,3923.091493,5403.503377
230.584046,4443.353888,3627.009116,5255.462188
230.584354,4060.306139,3330.926739,5329.482782
230.584662,2145.067394,2146.597232,5847.626942
230.584970,1149.143247,666.185348,7105.977043
230.585279,0.000000,-370.102971,9622.677246
230.585587,-2068.457845,-2294.638420,11473.192101
230.585895,-2987.772442,-3552.988522,13101.645173
230.586203,-4060.306139,-4367.215058,13989.892304
230.586511,-3907.087040,-4071.132681,14730.098246
230.586819,-2834.553343,-2960.823768,14137.933492
230.587127,-995.924147,-1850.514855,12435.459826
230.587435,1072.533697,518.144159,10881.027347
230.587744,2681.334243,1998.556043,8216.285956
230.588052,3600.648841,3701.029710,6513.812290
230.588360,4826.401637,4071.132681,5995.668130
230.588668,4749.792088,3997.112087,5107.421000
230.588976,4136.915689,3552.988522,5329.482782
230.589284,3677.258390,2368.659014,6439.791695
230.589592,1685.410096,1184.329507,6883.915261
230.589901,306.438199,296.082377,9252.574275
230.590209,-1455.581446,-1628.453072,10955.047942
230.590517,-2834.553343,-2960.823768,12805.562797
230.590825,-3907.087040,-3701.029710,13915.871710
230.591133,-3830.477490,-4071.132681,14582.057057
230.591441,-3677.258390,-3775.050304,15174.221811
230.591749,-2298.286494,-3108.864956,13841.851115
230.592057,-689.485948,-1406.391290,12361.439231
230.592366,1149.143247,222.061783,10362.883188
230.592674,2298.286494,1924.535449,8068.244768
230.592982,3447.429741,3256.906145,6883.915261
230.593290,4443.353888,4293.194464,5551.544565
230.593598,4213.525239,4219.173869,5107.421000
230.593906,3983.696590,3923.091493,4811.338623
230.594214,3370.820191,3478.967927,5329.482782
230.594522,2298.286494,2516.700203,6661.853478
230.594831,1685.410096,888.247130,8216.285956
230.595139,-919.314598,-518.144159,10066.800811
230.595447,-2451.505594,-2368.659014,12361.439231
230.595755,-3217.601092,-3775.050304,14137.933492
230.596063,-3983.696590,-4071.132681,14656.077652
230.596371,-3677.258390,-3997.112087,14582.057057
230.596679,-2451.505594,-2812.782580,13767.830521
230.596988,-689.485948,-592.164754,11917.315666
230.597296,1608.800546,962.267725,10658.965565
230.597604,3370.820191,2516.700203,7698.141797
230.597912,4749.792088,4071.132681,5847.626942
230.598220,4903.011187,3997.112087,5329.482782
230.598528,4903.011187,4145.153275,5255.462188
230.598836,4290.134789,3182.885551,6143.709319
230.599144,2911.162892,2072.576638,6587.832884
230.599453,1455.581446,444.123565,8068.244768
230.599761,0.000000,-666.185348,9992.780217
230.600069,-1685.410096,-2220.617826,11843.295072
230.600377,-2911.162892,-3404.947333,13027.624579
230.600685,-3370.820191,-3997.112087,13915.871710
230.600993,-3600.648841,-3997.112087,14656.077652
230.601301,-3294.210641,-3552.988522,14508.036463
230.601610,-1455.581446,-2368.659014,13249.686362
230.601918,-153.219100,-814.226536,11473.192101
230.602226,1915.238745,518.144159,9474.636058
230.602534,3217.601092,2368.659014,7328.038826
230.602842,3983.696590,3478.967927,6069.688724
230.603150,4060.306139,3997.112087,5551.544565
230.603458,4519.963438,4145.153275,5033.400406
230.603766,3907.087040,3404.947333,4663.297435
230.604075,2604.724693,3108.864956,5033.400406
230.604383,2221.676944,1480.411884,6587.832884
230.604691,612.876398,222.061783,8660.409521
230.604999,-995.924147,-1406.391290,10288.862594
230.605307,-2145.067394,-2738.761985,12287.418637
230.605615,-3294.210641,-3701.029710,13545.768739
230.605923,-3370.820191,-4071.132681,14656.077652
230.606231,-2451.505594,-3330.926739,13915.871710
230.606540,-1225.752797,-1924.535449,12731.542202
230.606848,383.047749,-814.226536,11325.150913
230.607156,1762.019645,1258.350101,9474.636058
230.607464,3524.039291,2368.659014,7254.018232
230.607772,4443.353888,3256.906145,5921.647536
230.608080,4673.182538,3552.988522,5551.544565
230.608388,4749.792088,3997.112087,5699.585753
230.608697,4060.306139,3256.906145,5921.647536
230.609005,2528.115143,2146.597232,7031.956449
230.609313,1302.362347,592.164754,8438.347739
230.609621,-153.219100,-740.205942,9992.780217
230.609929,-1915.238745,-2072.576638,11843.295072
230.610237,-3064.381992,-3330.926739,13397.727550
230.610545,-3447.429741,-4367.215058,14359.995275
230.610853,-3753.867940,-4145.153275,15322.262999
230.611162,-2451.505594,-3627.009116,14730.098246
230.611470,-1991.848295,-2368.659014,13027.624579
230.611778,0.000000,-962.267725,11621.233289
230.612086,1915.238745,814.226536,9400.615463
230.612394,2757.943793,2442.679609,7476.080014
230.612702,3753.867940,3478.967927,6365.771101
230.613010,4213.525239,4219.173869,5107.421000
230.613319,4443.353888,4589.276840,4885.359217
230.613627,4213.525239,3849.070898,4885.359217
230.613935,2528.115143,3330.926739,6069.688724
230.614243,1685.410096,1554.432478,7031.956449
230.614551,-229.828649,-222.061783,9474.636058
230.614859,-1838.629195,-1924.535449,11547.212695
230.615167,-3447.429741,-3330.926739,13101.645173
230.615475,-3983.696590,-3849.070898,14285.974681
230.615784,-3524.039291,-3775.050304,14730.098246
230.616092,-2604.724693,-2442.679609,13989.892304
230.616400,-689.485948,-1332.370696,12287.418637
230.616708,1225.752797,-74.020594,10510.924376
230.617016,2757.943793,1850.514855,8734.430116
230.617324,4060.306139,2886.803174,6883.915261
230.617632,4826.401637,3478.967927,5847.626942
230.617940,4903.011187,3775.050304,5551.544565
230.618249,4213.525239,3701.029710,5181.441594
230.618557,3294.210641,2960.823768,5995.668130
230.618865,2451.505594,1850.514855,7476.080014
230.619173,459.657299,370.102971,8734.430116
230.619481,-766.095498,-962.267725,10510.924376
230.619789,-2145.067394,-2960.823768,12731.542202
230.620097,-3140.991542,-3997.112087,14211.954086
230.620406,-3983.696590,-4663.297435,15248.242405
230.620714,-3600.648841,-4441.235652,15618.345376
230.621022,-2528.115143,-3404.947333,14730.098246
230.621330,-1455.581446,-1702.473667,13175.665768
230.621638,383.047749,-0.000000,11177.109724
230.621946,2145.067394,1924.535449,8216.285956
230.622254,3907.087040,3404.947333,6513.812290
230.622562,3983.696590,3775.050304,5625.565159
230.622871,4519.963438,4737.318029,4737.318029
230.623179,4596.572988,4515.256246,4959.379811
230.623487,3677.258390,3997.112087,4737.318029
230.623795,2451.505594,2368.659014,5995.668130
230.624103,689.485948,1110.308913,8068.244768
230.624411,-306.438199,-518.144159,9844.739029
230.624719,-1991.848295,-2368.659014,11547.212695
230.625028,-2911.162892,-3701.029710,13471.748144
230.625336,-3677.258390,-3997.112087,14285.974681
230.625644,-3447.429741,-3849.070898,14211.954086
230.625952,-1915.238745,-2886.803174,12953.603985
230.626260,0.000000,-1406.391290,11177.109724
230.626568,1225.752797,-74.020594,9474.636058
230.626876,2987.772442,2072.576638,7624.121203
230.627184,4136.915689,3034.844362,6217.729913
230.627493,4443.353888,3552.988522,5551.544565
230.627801,4366.744339,3775.050304,5403.503377
230.628109,4290.134789,3552.988522,5995.668130
230.628417,2451.505594,2516.700203,6217.729913
230.628725,1762.019645,1702.473667,7476.080014
230.629033,153.219100,-296.082377,8882.471304
230.629341,-1225.752797,-1924.535449,11325.150913
230.629649,-2451.505594,-3775.050304,13249.686362
230.629958,-3524.039291,-4737.318029,14730.098246
230.630266,-3830.477490,-5255.462188,15026.180623
230.630574,-3294.210641,-4737.318029,15026.180623
230.630882,-1225.752797,-3330.926739,13841.851115
230.631190,-995.924147,-1110.308913,11843.295072
230.631498,1762.019645,222.061783,9622.677246
230.631806,3294.210641,2072.576638,7105.977043
230.632115,4290.134789,3478.967927,5625.565159
230.632423,4979.620737,4293.194464,5329.482782
230.632731,5132.839837,4589.276840,4811.338623
230.633039,4749.792088,5033.400406,4589.276840
230.633347,3830.477490,3701.029710,4885.359217
230.633655,2604.724693,2368.659014,6587.832884
230.633963,842.705048,1406.391290,8068.244768
230.634271,-689.485948,-518.144159,10288.862594
230.634580,-2451.505594,-2590.720797,12805.562797
230.634888,-3600.648841,-3627.009116,14063.912898
230.635196,-4060.306139,-3775.050304,14730.098246
230.635504,-3370.820191,-3701.029710,14063.912898
230.635812,-1685.410096,-1998.556043,13249.686362
230.636120,0.000000,-962.267725,11473.192101
230.636428,1762.019645,666.185348,9622.677246
230.636737,3217.601092,2442.679609,7994.224174
230.637045,4290.134789,3256.906145,6365.771101
230.637353,4673.182538,4071.132681,5625.565159
230.637661,4443.353888,4589.276840,5551.544565
230.637969,3983.696590,3775.050304,5773.606348
230.638277,3140.991542,3256.906145,6735.874072
230.638585,1225.752797,1776.494261,8068.244768
230.638893,-306.438199,-0.000000,9770.718434
230.639202,-1915.238745,-2072.576638,12435.459826
230.639510,-3447.429741,-3923.091493,14359.995275
230.639818,-4290.134789,-4589.276840,15396.283594
230.640126,-4443.353888,-4811.338623,15618.345376
230.640434,-3447.429741,-4441.235652,14730.098246
230.640742,-1608.800546,-2664.741391,13693.809927
230.641050,-306.438199,-1036.288319,11251.130318
230.641358,1915.238745,518.144159,9252.574275
230.641667,3217.601092,2368.659014,6957.935855
230.641975,4366.744339,3552.988522,5773.606348
230.642283,4903.011187,4515.256246,4885.359217
230.642591,4596.572988,4737.318029,4219.173869
230.642899,4366.744339,4663.297435,4589.276840
230.643207,3524.039291,3627.009116,4737.318029
230.643515,1991.848295,2368.659014,6883.915261
230.643824,229.828649,518.144159,9104.533087
230.644132,-1762.019645,-1332.370696,11251.130318
230.644440,-3370.820191,-3256.906145,13249.686362
230.644748,-4596.572988,-4367.215058,14434.015869
230.645056,-4366.744339,-4219.173869,14952.160028
230.645364,-3217.601092,-3701.029710,13989.892304
230.645672,-1532.190996,-2220.617826,12953.603985
230.645980,689.485948,-814.226536,10732.986159
230.646289,1915.238745,1554.432478,8808.450710
230.646597,3677.258390,2664.741391,6735.874072
230.646905,4290.134789,3627.009116,5477.523971
230.647213,4903.011187,3923.091493,5625.565159
230.647521,4290.134789,4219.173869,5773.606348
230.647829,3600.648841,3627.009116,5921.647536
230.648137,2068.457845,2220.617826,6957.935855
230.648445,612.876398,962.267725,8586.388927
230.648754,-1455.581446,-1554.432478,10584.944971
230.649062,-2834.553343,-3330.926739,12731.542202
230.649370,-4213.525239,-4441.235652,13915.871710
230.649678,-4673.182538,-5181.441594,15322.262999
230.649986,-3907.087040,-4885.359217,15396.283594
230.650294,-2451.505594,-3775.050304,14211.954086
230.650602,-766.095498,-2516.700203,12213.398043
230.650911,995.924147,-370.102971,10140.821405
230.651219,2834.553343,1850.514855,7624.121203
230.651527,4290.134789,2886.803174,6217.729913
230.651835,5209.449386,4737.318029,4959.379811
230.652143,5362.668486,4737.318029,4367.215058
230.652451,5132.839837,4515.256246,4219.173869
230.652759,3983.696590,4219.173869,4737.318029
230.653067,3294.210641,3034.844362,6587.832884
230.653376,1072.533697,962.267725,7994.224174
230.653684,-919.314598,-74.020594,9992.780217
230.653992,-2528.115143,-2368.659014,12287.418637
230.654300,-3600.648841,-3478.967927,13767.830521
230.654608,-4136.915689,-3775.050304,14582.057057
230.654916,-2911.162892,-3330.926739,15026.180623
230.655224,-1455.581446,-2812.782580,13619.789333
230.655533,-612.876398,-1628.453072,12361.439231
230.655841,1532.190996,592.164754,10881.027347
230.656149,2987.772442,1924.535449,8364.327145
230.656457,3907.087040,3256.906145,6291.750507
230.656765,4903.011187,4219.173869,6069.688724
230.657073,5132.839837,4515.256246,5477.523971
230.657381,4749.792088,3997.112087,5107.421000
230.657689,3294.210641,3182.885551,6069.688724
230.657998,2145.067394,1776.494261,7105.977043
230.658306,153.219100,-148.041188,9400.615463
230.658614,-1532.190996,-1776.494261,11621.233289
230.658922,-2911.162892,-3701.029710,13619.789333
230.659230,-4060.306139,-4737.318029,14434.015869
230.659538,-4366.744339,-4737.318029,15322.262999
230.659846,-3524.039291,-4589.276840,15322.262999
230.660155,-2221.676944,-3478.967927,13323.706956
230.660463,0.000000,-1406.391290,12139.377449
230.660771,1762.019645,296.082377,9548.656652
230.661079,3294.210641,2146.597232,7402.059420
230.661387,4290.134789,3330.926739,6217.729913
230.661695,4903.011187,4441.235652,4737.318029
230.662003,5286.058936,4885.359217,4145.153275
230.662311,4519.963438,4737.318029,4441.235652
230.662620,3677.258390,3775.050304,5255.462188
230.662928,2451.505594,2368.659014,6587.832884
230.663236,383.047749,518.144159,8586.388927
230.663544,-1685.410096,-1332.370696,10881.027347
230.663852,-3064.381992,-2738.761985,12583.501014
230.664160,-3907.087040,-3478.967927,14137.933492
230.664468,-4290.134789,-4145.153275,14285.974681
230.664777,-2604.724693,-3552.988522,14285.974681
230.665085,-1378.971896,-2516.700203,12731.542202
230.665393,229.828649,-1480.411884,11621.233289
230.665701,1915.238745,740.205942,9474.636058
230.666009,3294.210641,2516.700203,7624.121203
230.666317,4596.572988,3478.967927,5995.668130
230.666625,4903.011187,4219.173869,5403.503377
230.666934,4673.182538,4515.256246,5107.421000
230.667242,4366.744339,3552.988522,5551.544565
230.667550,2911.162892,2960.823768,6587.832884
230.667858,1149.143247,1184.329507,8364.327145
230.668166,76.609550,-814.226536,10584.944971
230.668474,-2374.896044,-2442.679609,12213.398043
230.668782,-3447.429741,-3701.029710,13767.830521
230.669091,-3983.696590,-4737.318029,14952.160028
230.669399,-4366.744339,-4885.359217,15470.304188
230.669707,-3064.381992,-4071.132681,15026.180623
230.670015,-1838.629195,-2738.761985,13175.665768
230.670323,536.266849,-592.164754,11251.130318
230.670631,2681.334243,740.205942,9030.512492
230.670939,3983.696590,2886.803174,6957.935855
230.671248,4749.792088,4071.132681,5551.544565
230.671556,5209.449386,4737.318029,4367.215058
230.671864,4979.620737,5033.400406,4367.215058
230.672172,4443.353888,4367.215058,4663.297435
230.672480,2451.505594,3478.967927,5699.585753
230.672788,995.924147,1776.494261,7698.141797
230.673096,0.000000,-444.123565,9770.718434
230.673405,-2374.896044,-1628.453072,11917.315666
230.673713,-3600.648841,-3034.844362,13471.748144
230.674021,-4596.572988,-3997.112087,14434.015869
230.674329,-4213.525239,-4145.153275,15174.221811
230.674637,-3294.210641,-3849.070898,14137.933492
230.674945,-1072.533697,-1924.535449,12657.521608
230.675253,536.266849,-222.061783,11103.089130
230.675561,2221.676944,1332.370696,9030.512492
230.675870,3677.258390,3182.885551,6957.935855
230.676178,4903.011187,4219.173869,5551.544565
230.676486,4903.011187,4589.276840,5329.482782
230.676794,4749.792088,4663.297435,4885.359217
230.677102,4290.134789,3627.009116,5255.462188
230.677410,2145.067394,2220.617826,6735.874072
230.677718,1225.752797,518.144159,8808.450710
230.678027,-536.266849,-1702.473667,10584.944971
230.678335,-2298.286494,-3182.885551,12731.542202
230.678643,-3830.477490,-4367.215058,14211.954086
230.678951,-4136.915689,-5255.462188,15248.242405
230.679259,-4136.915689,-4959.379811,15026.180623
230.679567,-2681.334243,-3923.091493,14137.933492
230.679875,-383.047749,-2294.638420,12583.501014
230.680184,995.924147,-0.000000,10140.821405
230.680492,3064.381992,1628.453072,7698.141797
230.680800,4366.744339,3182.885551,5699.585753
230.681108,5132.839837,3923.091493,4885.359217
230.681416,5056.230287,4071.132681,4737.318029
230.681724,4673.182538,4441.235652,4441.235652
230.682032,3524.039291,3478.967927,5403.503377
230.682341,2298.286494,2368.659014,6291.750507
230.682649,919.314598,962.267725,8364.327145
230.682957,-229.828649,-962.267725,9400.615463
230.683265,-2068.457845,-2220.617826,11621.233289
230.683573,-3140.991542,-3256.906145,13249.686362
230.683881,-3677.258390,-3775.050304,13841.851115
230.684189,-3217.601092,-3775.050304,14211.954086
230.684498,-1762.019645,-2886.803174,14285.974681
230.684806,-995.924147,-1628.453072,11843.295072
230.685114,1378.971896,-0.000000,9918.759623
230.685422,3294.210641,1924.535449,8216.285956
230.685730,3907.087040,3923.091493,6069.688724
230.686038,4903.011187,4219.173869,5329.482782
230.686346,4673.182538,4737.318029,4885.359217
230.686655,3983.696590,4145.153275,5847.626942
230.686963,2528.115143,3552.988522,6735.874072
230.687271,1378.971896,1850.514855,7994.224174
230.687579,383.047749,-444.123565,10362.883188
230.687887,-2374.896044,-2072.576638,11399.171507
230.688195,-3677.258390,-3997.112087,14063.912898
230.688503,-4673.182538,-4811.338623,15470.304188
230.688811,-4903.011187,-5477.523971,16136.489536
230.689120,-4290.134789,-4737.318029,15470.304188
230.689428,-1685.410096,-3256.906145,13989.892304
230.689736,229.828649,-1924.535449,11843.295072
230.690044,2298.286494,296.082377,8956.491898
230.690352,4366.744339,2590.720797,6809.894666
230.690660,5439.278036,3997.112087,5255.462188
230.690968,5592.497135,4663.297435,4441.235652
230.691277,5286.058936,4737.318029,4441.235652
230.691585,4596.572988,4071.132681,4663.297435
230.691893,3064.381992,3256.906145,5773.606348
230.692201,2145.067394,2368.659014,6883.915261
230.692509,612.876398,888.247130,8512.368333
230.692817,-1072.533697,-962.267725,10658.965565
230.693125,-2681.334243,-2072.576638,12435.459826
230.693434,-3370.820191,-3182.885551,13619.789333
230.693742,-3907.087040,-3701.029710,14656.077652
230.694050,-3064.381992,-3330.926739,14359.995275
230.694358,-2068.457845,-2368.659014,13767.830521
230.694666,0.000000,-1110.308913,12213.398043
230.694974,1762.019645,888.247130,9622.677246
230.695282,3064.381992,2368.659014,7624.121203
230.695591,4136.915689,3923.091493,6439.791695
230.695899,4366.744339,4367.215058,5551.544565
230.696207,4519.963438,4441.235652,5477.523971
230.696515,3677.258390,3923.091493,5847.626942
230.696823,2451.505594,2442.679609,6957.935855
230.697131,766.095498,1036.288319,8586.388927
230.697439,-459.657299,-814.226536,10362.883188
230.697748,-2451.505594,-2886.803174,12065.356855
230.698056,-4060.306139,-4145.153275,13989.892304
230.698364,-4596.572988,-4885.359217,15100.201217
230.698672,-4443.353888,-5033.400406,15248.242405
230.698980,-3294.210641,-3775.050304,14211.954086
230.699288,-1762.019645,-2664.741391,12361.439231
230.699596,306.438199,-592.164754,10807.006753
230.699905,2451.505594,1110.308913,8290.306550
230.700213,4443.353888,2738.761985,6217.729913
230.700521,4826.401637,3775.050304,5181.441594
230.700829,5132.839837,4219.173869,4589.276840
230.701137,4749.792088,4219.173869,4515.256246
230.701445,4060.306139,3849.070898,4737.318029
230.701753,2298.286494,2442.679609,6069.688724
230.702061,1455.581446,888.247130,7698.141797
230.702370,-229.828649,-518.144159,9474.636058
230.702678,-1762.019645,-1628.453072,11621.233289
230.702986,-2911.162892,-3034.844362,12879.583391
230.703294,-3753.867940,-3552.988522,13841.851115
230.703602,-3600.648841,-3849.070898,14582.057057
230.703910,-2068.457845,-3034.844362,13619.789333
230.704218,-1072.533697,-1332.370696,12657.521608
230.704527,383.047749,296.082377,11029.068536
230.704835,3140.991542,814.226536,9400.615463
230.705143,2987.772442,3182.885551,6365.771101
230.705451,4290.134789,3701.029710,5921.647536
230.705759,4979.620737,4219.173869,5773.606348
230.706067,4443.353888,4737.318029,4959.379811
230.706375,4060.306139,2886.803174,6513.812290
230.706684,2528.115143,2368.659014,7179.997637
230.706992,1149.143247,-0.000000,9326.594869
230.707300,-689.485948,-1258.350101,10658.965565
230.707608,-2451.505594,-3182.885551,13175.665768
230.707916,-4366.744339,-4515.256246,14508.036463
230.708224,-4519.963438,-4811.338623,15322.262999
230.708532,-3983.696590,-4145.153275,15248.242405
230.708841,-2451.505594,-2812.782580,13915.871710
230.709149,-229.828649,-1406.391290,12583.501014
230.709457,995.924147,-0.000000,9696.697840
230.709765,2987.772442,2294.638420,7846.182985
230.710073,4290.134789,2886.803174,6735.874072
230.710381,4596.572988,3997.112087,5107.421000
230.710689,4443.353888,3997.112087,5181.441594
230.710998,3753.867940,4071.132681,4959.379811
230.711306,3677.258390,3034.844362,5181.441594
230.711614,1915.238745,2220.617826,6883.915261
230.711922,459.657299,888.247130,8438.347739
230.712230,-995.924147,-592.164754,9918.759623
230.712538,-2221.676944,-1776.494261,11769.274478
230.712846,-2911.162892,-3256.906145,13249.686362
230.713155,-3370.820191,-3404.947333,13989.892304
230.713463,-2834.553343,-3478.967927,14508.036463
230.713771,-1685.410096,-2220.617826,13397.727550
230.714079,0.000000,-1110.308913,11547.212695
230.714387,1685.410096,-0.000000,9918.759623
230.714695,2757.943793,1702.473667,8290.306550
230.715003,4136.915689,2812.782580,7105.977043
230.715311,4290.134789,3701.029710,5995.668130
230.715620,4826.401637,4145.153275,5477.523971
230.715928,3983.696590,3997.112087,5329.482782
230.716236,2911.162892,3034.844362,6957.935855
230.716544,1838.629195,1850.514855,7920.203579
230.716852,459.657299,-0.000000,9474.636058
230.717160,-1915.238745,-1850.514855,11843.295072
230.717468,-3140.991542,-3182.885551,13693.809927
230.717777,-4366.744339,-4219.173869,14508.036463
230.718085,-4519.963438,-4441.235652,15618.345376
230.718393,-3677.258390,-3627.009116,14952.160028
230.718701,-2374.896044,-2368.659014,13471.748144
230.719009,306.438199,-962.267725,12213.398043
230.719317,2451.505594,-0.000000,8956.491898
230.719625,2987.772442,2294.638420,7105.977043
230.719934,4519.963438,2442.679609,6735.874072
230.720242,4903.011187,3627.009116,4885.359217
230.720550,4366.744339,3701.029710,4885.359217
230.720858,4060.306139,3552.988522,5033.400406
230.721166,3217.601092,2516.700203,5699.585753
230.721474,2145.067394,1998.556043,7031.956449
230.721782,229.828649,740.205942,8142.265362
230.722091,-612.876398,-592.164754,10140.821405
230.722399,-2451.505594,-2368.659014,11843.295072
230.722707,-3294.210641,-3256.906145,13693.809927
230.723015,-3447.429741,-3775.050304,13989.892304
230.723323,-3140.991542,-3404.947333,13989.892304
230.723631,-2221.676944,-2220.617826,13323.706956
230.723939,0.000000,-1036.288319,11399.171507
230.724248,1149.143247,444.123565,10288.862594
230.724556,2681.334243,1850.514855,7920.203579
230.724864,4060.306139,3182.885551,6291.750507
230.725172,4290.134789,3552.988522,5699.585753
230.725480,4290.134789,4071.132681,5181.441594
230.725788,3907.087040,3182.885551,6143.709319
230.726096,2451.505594,2368.659014,6883.915261
230.726405,1072.533697,666.185348,7846.182985
230.726713,0.000000,-0.000000,9918.759623
230.727021,-2374.896044,-2146.597232,12139.377449
230.727329,-3447.429741,-3478.967927,14063.912898
230.727637,-4290.134789,-3775.050304,14582.057057
230.727945,-3830.477490,-3923.091493,15100.201217
230.728253,-3064.381992,-3034.844362,14137.933492
230.728562,-1455.581446,-1850.514855,12879.583391
230.728870,612.876398,-444.123565,11177.109724
230.729178,2451.505594,1110.308913,9326.594869
230.729486,3370.820191,2442.679609,6809.894666
230.729794,4673.182538,2960.823768,6143.709319
230.730102,4519.963438,3627.009116,5107.421000
230.730410,4290.134789,3701.029710,4663.297435
230.730718,4290.134789,3404.947333,5847.626942
230.731027,2757.943793,2516.700203,6365.771101
230.731335,1072.533697,1184.329507,7624.121203
230.731643,0.000000,-222.061783,9326.594869
230.731951,-1532.190996,-1406.391290,10881.027347
230.732259,-2451.505594,-2368.659014,12361.439231
230.732567,-2987.772442,-3478.967927,13915.871710
230.732875,-3447.429741,-3775.050304,14285.974681
230.733184,-2451.505594,-3034.844362,13989.892304
230.733492,-919.314598,-1702.473667,12509.480420
230.733800,612.876398,-222.061783,11029.068536
230.734108,2298.286494,1554.432478,9326.594869
230.734416,4136.915689,2960.823768,7328.038826
230.734724,4979.620737,3923.091493,5551.544565
230.735032,5132.839837,3997.112087,5329.482782
230.735341,5132.839837,4219.173869,5033.400406
230.735649,3983.696590,3330.926739,5625.565159
230.735957,2451.505594,1924.535449,7105.977043
230.736265,383.047749,666.185348,8956.491898
230.736573,-459.657299,-1554.432478,11103.089130
230.736881,-2604.724693,-2664.741391,12879.583391
230.737189,-3830.477490,-3775.050304,13915.871710
230.737498,-4290.134789,-4219.173869,15100.201217
230.737806,-3677.258390,-3849.070898,15174.221811
230.738114,-2451.505594,-2812.782580,14656.077652
230.738422,-766.095498,-1628.453072,12139.377449
230.738730,995.924147,-222.061783,10214.842000
230.739038,2911.162892,1036.288319,7846.182985
230.739346,3524.039291,2738.761985,6439.791695
230.739655,4596.572988,3256.906145,5995.668130
230.739963,4290.134789,3997.112087,4959.379811
230.740271,3983.696590,3849.070898,5107.421000
230.740579,3677.258390,3034.844362,5477.523971
230.740887,2757.943793,2516.700203,6513.812290
230.741195,1302.362347,1110.308913,7476.080014
230.741503,0.000000,-74.020594,9178.553681
230.741812,-1608.800546,-1702.473667,11399.171507
230.742120,-2911.162892,-3108.864956,13101.645173
230.742428,-3907.087040,-3849.070898,14434.015869
230.742736,-3524.039291,-3923.091493,14952.160028
230.743044,-2604.724693,-3108.864956,14211.954086
230.743352,-1149.143247,-1702.473667,12435.459826
230.743660,1378.971896,-148.041188,11029.068536
230.743968,3140.991542,1628.453072,8512.368333
230.744277,3370.820191,3182.885551,6291.750507
230.744585,4596.572988,3627.009116,5773.606348
230.744893,5132.839837,4293.194464,5551.544565
230.745201,4366.744339,4219.173869,5403.503377
230.745509,3600.648841,2886.803174,6143.709319
230.745817,1915.238745,1924.535449,7328.038826
230.746125,-229.828649,-0.000000,9252.574275
230.746434,-1838.629195,-1628.453072,10732.986159
230.746742,-3217.601092,-2812.782580,13471.748144
230.747050,-4749.792088,-4071.132681,14582.057057
230.747358,-4903.011187,-4293.194464,15174.221811
230.747666,-3753.867940,-3701.029710,14878.139434
230.747974,-2681.334243,-2812.782580,13915.871710
230.748282,-459.657299,-1924.535449,11769.274478
230.748591,1685.410096,-0.000000,9992.780217
230.748899,2757.943793,1776.494261,8142.265362
230.749207,3907.087040,2738.761985,6069.688724
230.749515,4290.134789,3404.947333,5255.462188
230.749823,4366.744339,3923.091493,5181.441594
230.750131,3753.867940,3627.009116,4885.359217
230.750439,3217.601092,3034.844362,5847.626942
230.750748,1532.190996,2072.576638,6291.750507
230.751056,383.047749,740.205942,7846.182985
230.751364,-306.438199,-888.247130,9992.780217
230.751672,-1991.848295,-2220.617826,11843.295072
230.751980,-2911.162892,-3627.009116,13545.768739
230.752288,-3600.648841,-4071.132681,14285.974681
230.752596,-3294.210641,-3923.091493,14730.098246
230.752905,-2374.896044,-3256.906145,13249.686362
230.753213,153.219100,-962.267725,12139.377449
230.753521,1532.190996,-0.000000,9696.697840
230.753829,3753.867940,1776.494261,7328.038826
230.754137,4749.792088,3330.926739,5921.647536
230.754445,5439.278036,4145.153275,4959.379811
230.754753,5286.058936,4145.153275,4959.379811
230.755062,4826.401637,3923.091493,5181.441594
230.755370,3370.820191,2812.782580,6439.791695
230.755678,1685.410096,1776.494261,7402.059420
230.755986,306.438199,-370.102971,9326.594869
230.756294,-1532.190996,-1924.535449,11843.295072
230.756602,-3064.381992,-3182.885551,13175.665768
230.756910,-3830.477490,-3775.050304,14656.077652
230.757218,-3830.477490,-3849.070898,15026.180623
230.757527,-2834.553343,-3404.947333,14434.015869
230.757835,-1532.190996,-2368.659014,13027.624579
230.758143,76.609550,-666.185348,11843.295072
230.758451,2145.067394,666.185348,9030.512492
230.758759,3064.381992,2220.617826,7328.038826
230.759067,4213.525239,2812.782580,6735.874072
230.759375,3907.087040,3627.009116,5477.523971
230.759683,3983.696590,3775.050304,5181.441594
230.759991,3830.477490,3478.967927,5477.523971
230.760299,2604.724693,3034.844362,5477.523971
230.760607,919.314598,2220.617826,6957.935855
230.760915,0.000000,222.061783,8364.327145
230.761223,-1225.752797,-1850.514855,11029.068536
230.761531,-2528.115143,-3034.844362,12657.521608
230.761839,-3370.820191,-4145.153275,13767.830521
230.762147,-3907.087040,-3923.091493,14211.954086
230.762455,-2681.334243,-3478.967927,14656.077652
230.762763,-1378.971896,-2072.576638,12583.501014
230.763071,0.000000,-370.102971,10436.903782
230.763379,2374.896044,666.185348,9178.553681
230.763687,4213.525239,2960.823768,6735.874072
230.763995,4290.134789,3330.926739,5921.647536
230.764303,4826.401637,3849.070898,5181.441594
230.764611,4903.011187,4441.235652,5181.441594
230.764919,3907.087040,3552.988522,5921.647536
230.765227,2451.505594,2516.700203,6809.894666
230.765536,459.657299,814.226536,8882.471304
230.765844,-536.266849,-814.226536,11251.130318
230.766152,-3140.991542,-2368.659014,13545.768739
230.766460,-4060.306139,-3552.988522,14434.015869
230.766768,-4749.792088,-4145.153275,14952.160028
230.767076,-4136.915689,-3849.070898,15248.242405
230.767384,-3140.991542,-3034.844362,14285.974681
230.767692,-1225.752797,-1776.494261,13397.727550
230.768000,229.828649,-370.102971,10658.965565
230.768308,2221.676944,1554.432478,8734.430116
230.768616,2757.943793,2368.659014,7402.059420
230.768924,3983.696590,3478.967927,5995.668130
230.769232,4136.915689,4219.173869,4959.379811
230.769540,4443.353888,4589.276840,4737.318029
230.769848,3753.867940,4367.215058,4885.359217
230.770156,2757.943793,3034.844362,5773.606348
230.770464,1991.848295,1924.535449,7624.121203
230.770772,306.438199,-518.144159,9548.656652
230.771080,-1685.410096,-1924.535449,11325.150913
230.771388,-2911.162892,-3552.988522,13027.624579
230.771696,-3600.648841,-4515.256246,14285.974681
230.772004,-3753.867940,-4219.173869,14656.077652
230.772312,-2681.334243,-3256.906145,13841.851115
230.772620,-919.314598,-2220.617826,12435.459826
230.772928,1149.143247,-0.000000,10807.006753
230.773236,3140.991542,1332.370696,8660.409521
230.773544,4826.401637,2886.803174,6587.832884
230.773852,4903.011187,4145.153275,5255.462188
230.774160,4903.011187,4441.235652,4885.359217
230.774468,5132.839837,4515.256246,5181.441594
230.774776,3600.648841,3108.864956,5921.647536
230.775084,1378.971896,2368.659014,7328.038826
230.775392,-153.219100,-74.020594,9696.697840
230.775700,-2451.505594,-1628.453072,11991.336260
230.776008,-3983.696590,-3256.906145,13767.830521
230.776316,-4136.915689,-4071.132681,14508.036463
230.776624,-4443.353888,-4219.173869,15100.201217
230.776932,-3677.258390,-3997.112087,14730.098246
230.777240,-1838.629195,-2368.659014,13471.748144
230.777548,0.000000,-1258.350101,11769.274478
230.777857,1915.238745,-0.000000,9474.636058
230.778165,3064.381992,1702.473667,7105.977043
230.778473,3600.648841,2812.782580,6587.832884
230.778781,4290.134789,3849.070898,5477.523971
230.779089,4213.525239,4589.276840,4811.338623
230.779397,4213.525239,4367.215058,5181.441594
230.779705,3447.429741,3849.070898,5181.441594
230.780013,2068.457845,2590.720797,6217.729913
230.780321,995.924147,1036.288319,8068.244768
230.780629,-689.485948,-1036.288319,9696.697840
230.780937,-2145.067394,-2664.741391,12139.377449
230.781245,-3294.210641,-4145.153275,13915.871710
230.781553,-3907.087040,-4441.235652,14730.098246
230.781861,-3294.210641,-4367.215058,14952.160028
230.782169,-1915.238745,-2886.803174,13249.686362
230.782477,0.000000,-1258.350101,11695.253884
230.782785,2145.067394,592.164754,9918.759623
230.783093,3677.258390,1702.473667,7550.100608
230.783401,4749.792088,3849.070898,5773.606348
230.783709,5209.449386,4293.194464,5181.441594
230.784017,5439.278036,4589.276840,5033.400406
230.784325,4673.182538,4293.194464,5033.400406
230.784633,3140.991542,2590.720797,7105.977043
230.784941,1149.143247,1332.370696,7920.203579
230.785249,-919.314598,-666.185348,10214.842000
230.785557,-2451.505594,-2368.659014,12731.542202
230.785865,-4136.915689,-3330.926739,13915.871710
230.786173,-4443.353888,-4145.153275,15248.242405
230.786481,-4596.572988,-4219.173869,15100.201217
230.786789,-3140.991542,-3552.988522,14656.077652
230.787097,-995.924147,-2442.679609,12805.562797
230.787405,0.000000,-1036.288319,11621.233289
230.787713,1838.629195,592.164754,8956.491898
230.788021,3370.820191,2368.659014,7402.059420
230.788329,3753.867940,3182.885551,6365.771101
230.788637,4519.963438,4071.132681,5107.421000
230.788945,4903.011187,4885.359217,4663.297435
230.789253,4290.134789,4663.297435,4737.318029
230.789561,3370.820191,3775.050304,5181.441594
230.789869,2911.162892,2368.659014,6661.853478
230.790178,995.924147,444.123565,8882.471304
230.790486,-995.924147,-1480.411884,10881.027347
230.790794,-3294.210641,-3256.906145,13101.645173
230.791102,-3907.087040,-4589.276840,14508.036463
230.791410,-4060.306139,-4737.318029,15322.262999
230.791718,-3600.648841,-3923.091493,14656.077652
230.792026,-1532.190996,-2812.782580,13249.686362
230.792334,0.000000,-666.185348,11473.192101
230.792642,3064.381992,1184.329507,9104.533087
230.792950,4443.353888,2368.659014,6735.874072
230.793258,5362.668486,4441.235652,5107.421000
230.793566,5669.106685,4589.276840,4663.297435
230.793874,5515.887586,4737.318029,4589.276840
230.794182,4290.134789,3775.050304,5625.565159
230.794490,2374.896044,2368.659014,7179.997637
230.794798,612.876398,370.102971,9104.533087
230.795106,-1762.019645,-1110.308913,11399.171507
230.795414,-3447.429741,-2960.823768,13767.830521
230.795722,-4290.134789,-4145.153275,14434.015869
230.796030,-4673.182538,-4367.215058,14730.098246
230.796338,-3753.867940,-4145.153275,15026.180623
230.796646,-2374.896044,-3256.906145,13989.892304
230.796954,-459.657299,-1776.494261,12213.398043
230.797262,1225.752797,-370.102971,10510.924376
230.797570,3140.991542,1406.391290,7772.162391
230.797878,4060.306139,2294.638420,6513.812290
230.798186,4673.182538,3849.070898,5477.523971
230.798494,4903.011187,4737.318029,4589.276840
230.798802,4519.963438,4737.318029,4515.256246
230.799110,3983.696590,4219.173869,4959.379811
230.799418,2757.943793,2812.782580,5625.565159
230.799726,1072.533697,1184.329507,7254.018232
230.800034,-229.828649,-814.226536,10066.800811
230.800342,-1991.848295,-2590.720797,11843.295072
230.800650,-3447.429741,-3775.050304,13693.809927
230.800958,-4290.134789,-4145.153275,14582.057057
230.801266,-3907.087040,-4145.153275,14656.077652
230.801574,-2604.724693,-2960.823768,13767.830521
230.801882,-919.314598,-1628.453072,12065.356855
230.802190,1149.143247,148.041188,10732.986159
230.802499,3447.429741,1924.535449,8438.347739
230.802807,4749.792088,3108.864956,6069.688724
230.803115,5209.449386,3997.112087,5551.544565
230.803423,5362.668486,4293.194464,5255.462188
230.803731,4443.353888,4071.132681,5699.585753
230.804039,2757.943793,2664.741391,6809.894666
230.804347,1838.629195,1850.514855,8068.244768
230.804655,153.219100,-296.082377,9400.615463
230.804963,-1608.800546,-1554.432478,11547.212695
230.805271,-2987.772442,-3256.906145,13027.624579
230.805579,-3753.867940,-3775.050304,14137.933492
230.805887,-3983.696590,-3849.070898,14508.036463
230.806195,-3294.210641,-3701.029710,14508.036463
230.806503,-2221.676944,-2590.720797,13619.789333
230.806811,-536.266849,-1702.473667,11991.336260
230.807119,919.314598,296.082377,10362.883188
230.807427,3217.601092,1406.391290,7846.182985
230.807735,2987.772442,2738.761985,6587.832884
230.808043,3830.477490,3552.988522,6069.688724
230.808351,4290.134789,3997.112087,5033.400406
230.808659,3830.477490,4293.194464,4589.276840
230.808967,3370.820191,3849.070898,5403.503377
230.809275,1991.848295,2442.679609,5921.647536
230.809583,995.924147,888.247130,7476.080014
230.809891,-689.485948,-518.144159,10362.883188
230.810199,-2221.676944,-2516.700203,12065.356855
230.810507,-3524.039291,-3775.050304,13471.748144
230.810815,-3983.696590,-4293.194464,14730.098246
230.811123,-3524.039291,-3701.029710,14582.057057
230.811431,-2374.896044,-2812.782580,13471.748144
230.811739,0.000000,-1036.288319,12065.356855
230.812047,2145.067394,296.082377,10066.800811
230.812355,4443.353888,1702.473667,7328.038826
230.812663,4519.963438,3330.926739,6069.688724
230.812971,5515.887586,3627.009116,5033.400406
230.813279,5362.668486,3701.029710,4959.379811
230.813587,4596.572988,3552.988522,5403.503377
230.813895,3140.991542,2886.803174,6365.771101
230.814203,1838.629195,1332.370696,7994.224174
230.814511,-459.657299,-0.000000,9770.718434
230.814820,-2528.115143,-1776.494261,11843.295072
230.815128,-3600.648841,-3404.947333,13915.871710
230.815436,-4366.744339,-4071.132681,14804.118840
230.815744,-4213.525239,-3923.091493,15322.262999
230.816052,-3064.381992,-3330.926739,14582.057057
230.816360,-1302.362347,-1998.556043,13101.645173
230.816668,229.828649,-666.185348,11103.089130
230.816976,2604.724693,1110.308913,9178.553681
230.817284,3064.381992,2368.659014,7550.100608
230.817592,3983.696590,3552.988522,6809.894666
230.817900,4213.525239,4071.132681,5699.585753
230.818208,3983.696590,4589.276840,5107.421000
230.818516,3370.820191,4071.132681,5625.565159
230.818824,2604.724693,3627.009116,5255.462188
230.819132,1455.581446,2146.597232,7031.956449
230.819440,306.438199,666.185348,9104.533087
230.819748,-1532.190996,-1406.391290,11399.171507
230.820056,-3217.601092,-3330.926739,13175.665768
230.820364,-4519.963438,-4293.194464,14582.057057
230.820672,-4136.915689,-4515.256246,15174.221811
230.820980,-3294.210641,-3552.988522,14211.954086
230.821288,-1455.581446,-2368.659014,12879.583391
230.821596,995.924147,-444.123565,10807.006753
230.821904,3217.601092,1184.329507,8956.491898
230.822212,4903.011187,2294.638420,6957.935855
230.822520,4749.792088,3330.926739,5921.647536
230.822828,5439.278036,3849.070898,5403.503377
230.823136,4979.620737,3923.091493,4885.359217
230.823444,3907.087040,3478.967927,5921.647536
230.823752,2451.505594,2738.761985,7105.977043
230.824060,919.314598,1036.288319,8512.368333
230.824368,-919.314598,-666.185348,10436.903782
230.824676,-2145.067394,-2368.659014,12213.398043
230.824984,-3753.867940,-3552.988522,14211.954086
230.825292,-4443.353888,-4293.194464,14952.160028
230.825600,-3753.867940,-4071.132681,15100.201217
230.825908,-2757.943793,-2960.823768,14211.954086
230.826216,-612.876398,-1776.494261,12657.521608
230.826524,842.705048,-222.061783,9918.759623
230.826832,3294.210641,1332.370696,7550.100608
230.827141,3677.258390,2664.741391,7105.977043
230.827449,4596.572988,3404.947333,6069.688724
230.827757,4443.353888,4219.173869,4959.379811
230.828065,4290.134789,4071.132681,4885.359217
230.828373,3600.648841,3775.050304,5403.503377
230.828681,2451.505594,2738.761985,6143.709319
230.828989,1302.362347,1110.308913,7624.121203
230.829297,-919.314598,-444.123565,9474.636058
230.829605,-2374.896044,-1998.556043,11843.295072
230.829913,-3753.867940,-3775.050304,13249.686362
230.830221,-3907.087040,-4071.132681,14359.995275
230.830529,-3524.039291,-3997.112087,14285.974681
230.830837,-2298.286494,-3108.864956,13249.686362
230.831145,-229.828649,-1480.411884,11769.274478
230.831453,1608.800546,-0.000000,9844.739029
230.831761,3217.601092,1628.453072,7994.224174
230.832069,4826.401637,2294.638420,6069.688724
230.832377,5056.230287,3034.844362,5329.482782
230.832685,4673.182538,3108.864956,5699.585753
230.832993,4060.306139,3256.906145,5773.606348
230.833301,2604.724693,2220.617826,6883.915261
230.833609,995.924147,1406.391290,7994.224174
230.833917,-229.828649,-0.000000,9400.615463
230.834225,-1991.848295,-1036.288319,11547.212695
230.834533,-3524.039291,-2516.700203,12953.603985
230.834841,-3677.258390,-2812.782580,14285.974681
230.835149,-3983.696590,-3108.864956,14434.015869
230.835457,-3064.381992,-2886.803174,14582.057057
230.835765,-1455.581446,-1924.535449,13397.727550
230.836073,0.000000,-666.185348,11917.315666
230.836381,1608.800546,-0.000000,10140.821405
230.836689,3294.210641,1998.556043,7920.203579
230.836997,3753.867940,2072.576638,6587.832884
230.837305,4060.306139,3404.947333,6069.688724
230.837613,4443.353888,3997.112087,5255.462188
230.837921,4213.525239,4293.194464,5033.400406
230.838229,3294.210641,3701.029710,5329.482782
230.838537,2604.724693,2368.659014,6957.935855
230.838845,536.266849,1332.370696,7920.203579
230.839153,-612.876398,-222.061783,10658.965565
230.839462,-2298.286494,-1998.556043,12805.562797
230.839770,-3447.429741,-3034.844362,13989.892304
230.840078,-3907.087040,-3627.009116,14730.098246
230.840386,-3294.210641,-3108.864956,14656.077652
230.840694,-1915.238745,-2220.617826,13323.706956
230.841002,459.657299,-1406.391290,11843.295072
230.841310,2145.067394,222.061783,9622.677246
230.841618,3064.381992,1628.453072,8290.306550
230.841926,4213.525239,2220.617826,6439.791695
230.842234,4903.011187,2960.823768,5773.606348
230.842542,4749.792088,3108.864956,5551.544565
230.842850,4060.306139,3108.864956,5699.585753
230.843158,2757.943793,2590.720797,6809.894666
230.843466,1455.581446,1924.535449,8216.285956
230.843774,0.000000,-0.000000,9548.656652
230.844082,-1991.848295,-1258.350101,11769.274478
230.844390,-3294.210641,-2294.638420,13323.706956
230.844698,-3677.258390,-3701.029710,14508.036463
230.845006,-3753.867940,-3404.947333,14952.160028
230.845314,-3064.381992,-3182.885551,14508.036463
230.845622,-1685.410096,-2590.720797,13249.686362
230.845930,0.000000,-1480.411884,12139.377449
230.846238,1378.971896,-0.000000,9770.718434
230.846546,2221.676944,1850.514855,7846.182985
230.846854,4673.182538,2738.761985,6957.935855
230.847162,4213.525239,3478.967927,4959.379811
230.847470,4519.963438,4071.132681,4663.297435
230.847778,4519.963438,3849.070898,4959.379811
230.848086,3294.210641,3627.009116,4811.338623
230.848394,2145.067394,2368.659014,6217.729913
230.848702,0.000000,370.102971,8364.327145
230.849010,-1455.581446,-888.247130,10807.006753
230.849318,-2911.162892,-2516.700203,12139.377449
230.849626,-3753.867940,-3478.967927,13545.768739
230.849934,-3753.867940,-3849.070898,14211.954086
230.850242,-2911.162892,-3478.967927,13841.851115
230.850550,-1149.143247,-1850.514855,12361.439231
230.850858,995.924147,-888.247130,10510.924376
230.851166,2681.334243,222.061783,8956.491898
230.851475,3907.087040,1924.535449,6883.915261
230.851783,4519.963438,2368.659014,6217.729913
230.852091,5209.449386,2664.741391,5477.523971
230.852399,4290.134789,3108.864956,5699.585753
230.852707,3753.867940,2738.761985,6143.709319
230.853015,2528.115143,1998.556043,7254.018232
230.853323,459.657299,888.247130,8290.306550
230.853631,-995.924147,-592.164754,10362.883188
230.853939,-2374.896044,-1998.556043,12065.356855
230.854247,-3447.429741,-3256.906145,13767.830521
230.854555,-3830.477490,-4145.153275,14285.974681
230.854863,-3600.648841,-4145.153275,14730.098246
230.855171,-2681.334243,-3182.885551,14063.912898
230.855479,-612.876398,-1628.453072,12805.562797
230.855787,995.924147,-592.164754,10436.903782
230.856095,2298.286494,1628.453072,8956.491898
230.856403,3370.820191,2442.679609,7105.977043
230.856711,3830.477490,3478.967927,5773.606348
230.857019,4826.401637,4441.235652,5107.421000
230.857327,3983.696590,4367.215058,4885.359217
230.857635,3294.210641,4071.132681,5477.523971
230.857943,1455.581446,2812.782580,6513.812290
230.858251,689.485948,1332.370696,8068.244768
230.858559,-689.485948,-148.041188,9622.677246
230.858867,-2374.896044,-1258.350101,11843.295072
230.859175,-3370.820191,-2812.782580,13619.789333
230.859483,-4060.306139,-3330.926739,14211.954086
230.859791,-3600.648841,-3182.885551,14434.015869
230.860099,-2145.067394,-2146.597232,13323.706956
230.860407,-536.266849,-1184.329507,11769.274478
230.860715,1685.410096,-0.000000,9696.697840
230.861023,3677.258390,1184.329507,7846.182985
230.861331,4443.353888,2368.659014,6809.894666
230.861639,4673.182538,2886.803174,6439.791695
230.861947,4443.353888,3034.844362,6143.709319
230.862255,3600.648841,3330.926739,6069.688724
230.862563,2681.334243,2442.679609,7105.977043
230.862871,1455.581446,2072.576638,7772.162391
230.863179,76.609550,592.164754,9252.574275
230.863487,-1378.971896,-518.144159,11029.068536
230.863795,-1838.629195,-2812.782580,12657.521608
230.864103,-3217.601092,-3404.947333,14211.954086
230.864411,-3753.867940,-4145.153275,14878.139434
230.864719,-3294.210641,-3997.112087,15248.242405
230.865026,-2374.896044,-3034.844362,14137.933492
230.865334,-536.266849,-1702.473667,12213.398043
230.865642,689.485948,-518.144159,9844.739029
230.865950,2834.553343,1480.411884,8216.285956
230.866258,4366.744339,2664.741391,6513.812290
230.866566,5132.839837,3330.926739,5107.421000
230.866874,5132.839837,4293.194464,4663.297435
230.867182,4826.401637,4367.215058,4737.318029
230.867490,4060.306139,4071.132681,5255.462188
230.867798,2374.896044,3034.844362,5847.626942
230.868106,919.314598,1554.432478,7402.059420
230.868414,0.000000,-0.000000,9400.615463
230.868722,-2298.286494,-1332.370696,12139.377449
230.869030,-3140.991542,-2442.679609,13249.686362
230.869338,-3677.258390,-3256.906145,14211.954086
230.869646,-3447.429741,-3256.906145,14730.098246
230.869954,-2374.896044,-2516.700203,13175.665768
230.870262,-459.657299,-1332.370696,11769.274478
230.870570,1149.143247,-666.185348,10362.883188
230.870878,2911.162892,888.247130,7994.224174
230.871186,3524.039291,1924.535449,6365.771101
230.871494,4826.401637,2516.700203,5847.626942
230.871802,4673.182538,2960.823768,6143.709319
230.872110,3524.039291,3627.009116,5477.523971
230.872417,2911.162892,2664.741391,7105.977043
230.872725,1532.190996,1924.535449,7254.018232
230.873033,0.000000,814.226536,8956.491898
230.873341,-1378.971896,-1110.308913,10584.944971
230.873649,-1838.629195,-2368.659014,11917.315666
230.873957,-3524.039291,-4071.132681,14211.954086
230.874265,-3600.648841,-4367.215058,14582.057057
230.874573,-3524.039291,-4145.153275,14804.118840
230.874881,-2068.457845,-3330.926739,13545.768739
230.875189,-459.657299,-1776.494261,11473.192101
230.875497,1225.752797,-148.041188,8882.471304
230.875805,2911.162892,1258.350101,7624.121203
230.876113,4290.134789,3034.844362,6217.729913
230.876421,4596.572988,3627.009116,4515.256246
230.876729,4903.011187,4219.173869,4367.215058
230.877037,4519.963438,4071.132681,4737.318029
230.877345,3140.991542,4219.173869,5181.441594
230.877653,1378.971896,2442.679609,7105.977043
230.877961,-153.219100,888.247130,8068.244768
230.878269,-2068.457845,-962.267725,10955.047942
230.878577,-3447.429741,-3034.844362,13175.665768
230.878885,-3983.696590,-3775.050304,14137.933492
230.879193,-4519.963438,-4071.132681,14804.118840
230.879500,-3447.429741,-3627.009116,14508.036463
230.879808,-1838.629195,-2368.659014,12509.480420
230.880116,383.047749,-814.226536,11473.192101
230.880424,2681.334243,814.226536,9252.574275
230.880732,4060.306139,2294.638420,6735.874072
230.881040,4673.182538,3256.906145,5773.606348
230.881348,4979.620737,3552.988522,4885.359217
230.881656,4596.572988,4145.153275,5255.462188
230.881964,3983.696590,3849.070898,6439.791695
230.882272,2451.505594,2516.700203,7105.977043
230.882580,-306.438199,1554.432478,8364.327145
230.882888,-1225.752797,-888.247130,11251.130318
230.883196,-2528.115143,-1924.535449,12287.418637
230.883504,-4060.306139,-3478.967927,14211.954086
230.883812,-4366.744339,-4737.318029,15248.242405
230.884120,-3677.258390,-4589.276840,15100.201217
230.884428,-3140.991542,-3849.070898,14582.057057
230.884736,-766.095498,-2220.617826,12805.562797
230.885044,1455.581446,-592.164754,10732.986159
230.885352,2987.772442,1110.308913,8290.306550
230.885660,4903.011187,2072.576638,6513.812290
230.885968,5286.058936,4071.132681,5181.441594
230.886276,5745.716235,4367.215058,4737.318029
230.886584,5362.668486,4811.338623,4071.132681
230.886891,3983.696590,4515.256246,4737.318029
230.887199,2681.334243,3108.864956,6143.709319
230.887507,842.705048,1480.411884,7402.059420
230.887815,-842.705048,-0.000000,9622.677246
230.888123,-2374.896044,-1924.535449,11843.295072
230.888431,-3524.039291,-3182.885551,13101.645173
230.888739,-3753.867940,-3775.050304,14211.954086
230.889047,-3907.087040,-3849.070898,15026.180623
230.889355,-2451.505594,-2960.823768,13767.830521
230.889663,-612.876398,-1406.391290,12065.356855
230.889971,1838.629195,-296.082377,10066.800811
230.890279,2834.553343,1036.288319,8290.306550
230.890587,4366.744339,2294.638420,7105.977043
230.890895,5056.230287,2812.782580,6365.771101
230.891203,4749.792088,3552.988522,5403.503377
230.891511,4213.525239,3552.988522,5921.647536
230.891819,3064.381992,2960.823768,6809.894666
230.892127,1608.800546,2146.597232,7402.059420
230.892435,0.000000,962.267725,8734.430116
230.892743,-1608.800546,-1184.329507,10881.027347
230.893051,-2221.676944,-2368.659014,12731.542202
230.893359,-3600.648841,-3701.029710,14359.995275
230.893667,-3600.648841,-4219.173869,14434.015869
230.893975,-3447.429741,-4071.132681,14730.098246
230.894282,-2374.896044,-3108.864956,13545.768739
230.894590,-459.657299,-1480.411884,11473.192101
230.894898,1532.190996,-0.000000,9770.718434
230.895206,3447.429741,1036.288319,8068.244768
230.895514,4749.792088,2738.761985,6069.688724
230.895822,4979.620737,3256.906145,5181.441594
230.896130,4826.401637,3997.112087,4737.318029
230.896438,4443.353888,4219.173869,4885.359217
230.896746,3294.210641,3552.988522,5625.565159
230.897054,2068.457845,2664.741391,6513.812290
230.897362,-306.438199,1258.350101,8142.265362
230.897670,-1685.410096,-814.226536,10436.903782
230.897978,-2757.943793,-2072.576638,12731.542202
230.898286,-3830.477490,-3182.885551,13619.789333
230.898594,-4443.353888,-3701.029710,14434.015869
230.898902,-3600.648841,-3256.906145,14582.057057
230.899210,-1991.848295,-2220.617826,12879.583391
230.899518,0.000000,-592.164754,11325.150913
230.899826,1685.410096,592.164754,9696.697840
230.900134,3524.039291,1924.535449,7550.100608
230.900442,4443.353888,2590.720797,6439.791695
230.900750,4749.792088,3108.864956,5921.647536
230.901058,4213.525239,3849.070898,5847.626942
230.901366,3753.867940,3997.112087,5699.585753
230.901673,2757.943793,3182.885551,6809.894666
230.901981,842.705048,1924.535449,7920.203579
230.902289,-612.876398,296.082377,9844.739029
230.902597,-1532.190996,-1332.370696,12361.439231
230.902905,-3294.210641,-2886.803174,13249.686362
230.903213,-4366.744339,-4293.194464,14656.077652
230.903521,-4596.572988,-5107.421000,15766.386565
230.903829,-4060.306139,-4663.297435,15322.262999
230.904137,-2681.334243,-3034.844362,13619.789333
230.904445,-229.828649,-1332.370696,11621.233289
230.904753,1991.848295,148.041188,9326.594869
230.905061,3447.429741,1776.494261,7402.059420
230.905369,4826.401637,3182.885551,5477.523971
230.905677,5515.887586,4663.297435,4737.318029
230.905985,5592.497135,4737.318029,4219.173869
230.906293,4749.792088,4515.256246,4145.153275
230.906601,3600.648841,3849.070898,5107.421000
230.906909,2221.676944,2368.659014,6217.729913
230.907217,536.266849,518.144159,8586.388927
230.907525,-1455.581446,-296.082377,10807.006753
230.907833,-2757.943793,-2886.803174,12879.583391
230.908141,-3830.477490,-3627.009116,14063.912898
230.908449,-3294.210641,-4145.153275,14434.015869
230.908757,-2374.896044,-3552.988522,14359.995275
230.909064,-995.924147,-2368.659014,12435.459826
230.909372,689.485948,-1332.370696,10881.027347
230.909680,2374.896044,-0.000000,9178.553681
230.909988,4290.134789,1850.514855,7402.059420
230.910296,5132.839837,3034.844362,6069.688724
230.910604,5669.106685,3034.844362,5403.503377
230.910912,5362.668486,4219.173869,5255.462188
230.911220,4290.134789,3701.029710,5847.626942
230.911528,2911.162892,2960.823768,7031.956449
230.911836,1608.800546,1998.556043,7920.203579
230.912144,153.219100,148.041188,9918.759623
230.912452,-1608.800546,-1406.391290,11621.233289
230.912760,-2298.286494,-3478.967927,13693.809927
230.913068,-3907.087040,-3997.112087,14952.160028
230.913376,-3907.087040,-4441.235652,15248.242405
230.913684,-2681.334243,-3701.029710,14730.098246
230.913992,-1762.019645,-2146.597232,13175.665768
230.914300,536.266849,-888.247130,11325.150913
230.914608,2068.457845,1036.288319,8068.244768
230.914916,3830.477490,2960.823768,6735.874072
230.915224,4749.792088,3552.988522,5699.585753
230.915532,4903.011187,4811.338623,4885.359217
230.915840,4596.572988,4885.359217,5181.441594
230.916148,3983.696590,4441.235652,5403.503377
230.916455,1991.848295,3034.844362,6513.812290
230.916763,0.000000,1406.391290,8216.285956
230.917071,-1762.019645,-0.000000,10214.842000
230.917379,-2528.115143,-1776.494261,12509.480420
230.917687,-4366.744339,-3182.885551,13619.789333
230.917995,-4443.353888,-3627.009116,14656.077652
230.918303,-3983.696590,-3923.091493,14582.057057
230.918611,-3064.381992,-3182.885551,13767.830521
230.918919,-1532.190996,-1702.473667,12065.356855
230.919227,689.485948,-888.247130,10362.883188
230.919535,1991.848295,1406.391290,7994.224174
230.919843,4060.306139,2886.803174,7031.956449
230.920151,4673.182538,3182.885551,5921.647536
230.920459,4826.401637,4441.235652,4737.318029
230.920767,4673.182538,4219.173869,5181.441594
230.921075,3524.039291,3478.967927,6069.688724
230.921383,1608.800546,2294.638420,7328.038826
230.921691,0.000000,-0.000000,9104.533087
230.921999,-2374.896044,-1628.453072,11103.089130
230.922307,-3140.991542,-2886.803174,13249.686362
230.922615,-4366.744339,-4589.276840,14359.995275
230.922923,-4749.792088,-4811.338623,15322.262999
230.923231,-3830.477490,-4663.297435,15174.221811
230.923539,-2757.943793,-3552.988522,13915.871710
230.923846,-842.705048,-1850.514855,11769.274478
230.924154,1225.752797,-444.123565,10288.862594
230.924462,3140.991542,740.205942,7772.162391
230.924770,4826.401637,2442.679609,6217.729913
230.925078,5669.106685,3701.029710,5329.482782
230.925386,5592.497135,4367.215058,4367.215058
230.925694,5056.230287,4515.256246,4367.215058
230.926002,3907.087040,4071.132681,5477.523971
230.926310,1991.848295,2516.700203,6365.771101
230.926618,229.828649,888.247130,7846.182985
230.926926,-1608.800546,-444.123565,9992.780217
230.927234,-1838.629195,-2220.617826,11769.274478
230.927542,-2604.724693,-2812.782580,13471.748144
230.927850,-3140.991542,-3552.988522,14063.912898
230.928158,-2681.334243,-3552.988522,13915.871710
230.928466,-1608.800546,-2442.679609,13027.624579
230.928774,459.657299,-962.267725,11325.150913
230.929082,1991.848295,-0.000000,9326.594869
230.929390,3830.477490,1628.453072,7476.080014
230.929698,4673.182538,2442.679609,6365.771101
230.930006,4979.620737,3478.967927,5921.647536
230.930314,4596.572988,3997.112087,5921.647536
230.930622,4060.306139,3701.029710,6587.832884
230.930930,2757.943793,3182.885551,6883.915261
230.931237,1072.533697,1850.514855,7920.203579
230.931545,-612.876398,-74.020594,10214.842000
230.931853,-2145.067394,-1110.308913,12213.398043
230.932161,-2451.505594,-3256.906145,13841.851115
230.932469,-3983.696590,-4367.215058,15026.180623
230.932777,-3983.696590,-4663.297435,15470.304188
230.933085,-3294.210641,-3775.050304,14952.160028
230.933393,-1532.190996,-2072.576638,13027.624579
230.933701,612.876398,-814.226536,11547.212695
230.934009,2528.115143,1036.288319,9252.574275
230.934317,3983.696590,2368.659014,7179.997637
230.934625,5056.230287,3552.988522,5773.606348
230.934933,4826.401637,3923.091493,4885.359217
230.935241,4979.620737,4367.215058,5107.421000
230.935549,4290.134789,4441.235652,4959.379811
230.935857,2834.553343,3552.988522,5921.647536
230.936165,1072.533697,2294.638420,7031.956449
230.936473,-153.219100,1110.308913,8734.430116
230.936781,-1991.848295,-888.247130,11325.150913
230.937089,-3294.210641,-2294.638420,13027.624579
230.937397,-3524.039291,-3478.967927,14211.954086
230.937705,-4060.306139,-3701.029710,14656.077652
230.938013,-3064.381992,-3404.947333,14582.057057
230.938321,-2068.457845,-2146.597232,13175.665768
230.938628,383.047749,-1036.288319,11769.274478
230.938936,2298.286494,-0.000000,9326.594869
230.939244,3370.820191,2146.597232,7328.038826
230.939552,4673.182538,3034.844362,6661.853478
230.939860,5592.497135,4145.153275,5551.544565
230.940168,4673.182538,4293.194464,5403.503377
230.940476,3983.696590,3997.112087,5995.668130
230.940784,2451.505594,2886.803174,7031.956449
230.941092,153.219100,1332.370696,8068.244768
230.941400,-842.705048,-444.123565,10436.903782
230.941708,-3140.991542,-2368.659014,12213.398043
230.942016,-4443.353888,-4145.153275,14730.098246
230.942324,-4519.963438,-4885.359217,15248.242405
230.942632,-4213.525239,-4663.297435,15026.180623
230.942940,-3370.820191,-3775.050304,14137.933492
230.943248,-842.705048,-2294.638420,12213.398043
230.943556,1532.190996,-518.144159,9918.759623
230.943864,3294.210641,666.185348,7846.182985
230.944172,4903.011187,2368.659014,6217.729913
230.944480,5822.325785,2960.823768,4885.359217
230.944788,5515.887586,3627.009116,4589.276840
230.945096,5056.230287,4293.194464,3923.091493
230.945404,3830.477490,3627.009116,4811.338623
230.945712,2221.676944,2368.659014,6513.812290
230.946019,76.609550,888.247130,7624.121203
230.946327,-1685.410096,-666.185348,9992.780217
230.946635,-2451.505594,-2516.700203,12065.356855
230.946943,-3600.648841,-3182.885551,13471.748144
230.947251,-3677.258390,-3997.112087,14730.098246
230.947559,-3217.601092,-3701.029710,14434.015869
230.947867,-2221.676944,-2590.720797,13027.624579
230.948175,0.000000,-1036.288319,11621.233289
230.948483,1685.410096,-0.000000,9844.739029
230.948791,3140.991542,1702.473667,7920.203579
230.949099,4826.401637,2368.659014,6883.915261
230.949407,5975.544884,4071.132681,5107.421000
230.949715,4903.011187,4145.153275,5033.400406
230.950023,4596.572988,4219.173869,5847.626942
230.950331,3524.039291,3404.947333,6735.874072
230.950639,1302.362347,1998.556043,7994.224174
230.950947,-1225.752797,370.102971,9770.718434
230.951255,-2298.286494,-1332.370696,12287.418637
230.951563,-3753.867940,-3108.864956,13767.830521
230.951871,-4596.572988,-4367.215058,14952.160028
230.952179,-4596.572988,-3923.091493,15174.221811
230.952487,-3677.258390,-3552.988522,15026.180623
230.952795,-2298.286494,-2368.659014,13693.809927
230.953102,-536.266849,-888.247130,11843.295072
230.953410,2374.896044,370.102971,9992.780217
230.953718,3294.210641,1998.556043,7624.121203
230.954026,4749.792088,3108.864956,6439.791695
230.954334,4979.620737,3330.926739,5625.565159
230.954642,4903.011187,3330.926739,5255.462188
230.954950,3907.087040,3627.009116,5551.544565
230.955258,2987.772442,3330.926739,5847.626942
230.955566,1685.410096,2294.638420,6809.894666
230.955874,76.609550,888.247130,7920.203579
230.956182,-229.828649,-74.020594,9844.739029
230.956490,-1915.238745,-1332.370696,11843.295072
230.956798,-2604.724693,-2738.761985,13249.686362
230.957106,-2757.943793,-3108.864956,13397.727550
230.957414,-2681.334243,-2960.823768,13841.851115
230.957722,-1838.629195,-2294.638420,13175.665768
230.958030,0.000000,-962.267725,11769.274478
230.958338,1685.410096,-0.000000,9918.759623
230.958648,2681.334243,1332.370696,8216.285956
230.958956,4366.744339,2072.576638,6809.894666
230.959264,4213.525239,2516.700203,6217.729913
230.959572,3907.087040,2960.823768,5847.626942
230.959880,3830.477490,3108.864956,6143.709319
230.960188,2604.724693,2812.782580,6587.832884
230.960496,1225.752797,1332.370696,7920.203579
230.960804,-766.095498,-0.000000,9548.656652
230.961112,-2374.896044,-1776.494261,12139.377449
230.961420,-4136.915689,-3404.947333,13471.748144
230.961728,-4596.572988,-3775.050304,14285.974681
230.962036,-4596.572988,-4293.194464,14952.160028
230.962344,-3370.820191,-3997.112087,14359.995275
230.962652,-1608.800546,-2590.720797,12879.583391
230.962960,459.657299,-1184.329507,11103.089130
230.963269,1915.238745,518.144159,8956.491898
230.963577,3907.087040,2072.576638,7105.977043
230.963885,5362.668486,2664.741391,5255.462188
230.964193,5515.887586,3330.926739,4811.338623
230.964501,5209.449386,3627.009116,4515.256246
230.964809,4826.401637,3923.091493,4885.359217
230.965117,3217.601092,3256.906145,5329.482782
230.965425,1762.019645,1924.535449,6957.935855
230.965733,0.000000,518.144159,9030.512492
230.966041,-1991.848295,-814.226536,11177.109724
230.966349,-3064.381992,-2368.659014,13027.624579
230.966657,-3830.477490,-3034.844362,13989.892304
230.966965,-4060.306139,-3478.967927,14656.077652
230.967273,-2834.553343,-3404.947333,14211.954086
230.967581,-1991.848295,-1998.556043,13027.624579
230.967889,76.609550,-814.226536,11473.192101
230.968197,1991.848295,740.205942,9474.636058
230.968505,3064.381992,1480.411884,7772.162391
230.968813,5286.058936,2886.803174,6143.709319
230.969121,5592.497135,3404.947333,5773.606348
230.969429,4903.011187,3701.029710,5255.462188
230.969737,4366.744339,3552.988522,5773.606348
230.970045,2757.943793,3108.864956,6661.853478
230.970353,1072.533697,1554.432478,8142.265362
230.970661,-612.876398,-148.041188,10362.883188
230.970969,-2681.334243,-1702.473667,12509.480420
230.971277,-3600.648841,-3701.029710,14137.933492
230.971586,-4213.525239,-3997.112087,14804.118840
230.971894,-4366.744339,-3701.029710,14804.118840
230.972202,-2834.553343,-2590.720797,14211.954086
230.972510,-1149.143247,-1554.432478,12509.480420
230.972818,766.095498,-370.102971,10955.047942
230.973126,2374.896044,1110.308913,8734.430116
230.973434,3830.477490,1924.535449,6809.894666
230.973742,4749.792088,2590.720797,5625.565159
230.974050,4519.963438,3182.885551,5329.482782
230.974358,4290.134789,3701.029710,5181.441594
230.974666,3370.820191,3404.947333,5329.482782
230.974974,1991.848295,2886.803174,6217.729913
230.975282,612.876398,1480.411884,7550.100608
230.975590,-919.314598,-148.041188,9548.656652
230.975898,-2068.457845,-1850.514855,11251.130318
230.976206,-3677.258390,-2812.782580,12583.501014
230.976514,-3294.210641,-3404.947333,13693.809927
230.976822,-4060.306139,-3775.050304,14137.933492
230.977130,-2911.162892,-2960.823768,13693.809927
230.977438,-1225.752797,-1554.432478,12065.356855
230.977746,689.485948,-370.102971,10584.944971
230.978054,2528.115143,962.267725,8882.471304
230.978362,4443.353888,2220.617826,7402.059420
230.978670,4290.134789,2886.803174,5995.668130
230.978978,5286.058936,3478.967927,5329.482782
230.979286,4290.134789,3404.947333,5255.462188
230.979595,3217.601092,3108.864956,6365.771101
230.979903,1302.362347,2072.576638,7402.059420
230.980211,-306.438199,370.102971,9030.512492
230.980519,-2451.505594,-1110.308913,10881.027347
230.980827,-3907.087040,-2516.700203,13397.727550
230.981135,-3907.087040,-4145.153275,14582.057057
230.981443,-3983.696590,-3627.009116,15174.221811
230.981751,-3753.867940,-3923.091493,14285.974681
230.982059,-2068.457845,-2664.741391,13619.789333
230.982367,0.000000,-1332.370696,11843.295072
230.982675,2145.067394,-0.000000,9622.677246
230.982983,3753.867940,1998.556043,7105.977043
230.983291,5439.278036,2812.782580,5773.606348
230.983599,5669.106685,3034.844362,5921.647536
230.983907,5132.839837,3404.947333,5033.400406
230.984215,5132.839837,3552.988522,4959.379811
230.984523,3600.648841,3108.864956,5477.523971
230.984831,2298.286494,2368.659014,6365.771101
230.985139,919.314598,1036.288319,8290.306550
230.985447,-689.485948,-518.144159,9918.759623
230.985755,-1762.019645,-1702.473667,11621.233289
230.986063,-2834.553343,-2516.700203,13175.665768
230.986371,-2451.505594,-2960.823768,14434.015869
230.986679,-2681.334243,-3108.864956,14359.995275
230.986987,-1608.800546,-2146.597232,13619.789333
230.987295,0.000000,-1258.350101,12139.377449
230.987603,1762.019645,296.082377,10362.883188
230.987912,3370.820191,1776.494261,8512.368333
230.988220,4596.572988,3034.844362,6513.812290
230.988528,5515.887586,3923.091493,6291.750507
230.988836,4979.620737,3849.070898,5699.585753
230.989144,4443.353888,3849.070898,5921.647536
230.989452,2834.553343,3182.885551,6661.853478
230.989760,1455.581446,1924.535449,7994.224174
230.990068,-536.266849,370.102971,9992.780217
230.990376,-1838.629195,-1776.494261,11917.315666
230.990684,-3600.648841,-2886.803174,14211.954086
230.990992,-4290.134789,-3478.967927,14434.015869
230.991300,-4366.744339,-3701.029710,14730.098246
230.991608,-3294.210641,-3330.926739,14730.098246
230.991916,-2221.676944,-2072.576638,13027.624579
230.992224,-229.828649,-962.267725,11177.109724
230.992532,1915.238745,592.164754,9400.615463
230.992840,3447.429741,1702.473667,7031.956449
230.993148,4213.525239,2590.720797,6365.771101
230.993456,5132.839837,2960.823768,5551.544565
230.993764,4443.353888,3034.844362,4737.318029
230.994072,3677.258390,2738.761985,5921.647536
230.994380,2298.286494,2738.761985,6217.729913
230.994688,1302.362347,1776.494261,7105.977043
230.994996,0.000000,518.144159,8142.265362
230.995304,-919.314598,-1036.288319,10140.821405
230.995612,-2911.162892,-2368.659014,12287.418637
230.995921,-3600.648841,-3330.926739,13619.789333
230.996229,-3907.087040,-3627.009116,13915.871710
230.996537,-3217.601092,-3404.947333,13767.830521
230.996845,-1762.019645,-2368.659014,13101.645173
230.997153,0.000000,-740.205942,11177.109724
230.997461,1838.629195,222.061783,9474.636058
230.997769,3140.991542,1702.473667,7402.059420
230.998077,4519.963438,2886.803174,5995.668130
230.998385,4903.011187,3404.947333,5847.626942
230.998693,4443.353888,3849.070898,5403.503377
230.999001,4213.525239,3775.050304,5551.544565
230.999309,2451.505594,2664.741391,6587.832884
230.999617,612.876398,1554.432478,8290.306550
230.999925,-1149.143247,-74.020594,10214.842000
231.000233,-2911.162892,-1924.535449,12583.501014
231.000541,-3983.696590,-3256.906145,14285.974681
231.000849,-5209.449386,-3775.050304,14285.974681
231.001157,-4366.744339,-3701.029710,15026.180623
231.001465,-3370.820191,-3478.967927,14137.933492
231.001773,-1302.362347,-2146.597232,12435.459826
231.002081,612.876398,-592.164754,10881.027347
231.002389,2757.943793,740.205942,8586.388927
231.002697,3830.477490,1628.453072,6217.729913
231.003005,4519.963438,3108.864956,5847.626942
231.003313,5286.058936,3404.947333,5477.523971
231.003621,4596.572988,3849.070898,4737.318029
231.003930,3830.477490,3478.967927,5255.462188
231.004238,2757.943793,2960.823768,5921.647536
231.004546,1378.971896,1776.494261,7402.059420
231.004854,-306.438199,296.082377,9178.553681
231.005162,-1378.971896,-1628.453072,11103.089130
231.005470,-2451.505594,-2442.679609,12731.542202
231.005778,-3753.867940,-3552.988522,14508.036463
231.006086,-3294.210641,-3923.091493,14804.118840
231.006394,-2681.334243,-3108.864956,13915.871710
231.006702,-1302.362347,-2220.617826,12583.501014
231.007010,459.657299,-370.102971,10881.027347
231.007318,2604.724693,740.205942,9400.615463
231.007626,4213.525239,2072.576638,7179.997637
231.007934,5362.668486,3701.029710,5625.565159
231.008242,5669.106685,3701.029710,5403.503377
231.008550,4979.620737,4219.173869,4885.359217
231.008858,4213.525239,3997.112087,6217.729913
231.009166,2451.505594,2886.803174,6735.874072
231.009474,689.485948,1406.391290,8956.491898
231.009782,-1608.800546,-666.185348,10955.047942
231.010090,-3370.820191,-2442.679609,13249.686362
231.010398,-4443.353888,-3775.050304,14952.160028
231.010706,-4903.011187,-4367.215058,15174.221811
231.011014,-4366.744339,-4071.132681,15544.324782
231.011322,-2834.553343,-2886.803174,14211.954086
231.011630,-383.047749,-1406.391290,12139.377449
231.011938,1608.800546,370.102971,10214.842000
231.012247,3447.429741,1036.288319,7476.080014
231.012555,4519.963438,2812.782580,5847.626942
231.012863,5439.278036,3404.947333,5033.400406
231.013171,5439.278036,4145.153275,4663.297435
231.013479,4749.792088,4293.194464,4367.215058
231.013787,3907.087040,3478.967927,5107.421000
231.014095,2145.067394,2664.741391,6217.729913
231.014403,383.047749,888.247130,7624.121203
231.014711,-766.095498,-740.205942,10140.821405
231.015019,-2987.772442,-2516.700203,12953.603985
231.015327,-4443.353888,-4145.153275,13989.892304
231.015635,-4366.744339,-5107.421000,15174.221811
231.015943,-3830.477490,-4737.318029,14804.118840
231.016251,-2681.334243,-3552.988522,13471.748144
231.016559,-306.438199,-1998.556043,11917.315666
231.016867,1532.190996,-370.102971,9918.759623
231.017175,3140.991542,1332.370696,7328.038826
231.017483,5439.278036,3034.844362,5847.626942
231.017791,5898.935335,4071.132681,4885.359217
231.018099,6358.592633,4071.132681,4293.194464
231.018407,5515.887586,4071.132681,4811.338623
231.018715,3830.477490,3330.926739,5625.565159
231.019023,1685.410096,1480.411884,7328.038826
231.019331,-612.876398,-0.000000,9844.739029
231.019639,-2757.943793,-2220.617826,12065.356855
231.019947,-4213.525239,-3404.947333,13767.830521
231.020256,-4519.963438,-3923.091493,13989.892304
231.020564,-4673.182538,-3775.050304,14952.160028
231.020872,-3064.381992,-3256.906145,14434.015869
231.021180,-1838.629195,-1702.473667,12879.583391
231.021488,153.219100,-592.164754,11177.109724
231.021796,2374.896044,888.247130,8882.471304
231.022104,4749.792088,2368.659014,7402.059420
231.022412,4903.011187,2886.803174,6143.709319
231.022720,5132.839837,3552.988522,5107.421000
231.023028,5362.668486,3701.029710,5255.462188
231.023336,4596.572988,3330.926739,5255.462188
231.023644,3064.381992,2738.761985,6069.688724
231.023952,1838.629195,2220.617826,7105.977043
231.024260,229.828649,444.123565,9030.512492
231.024568,-1072.533697,-814.226536,10436.903782
231.024876,-1685.410096,-2146.597232,12287.418637
231.025184,-2681.334243,-3256.906145,13693.809927
231.025492,-3217.601092,-3182.885551,14285.974681
231.025800,-2451.505594,-2664.741391,14211.954086
231.026108,-1302.362347,-1850.514855,13397.727550
231.026416,689.485948,-518.144159,11251.130318
231.026724,2068.457845,888.247130,9474.636058
231.027032,3983.696590,1998.556043,7476.080014
231.027340,5056.230287,2960.823768,6365.771101
231.027648,5286.058936,4071.132681,6291.750507
231.027956,4903.011187,3404.947333,5847.626942
231.028264,3983.696590,3330.926739,5773.606348
231.028573,2298.286494,2368.659014,7105.977043
231.028881,76.609550,1110.308913,8660.409521
231.029189,-2068.457845,-518.144159,10584.944971
231.029497,-3830.477490,-2368.659014,13101.645173
231.029805,-4903.011187,-3552.988522,14582.057057
231.030113,-5056.230287,-3627.009116,14878.139434
231.030421,-4903.011187,-3775.050304,14730.098246
231.030729,-3447.429741,-2738.761985,14285.974681
231.031037,-1685.410096,-1406.391290,12361.439231
231.031345,536.266849,-296.082377,10732.986159
231.031653,2221.676944,962.267725,8512.368333
231.031961,3370.820191,2368.659014,6291.750507
231.032269,4519.963438,3034.844362,5551.544565
231.032577,4596.572988,3478.967927,5181.441594
231.032885,3677.258390,3775.050304,4737.318029
231.033193,3983.696590,3775.050304,4885.359217
231.033501,2604.724693,2886.803174,5477.523971
231.033809,919.314598,1776.494261,7105.977043
231.034117,-766.095498,-74.020594,9104.533087
231.034425,-2374.896044,-2146.597232,11325.150913
231.034733,-4060.306139,-3330.926739,13471.748144
231.035041,-4596.572988,-4515.256246,14656.077652
231.035349,-4290.134789,-4737.318029,14656.077652
231.035657,-3753.867940,-3552.988522,14211.954086
231.035965,-1455.581446,-2220.617826,13101.645173
231.036273,306.438199,-666.185348,11251.130318
231.036582,2681.334243,962.267725,8586.388927
231.036890,4060.306139,2220.617826,6513.812290
231.037198,5745.716235,3478.967927,5551.544565
231.037506,5669.106685,3627.009116,5255.462188
231.037814,4749.792088,3849.070898,5107.421000
231.038122,3983.696590,3182.885551,6291.750507
231.038430,1991.848295,2368.659014,6883.915261
231.038738,0.000000,370.102971,9326.594869
231.039046,-2068.457845,-888.247130,11103.089130
231.039354,-3447.429741,-2664.741391,13323.706956
231.039662,-4290.134789,-3701.029710,14285.974681
231.039970,-4060.306139,-3701.029710,14434.015869
231.040278,-3064.381992,-3701.029710,14211.954086
231.040586,-1915.238745,-2368.659014,13175.665768
231.040894,-153.219100,-888.247130,11473.192101
231.041202,1915.238745,222.061783,9844.739029
231.041510,3753.867940,1480.411884,7846.182985
231.041818,5056.230287,2812.782580,6143.709319
231.042126,5669.106685,3404.947333,5255.462188
231.042434,5822.325785,3997.112087,5033.400406
231.042742,4903.011187,3849.070898,4959.379811
231.043050,4443.353888,3627.009116,5625.565159
231.043358,2911.162892,2812.782580,6143.709319
231.043666,1302.362347,1480.411884,7994.224174
231.043974,-459.657299,-518.144159,10362.883188
231.044282,-1915.238745,-2220.617826,12213.398043
231.044590,-2834.553343,-3256.906145,13693.809927
231.044899,-3600.648841,-4367.215058,14359.995275
231.045207,-3753.867940,-3701.029710,14434.015869
231.045515,-2068.457845,-2664.741391,13767.830521
231.045823,0.000000,-1110.308913,11843.295072
231.046131,2221.676944,592.164754,9918.759623
231.046439,3753.867940,2072.576638,7994.224174
231.046747,5669.106685,3256.906145,6143.709319
231.047055,6281.983084,3849.070898,5403.503377
231.047363,6052.154434,4071.132681,5329.482782
231.047671,5209.449386,3849.070898,5995.668130
231.047979,3064.381992,2960.823768,6439.791695
231.048287,842.705048,1554.432478,7920.203579
231.048595,-689.485948,-74.020594,10140.821405
231.048903,-2757.943793,-1258.350101,12065.356855
231.049211,-4443.353888,-2886.803174,13915.871710
231.049519,-4979.620737,-3997.112087,14508.036463
231.049827,-5056.230287,-3701.029710,15248.242405
231.050135,-4060.306139,-3701.029710,14656.077652
231.050443,-2374.896044,-2146.597232,13027.624579
231.050751,-689.485948,-518.144159,11399.171507
231.051059,1685.410096,444.123565,9400.615463
231.051367,3294.210641,2146.597232,7328.038826
231.051675,3753.867940,3256.906145,5551.544565
231.051983,4979.620737,3849.070898,5033.400406
231.052291,4519.963438,3997.112087,4959.379811
231.052599,3830.477490,3404.947333,5033.400406
231.052908,2604.724693,2738.761985,5773.606348
231.053216,766.095498,1702.473667,7105.977043
231.053524,-689.485948,-0.000000,9178.553681
231.053832,-2604.724693,-1702.473667,11325.150913
231.054140,-3753.867940,-2812.782580,13101.645173
231.054448,-3830.477490,-4441.235652,14285.974681
231.054756,-4366.744339,-4367.215058,14434.015869
231.055064,-3753.867940,-3256.906145,14211.954086
231.055372,-1302.362347,-2220.617826,13323.706956
231.055680,229.828649,-444.123565,10955.047942
231.055988,2681.334243,1036.288319,8586.388927
231.056296,4443.353888,2368.659014,6883.915261
231.056604,5439.278036,3478.967927,5995.668130
231.056912,5515.887586,2738.761985,5625.565159
231.057220,5132.839837,3478.967927,5773.606348
231.057528,3600.648841,2886.803174,6365.771101
231.057836,2145.067394,2146.597232,7254.018232
231.058144,229.828649,962.267725,8586.388927
231.058452,-1608.800546,-444.123565,10881.027347
231.058760,-2528.115143,-2368.659014,12583.501014
231.059068,-3983.696590,-3256.906145,13619.789333
231.059376,-4443.353888,-3923.091493,14656.077652
231.059684,-4290.134789,-3552.988522,14508.036463
231.059992,-2911.162892,-2738.761985,13915.871710
231.060300,-995.924147,-1480.411884,12731.542202
231.060608,919.314598,-296.082377,10658.965565
231.060917,2528.115143,1110.308913,8364.327145
231.061225,4519.963438,2738.761985,6587.832884
231.061533,5286.058936,4219.173869,5255.462188
231.061841,6052.154434,3775.050304,5551.544565
231.062149,4366.744339,4219.173869,3997.112087
231.062457,4673.182538,3552.988522,4811.338623
231.062765,2987.772442,2664.741391,6439.791695
231.063073,842.705048,1332.370696,7402.059420
231.063381,-919.314598,-74.020594,9918.759623
231.063689,-2451.505594,-1998.556043,12065.356855
231.063997,-4213.525239,-3182.885551,13841.851115
231.064305,-4826.401637,-4145.153275,14285.974681
231.064613,-3753.867940,-4219.173869,14952.160028
231.064921,-3140.991542,-2960.823768,14211.954086
231.065229,-1149.143247,-1702.473667,12287.418637
231.065537,1072.533697,-296.082377,10732.986159
231.065845,3370.820191,1110.308913,8808.450710
231.066154,4903.011187,2442.679609,6809.894666
231.066462,6052.154434,3849.070898,5477.523971
231.066770,6128.763984,3108.864956,5329.482782
231.067078,5286.058936,3404.947333,5181.441594
231.067386,4213.525239,3256.906145,5847.626942
231.067694,2528.115143,2220.617826,7105.977043
231.068002,612.876398,666.185348,8586.388927
231.068310,-1225.752797,-666.185348,11177.109724
231.068618,-2911.162892,-2220.617826,12583.501014
231.068926,-4290.134789,-2738.761985,14211.954086
231.069234,-3677.258390,-3478.967927,14137.933492
231.069542,-3600.648841,-2812.782580,14656.077652
231.069850,-2451.505594,-2368.659014,13397.727550
231.070158,-766.095498,-1036.288319,12139.377449
231.070466,1072.533697,222.061783,10214.842000
231.070774,3140.991542,1628.453072,8216.285956
231.071082,3753.867940,2368.659014,6291.750507
231.071390,4596.572988,3034.844362,5477.523971
231.071699,4673.182538,3182.885551,5329.482782
231.072007,4519.963438,3256.906145,5033.400406
231.072315,3064.381992,2664.741391,5773.606348
231.072623,1685.410096,2146.597232,6883.915261
231.072931,229.828649,814.226536,8216.285956
231.073239,-1685.410096,-592.164754,10362.883188
231.073547,-2757.943793,-2072.576638,12213.398043
231.073855,-3370.820191,-3330.926739,13027.624579
231.074163,-3524.039291,-3775.050304,14063.912898
231.074471,-3600.648841,-3108.864956,14063.912898
231.074779,-1991.848295,-2442.679609,13027.624579
231.075087,0.000000,-740.205942,11473.192101
231.075395,1991.848295,370.102971,9622.677246
231.075703,3753.867940,1924.535449,7772.162391
231.076011,4749.792088,2738.761985,6069.688724
231.076319,5286.058936,2960.823768,6217.729913
231.076627,4826.401637,2664.741391,6291.750507
231.076936,3830.477490,2960.823768,6143.709319
231.077244,1915.238745,2146.597232,6883.915261
231.077552,612.876398,1184.329507,8290.306550
231.077860,-919.314598,-74.020594,10214.842000
231.078168,-2451.505594,-1702.473667,11843.295072
231.078476,-3064.381992,-2590.720797,13397.727550
231.078784,-3983.696590,-3552.988522,14434.015869
231.079092,-3830.477490,-3849.070898,14211.954086
231.079400,-2911.162892,-3108.864956,13989.892304
231.079708,-1455.581446,-1776.494261,13249.686362
231.080016,612.876398,-592.164754,10881.027347
231.080324,2681.334243,1332.370696,8512.368333
231.080632,4136.915689,2442.679609,6809.894666
231.080940,4826.401637,3404.947333,5995.668130
231.081248,5439.278036,3627.009116,5403.503377
231.081556,5286.058936,3627.009116,5033.400406
231.081864,4290.134789,3627.009116,4811.338623
231.082172,3140.991542,3256.906145,5921.647536
231.082481,1532.190996,2072.576638,7105.977043
231.082789,-689.485948,444.123565,9104.533087
231.083097,-2374.896044,-1406.391290,11621.233289
231.083405,-3753.867940,-3256.906145,13397.727550
231.083713,-4519.963438,-3627.009116,14878.139434
231.084021,-4290.134789,-4071.132681,15100.201217
231.084329,-2987.772442,-3108.864956,14582.057057
231.084637,-1455.581446,-2220.617826,12879.583391
231.084945,536.266849,-518.144159,11399.171507
231.085253,2911.162892,962.267725,9178.553681
231.085561,4290.134789,2368.659014,7254.018232
231.085869,5132.839837,2960.823768,6143.709319
231.086177,6205.373534,3330.926739,5551.544565
231.086485,5515.887586,3330.926739,5403.503377
231.086793,4749.792088,2812.782580,5625.565159
