#time,accel_x,accel_y,accel_z
726.354381,38.285162,1569.691626,-9839.286531
726.357048,-57.427742,4555.934230,-9762.716208
726.359715,57.427742,5570.491013,-9418.149754
726.362381,-382.851616,5551.348432,-10356.136213
726.365048,440.279358,1263.410333,-7676.174901
726.367715,-669.990328,631.705166,-11447.263318
726.370382,76.570323,-5551.348432,-8461.020714
726.373048,-248.853550,-9628.718142,-8461.020714
726.375715,191.425808,-10509.276859,-11734.402030
726.378382,535.992262,-6029.912952,-8824.729749
726.381049,-2335.394858,2316.252277,-9667.003304
726.383715,1684.547110,-2411.965181,-8556.733618
726.386382,-401.994197,-287.138712,-10853.843314
726.389049,287.138712,-1627.119368,-8556.733618
726.391716,-0.000000,-2718.246474,-10892.128475
726.394339,-727.418070,-4345.365842,-8690.731683
726.396962,38.285162,-8078.169098,-8709.874264
726.399585,-248.853550,-10892.128475,-9609.575562
726.402208,-421.136778,-8614.161360,-11045.269122
726.404831,-497.707101,-3790.230998,-9437.292334
726.407454,-57.427742,-2890.529701,-8958.727814
726.410076,-267.996131,1167.697429,-8384.450390
726.412699,746.560651,19.142581,-11179.267187
726.415322,-1722.832272,1607.976787,-12155.538808
726.417945,2584.248408,-3809.373579,-3924.229064
726.420568,-287.138712,-2507.678085,-11026.126541
726.423191,-861.416136,-2737.389054,-14203.794954
726.425814,1282.552914,-3369.094221,-5015.356170
726.428437,-1473.978722,-382.851616,-12557.533005
726.431060,497.707101,-57.427742,-10604.989763
726.433683,-803.988394,2890.529701,-4019.941968
726.436306,1244.267752,-1339.980656,-15926.627226
726.438929,-976.271621,-76.570323,-7465.606512
726.441552,325.423874,-2813.959378,-7255.038123
726.444175,344.566454,-3043.670347,-12423.534939
726.446798,-1071.984525,-1665.404530,-11696.116869
726.449421,497.707101,-1818.545176,-4689.932296
726.452044,-631.705166,325.423874,-13763.515595
726.454667,-191.425808,382.851616,-10585.847182
726.457290,746.560651,1914.258080,-4402.793584
726.459913,-765.703232,-784.845813,-14127.224630
726.462536,172.283227,-1186.840010,-8729.016845
726.465159,708.275490,-3024.527766,-7618.747158
726.467782,-746.560651,-2756.531635,-12155.538808
726.470405,497.707101,-2335.394858,-8977.870395
726.473028,-937.986459,-937.986459,-8327.022648
726.475651,-95.712904,1148.554848,-11830.114934
726.478273,114.855485,-229.710970,-9092.725880
726.480896,76.570323,669.990328,-7063.612315
726.483519,1205.982590,-2718.246474,-12710.673651
726.486142,-995.414202,-133.998066,-7637.889739
726.488765,-823.130974,-1493.121302,-10528.419440
726.491388,574.277424,-2354.537438,-10030.712339
726.494011,-899.701298,-497.707101,-10049.854920
726.496634,382.851616,-1454.836141,-9092.725880
726.499227,-248.853550,631.705166,-9016.155557
726.501819,-765.703232,-440.279358,-11255.837510
726.504412,344.566454,267.996131,-7886.743290
726.507005,-497.707101,-689.132909,-10126.425243
726.509597,172.283227,-1875.972918,-9915.856854
726.512190,-421.136778,-1454.836141,-9533.005238
726.514783,38.285162,-1837.687757,-9552.147819
726.517375,-727.418070,-76.570323,-9552.147819
726.519968,2526.820666,-2239.681954,-11830.114934
726.522561,-2833.101958,2641.676150,-6776.473603
726.525153,1244.267752,-2450.250342,-8882.157491
726.527746,-363.709035,-631.705166,-11236.694930
726.530338,-1359.123237,-1167.697429,-9724.431046
726.532931,1301.695494,-2124.826469,-8441.878133
726.535524,-1282.552914,-1148.554848,-11351.550414
726.538116,1244.267752,-2986.242605,-8499.305875
726.540709,1473.978722,-1646.261949,-8173.882002
726.543302,-3560.520029,2660.818731,-14184.652373
726.545894,2641.676150,363.709035,-4115.654872
726.548487,-1186.840010,478.564520,-12117.253646
726.551079,-937.986459,-325.423874,-11121.839445
726.553672,1990.828403,-3809.373579,-6795.616184
726.556265,-1378.265818,-1818.545176,-10183.852986
726.558857,-440.279358,-2220.539373,-12308.679454
726.561450,516.849682,-2163.111630,-6623.332957
726.564043,-459.421939,1205.982590,-9016.155557
726.566635,-574.277424,-38.285162,-13954.941403
726.569228,191.425808,1799.402595,-5474.778109
726.571820,1971.685822,-1875.972918,-10413.563955
726.574413,-2986.242605,765.703232,-10394.421374
726.577006,1703.689691,-4096.512291,-8901.300072
726.579598,-574.277424,-2354.537438,-7331.608446
726.582191,-210.568389,-2143.969050,-14318.650438
726.584784,95.712904,-727.418070,-6776.473603
726.587376,-1588.834206,4402.793584,-9245.866526
726.589969,2871.387120,-2526.820666,-11083.554283
726.592562,-1378.265818,-76.570323,-8652.446522
726.595154,478.564520,-2986.242605,-8729.016845
726.597747,1033.699363,-2947.957443,-11657.831707
726.600339,-1473.978722,-1263.410333,-8173.882002
726.602907,803.988394,-2029.113565,-9188.438784
726.605476,-765.703232,842.273555,-11351.550414
726.608044,-38.285162,-172.283227,-8461.020714
726.610612,-38.285162,784.845813,-10183.852986
726.613180,-306.281293,-421.136778,-9858.429112
726.615748,210.568389,-38.285162,-8193.024582
726.618316,-210.568389,-2813.959378,-11255.837510
726.620884,-95.712904,-2354.537438,-8709.874264
726.623452,-287.138712,-1359.123237,-9054.440718
726.626020,-325.423874,-937.986459,-10279.565890
726.628588,287.138712,574.277424,-10088.140082
726.631156,-38.285162,-631.705166,-9054.440718
726.633724,95.712904,-153.140646,-8595.018779
726.636292,229.710970,-2048.256146,-12212.966550
726.638860,-2354.537438,1741.974853,-7791.030386
726.641428,995.414202,-1301.695494,-10547.562021
726.643996,210.568389,-1588.834206,-8059.026517
726.646564,153.140646,-3943.371645,-11676.974288
726.649132,-248.853550,-2603.390989,-8690.731683
726.651700,-765.703232,-650.847747,-10030.712339
726.654269,631.705166,-1244.267752,-8690.731683
726.656837,-1569.691626,2316.252277,-12308.679454
726.659405,2258.824534,708.275490,-7733.602643
726.661973,-306.281293,1186.840010,-7714.460062
726.664541,-957.129040,-861.416136,-14892.927862
726.667109,937.986459,-3235.096155,-5570.491013
726.669677,-957.129040,-2220.539373,-9801.001370
726.672245,133.998066,-3771.088418,-13074.382686
726.674813,-287.138712,-861.416136,-6068.198114
726.677381,-76.570323,-1225.125171,-11064.411702
726.679949,-344.566454,1741.974853,-9973.284597
726.682517,382.851616,267.996131,-8422.735552
726.685068,-76.570323,861.416136,-9820.143950
726.687619,497.707101,-1780.260014,-10834.700733
726.690170,38.285162,-1646.261949,-7063.612315
726.692721,-2163.111630,-593.420005,-12634.103328
726.695272,-497.707101,-1550.549045,-10260.423309
726.697823,880.558717,-1607.976787,-6355.336826
726.700374,-1780.260014,-1205.982590,-15103.496251
726.702925,1416.550979,-880.558717,-6910.471669
726.705476,-325.423874,382.851616,-8365.307810
726.708027,-612.562586,478.564520,-11447.263318
726.710578,133.998066,-306.281293,-7733.602643
726.713129,-172.283227,-1339.980656,-10758.130410
726.715680,-1110.269686,-382.851616,-13495.519464
726.718231,2603.390989,-3541.377448,-4785.645200
726.720782,-1014.556782,-267.996131,-8039.883936
726.723333,-1397.408398,-1531.406464,-16252.051099
726.725884,1722.832272,-784.845813,-4785.645200
726.728435,-861.416136,-574.277424,-7465.606512
726.730985,-267.996131,-765.703232,-15926.627226
726.733536,823.130974,-574.277424,-6374.479406
726.736087,-325.423874,-1761.117434,-10222.138147
726.738638,-535.992262,-918.843878,-14682.359474
726.741189,555.134843,-2852.244539,-3828.516160
726.743740,765.703232,-880.558717,-9877.571693
726.746291,-2373.680019,38.285162,-16692.330458
726.748842,440.279358,267.996131,-1875.972918
726.751393,1914.258080,-1339.980656,-11217.552349
726.753944,-2431.107762,1244.267752,-14050.654307
726.756495,-248.853550,0.000000,-6163.911018
726.759046,1722.832272,-3407.379382,-8135.596840
726.761597,-1531.406464,-1607.976787,-13974.083984
726.764148,57.427742,-3617.947771,-7676.174901
726.766699,535.992262,-1129.412267,-7159.325219
726.769250,-689.132909,-937.986459,-13974.083984
726.771801,-497.707101,1856.830338,-7274.180704
726.774352,765.703232,593.420005,-9399.007173
726.776903,-880.558717,0.000000,-13686.945272
726.779454,-516.849682,-229.710970,-6872.186507
726.782005,1052.841944,-4039.084549,-8193.024582
726.784556,-1167.697429,-1856.830338,-12978.669782
726.787107,2316.252277,-3847.658741,-9973.284597
726.789658,-823.130974,1646.261949,-6833.901346
726.792209,-2029.113565,784.845813,-10681.560086
726.794760,2909.672282,-2411.965181,-8269.594906
726.797311,-2699.103893,325.423874,-10585.847182
726.799862,1646.261949,-1588.834206,-10968.698798
726.802413,-2584.248408,1378.265818,-8805.587168
726.804964,1091.127106,-1856.830338,-8709.874264
726.807508,-612.562586,-19.142581,-12078.968485
726.810053,-1397.408398,-153.140646,-9513.862658
726.812597,1320.838075,-2316.252277,-8020.741355
726.815142,-976.271621,-2067.398726,-13227.523333
726.817687,478.564520,-1473.978722,-6029.912952
726.820231,-38.285162,-669.990328,-11351.550414
726.822776,-784.845813,76.570323,-9934.999435
726.825320,535.992262,344.566454,-8537.591037
726.827865,-421.136778,-1052.841944,-11045.269122
726.830410,-650.847747,-95.712904,-7446.463931
726.832954,1205.982590,-2545.963246,-12423.534939
726.835499,-1397.408398,363.709035,-9322.436850
726.838043,1895.115499,-3101.098090,-8863.014910
726.840588,-1339.980656,229.710970,-8709.874264
726.843133,1856.830338,-1148.554848,-12500.105262
726.845677,-1320.838075,516.849682,-6317.051664
726.848222,995.414202,-306.281293,-9915.856854
726.850766,-95.712904,-3483.949706,-10872.985894
726.853311,-535.992262,-401.994197,-8422.735552
726.855856,-1148.554848,-401.994197,-13438.091722
726.858400,765.703232,172.283227,-4919.643266
726.860945,-248.853550,-114.855485,-12902.099459
726.863489,-1033.699363,1014.556782,-9073.583299
726.866034,-38.285162,-976.271621,-8843.872330
726.868579,1071.984525,-3273.381317,-9762.716208
726.871123,-1799.402595,-650.847747,-10738.987829
726.873668,880.558717,-3407.379382,-7733.602643
726.876212,-248.853550,-478.564520,-9360.722011
726.878757,-1320.838075,-746.560651,-12423.534939
726.881302,1110.269686,76.570323,-6068.198114
726.883846,-803.988394,-382.851616,-13897.513661
726.886391,1301.695494,210.568389,-7503.891674
726.888925,-1435.693560,1607.976787,-7982.456194
726.891460,344.566454,-2641.676150,-13265.808494
726.893995,-114.855485,-1837.687757,-6699.903280
726.896529,-325.423874,-3196.810994,-10011.569758
726.899064,325.423874,-1282.552914,-11294.122672
726.901598,-210.568389,-1301.695494,-8729.016845
726.904133,497.707101,-1263.410333,-7484.749093
726.906667,2239.681954,-1301.695494,-13036.097525
726.909202,-3962.514226,3924.229064,-10509.276859
726.911736,1722.832272,306.281293,-6336.194245
726.914271,689.132909,-1722.832272,-12251.251712
726.916805,-3617.947771,1761.117434,-9188.438784
726.919340,3273.381317,-5800.201982,-8939.585234
726.921875,-1263.410333,-2699.103893,-7523.034254
726.924409,535.992262,-3541.377448,-11351.550414
726.926944,555.134843,-1205.982590,-7025.327154
726.929478,-1167.697429,1914.258080,-10413.563955
726.932013,631.705166,401.994197,-12614.960747
726.934547,-382.851616,3139.383251,-5359.922624
726.937082,1416.550979,-497.707101,-12251.251712
726.939616,-3024.527766,1148.554848,-9054.440718
726.942151,1971.685822,-5551.348432,-8729.016845
726.944685,-803.988394,-3081.955509,-8729.016845
726.947220,-957.129040,-3847.658741,-13074.382686
726.949755,1205.982590,-2775.674216,-6585.047795
726.952289,-784.845813,765.703232,-11255.837510
726.954824,516.849682,1071.984525,-10394.421374
726.957358,-0.000000,2718.246474,-6872.186507
726.959893,-669.990328,1129.412267,-11810.972354
726.962427,57.427742,-382.851616,-7752.745224
726.964962,-287.138712,-3407.379382,-8461.020714
726.967496,459.421939,-3675.375514,-12270.394293
726.970031,-1512.263883,-1301.695494,-9934.999435
726.972566,2009.970984,-2756.531635,-5915.057467
726.975100,-1722.832272,-57.427742,-13361.521398
726.977635,440.279358,-899.701298,-7982.456194
726.980169,95.712904,1359.123237,-8767.302006
726.982704,287.138712,516.849682,-11428.120738
726.985238,38.285162,976.271621,-7369.893608
726.987773,-57.427742,-1684.547110,-10758.130410
726.990300,-344.566454,-1741.974853,-10183.852986
726.992828,57.427742,-3426.521963,-9437.292334
726.995356,191.425808,-2469.392923,-9245.866526
726.997883,-708.275490,-1454.836141,-9896.714274
727.000411,497.707101,-1129.412267,-9571.290400
727.002938,-478.564520,1933.400661,-8920.442653
727.005466,440.279358,-57.427742,-11255.837510
727.007994,-593.420005,1244.267752,-7331.608446
727.010521,555.134843,-1990.828403,-11255.837510
727.013049,-631.705166,-1875.972918,-8690.731683
727.015577,38.285162,-3062.812928,-10432.706536
727.018104,574.277424,-3617.947771,-8920.442653
727.020632,-287.138712,-516.849682,-9647.860723
727.023159,-2048.256146,2258.824534,-12538.390424
727.025687,497.707101,1550.549045,-2947.957443
727.028215,1646.261949,-2411.965181,-18013.168533
727.030742,-3771.088418,3101.098090,-5168.496816
727.033270,5130.211654,-4823.930362,-7101.897477
727.035797,-4460.221326,0.000000,-14969.498186
727.038325,1818.545176,-3311.666478,-8729.016845
727.040853,229.710970,-2699.103893,-6355.336826
727.043380,-1722.832272,535.992262,-13093.525267
727.045908,937.986459,-1818.545176,-10260.423309
727.048435,-38.285162,1914.258080,-4230.510357
727.050963,-19.142581,-287.138712,-15314.064640
727.053491,-363.709035,382.851616,-7408.178770
727.056018,574.277424,-1990.828403,-7695.317482
727.058546,-535.992262,-1895.115499,-14165.509792
727.061074,-669.990328,-1531.406464,-7235.895542
727.063601,1033.699363,-3024.527766,-8977.870395
727.066129,-1665.404530,-191.425808,-12634.103328
727.068656,287.138712,-957.129040,-7733.602643
727.071184,382.851616,478.564520,-7408.178770
727.073712,-1607.976787,1531.406464,-11849.257515
727.076239,1033.699363,2048.256146,-11198.409768
727.078767,-1359.123237,1110.269686,-8422.735552
727.081294,2297.109696,-3464.807125,-10164.710405
727.083822,95.712904,-4019.941968,-6068.198114
727.086350,-2124.826469,-3560.520029,-13495.519464
727.088877,976.271621,-3330.809059,-10317.851051
727.091284,-344.566454,-2239.681954,-4957.928427
727.093691,-957.129040,1646.261949,-12768.101394
727.096098,880.558717,727.418070,-11562.118803
727.098504,-708.275490,3311.666478,-3962.514226
727.100911,421.136778,287.138712,-12825.529136
727.103318,-459.421939,-574.277424,-11447.263318
727.105724,-172.283227,-2182.254211,-6163.911018
727.108131,880.558717,-4747.360038,-11121.839445
727.110538,-1837.687757,-1856.830338,-10585.847182
727.112944,1435.693560,-3196.810994,-5972.485210
727.115351,-708.275490,1397.408398,-11657.831707
727.117758,-516.849682,1493.121302,-11236.694930
727.120165,421.136778,1837.687757,-6106.483275
727.122571,727.418070,516.849682,-11983.255581
727.124978,-516.849682,-1129.412267,-9035.298138
727.127385,899.701298,-2392.822600,-9131.011042
727.129791,-1952.543242,-1875.972918,-10815.558152
727.132198,-612.562586,-899.701298,-9322.436850
727.134605,1722.832272,-4230.510357,-9667.003304
727.137011,-1588.834206,-38.285162,-8863.014910
727.139418,459.421939,-1339.980656,-11906.685258
727.141825,535.992262,669.990328,-6891.329088
727.144231,-555.134843,287.138712,-10490.134278
727.146638,497.707101,-1435.693560,-10260.423309
727.149045,-593.420005,459.421939,-7733.602643
727.151451,-95.712904,-2852.244539,-9992.427178
727.153858,19.142581,-2029.113565,-10872.985894
727.156265,-440.279358,-2411.965181,-8977.870395
727.158671,535.992262,-976.271621,-8786.444587
727.161078,-344.566454,-1110.269686,-12174.681389
727.163485,38.285162,-57.427742,-7637.889739
727.165891,57.427742,574.277424,-10892.128475
727.168298,-191.425808,-153.140646,-9016.155557
727.170705,-727.418070,-229.710970,-9379.864592
727.173111,363.709035,-2603.390989,-10413.563955
727.175518,478.564520,-1952.543242,-9188.438784
727.177925,689.132909,-3369.094221,-8078.169098
727.180331,-784.845813,478.564520,-12404.392358
727.182738,-976.271621,1627.119368,-8614.161360
727.185145,2660.818731,-2392.822600,-7848.458128
727.187591,-1875.972918,535.992262,-10777.272990
727.190037,-803.988394,-1167.697429,-11428.120738
727.192484,1627.119368,-1512.263883,-6891.329088
727.194930,-631.705166,-2335.394858,-9877.571693
727.197376,-1205.982590,-459.421939,-11274.980091
727.199823,1205.982590,-2622.533570,-9150.153622
727.202269,-248.853550,76.570323,-7140.182638
727.204715,-937.986459,344.566454,-13284.951075
727.207162,689.132909,-650.847747,-8441.878133
727.209608,-191.425808,-76.570323,-7676.174901
727.212054,-210.568389,-1186.840010,-12289.536874
727.214501,-689.132909,-114.855485,-9188.438784
727.216947,1110.269686,-3330.809059,-8958.727814
727.219393,-976.271621,-535.992262,-11121.839445
727.221839,-669.990328,-612.562586,-10336.993632
727.224286,-823.130974,306.281293,-9111.868461
727.226732,2335.394858,-2469.392923,-7905.885870
727.229178,421.136778,-2794.816797,-9954.142016
727.231625,-1263.410333,287.138712,-10738.987829
727.234071,-995.414202,-248.853550,-9858.429112
727.236517,4249.652938,0.000000,-9552.147819
727.238964,-5283.352301,2871.387120,-8863.014910
727.241410,3158.525832,-2277.967115,-8269.594906
727.243856,-861.416136,-1741.974853,-10528.419440
727.246303,-1875.972918,-229.710970,-11542.976222
727.248749,2124.826469,-4613.361973,-9992.427178
727.251195,-1761.117434,-1110.269686,-8748.159426
727.253642,976.271621,-593.420005,-10853.843314
727.256088,-325.423874,-248.853550,-7714.460062
727.258534,-612.562586,1454.836141,-10681.560086
727.260980,497.707101,-38.285162,-11140.982026
727.263427,-440.279358,593.420005,-6374.479406
727.265873,593.420005,-2526.820666,-13150.953010
727.268319,-784.845813,-1454.836141,-8690.731683
727.270766,382.851616,-2354.537438,-8824.729749
727.273212,-421.136778,-2316.252277,-10968.698798
727.275658,-2220.539373,1359.123237,-9973.284597
727.278105,2277.967115,-2545.963246,-6987.041992
727.280551,-459.421939,-172.283227,-9801.001370
727.282997,440.279358,-2163.111630,-11408.978157
727.285471,-440.279358,957.129040,-9973.284597
727.287944,-1186.840010,1493.121302,-8595.018779
727.290417,823.130974,-1818.545176,-10088.140082
727.292890,-2507.678085,325.423874,-10604.989763
727.295364,2086.541307,-4670.789715,-9628.718142
727.297837,-1971.685822,-267.996131,-7829.315547
727.300310,937.986459,-3483.949706,-11715.259450
727.302783,-95.712904,-631.705166,-8882.157491
727.305257,-746.560651,401.994197,-9016.155557
727.307730,1148.554848,-57.427742,-10681.560086
727.310203,-899.701298,1225.125171,-8939.585234
727.312676,344.566454,-401.994197,-9513.862658
727.315150,-0.000000,-535.992262,-11351.550414
727.317623,-382.851616,-2048.256146,-7216.752962
727.320096,-440.279358,-1971.685822,-11217.552349
727.322569,95.712904,-2833.101958,-10126.425243
727.325043,-76.570323,-306.281293,-7082.754896
727.327516,-1416.550979,861.416136,-13610.374949
727.329989,1339.980656,-1780.260014,-5206.781978
727.332462,-95.712904,-746.560651,-12078.968485
727.334936,-555.134843,-1091.127106,-11562.118803
727.337409,708.275490,-497.707101,-5053.641331
727.339882,-555.134843,-937.986459,-12098.111066
727.342355,-440.279358,-57.427742,-10030.712339
727.344829,535.992262,-2316.252277,-7293.323285
727.347302,-133.998066,-612.562586,-9992.427178
727.349775,-421.136778,-1091.127106,-12174.681389
727.352248,918.843878,-1129.412267,-5838.487144
727.354722,-210.568389,-76.570323,-12270.394293
727.357195,-1186.840010,153.140646,-9628.718142
727.359668,1263.410333,-612.562586,-6259.623922
727.362141,-1665.404530,-957.129040,-13361.521398
727.364615,612.562586,-1186.840010,-6967.899411
727.367088,-765.703232,-1569.691626,-9016.155557
727.369561,957.129040,-2871.387120,-12232.109131
727.372034,535.992262,-2009.970984,-7446.463931
727.374508,-1512.263883,823.130974,-11983.255581
727.376981,-153.140646,1205.982590,-8729.016845
727.379454,803.988394,-784.845813,-10298.708470
727.381927,-1052.841944,1282.552914,-9705.288466
727.384420,708.275490,-1627.119368,-9801.001370
727.386912,-1301.695494,976.271621,-8039.883936
727.389404,1282.552914,-4077.369710,-10777.272990
727.391896,-957.129040,-2258.824534,-9150.153622
727.394388,535.992262,-3062.812928,-9341.579430
727.396881,-172.283227,-1052.841944,-10126.425243
727.399373,-708.275490,918.843878,-9762.716208
727.401865,612.562586,-153.140646,-10126.425243
727.404357,-880.558717,2565.105827,-8614.161360
727.406849,133.998066,38.285162,-10949.556218
727.409342,-95.712904,784.845813,-8499.305875
727.411834,401.994197,344.566454,-10088.140082
727.414326,-555.134843,2641.676150,-10279.565890
727.416818,497.707101,2928.814862,-9360.722011
727.419310,-478.564520,3407.379382,-10470.991698
727.421803,382.851616,1990.828403,-9743.573627
727.424295,-172.283227,3254.238736,-9169.296203
727.426787,57.427742,2967.100024,-10336.993632
727.429279,-306.281293,1052.841944,-10394.421374
727.431772,114.855485,76.570323,-8307.880067
727.434264,-248.853550,669.990328,-10777.272990
727.436756,57.427742,-172.283227,-9475.577496
727.439248,-478.564520,-401.994197,-9934.999435
727.441740,-153.140646,-535.992262,-9686.145885
727.444233,-95.712904,-535.992262,-9571.290400
727.446725,-57.427742,2545.963246,-10700.702667
727.449217,172.283227,5589.633594,-9303.294269
727.451709,-153.140646,10317.851051,-10432.706536
727.454201,784.845813,8748.159426,-8135.596840
727.456694,-306.281293,7465.606512,-9667.003304
727.459186,-325.423874,3158.525832,-11983.255581
727.461678,76.570323,-4728.217458,-7637.889739
727.464170,-459.421939,-5474.778109,-9494.720077
727.466662,-153.140646,-5321.637462,-12078.968485
727.469155,-172.283227,-4211.367776,-8307.880067
727.471647,-248.853550,-1091.127106,-8729.016845
727.474139,421.136778,1741.974853,-9571.290400
727.476631,-574.277424,5417.350366,-10260.423309
727.479123,1091.127106,1320.838075,-9494.720077
727.481616,-440.279358,1167.697429,-9322.436850
727.484122,210.568389,-3196.810994,-10528.419440
727.486629,-1397.408398,-4823.930362,-7637.889739
727.489135,1282.552914,-6604.190376,-12576.675586
727.491641,-1186.840010,-3541.377448,-6719.045861
727.494148,267.996131,-842.273555,-12500.105262
727.496654,-1588.834206,2641.676150,-9016.155557
727.499161,918.843878,3330.809059,-8231.309744
727.501667,172.283227,2469.392923,-12117.253646
727.504173,38.285162,3369.094221,-6221.338760
727.506680,-306.281293,-2009.970984,-11428.120738
727.509186,-421.136778,-3235.096155,-9245.866526
727.511693,-899.701298,-4498.506488,-10509.276859
727.514199,306.281293,-5072.783912,-9686.145885
727.516706,-650.847747,-823.130974,-9035.298138
727.519212,555.134843,-459.421939,-9571.290400
727.521718,650.847747,2392.822600,-10317.851051
727.524225,-1205.982590,3139.383251,-9724.431046
727.526731,1205.982590,1512.263883,-8518.448456
727.529238,-1416.550979,-76.570323,-10432.706536
727.531744,210.568389,-3005.385186,-8480.163294
727.534251,-267.996131,-4211.367776,-10662.417506
727.536757,-421.136778,-4307.080680,-8824.729749
727.539263,401.994197,-2450.250342,-10317.851051
727.541770,-76.570323,-535.992262,-10279.565890
727.544276,823.130974,2622.533570,-8997.012976
727.546783,-861.416136,2277.967115,-9533.005238
727.549289,669.990328,-555.134843,-10183.852986
727.551796,267.996131,-2239.681954,-9150.153622
727.554302,-1454.836141,-2048.256146,-8327.022648
727.556808,976.271621,-4019.941968,-11140.982026
727.559315,-803.988394,-3177.668413,-9418.149754
727.561821,-76.570323,-248.853550,-7982.456194
727.564328,440.279358,-957.129040,-13016.954944
727.566834,-593.420005,2584.248408,-6106.483275
727.569340,669.990328,382.851616,-11255.837510
727.571847,-899.701298,1875.972918,-9820.143950
727.574353,727.418070,-1588.834206,-8346.165229
727.576860,-631.705166,-2507.678085,-9647.860723
727.579366,-363.709035,-2469.392923,-10987.841379
727.581873,746.560651,-3349.951640,-8231.309744
727.584391,-842.273555,-19.142581,-9973.284597
727.586909,516.849682,-861.416136,-9379.864592
727.589427,-1780.260014,1952.543242,-7484.749093
727.591945,1531.406464,-2794.816797,-13686.945272
727.594463,172.283227,-1205.982590,-9647.860723
727.596982,650.847747,153.140646,-4441.078746
727.599500,-1416.550979,-153.140646,-12710.673651
727.602018,-153.140646,-727.418070,-11255.837510
727.604536,803.988394,-3292.523898,-6489.334891
727.607054,-555.134843,-861.416136,-11179.267187
727.609572,-153.140646,-1895.115499,-11964.113000
727.612091,440.279358,-287.138712,-5781.059402
727.614609,-574.277424,-574.277424,-11447.263318
727.617127,-459.421939,1550.549045,-11906.685258
727.619645,593.420005,-516.849682,-5819.344563
727.622163,-459.421939,-1761.117434,-12385.249778
727.624681,-133.998066,-1339.980656,-9858.429112
727.627199,344.566454,-2526.820666,-7312.465866
727.629718,-401.994197,-325.423874,-12710.673651
727.632236,-1512.263883,459.421939,-11619.546546
727.634754,172.283227,1665.404530,-7140.182638
727.637272,-229.710970,363.709035,-8384.450390
727.639790,-842.273555,-1493.121302,-5455.635528
727.642308,2813.959378,-5015.356170,-18108.881437
727.644827,-3943.371645,-459.421939,-5340.780043
727.647345,2871.387120,-2947.957443,-7752.745224
727.649863,1359.123237,-2373.680019,-16539.189811
727.652381,-2143.969050,4134.797453,-5111.069074
727.654899,631.705166,95.712904,-7427.321350
727.657417,133.998066,-248.853550,-15945.769806
727.659936,-880.558717,-708.275490,-5857.629725
727.662454,1339.980656,-3617.947771,-7810.172966
727.664972,-1205.982590,-1435.693560,-14395.220762
727.667490,19.142581,-2373.680019,-7944.171032
727.670008,497.707101,-133.998066,-7427.321350
727.672526,-631.705166,-727.418070,-12787.243974
727.675045,-440.279358,1052.841944,-8384.450390
727.677563,689.132909,-803.988394,-8422.735552
727.680081,-574.277424,650.847747,-10011.569758
727.682599,-650.847747,-880.558717,-11944.970419
727.685125,421.136778,-2488.535504,-5819.344563
727.687651,-248.853550,-1914.258080,-11026.126541
727.690177,-401.994197,-2009.970984,-11198.409768
727.692703,516.849682,-746.560651,-7216.752962
727.695229,-287.138712,-1167.697429,-11064.411702
727.697755,-1780.260014,1627.119368,-9437.292334
727.700280,3005.385186,-2545.963246,-9973.284597
727.702806,-401.994197,-133.998066,-7063.612315
727.705332,114.855485,-650.847747,-10375.278794
727.707858,267.996131,-1895.115499,-9552.147819
727.710384,-2086.541307,1033.699363,-8805.587168
727.712910,2373.680019,-3943.371645,-11447.263318
727.715436,-1378.265818,76.570323,-9131.011042
727.717962,-325.423874,-1397.408398,-8958.727814
727.720488,937.986459,-1531.406464,-10700.702667
727.723014,-957.129040,-172.283227,-10145.567824
727.725540,248.853550,440.279358,-7503.891674
727.728066,-172.283227,-401.994197,-10949.556218
727.730592,-210.568389,-1378.265818,-9992.427178
727.733117,95.712904,-1148.554848,-8671.589102
727.735643,-19.142581,-2048.256146,-10107.282662
727.738169,-172.283227,-1435.693560,-9801.001370
727.740695,-382.851616,-1607.976787,-9934.999435
727.743221,172.283227,-631.705166,-8729.016845
727.745747,114.855485,-995.414202,-10643.274925
727.748273,-612.562586,-267.996131,-8365.307810
727.750799,-1205.982590,153.140646,-9858.429112
727.753325,1282.552914,-2124.826469,-11332.407834
727.755851,497.707101,133.998066,-6948.756830
727.758377,248.853550,-1512.263883,-9628.718142
727.760903,-1225.125171,248.853550,-11906.685258
727.763428,-363.709035,-1244.267752,-9513.862658
727.765954,2431.107762,-2316.252277,-6642.475538
727.768480,-401.994197,-3675.375514,-10088.140082
727.771006,-1052.841944,976.271621,-12748.958813
727.773532,2201.396792,-1244.267752,-9456.434915
727.776058,-3790.230998,3426.521963,-7848.458128
727.778584,2239.681954,1684.547110,-11064.411702
727.781110,-1416.550979,746.560651,-9169.296203
727.783636,191.425808,-746.560651,-7044.469734
727.786095,-76.570323,-4096.512291,-14222.937534
727.788554,-650.847747,-2622.533570,-5991.627790
727.791013,612.562586,-3924.229064,-10796.415571
727.793473,-1282.552914,-1320.838075,-10643.274925
727.795932,401.994197,287.138712,-8805.587168
727.798391,708.275490,1205.982590,-8729.016845
727.800850,-382.851616,3101.098090,-11370.692995
727.803309,-861.416136,-1167.697429,-8154.739421
727.805768,1263.410333,-2469.392923,-11887.542677
727.808228,-1282.552914,-2067.398726,-6355.336826
727.810687,401.994197,-3215.953574,-11332.407834
727.813146,-363.709035,-1091.127106,-10815.558152
727.815605,267.996131,-899.701298,-6757.331022
727.818064,133.998066,880.558717,-11179.267187
727.820523,574.277424,-1071.984525,-9513.862658
727.822983,-957.129040,2124.826469,-9915.856854
727.825442,669.990328,-1531.406464,-10585.847182
727.827901,-1167.697429,248.853550,-7369.893608
727.830360,248.853550,-2603.390989,-11274.980091
727.832819,-401.994197,-1569.691626,-10011.569758
727.835278,-401.994197,-1627.119368,-8001.598774
727.837738,516.849682,-2737.389054,-10643.274925
727.840197,-689.132909,-267.996131,-10260.423309
727.842656,535.992262,-612.562586,-8135.596840
727.845115,-765.703232,1473.978722,-10490.134278
727.847574,-76.570323,-497.707101,-10662.417506
727.850033,401.994197,-229.710970,-6412.764568
727.852493,-1971.685822,-401.994197,-11274.980091
727.854952,1971.685822,-6278.766502,-9341.579430
727.857411,-1359.123237,-2986.242605,-10853.843314
727.859870,861.416136,-1875.972918,-7561.319416
727.862329,38.285162,1531.406464,-11906.685258
727.864788,-344.566454,2124.826469,-9590.432981
727.867248,957.129040,2411.965181,-8346.165229
727.869707,-861.416136,401.994197,-10968.698798
727.872166,689.132909,-1856.830338,-7695.317482
727.874625,-995.414202,-3235.096155,-12576.675586
727.877084,95.712904,-3579.662610,-8059.026517
727.879543,-650.847747,-1799.402595,-8441.878133
727.882003,153.140646,-1454.836141,-13055.240106
727.884486,-133.998066,2201.396792,-8020.741355
727.886969,-0.000000,344.566454,-8269.594906
727.889453,-229.710970,957.129040,-11504.691061
727.891936,-57.427742,-631.705166,-9360.722011
727.894419,-440.279358,-937.986459,-7542.176835
727.896903,-57.427742,-3273.381317,-12538.390424
727.899386,-95.712904,-3407.379382,-7944.171032
727.901870,19.142581,-1780.260014,-9284.151688
727.904353,555.134843,-1167.697429,-11504.691061
727.906836,76.570323,1837.687757,-7848.458128
727.909320,-1148.554848,344.566454,-9533.005238
727.911803,689.132909,133.998066,-12021.540742
727.914287,-784.845813,-401.994197,-6623.332957
727.916770,344.566454,-1684.547110,-11466.405899
727.919253,-1167.697429,-1148.554848,-12366.107197
727.921737,1225.125171,-2431.107762,-4134.797453
727.924220,-478.564520,-555.134843,-11542.976222
727.926703,1148.554848,-2794.816797,-13304.093656
727.929187,-1205.982590,1416.550979,-6278.766502
727.931670,344.566454,-153.140646,-9781.858789
727.934154,-631.705166,708.275490,-11389.835576
727.936637,-0.000000,-421.136778,-7963.313613
727.939120,-114.855485,-1014.556782,-9226.723946
727.941604,-784.845813,-1990.828403,-11294.122672
727.944087,325.423874,-2775.674216,-7905.885870
727.946570,-459.421939,-1110.269686,-10049.854920
727.949054,306.281293,-1952.543242,-11160.124606
727.951537,-612.562586,1148.554848,-7446.463931
727.954021,114.855485,-459.421939,-11887.542677
727.956504,172.283227,880.558717,-8920.442653
727.958987,133.998066,114.855485,-8001.598774
727.961471,-1703.689691,-1837.687757,-9399.007173
727.963954,1033.699363,-3656.232933,-13016.954944
727.966438,-95.712904,-3617.947771,-5225.924558
727.968921,-1167.697429,-1091.127106,-11466.405899
727.971404,1416.550979,-3101.098090,-14950.355605
727.973888,-114.855485,3349.951640,-3158.525832
727.976371,-899.701298,3464.807125,-11830.114934
727.978854,861.416136,1761.117434,-11064.411702
727.981338,-1512.263883,421.136778,-5991.627790
727.983840,1607.976787,-4173.082614,-11332.407834
727.986342,-1875.972918,-3694.518094,-12327.822035
727.988845,995.414202,-5704.489078,-4536.791650
727.991347,-1167.697429,-306.281293,-12978.669782
727.993849,344.566454,-172.283227,-8480.163294
727.996351,191.425808,2660.818731,-7063.612315
727.998853,-593.420005,1818.545176,-14012.369146
728.001355,248.853550,1761.117434,-6795.616184
728.003858,-459.421939,-593.420005,-8116.454259
728.006360,95.712904,-4613.361973,-13342.378818
728.008862,-95.712904,-3101.098090,-7791.030386
728.011364,823.130974,-4039.084549,-7714.460062
728.013866,-1225.125171,-574.277424,-11944.970419
728.016369,306.281293,-995.414202,-10509.276859
728.018871,95.712904,2163.111630,-7216.752962
728.021373,-1569.691626,957.129040,-11428.120738
728.023875,1588.834206,-669.990328,-11408.978157
728.026377,-38.285162,555.134843,-7791.030386
728.028880,-114.855485,-1014.556782,-11026.126541
728.031382,114.855485,-2163.111630,-8518.448456
728.033884,995.414202,-5130.211654,-10490.134278
728.036386,-1225.125171,-1167.697429,-10164.710405
728.038888,440.279358,-2163.111630,-10202.995566
728.041391,-363.709035,229.710970,-8441.878133
728.043893,-669.990328,1416.550979,-10738.987829
728.046395,631.705166,1205.982590,-9111.868461
728.048897,-306.281293,899.701298,-7982.456194
728.051399,-76.570323,-2297.109696,-11657.831707
728.053902,-248.853550,-1761.117434,-8805.587168
728.056404,593.420005,-4575.076811,-9265.009107
728.058906,-229.710970,-1990.828403,-9839.286531
728.061408,-344.566454,-1129.412267,-10815.558152
728.063910,765.703232,1378.265818,-8365.307810
728.066413,-861.416136,2029.113565,-9973.284597
728.068915,-612.562586,-19.142581,-9686.145885
728.071417,153.140646,-1225.125171,-10336.993632
728.073919,-784.845813,-3617.947771,-8269.594906
728.076421,1148.554848,-2852.244539,-12289.536874
728.078924,-1627.119368,114.855485,-8365.307810
728.081426,1225.125171,76.570323,-8729.016845
728.083941,-1588.834206,746.560651,-10604.989763
728.086457,1875.972918,-1761.117434,-8537.591037
728.088972,-957.129040,-823.130974,-12193.823970
728.091488,-861.416136,-172.283227,-6297.909083
728.094004,1129.412267,-2277.967115,-11772.687192
728.096519,-1071.984525,-1741.974853,-8403.592971
728.099035,19.142581,-497.707101,-9379.864592
728.101550,-765.703232,-1167.697429,-10949.556218
728.104066,918.843878,-1129.412267,-8767.302006
728.106581,-669.990328,-631.705166,-9379.864592
728.109097,-95.712904,-401.994197,-10336.993632
728.111612,516.849682,-1301.695494,-8843.872330
728.114128,-459.421939,-1454.836141,-9437.292334
728.116643,229.710970,76.570323,-10451.849117
728.119159,823.130974,-1818.545176,-8958.727814
728.121674,-2048.256146,-57.427742,-7867.600709
728.124190,1129.412267,-3675.375514,-13744.373014
728.126706,-497.707101,210.568389,-6795.616184
728.129221,-1780.260014,842.273555,-10566.704602
728.131737,-401.994197,-19.142581,-12997.812363
728.134252,-191.425808,-114.855485,-9226.723946
728.136768,19.142581,803.988394,-995.414202
728.139283,3254.238736,-4632.504554,-14854.642701
728.141799,-1780.260014,-3062.812928,-14682.359474
728.144314,-1186.840010,172.283227,1722.832272
728.146830,2833.101958,-3617.947771,-15926.627226
728.149345,-2947.957443,1761.117434,-12500.105262
728.151861,689.132909,344.566454,-4326.223261
728.154376,1091.127106,-76.570323,-9092.725880
728.156892,-3101.098090,2411.965181,-15294.922059
728.159408,2737.389054,-3962.514226,-6470.192310
728.161923,861.416136,-2258.824534,-6049.055533
728.164439,-2813.959378,-2029.113565,-14969.498186
728.166954,1703.689691,-2967.100024,-9858.429112
728.169470,325.423874,-1148.554848,-5455.635528
728.171985,-1129.412267,1952.543242,-12002.398162
728.174501,593.420005,401.994197,-12480.962682
728.177016,-593.420005,287.138712,-4249.652938
728.179532,-114.855485,-133.998066,-14069.796888
728.182047,-535.992262,-2813.959378,-11313.265253
728.184513,114.855485,-2411.965181,-4268.795518
728.186979,1531.406464,-4230.510357,-13782.658176
728.189445,-3215.953574,2086.541307,-10796.415571
728.191911,1684.547110,-957.129040,-7465.606512
728.194377,3962.514226,-3943.371645,-3005.385186
728.196842,-5513.063270,2029.113565,-17917.455629
728.199308,1914.258080,-382.851616,-11447.263318
728.201774,1110.269686,19.142581,-4881.358104
728.204240,-3905.086483,1895.115499,-12882.956878
728.206706,2335.394858,-1205.982590,-10470.991698
728.209172,-57.427742,-2009.970984,-4919.643266
728.211637,-976.271621,-2048.256146,-11810.972354
728.214103,133.998066,-2641.676150,-10356.136213
728.216569,-689.132909,-95.712904,-4747.360038
728.219035,899.701298,-497.707101,-14165.509792
728.221501,-1014.556782,823.130974,-9188.438784
728.223967,957.129040,1225.125171,-5972.485210
728.226432,57.427742,-1071.984525,-13744.373014
728.228898,38.285162,-497.707101,-8020.741355
728.231364,210.568389,-2775.674216,-8001.598774
728.233830,-3024.527766,-937.986459,-10413.563955
728.236296,3139.383251,-5685.346498,-13974.083984
728.238762,-1052.841944,-57.427742,-2220.539373
728.241227,-1473.978722,1627.119368,-13782.658176
728.243693,1837.687757,76.570323,-10547.562021
728.246159,-1282.552914,2909.672282,-4460.221326
728.248625,1244.267752,-2086.541307,-16500.904650
728.251091,-1033.699363,-1014.556782,-6144.768437
728.253557,-76.570323,-3215.953574,-8231.309744
728.256022,57.427742,-4019.941968,-13438.091722
728.258488,-976.271621,-1282.552914,-8748.159426
728.260954,1091.127106,-1091.127106,-6336.194245
728.263420,-1359.123237,2029.113565,-14184.652373
728.265886,650.847747,535.992262,-8193.024582
728.268352,229.710970,1703.689691,-6527.620053
728.270817,-918.843878,-1359.123237,-14318.650438
728.273283,765.703232,-2354.537438,-6393.621987
728.275749,-574.277424,-3292.523898,-9303.294269
728.278215,-191.425808,-2603.390989,-11887.542677
728.280681,382.851616,-1359.123237,-8595.018779
728.283169,-287.138712,210.568389,-8250.452325
728.285658,-899.701298,1569.691626,-10681.560086
728.288147,593.420005,-861.416136,-9379.864592
728.290635,-95.712904,325.423874,-7044.469734
728.293124,-631.705166,-1952.543242,-12576.675586
728.295613,57.427742,-1550.549045,-8403.592971
728.298101,57.427742,-2431.107762,-8135.596840
728.300590,746.560651,-3924.229064,-10738.987829
728.303079,-1646.261949,-497.707101,-10624.132344
728.305567,1933.400661,-1186.840010,-10872.985894
728.308056,-1799.402595,3158.525832,-8499.305875
728.310545,248.853550,650.847747,-9360.722011
728.313033,210.568389,918.843878,-9399.007173
728.315522,-593.420005,-1684.547110,-9858.429112
728.318011,535.992262,-3292.523898,-8269.594906
728.320499,-1014.556782,-3043.670347,-11332.407834
728.322988,-574.277424,-2737.389054,-9073.583299
728.325477,-344.566454,-918.843878,-9609.575562
728.327965,1378.265818,-535.992262,-11753.544611
728.330454,-899.701298,4594.219392,-5704.489078
728.332943,937.986459,976.271621,-12423.534939
728.335431,631.705166,1091.127106,-8958.727814
728.337920,-2909.672282,-1646.261949,-6240.481341
728.340409,1301.695494,-6431.907149,-14720.644635
728.342897,-765.703232,-4421.936165,-7465.606512
728.345386,-650.847747,-2584.248408,-8097.311678
728.347875,555.134843,-995.414202,-13189.238171
728.350363,631.705166,899.701298,-6948.756830
728.352852,-995.414202,3809.373579,-9360.722011
728.355341,1301.695494,306.281293,-15275.779478
728.357829,-1282.552914,2775.674216,-3330.809059
728.360318,995.414202,-3771.088418,-12710.673651
728.362807,-1282.552914,-4402.793584,-11600.403965
728.365295,555.134843,-3828.516160,-5302.494882
728.367784,-421.136778,-2718.246474,-12729.816232
728.370273,-287.138712,306.281293,-11026.126541
728.372761,918.843878,612.562586,-6087.340694
728.375250,-2124.826469,3828.516160,-12863.814298
728.377739,459.421939,-708.275490,-9379.864592
728.380227,1052.841944,-708.275490,-7178.467800
728.382735,-861.416136,-1512.263883,-10222.138147
728.385243,669.990328,-2258.824534,-10624.132344
728.387751,-38.285162,-937.986459,-8307.880067
728.390258,-1416.550979,-1052.841944,-10088.140082
728.392766,-803.988394,-1933.400661,-11466.405899
728.395274,937.986459,-2660.818731,-6183.053598
728.397782,440.279358,-918.843878,-11619.546546
728.400290,-899.701298,76.570323,-11255.837510
728.402798,-0.000000,1895.115499,-6049.055533
728.405305,38.285162,-153.140646,-11830.114934
728.407813,-421.136778,-1301.695494,-10068.997501
728.410321,401.994197,-2009.970984,-7542.176835
728.412829,-172.283227,-3177.668413,-11408.978157
728.415337,-248.853550,-1550.549045,-9801.001370
728.417844,574.277424,-2373.680019,-8614.161360
728.420352,-708.275490,1263.410333,-10298.708470
728.422860,555.134843,-210.568389,-9820.143950
728.425368,57.427742,1091.127106,-6451.049730
728.427876,-1359.123237,-1071.984525,-12193.823970
728.430383,1225.125171,-2928.814862,-12136.396227
728.432891,-1799.402595,918.843878,-3656.232933
728.435399,631.705166,-1627.119368,-13629.517530
728.437907,-401.994197,1167.697429,-9533.005238
728.440415,-421.136778,-191.425808,-7427.321350
728.442922,325.423874,-497.707101,-10624.132344
728.445430,-1110.269686,-1397.408398,-9820.143950
728.447938,1588.834206,-5015.356170,-6795.616184
728.450446,-1780.260014,-5130.211654,-12251.251712
728.452954,306.281293,-5991.627790,-9820.143950
728.455461,57.427742,-5723.631659,-7197.610381
728.457969,-708.275490,-4862.215523,-12691.531070
728.460477,574.277424,-1722.832272,-7810.172966
728.462985,-440.279358,-1378.265818,-8729.016845
