#time,accel_x,accel_y,accel_z
312.456881,612.876398,222.061783,9622.677246
312.457189,612.876398,222.061783,9474.636058
312.457497,612.876398,296.082377,9548.656652
312.457805,1149.143247,-0.000000,9770.718434
312.458113,612.876398,370.102971,9844.739029
312.458421,536.266849,-74.020594,9474.636058
312.458729,536.266849,-0.000000,9696.697840
312.459037,383.047749,-0.000000,9548.656652
312.459345,459.657299,222.061783,9696.697840
312.459653,536.266849,222.061783,9474.636058
312.459961,306.438199,222.061783,9474.636058
312.460269,306.438199,370.102971,9400.615463
312.460577,766.095498,296.082377,9548.656652
312.460885,766.095498,-0.000000,9474.636058
312.461193,689.485948,222.061783,9844.739029
312.461501,459.657299,148.041188,9474.636058
312.461809,612.876398,-0.000000,9622.677246
312.462117,306.438199,222.061783,9622.677246
312.462425,306.438199,148.041188,9770.718434
312.462733,383.047749,222.061783,9696.697840
312.463041,612.876398,-0.000000,9400.615463
312.463349,842.705048,370.102971,9548.656652
312.463657,612.876398,-0.000000,9474.636058
312.463964,842.705048,-0.000000,9474.636058
312.464272,536.266849,296.082377,9696.697840
312.464580,536.266849,148.041188,9622.677246
312.464888,459.657299,-0.000000,9474.636058
312.465196,612.876398,-296.082377,9474.636058
312.465504,919.314598,296.082377,9770.718434
312.465812,995.924147,-0.000000,9918.759623
312.466120,842.705048,-74.020594,9696.697840
312.466428,766.095498,370.102971,9474.636058
312.466736,689.485948,148.041188,9548.656652
312.467044,766.095498,222.061783,9474.636058
312.467352,689.485948,370.102971,9474.636058
312.467660,689.485948,222.061783,9474.636058
312.467968,459.657299,-0.000000,9474.636058
312.468276,689.485948,-0.000000,9696.697840
312.468584,383.047749,148.041188,9696.697840
312.468892,689.485948,296.082377,9770.718434
312.469200,383.047749,148.041188,9622.677246
312.469508,689.485948,222.061783,9474.636058
312.469816,919.314598,296.082377,9474.636058
312.470124,842.705048,148.041188,9696.697840
312.470432,995.924147,-0.000000,9918.759623
312.470740,1302.362347,-518.144159,9622.677246
312.471048,1762.019645,-592.164754,9844.739029
312.471356,689.485948,-666.185348,9844.739029
312.471663,612.876398,-444.123565,9844.739029
312.471971,842.705048,-296.082377,10214.842000
312.472279,1225.752797,-0.000000,10140.821405
312.472587,1685.410096,-74.020594,9548.656652
312.472895,1991.848295,370.102971,8808.450710
312.473203,2451.505594,666.185348,8586.388927
312.473511,2068.457845,370.102971,8734.430116
312.473819,2221.676944,592.164754,9030.512492
312.474127,1838.629195,296.082377,9252.574275
312.474435,1455.581446,296.082377,9400.615463
312.474743,1378.971896,-0.000000,9844.739029
312.475051,1455.581446,-74.020594,9992.780217
312.475359,1762.019645,-148.041188,9992.780217
312.475667,1762.019645,-222.061783,10288.862594
312.475975,1991.848295,-740.205942,9918.759623
312.476283,2068.457845,-74.020594,9992.780217
312.476591,2221.676944,74.020594,9770.718434
312.476899,2451.505594,296.082377,9474.636058
312.477207,2528.115143,222.061783,9252.574275
312.477515,2604.724693,296.082377,9474.636058
312.477823,2834.553343,592.164754,9252.574275
312.478131,2528.115143,444.123565,9844.739029
312.478439,2987.772442,444.123565,9992.780217
312.478747,2374.896044,148.041188,9770.718434
312.479054,2374.896044,-0.000000,9918.759623
312.479362,2451.505594,-0.000000,9770.718434
312.479670,2528.115143,-0.000000,9770.718434
312.479978,3217.601092,-74.020594,9918.759623
312.480286,3064.381992,-222.061783,10140.821405
312.480594,3064.381992,-222.061783,10214.842000
312.480902,3600.648841,-222.061783,9622.677246
312.481210,2834.553343,-74.020594,9696.697840
312.481518,3140.991542,-0.000000,9696.697840
312.481826,3677.258390,296.082377,9474.636058
312.482134,4060.306139,666.185348,9326.594869
312.482442,4290.134789,518.144159,8956.491898
312.482750,4826.401637,444.123565,9326.594869
312.483058,4290.134789,592.164754,9326.594869
312.483366,4136.915689,444.123565,9178.553681
312.483674,4290.134789,148.041188,9400.615463
312.483982,3907.087040,222.061783,9474.636058
312.484290,3983.696590,-0.000000,9770.718434
312.484598,4136.915689,-0.000000,9548.656652
312.484906,4060.306139,148.041188,9548.656652
312.485214,4826.401637,370.102971,9252.574275
312.485522,4826.401637,888.247130,9252.574275
312.485830,4366.744339,1258.350101,8882.471304
312.486138,4903.011187,1480.411884,9030.512492
312.486445,4749.792088,1036.288319,8364.327145
312.486753,4366.744339,1332.370696,9400.615463
312.487061,3907.087040,1036.288319,9474.636058
312.487369,3677.258390,444.123565,9696.697840
312.487677,4060.306139,888.247130,9992.780217
312.487985,2757.943793,-0.000000,10510.924376
312.488293,3217.601092,518.144159,9770.718434
312.488601,2604.724693,370.102971,9622.677246
312.488909,2834.553343,814.226536,9992.780217
312.489217,2834.553343,666.185348,10288.862594
312.489525,2681.334243,888.247130,9992.780217
312.489833,2604.724693,666.185348,9252.574275
312.490141,2068.457845,592.164754,9844.739029
312.490449,1991.848295,592.164754,9844.739029
312.490757,1685.410096,222.061783,10066.800811
312.491065,1455.581446,-296.082377,10658.965565
312.491373,1378.971896,-814.226536,10510.924376
312.491681,1225.752797,-1110.308913,10955.047942
312.491989,1302.362347,-1628.453072,11103.089130
312.492297,1991.848295,-2072.576638,10955.047942
312.492605,2604.724693,-2220.617826,10955.047942
312.492913,3370.820191,-1776.494261,9548.656652
312.493221,3447.429741,-1628.453072,9474.636058
312.493529,4060.306139,-1110.308913,9474.636058
312.493836,4213.525239,-222.061783,9178.553681
312.494144,5209.449386,-0.000000,9178.553681
312.494452,5132.839837,888.247130,8290.306550
312.494760,5056.230287,1480.411884,8216.285956
312.495068,5439.278036,814.226536,8068.244768
312.495376,5132.839837,740.205942,8290.306550
312.495684,4826.401637,592.164754,8216.285956
312.495992,4290.134789,296.082377,8512.368333
312.496300,3677.258390,-148.041188,9548.656652
312.496608,2911.162892,-0.000000,9548.656652
312.496916,2987.772442,-296.082377,9844.739029
312.497224,2987.772442,296.082377,9548.656652
312.497532,3524.039291,1110.308913,9178.553681
312.497840,4213.525239,2146.597232,8512.368333
312.498148,4749.792088,2664.741391,8364.327145
312.498456,4903.011187,3108.864956,8068.244768
312.498764,4443.353888,2812.782580,8290.306550
312.499072,3983.696590,1998.556043,9178.553681
312.499380,2528.115143,518.144159,10362.883188
312.499688,2068.457845,-1406.391290,11621.233289
312.499996,612.876398,-2664.741391,12731.542202
312.500304,0.000000,-3478.967927,13397.727550
312.500612,153.219100,-4071.132681,13767.830521
312.500920,1225.752797,-3627.009116,13545.768739
312.501228,2451.505594,-2738.761985,11769.274478
312.501535,3983.696590,-1036.288319,9548.656652
312.501843,5898.935335,222.061783,8660.409521
312.502151,7431.126331,1480.411884,7328.038826
312.502459,8427.050478,2738.761985,5625.565159
312.502767,7890.783629,4515.256246,5403.503377
312.503075,8120.612279,4959.379811,4885.359217
312.503383,6511.811733,5181.441594,5255.462188
312.503691,5439.278036,4293.194464,6291.750507
312.503999,4290.134789,3182.885551,7254.018232
312.504307,2834.553343,1554.432478,9030.512492
312.504615,1072.533697,-74.020594,10288.862594
312.504923,536.266849,-1998.556043,11843.295072
312.505231,-536.266849,-3256.906145,13693.809927
312.505539,-612.876398,-4293.194464,13841.851115
312.505847,0.000000,-4293.194464,13915.871710
312.506155,612.876398,-4219.173869,13545.768739
312.506463,1762.019645,-3404.947333,12731.542202
312.506771,3907.087040,-1998.556043,11917.315666
312.507079,5056.230287,-1110.308913,9474.636058
312.507387,5745.716235,296.082377,7624.121203
312.507695,6435.202183,1850.514855,6735.874072
312.508003,6435.202183,2738.761985,6587.832884
312.508311,6358.592633,3552.988522,5995.668130
312.508619,5975.544884,3552.988522,5921.647536
312.508926,5056.230287,2664.741391,6513.812290
312.509234,4366.744339,1036.288319,7846.182985
312.509542,2451.505594,-666.185348,9400.615463
312.509850,2987.772442,-2590.720797,11917.315666
312.510158,612.876398,-3775.050304,12509.480420
312.510466,612.876398,-4515.256246,13471.748144
312.510774,1532.190996,-3849.070898,12583.501014
312.511082,2681.334243,-2072.576638,11325.150913
312.511390,4673.182538,370.102971,9992.780217
312.511698,6894.859482,2960.823768,6957.935855
312.512006,8273.831378,4959.379811,5181.441594
312.512314,8427.050478,6365.771101,3182.885551
312.512622,8580.269578,5995.668130,4737.318029
312.512930,6971.469032,5033.400406,5551.544565
312.513238,4443.353888,2516.700203,7846.182985
312.513546,1762.019645,-666.185348,11177.109724
312.513854,-1762.019645,-2590.720797,12805.562797
312.514162,-3370.820191,-5995.668130,15914.427753
312.514470,-4443.353888,-5995.668130,16728.654289
312.514778,-2834.553343,-7179.997637,17024.736666
312.515086,-842.705048,-5551.544565,17468.860231
312.515394,1608.800546,-2368.659014,11843.295072
312.515702,3753.867940,740.205942,7624.121203
312.516010,7660.954980,3627.009116,6439.791695
312.516317,9346.365076,5625.565159,4737.318029
312.516625,9269.755526,7476.080014,3108.864956
312.516933,9959.241474,7105.977043,2294.638420
312.517241,8120.612279,5699.585753,3552.988522
312.517549,4136.915689,2960.823768,7105.977043
312.517857,1915.238745,-1110.308913,9696.697840
312.518165,-1532.190996,-3478.967927,12583.501014
312.518473,-2987.772442,-4811.338623,13989.892304
312.518781,-2604.724693,-4737.318029,13915.871710
312.519089,-1915.238745,-2664.741391,13175.665768
312.519397,1915.238745,-1110.308913,11621.233289
312.519705,3907.087040,1258.350101,8734.430116
312.520013,5669.106685,2664.741391,7772.162391
312.520321,6435.202183,3256.906145,7254.018232
312.520629,5209.449386,4367.215058,7105.977043
312.520937,3524.039291,2886.803174,8512.368333
312.521245,1838.629195,814.226536,9696.697840
312.521553,-842.705048,-1480.411884,11695.253884
312.521861,-2068.457845,-3330.926739,13397.727550
312.522169,-3524.039291,-4145.153275,13471.748144
312.522477,-3600.648841,-4219.173869,13989.892304
312.522785,-2451.505594,-3775.050304,12879.583391
312.523093,459.657299,-2072.576638,10807.006753
312.523401,3064.381992,-296.082377,9030.512492
312.523709,4749.792088,-148.041188,7550.100608
312.524017,4979.620737,592.164754,7031.956449
312.524325,5209.449386,2072.576638,7105.977043
312.524633,5975.544884,1554.432478,7254.018232
312.524941,4136.915689,2960.823768,6735.874072
312.525249,3677.258390,3923.091493,7031.956449
312.525557,3677.258390,4145.153275,6957.935855
312.525865,3753.867940,4071.132681,6365.771101
312.526173,3524.039291,3478.967927,7105.977043
312.526482,3907.087040,1702.473667,8586.388927
312.526790,2374.896044,-148.041188,9474.636058
312.527098,0.000000,-3034.844362,12879.583391
312.527406,-842.705048,-5551.544565,14211.954086
312.527714,-2987.772442,-5477.523971,14211.954086
312.528022,-3677.258390,-4959.379811,13249.686362
312.528330,-2604.724693,-2590.720797,11843.295072
312.528638,-842.705048,-0.000000,11177.109724
312.528947,459.657299,2738.761985,8808.450710
312.529255,1838.629195,3404.947333,7031.956449
312.529563,3830.477490,3849.070898,7846.182985
312.529871,3294.210641,3478.967927,5625.565159
312.530179,2604.724693,2368.659014,7772.162391
312.530487,1991.848295,222.061783,10658.965565
312.530795,306.438199,-1776.494261,11029.068536
312.531103,-1455.581446,-1702.473667,10955.047942
312.531412,-536.266849,-1628.453072,10732.986159
312.531720,153.219100,-888.247130,10140.821405
312.532028,1532.190996,444.123565,9400.615463
312.532336,2987.772442,1036.288319,8438.347739
312.532644,3140.991542,-0.000000,7550.100608
312.532952,3064.381992,-296.082377,7846.182985
312.533260,2451.505594,-444.123565,9326.594869
312.533568,1455.581446,-518.144159,9400.615463
312.533877,306.438199,-1110.308913,9622.677246
312.534185,-153.219100,-814.226536,10732.986159
312.534493,-919.314598,-148.041188,10510.924376
312.534801,-536.266849,592.164754,10140.821405
312.535109,0.000000,1184.329507,9548.656652
312.535417,229.828649,666.185348,9400.615463
312.535725,459.657299,-592.164754,9696.697840
312.536033,76.609550,-1110.308913,10584.944971
312.536342,766.095498,-1036.288319,11103.089130
312.536650,76.609550,-888.247130,10436.903782
312.536958,766.095498,666.185348,9474.636058
312.537266,1302.362347,1850.514855,9178.553681
312.537574,3064.381992,3701.029710,7476.080014
312.537882,3753.867940,3552.988522,7328.038826
312.538190,3830.477490,3108.864956,7031.956449
312.538498,2604.724693,1406.391290,8808.450710
312.538807,1455.581446,-1110.308913,11177.109724
312.539115,-919.314598,-2368.659014,11917.315666
312.539423,-1762.019645,-3256.906145,13027.624579
312.539731,-2834.553343,-3034.844362,12361.439231
312.540039,-3753.867940,-1628.453072,11547.212695
312.540347,-1685.410096,-0.000000,10584.944971
312.540655,76.609550,1480.411884,9400.615463
312.540963,1455.581446,2368.659014,8586.388927
312.541272,2834.553343,2368.659014,6513.812290
312.541580,2757.943793,2220.617826,6809.894666
312.541888,2145.067394,1036.288319,8512.368333
312.542196,1532.190996,814.226536,9622.677246
312.542504,766.095498,1184.329507,10066.800811
312.542812,306.438199,148.041188,9992.780217
312.543120,-153.219100,370.102971,9030.512492
312.543428,459.657299,518.144159,9252.574275
312.543737,1302.362347,-296.082377,10510.924376
312.544045,1302.362347,-1110.308913,10140.821405
312.544353,919.314598,-2072.576638,9770.718434
312.544661,153.219100,-3108.864956,10881.027347
312.544969,-383.047749,-3330.926739,11399.171507
312.545277,-612.876398,-2220.617826,11103.089130
312.545585,-536.266849,-148.041188,9696.697840
312.545893,612.876398,1110.308913,9030.512492
312.546202,612.876398,2368.659014,7846.182985
312.546510,1378.971896,3256.906145,7920.203579
312.546818,2374.896044,1924.535449,7772.162391
312.547126,383.047749,1332.370696,7105.977043
312.547434,229.828649,-0.000000,9918.759623
312.547742,383.047749,-962.267725,11251.130318
312.548050,-842.705048,-1332.370696,11399.171507
312.548358,-536.266849,-666.185348,10807.006753
312.548667,766.095498,-0.000000,9844.739029
312.548975,995.924147,1036.288319,9474.636058
312.549283,2681.334243,1554.432478,8956.491898
312.549591,3140.991542,1258.350101,8364.327145
312.549899,2528.115143,888.247130,8660.409521
312.550207,2068.457845,-148.041188,9030.512492
312.550515,1149.143247,-444.123565,9844.739029
312.550823,0.000000,-1036.288319,10955.047942
312.551132,-1685.410096,-962.267725,11399.171507
312.551440,-1455.581446,296.082377,10584.944971
312.551748,-995.924147,518.144159,10288.862594
312.552056,-766.095498,1110.308913,9400.615463
312.552364,612.876398,1702.473667,8734.430116
312.552672,995.924147,1406.391290,8660.409521
312.552980,919.314598,444.123565,9030.512492
312.553288,0.000000,-222.061783,9696.697840
312.553597,0.000000,-814.226536,11621.233289
312.553905,-229.828649,-444.123565,10510.924376
312.554213,383.047749,296.082377,9696.697840
312.554521,995.924147,1332.370696,9252.574275
312.554829,2451.505594,1406.391290,8142.265362
312.555137,2604.724693,1480.411884,7550.100608
312.555445,2451.505594,-0.000000,8808.450710
312.555753,1685.410096,-1480.411884,9622.677246
312.556062,229.828649,-2368.659014,10510.924376
312.556370,-229.828649,-3034.844362,11473.192101
312.556678,-1378.971896,-3182.885551,11547.212695
312.556986,-1532.190996,-1184.329507,10288.862594
312.557294,-689.485948,-74.020594,10288.862594
312.557602,0.000000,1776.494261,8882.471304
312.557910,1302.362347,2516.700203,7772.162391
312.558218,2068.457845,2664.741391,7772.162391
312.558526,1762.019645,2368.659014,7328.038826
312.558835,1608.800546,1406.391290,8734.430116
312.559143,919.314598,666.185348,10436.903782
312.559451,383.047749,-0.000000,10288.862594
312.559759,0.000000,222.061783,10214.842000
312.560067,306.438199,296.082377,10362.883188
312.560375,919.314598,740.205942,9622.677246
312.560683,1685.410096,518.144159,9400.615463
312.560991,1991.848295,296.082377,9326.594869
312.561300,2374.896044,-1184.329507,9030.512492
312.561608,1685.410096,-1924.535449,9548.656652
312.561916,459.657299,-2368.659014,11399.171507
312.562224,-536.266849,-2590.720797,11399.171507
312.562532,-766.095498,-1258.350101,11103.089130
312.562840,-919.314598,370.102971,10140.821405
312.563148,-153.219100,1924.535449,9252.574275
312.563456,1455.581446,2664.741391,8956.491898
312.563765,2145.067394,2664.741391,7105.977043
312.564073,2068.457845,2516.700203,7179.997637
312.564381,1991.848295,1258.350101,7698.141797
312.564689,919.314598,296.082377,9178.553681
312.564997,0.000000,-740.205942,10732.986159
312.565305,0.000000,-740.205942,10955.047942
312.565613,-229.828649,-222.061783,10288.862594
312.565921,842.705048,370.102971,9326.594869
312.566230,2451.505594,444.123565,9178.553681
312.566538,2068.457845,1036.288319,9030.512492
312.566846,2528.115143,-0.000000,8660.409521
312.567154,1378.971896,-740.205942,9326.594869
312.567462,612.876398,-1924.535449,10584.944971
312.567770,-306.438199,-2368.659014,11547.212695
312.568078,-689.485948,-1998.556043,11843.295072
312.568386,-1225.752797,-1110.308913,11769.274478
312.568695,-1149.143247,740.205942,9770.718434
312.569003,0.000000,1628.453072,9474.636058
312.569311,842.705048,2146.597232,8438.347739
312.569619,1378.971896,1554.432478,8216.285956
312.569927,1762.019645,1850.514855,7920.203579
312.570235,919.314598,1110.308913,7624.121203
312.570543,1072.533697,-148.041188,9548.656652
312.570851,919.314598,-0.000000,10140.821405
312.571160,306.438199,222.061783,10066.800811
312.571468,919.314598,814.226536,9474.636058
312.571776,1915.238745,1776.494261,9104.533087
312.572084,2068.457845,1628.453072,8808.450710
312.572392,2834.553343,962.267725,8660.409521
312.572700,2451.505594,222.061783,9178.553681
312.573008,1149.143247,-1554.432478,9326.594869
312.573316,-306.438199,-2220.617826,11695.253884
312.573625,-1302.362347,-3256.906145,12361.439231
312.573933,-1915.238745,-2442.679609,12139.377449
312.574241,-1608.800546,-814.226536,11251.130318
312.574549,-1072.533697,666.185348,9918.759623
312.574857,0.000000,1924.535449,9104.533087
312.575165,766.095498,2368.659014,8586.388927
312.575473,1378.971896,1702.473667,8142.265362
312.575781,1762.019645,1554.432478,7846.182985
312.576090,1378.971896,370.102971,9104.533087
312.576398,153.219100,296.082377,8956.491898
312.576706,766.095498,-0.000000,9992.780217
312.577014,459.657299,370.102971,9696.697840
312.577322,919.314598,1406.391290,9178.553681
312.577630,1302.362347,1258.350101,9030.512492
312.577938,1838.629195,888.247130,9252.574275
312.578246,3140.991542,-222.061783,9104.533087
312.578555,1455.581446,-1554.432478,9178.553681
312.578863,153.219100,-2368.659014,10140.821405
312.579171,0.000000,-3108.864956,11991.336260
312.579479,-1378.971896,-2368.659014,11843.295072
312.579787,-1685.410096,-1184.329507,11177.109724
312.580095,-1149.143247,-0.000000,10584.944971
312.580403,-459.657299,1332.370696,8882.471304
312.580711,0.000000,2220.617826,8512.368333
312.581020,1302.362347,2516.700203,8142.265362
312.581328,1532.190996,1554.432478,7254.018232
312.581636,383.047749,962.267725,8216.285956
312.581944,919.314598,-370.102971,10214.842000
312.582252,-383.047749,-666.185348,10436.903782
312.582560,-689.485948,-0.000000,10584.944971
312.582868,536.266849,-0.000000,9918.759623
312.583176,306.438199,1110.308913,9474.636058
312.583485,1608.800546,1184.329507,9474.636058
312.583793,2604.724693,814.226536,8512.368333
312.584101,2298.286494,370.102971,8808.450710
312.584409,1532.190996,-1702.473667,9622.677246
312.584717,842.705048,-1924.535449,10066.800811
312.585025,-229.828649,-1998.556043,11843.295072
312.585333,-612.876398,-2368.659014,11917.315666
312.585641,-919.314598,-296.082377,10066.800811
312.585950,306.438199,962.267725,9696.697840
312.586258,306.438199,1776.494261,9030.512492
312.586566,1225.752797,2812.782580,7920.203579
312.586874,1532.190996,2516.700203,7698.141797
312.587182,1378.971896,1628.453072,7994.224174
312.587490,1225.752797,666.185348,8808.450710
312.587798,689.485948,-222.061783,10881.027347
312.588106,153.219100,-0.000000,10807.006753
312.588415,306.438199,-518.144159,9770.718434
312.588723,306.438199,814.226536,10362.883188
312.589031,536.266849,962.267725,9474.636058
312.589339,1532.190996,592.164754,9844.739029
312.589647,1762.019645,148.041188,9992.780217
312.589955,1762.019645,-962.267725,9400.615463
312.590263,383.047749,-2590.720797,10288.862594
312.590571,76.609550,-2960.823768,11325.150913
312.590879,-689.485948,-2368.659014,12139.377449
312.591188,-1378.971896,-1554.432478,10807.006753
312.591496,-383.047749,-0.000000,9992.780217
312.591804,229.828649,2220.617826,8364.327145
312.592112,1608.800546,3108.864956,7550.100608
312.592420,2221.676944,3256.906145,7772.162391
312.592728,2604.724693,2516.700203,7179.997637
312.593036,1991.848295,1776.494261,7846.182985
312.593344,1532.190996,296.082377,9178.553681
312.593653,842.705048,-444.123565,10658.965565
312.593961,0.000000,-148.041188,10510.924376
312.594269,-459.657299,740.205942,10140.821405
312.594577,153.219100,814.226536,10066.800811
312.594885,1685.410096,1110.308913,9622.677246
312.595193,1378.971896,666.185348,9992.780217
312.595501,1608.800546,-1184.329507,10214.842000
312.595809,1072.533697,-2220.617826,10066.800811
312.596118,-153.219100,-2960.823768,11399.171507
312.596426,-612.876398,-2886.803174,11917.315666
312.596734,-919.314598,-2368.659014,11843.295072
312.597042,-1225.752797,-888.247130,10658.965565
312.597350,-459.657299,1480.411884,9696.697840
312.597658,1072.533697,2368.659014,8364.327145
312.597966,1685.410096,2960.823768,7550.100608
312.598274,2604.724693,3256.906145,7254.018232
312.598583,2451.505594,2220.617826,7105.977043
312.598891,1608.800546,814.226536,8290.306550
312.599199,1072.533697,-0.000000,9326.594869
312.599507,306.438199,-0.000000,10362.883188
312.599815,0.000000,-518.144159,9918.759623
312.600123,0.000000,740.205942,9474.636058
312.600431,766.095498,1406.391290,9474.636058
312.600739,1915.238745,1258.350101,8882.471304
312.601048,1991.848295,518.144159,8734.430116
312.601356,1378.971896,-740.205942,9400.615463
312.601664,766.095498,-2812.782580,10955.047942
312.601972,-612.876398,-3330.926739,11769.274478
312.602280,-1455.581446,-3108.864956,12805.562797
312.602588,-1149.143247,-2220.617826,12065.356855
312.602896,-1225.752797,-666.185348,9992.780217
312.603204,-689.485948,1332.370696,9400.615463
312.603513,612.876398,2220.617826,8660.409521
312.603821,1838.629195,2590.720797,7698.141797
312.604129,1762.019645,2220.617826,7402.059420
312.604437,1532.190996,1258.350101,8290.306550
312.604745,1225.752797,-592.164754,8882.471304
312.605053,0.000000,-222.061783,9992.780217
312.605361,229.828649,296.082377,9918.759623
312.605669,536.266849,1332.370696,9030.512492
312.605978,1149.143247,2220.617826,8512.368333
312.606286,1608.800546,1998.556043,8438.347739
312.606594,1991.848295,1258.350101,8512.368333
312.606902,2221.676944,-0.000000,9474.636058
312.607210,1302.362347,-1332.370696,10362.883188
312.607518,0.000000,-3404.947333,11843.295072
312.607826,-1072.533697,-4441.235652,12657.521608
312.608134,-2068.457845,-3256.906145,12287.418637
312.608443,-1608.800546,-1924.535449,11399.171507
312.608751,-1072.533697,-0.000000,10288.862594
312.609059,76.609550,1406.391290,9326.594869
312.609367,1225.752797,2294.638420,8290.306550
312.609675,2145.067394,2516.700203,7994.224174
312.609983,1838.629195,2368.659014,8216.285956
312.610291,2068.457845,1480.411884,7698.141797
312.610599,1378.971896,518.144159,8808.450710
312.610908,1072.533697,370.102971,9696.697840
312.611216,612.876398,1184.329507,9548.656652
312.611524,306.438199,1998.556043,9030.512492
312.611832,995.924147,1702.473667,9400.615463
312.612140,1991.848295,1184.329507,9252.574275
312.612448,995.924147,962.267725,8956.491898
312.612756,1915.238745,-888.247130,9474.636058
312.613064,995.924147,-1850.514855,9770.718434
312.613373,-766.095498,-2664.741391,11843.295072
312.613681,-689.485948,-3330.926739,13027.624579
312.613989,-1838.629195,-1998.556043,11473.192101
312.614297,-1225.752797,-370.102971,10658.965565
312.614605,-229.828649,962.267725,9030.512492
312.614913,1072.533697,3256.906145,8290.306550
312.615221,2757.943793,1998.556043,9030.512492
312.615529,1072.533697,2294.638420,5773.606348
312.615838,1685.410096,1332.370696,8142.265362
312.616146,1072.533697,-592.164754,9918.759623
312.616454,-229.828649,148.041188,9474.636058
312.616762,76.609550,-296.082377,11177.109724
312.617070,536.266849,1036.288319,9178.553681
312.617378,995.924147,1554.432478,8734.430116
312.617686,1685.410096,1702.473667,8438.347739
312.617994,2757.943793,1332.370696,9104.533087
312.618303,2528.115143,370.102971,8956.491898
312.618611,1991.848295,-1924.535449,9474.636058
312.618919,153.219100,-2886.803174,10807.006753
312.619227,-1149.143247,-3627.009116,12287.418637
312.619535,-1991.848295,-3478.967927,13545.768739
312.619843,-1838.629195,-1184.329507,11251.130318
312.620151,-612.876398,-296.082377,9696.697840
312.620459,229.828649,1332.370696,9030.512492
312.620768,689.485948,2220.617826,8290.306550
312.621076,1915.238745,2294.638420,8364.327145
312.621384,1838.629195,1850.514855,7624.121203
312.621692,1838.629195,1184.329507,8216.285956
312.622000,1072.533697,592.164754,9178.553681
312.622308,1072.533697,518.144159,10066.800811
312.622616,1149.143247,1332.370696,9548.656652
312.622924,536.266849,2146.597232,9548.656652
312.623232,919.314598,2368.659014,9030.512492
312.623541,1532.190996,1554.432478,9400.615463
312.623849,1838.629195,962.267725,9400.615463
312.624157,689.485948,-814.226536,9400.615463
312.624465,0.000000,-2442.679609,10881.027347
312.624773,-1302.362347,-3330.926739,12065.356855
312.625081,-1991.848295,-3775.050304,13323.706956
312.625389,-1915.238745,-2516.700203,12361.439231
312.625697,-1455.581446,-666.185348,10362.883188
312.626006,-536.266849,1184.329507,8956.491898
312.626314,689.485948,2368.659014,8512.368333
312.626622,1838.629195,2516.700203,7994.224174
312.626930,2298.286494,2812.782580,7476.080014
312.627238,1225.752797,2368.659014,7550.100608
312.627546,2374.896044,1258.350101,8364.327145
312.627854,1072.533697,444.123565,9474.636058
312.628162,459.657299,370.102971,9770.718434
312.628470,1072.533697,1184.329507,8882.471304
312.628779,1072.533697,1628.453072,8586.388927
312.629087,1838.629195,1332.370696,8882.471304
312.629395,2298.286494,222.061783,8660.409521
312.629703,2451.505594,-74.020594,9104.533087
312.630011,1378.971896,-2220.617826,10066.800811
312.630319,306.438199,-3034.844362,11325.150913
312.630627,-919.314598,-3108.864956,12361.439231
312.630935,-1225.752797,-3108.864956,12361.439231
312.631243,-1608.800546,-1184.329507,10881.027347
312.631552,-1072.533697,-0.000000,10214.842000
312.631860,383.047749,1184.329507,9030.512492
312.632168,1532.190996,2146.597232,8142.265362
312.632476,1838.629195,2220.617826,8290.306550
312.632784,2145.067394,1480.411884,8142.265362
312.633092,1378.971896,666.185348,8068.244768
312.633400,689.485948,-0.000000,9326.594869
312.633708,842.705048,-0.000000,9770.718434
312.634017,459.657299,814.226536,9400.615463
312.634325,689.485948,1480.411884,9104.533087
312.634633,1915.238745,1924.535449,8956.491898
312.634941,2604.724693,1924.535449,7550.100608
312.635249,2604.724693,1110.308913,8216.285956
312.635557,2451.505594,-370.102971,8734.430116
312.635865,1225.752797,-1480.411884,9770.718434
312.636173,-229.828649,-2738.761985,11325.150913
312.636481,-1378.971896,-3552.988522,11917.315666
312.636790,-2298.286494,-2886.803174,12287.418637
312.637098,-1838.629195,-1406.391290,11473.192101
312.637406,-995.924147,518.144159,9918.759623
312.637714,0.000000,1628.453072,9622.677246
312.638022,1302.362347,2072.576638,8734.430116
312.638330,1991.848295,1998.556043,7920.203579
312.638638,1991.848295,1850.514855,7772.162391
312.638946,1762.019645,814.226536,8808.450710
312.639254,1455.581446,444.123565,9400.615463
312.639563,0.000000,814.226536,10288.862594
312.639871,536.266849,1184.329507,9696.697840
312.640179,383.047749,1998.556043,8882.471304
312.640487,1302.362347,2368.659014,8956.491898
312.640795,1991.848295,1332.370696,8808.450710
312.641103,1685.410096,-0.000000,8734.430116
312.641411,1378.971896,-1406.391290,10066.800811
312.641719,-153.219100,-2590.720797,10584.944971
312.642027,-1149.143247,-3627.009116,12583.501014
312.642336,-2374.896044,-3108.864956,13323.706956
312.642644,-2374.896044,-2146.597232,11769.274478
312.642952,-1608.800546,-0.000000,10881.027347
312.643260,-153.219100,1554.432478,9622.677246
312.643568,995.924147,2516.700203,8734.430116
312.643876,1762.019645,3108.864956,7624.121203
312.644184,3370.820191,2294.638420,7550.100608
312.644492,2145.067394,1110.308913,7624.121203
312.644800,1225.752797,370.102971,9104.533087
312.645109,612.876398,-296.082377,9992.780217
312.645417,229.828649,444.123565,9770.718434
312.645725,689.485948,814.226536,9548.656652
312.646033,1225.752797,1480.411884,9104.533087
312.646341,1762.019645,1480.411884,8956.491898
312.646649,1915.238745,370.102971,9104.533087
312.646957,2604.724693,-370.102971,9326.594869
312.647265,995.924147,-1628.453072,10288.862594
312.647573,-383.047749,-2664.741391,11621.233289
312.647882,-995.924147,-2886.803174,12805.562797
312.648190,-2374.896044,-2368.659014,11917.315666
312.648498,-1608.800546,-962.267725,11547.212695
312.648806,-459.657299,592.164754,9844.739029
312.649114,-153.219100,1924.535449,8734.430116
312.649422,1378.971896,1480.411884,8882.471304
312.649730,2298.286494,1702.473667,7550.100608
312.650038,2221.676944,1480.411884,7846.182985
312.650346,2145.067394,740.205942,7920.203579
312.650655,1915.238745,370.102971,8586.388927
312.650963,1149.143247,592.164754,9696.697840
312.651271,1378.971896,666.185348,9474.636058
312.651579,1838.629195,1702.473667,8808.450710
312.651887,1685.410096,2072.576638,7994.224174
312.652195,2834.553343,1628.453072,8734.430116
312.652503,2604.724693,1036.288319,8512.368333
312.652811,1762.019645,-592.164754,9030.512492
312.653119,459.657299,-1702.473667,10658.965565
312.653428,-842.705048,-2738.761985,11991.336260
312.653736,-1838.629195,-2812.782580,13027.624579
312.654044,-2757.943793,-2146.597232,12139.377449
312.654352,-1838.629195,-518.144159,11473.192101
312.654660,-1225.752797,814.226536,10436.903782
312.654968,0.000000,1554.432478,9474.636058
312.655276,1302.362347,2072.576638,8438.347739
312.655584,1838.629195,1924.535449,7772.162391
312.655893,1838.629195,1110.308913,8438.347739
312.656201,1762.019645,370.102971,8586.388927
312.656509,459.657299,518.144159,9770.718434
312.656817,919.314598,222.061783,9992.780217
312.657125,1378.971896,888.247130,9474.636058
312.657433,766.095498,1998.556043,8364.327145
312.657741,2604.724693,1332.370696,9104.533087
312.658049,2451.505594,1924.535449,8216.285956
312.658357,2298.286494,148.041188,9474.636058
312.658666,1685.410096,-1332.370696,9474.636058
312.658974,0.000000,-2072.576638,10362.883188
312.659282,-536.266849,-3108.864956,12953.603985
312.659590,-2068.457845,-2516.700203,11251.130318
312.659898,-2221.676944,-1480.411884,11399.171507
312.660206,-2145.067394,-0.000000,10732.986159
312.660514,-842.705048,814.226536,10066.800811
312.660822,-153.219100,1480.411884,9474.636058
312.661130,842.705048,1184.329507,8068.244768
312.661439,919.314598,814.226536,8734.430116
312.661747,766.095498,222.061783,8512.368333
312.662055,1302.362347,-518.144159,9326.594869
312.662363,76.609550,444.123565,9548.656652
312.662671,1455.581446,1036.288319,9030.512492
312.662979,1302.362347,1924.535449,8808.450710
312.663287,2068.457845,2220.617826,8290.306550
312.663595,2834.553343,1258.350101,8512.368333
312.663903,3064.381992,666.185348,7920.203579
312.664212,2911.162892,148.041188,8586.388927
312.664520,536.266849,-2072.576638,10140.821405
312.664828,-612.876398,-2960.823768,11917.315666
312.665136,-2145.067394,-3034.844362,12361.439231
312.665444,-2221.676944,-2072.576638,11769.274478
312.665752,-2068.457845,-222.061783,10658.965565
312.666060,-306.438199,740.205942,10732.986159
312.666368,153.219100,1332.370696,9622.677246
312.666676,842.705048,1998.556043,8438.347739
312.666985,1838.629195,1258.350101,8512.368333
312.667293,1685.410096,1258.350101,8142.265362
312.667601,766.095498,740.205942,9474.636058
312.667909,1149.143247,-296.082377,10807.006753
312.668217,153.219100,1184.329507,8734.430116
312.668525,306.438199,592.164754,9696.697840
312.668833,1455.581446,1110.308913,9844.739029
312.669141,2145.067394,2072.576638,7920.203579
312.669449,2834.553343,1184.329507,8660.409521
312.669758,2911.162892,222.061783,8142.265362
312.670066,1915.238745,-962.267725,9104.533087
312.670374,536.266849,-2294.638420,10807.006753
312.670682,0.000000,-2664.741391,11399.171507
312.670990,-1302.362347,-2516.700203,11473.192101
312.671298,-1608.800546,-1184.329507,10584.944971
312.671606,-919.314598,370.102971,9548.656652
312.671914,0.000000,1998.556043,9400.615463
312.672222,689.485948,1924.535449,9770.718434
312.672531,766.095498,2072.576638,7846.182985
312.672839,1685.410096,1258.350101,8512.368333
312.673147,919.314598,370.102971,9178.553681
312.673455,536.266849,-74.020594,9918.759623
312.673763,459.657299,-0.000000,10214.842000
312.674071,766.095498,888.247130,9622.677246
312.674379,306.438199,1554.432478,8438.347739
312.674687,1838.629195,1332.370696,9178.553681
312.674995,2757.943793,1776.494261,8216.285956
312.675304,2987.772442,1110.308913,8068.244768
312.675612,2757.943793,-148.041188,8586.388927
312.675920,1455.581446,-1776.494261,9252.574275
312.676228,0.000000,-2516.700203,11325.150913
312.676536,-689.485948,-3404.947333,12509.480420
312.676844,-2374.896044,-2072.576638,11177.109724
312.677152,-2068.457845,-888.247130,11251.130318
312.677460,-1378.971896,888.247130,10066.800811
312.677769,229.828649,2146.597232,9400.615463
312.678077,1225.752797,1998.556043,9104.533087
312.678385,1378.971896,2146.597232,7179.997637
312.678693,1685.410096,444.123565,8586.388927
312.679001,842.705048,592.164754,9252.574275
312.679309,1072.533697,296.082377,9474.636058
312.679617,919.314598,740.205942,9474.636058
312.679925,689.485948,1110.308913,9622.677246
312.680233,1149.143247,1406.391290,8734.430116
312.680542,2298.286494,1924.535449,8586.388927
312.680850,2834.553343,740.205942,8438.347739
312.681158,1991.848295,-0.000000,8364.327145
312.681466,2145.067394,-1554.432478,9770.718434
312.681774,0.000000,-2960.823768,10510.924376
312.682082,-1455.581446,-3552.988522,11843.295072
312.682390,-1685.410096,-3182.885551,12435.459826
312.682698,-2374.896044,-1110.308913,10732.986159
312.683006,-1608.800546,444.123565,10510.924376
312.683315,0.000000,1480.411884,9474.636058
312.683623,766.095498,2738.761985,8808.450710
312.683931,1378.971896,2368.659014,8512.368333
312.684239,2145.067394,1850.514855,7920.203579
312.684547,1685.410096,1554.432478,8290.306550
312.684855,995.924147,962.267725,9030.512492
312.685163,689.485948,518.144159,9622.677246
312.685471,1072.533697,666.185348,9622.677246
312.685779,689.485948,1110.308913,9400.615463
312.686088,1915.238745,1776.494261,8216.285956
312.686396,1991.848295,1406.391290,9104.533087
312.686704,2374.896044,592.164754,9326.594869
312.687012,2604.724693,-0.000000,9252.574275
312.687320,1608.800546,-1776.494261,10436.903782
312.687628,-229.828649,-2960.823768,11251.130318
312.687936,-766.095498,-2664.741391,11547.212695
312.688244,-1302.362347,-1332.370696,12065.356855
312.688552,-2068.457845,-666.185348,10881.027347
312.688861,-842.705048,1036.288319,9918.759623
312.689169,-229.828649,1998.556043,9696.697840
312.689477,766.095498,1776.494261,8882.471304
312.689785,1072.533697,1702.473667,8142.265362
312.690093,842.705048,1332.370696,8882.471304
312.690401,995.924147,-370.102971,9178.553681
312.690709,76.609550,-222.061783,10362.883188
312.691017,-459.657299,-444.123565,10807.006753
312.691325,612.876398,666.185348,9252.574275
312.691634,842.705048,1406.391290,9474.636058
312.691942,1838.629195,1554.432478,8734.430116
312.692250,2987.772442,1480.411884,8068.244768
312.692558,2987.772442,592.164754,7994.224174
312.692866,2374.896044,-888.247130,8808.450710
312.693174,1378.971896,-2220.617826,9844.739029
312.693482,-766.095498,-2886.803174,11473.192101
312.693790,-1532.190996,-2516.700203,11991.336260
312.694098,-1915.238745,-1184.329507,11029.068536
312.694407,-1685.410096,444.123565,10288.862594
312.694715,-536.266849,1554.432478,9770.718434
312.695023,383.047749,1998.556043,9104.533087
312.695331,919.314598,1406.391290,8216.285956
312.695639,2145.067394,962.267725,8438.347739
312.695947,842.705048,518.144159,8956.491898
312.696255,153.219100,-666.185348,10436.903782
312.696563,0.000000,-592.164754,10881.027347
312.696871,0.000000,444.123565,9770.718434
312.697180,153.219100,592.164754,10288.862594
312.697488,1149.143247,1332.370696,9400.615463
312.697796,1991.848295,1776.494261,8586.388927
312.698104,3064.381992,518.144159,8956.491898
312.698412,2987.772442,-370.102971,8290.306550
312.698720,1838.629195,-1850.514855,9474.636058
312.699028,612.876398,-2072.576638,9918.759623
312.699336,0.000000,-2072.576638,10881.027347
312.699644,-842.705048,-1406.391290,10732.986159
312.699953,-1378.971896,-0.000000,10288.862594
312.700261,-229.828649,1776.494261,10066.800811
312.700569,459.657299,2146.597232,8512.368333
312.700877,995.924147,2886.803174,8512.368333
312.701185,2374.896044,1924.535449,8586.388927
312.701493,1991.848295,1332.370696,7105.977043
312.701801,842.705048,666.185348,9326.594869
312.702109,612.876398,-0.000000,10362.883188
312.702418,76.609550,-444.123565,10362.883188
312.702726,0.000000,-74.020594,10140.821405
312.703034,383.047749,296.082377,9622.677246
312.703342,1685.410096,740.205942,9252.574275
312.703650,1991.848295,740.205942,9548.656652
312.703958,2451.505594,-222.061783,9400.615463
312.704266,2374.896044,-814.226536,8734.430116
312.704574,995.924147,-2072.576638,10288.862594
312.704882,153.219100,-2664.741391,11399.171507
312.705191,-383.047749,-2146.597232,10732.986159
312.705499,-1455.581446,-962.267725,11029.068536
312.705807,-919.314598,296.082377,10584.944971
312.706115,0.000000,1332.370696,9326.594869
312.706423,536.266849,2294.638420,8660.409521
312.706731,919.314598,2072.576638,7920.203579
312.707039,2451.505594,1554.432478,8142.265362
312.707347,1685.410096,814.226536,8512.368333
312.707655,689.485948,222.061783,9474.636058
312.707964,536.266849,-518.144159,9696.697840
312.708272,612.876398,222.061783,9696.697840
312.708580,0.000000,962.267725,9770.718434
312.708888,842.705048,1184.329507,9474.636058
312.709196,1532.190996,1702.473667,9178.553681
312.709504,1532.190996,296.082377,9622.677246
312.709812,1302.362347,-518.144159,9178.553681
312.710120,919.314598,-1702.473667,10140.821405
312.710428,-612.876398,-2886.803174,12139.377449
312.710737,-1378.971896,-3182.885551,12435.459826
312.711045,-2145.067394,-1776.494261,11695.253884
312.711353,-1762.019645,-0.000000,11325.150913
312.711661,-1225.752797,592.164754,10288.862594
312.711969,766.095498,2368.659014,8882.471304
312.712277,1532.190996,2368.659014,8512.368333
312.712585,1991.848295,1554.432478,7179.997637
312.712893,2528.115143,1184.329507,7328.038826
312.713201,2068.457845,814.226536,9104.533087
312.713510,1302.362347,-444.123565,9918.759623
312.713818,612.876398,-0.000000,9548.656652
312.714126,459.657299,666.185348,9622.677246
312.714434,1302.362347,1110.308913,8956.491898
312.714742,1991.848295,1850.514855,8660.409521
312.715050,2451.505594,1480.411884,9030.512492
312.715358,2987.772442,444.123565,8660.409521
312.715666,2145.067394,-592.164754,8808.450710
312.715974,1225.752797,-2442.679609,10732.986159
312.716283,-612.876398,-2442.679609,10807.006753
312.716591,-1302.362347,-2738.761985,12065.356855
312.716899,-2068.457845,-1850.514855,11473.192101
312.717207,-1838.629195,-222.061783,10214.842000
312.717515,-1685.410096,222.061783,9474.636058
312.717823,306.438199,1184.329507,9844.739029
312.718131,383.047749,1110.308913,8586.388927
312.718439,1762.019645,1258.350101,7254.018232
312.718747,1302.362347,666.185348,7994.224174
312.719056,995.924147,444.123565,8660.409521
312.719364,1455.581446,-0.000000,9992.780217
312.719672,1072.533697,1036.288319,9400.615463
312.719980,1149.143247,962.267725,9104.533087
312.720288,1685.410096,1998.556043,9178.553681
312.720596,1915.238745,2146.597232,8734.430116
312.720904,2221.676944,1110.308913,9326.594869
312.721212,2451.505594,-74.020594,9178.553681
312.721520,1072.533697,-1406.391290,9992.780217
312.721829,0.000000,-2812.782580,11103.089130
312.722137,-1302.362347,-2738.761985,11843.295072
312.722445,-2451.505594,-2442.679609,12657.521608
312.722753,-2068.457845,-1554.432478,11547.212695
312.723061,-995.924147,740.205942,9992.780217
312.723369,0.000000,2072.576638,9474.636058
312.723677,766.095498,2442.679609,8438.347739
312.723985,2068.457845,2812.782580,7624.121203
312.724293,2145.067394,2368.659014,8142.265362
312.724601,919.314598,1184.329507,8142.265362
312.724909,842.705048,222.061783,10140.821405
312.725217,-229.828649,-296.082377,10955.047942
312.725525,-612.876398,370.102971,10214.842000
312.725833,-459.657299,518.144159,10807.006753
312.726141,842.705048,1110.308913,10362.883188
312.726449,919.314598,592.164754,9474.636058
312.726756,2068.457845,444.123565,9400.615463
312.727064,1915.238745,-666.185348,9104.533087
312.727372,919.314598,-1850.514855,9622.677246
312.727680,0.000000,-2812.782580,11029.068536
312.727988,-76.609550,-2738.761985,11029.068536
312.728296,-1455.581446,-1776.494261,10807.006753
312.728604,-1838.629195,370.102971,9622.677246
312.728912,-76.609550,1406.391290,9252.574275
312.729220,536.266849,2368.659014,8290.306550
312.729527,842.705048,2368.659014,7624.121203
312.729835,2834.553343,1998.556043,7624.121203
312.730143,1532.190996,1480.411884,7772.162391
312.730451,1072.533697,-148.041188,9400.615463
312.730759,536.266849,-962.267725,9844.739029
312.731067,306.438199,-444.123565,10584.944971
312.731375,-306.438199,-296.082377,10510.924376
312.731683,842.705048,666.185348,9474.636058
312.731991,1762.019645,1184.329507,9326.594869
312.732298,1838.629195,370.102971,9326.594869
312.732606,2604.724693,-444.123565,9400.615463
312.732914,1685.410096,-1406.391290,9918.759623
312.733222,383.047749,-2368.659014,11029.068536
312.733530,-766.095498,-2886.803174,11843.295072
312.733838,-1378.971896,-2442.679609,11991.336260
312.734146,-1991.848295,-888.247130,10732.986159
312.734454,-1072.533697,444.123565,9622.677246
312.734762,536.266849,2146.597232,9474.636058
312.735069,1455.581446,2590.720797,8068.244768
312.735377,2374.896044,3034.844362,7105.977043
312.735685,2604.724693,1776.494261,7624.121203
312.735993,2451.505594,1554.432478,7994.224174
312.736301,1302.362347,444.123565,8808.450710
312.736609,919.314598,222.061783,9844.739029
312.736917,459.657299,148.041188,9918.759623
312.737225,76.609550,740.205942,9474.636058
312.737533,842.705048,592.164754,10140.821405
312.737840,1608.800546,518.144159,9474.636058
312.738148,1991.848295,-74.020594,9770.718434
312.738456,1378.971896,-1036.288319,9548.656652
312.738764,919.314598,-1702.473667,10362.883188
312.739072,-383.047749,-2812.782580,11991.336260
312.739380,-1302.362347,-2516.700203,11843.295072
312.739688,-2221.676944,-1554.432478,11695.253884
312.739996,-1762.019645,-0.000000,10807.006753
312.740304,-612.876398,1480.411884,9474.636058
312.740611,612.876398,2368.659014,8882.471304
312.740919,1838.629195,3034.844362,7476.080014
312.741227,2757.943793,2960.823768,7031.956449
312.741535,2221.676944,2294.638420,7402.059420
312.741843,1838.629195,1036.288319,8808.450710
312.742151,1302.362347,-222.061783,9474.636058
312.742459,383.047749,-0.000000,10140.821405
312.742767,1302.362347,-148.041188,10140.821405
312.743075,612.876398,666.185348,9178.553681
312.743383,1532.190996,814.226536,9548.656652
312.743690,2221.676944,666.185348,9104.533087
312.743998,2757.943793,296.082377,8660.409521
312.744306,1915.238745,-1184.329507,9918.759623
312.744614,459.657299,-2442.679609,11103.089130
312.744922,-306.438199,-2442.679609,12065.356855
312.745230,-1149.143247,-2220.617826,12509.480420
312.745538,-2145.067394,-1258.350101,11621.233289
312.745846,-1762.019645,592.164754,9770.718434
312.746154,0.000000,1406.391290,9770.718434
312.746461,383.047749,2516.700203,8290.306550
312.746769,1455.581446,2368.659014,7698.141797
312.747077,1991.848295,1480.411884,8512.368333
312.747385,383.047749,888.247130,7920.203579
312.747693,995.924147,-148.041188,9992.780217
312.748001,0.000000,-222.061783,10362.883188
312.748309,306.438199,-148.041188,10140.821405
312.748617,76.609550,222.061783,9622.677246
312.748925,1302.362347,1480.411884,8660.409521
312.749232,2145.067394,1258.350101,8956.491898
312.749540,2834.553343,370.102971,9030.512492
312.749848,2681.334243,-74.020594,8586.388927
312.750156,1532.190996,-1554.432478,9844.739029
312.750464,0.000000,-2590.720797,11621.233289
312.750772,-1225.752797,-2590.720797,11547.212695
312.751080,-2068.457845,-1776.494261,11769.274478
312.751388,-2298.286494,-518.144159,11177.109724
312.751696,-689.485948,962.267725,9030.512492
312.752003,153.219100,2146.597232,8882.471304
312.752311,1302.362347,2220.617826,8956.491898
312.752619,1302.362347,2442.679609,7624.121203
312.752927,1455.581446,2072.576638,8808.450710
312.753235,842.705048,592.164754,9104.533087
312.753543,229.828649,-0.000000,9548.656652
312.753851,-153.219100,296.082377,10658.965565
312.754159,0.000000,-0.000000,9992.780217
312.754467,383.047749,962.267725,9252.574275
312.754774,1302.362347,1332.370696,9400.615463
312.755082,2681.334243,518.144159,9030.512492
312.755390,2451.505594,296.082377,8586.388927
312.755698,2221.676944,-1628.453072,9622.677246
312.756006,842.705048,-2294.638420,10362.883188
312.756314,-612.876398,-2960.823768,11399.171507
312.756622,-1072.533697,-2738.761985,12361.439231
312.756930,-1455.581446,-1110.308913,10955.047942
312.757238,-995.924147,222.061783,10140.821405
312.757545,612.876398,1406.391290,9548.656652
312.757853,842.705048,2664.741391,7698.141797
312.758161,2068.457845,2960.823768,7624.121203
312.758469,2528.115143,2664.741391,7179.997637
312.758777,2451.505594,2146.597232,7402.059420
312.759085,1378.971896,1036.288319,8882.471304
312.759393,383.047749,222.061783,9844.739029
312.759701,919.314598,296.082377,10510.924376
312.760009,306.438199,370.102971,9696.697840
312.760317,842.705048,814.226536,9992.780217
312.760624,1991.848295,518.144159,9770.718434
312.760932,1991.848295,222.061783,9326.594869
312.761240,2145.067394,-666.185348,9400.615463
312.761548,2221.676944,-2442.679609,10214.842000
312.761856,-383.047749,-3182.885551,11917.315666
312.762164,-536.266849,-3701.029710,12953.603985
312.762472,-1838.629195,-2072.576638,11917.315666
312.762780,-1302.362347,-666.185348,11103.089130
312.763088,-766.095498,888.247130,9400.615463
312.763395,459.657299,2146.597232,8956.491898
312.763703,1225.752797,2960.823768,7994.224174
312.764011,1532.190996,2442.679609,7254.018232
312.764319,1991.848295,2294.638420,6735.874072
312.764627,1762.019645,1480.411884,8438.347739
312.764935,1378.971896,740.205942,9178.553681
312.765243,76.609550,962.267725,9326.594869
312.765551,689.485948,592.164754,9622.677246
312.765859,383.047749,1332.370696,8882.471304
312.766166,1225.752797,1406.391290,9474.636058
312.766474,2298.286494,592.164754,9326.594869
312.766782,2298.286494,-0.000000,9474.636058
312.767090,1685.410096,-1480.411884,9622.677246
312.767398,-229.828649,-2812.782580,10510.924376
312.767706,-1685.410096,-3775.050304,13249.686362
312.768014,-2221.676944,-3701.029710,13249.686362
312.768322,-2757.943793,-2368.659014,12139.377449
312.768630,-2298.286494,-296.082377,10807.006753
312.768937,-612.876398,814.226536,10288.862594
312.769245,459.657299,2294.638420,8586.388927
312.769553,1915.238745,2368.659014,7920.203579
312.769861,2068.457845,2516.700203,7105.977043
312.770169,1991.848295,2146.597232,7105.977043
312.770477,1685.410096,1406.391290,8808.450710
312.770785,995.924147,962.267725,8882.471304
312.771093,1072.533697,1036.288319,8956.491898
312.771401,689.485948,1480.411884,8956.491898
312.771708,1915.238745,1776.494261,8734.430116
312.772016,2681.334243,1184.329507,8882.471304
312.772324,2834.553343,518.144159,9104.533087
312.772632,2451.505594,-222.061783,9104.533087
312.772940,1378.971896,-1924.535449,9844.739029
312.773248,0.000000,-2664.741391,11473.192101
312.773556,-1225.752797,-3552.988522,12583.501014
312.773864,-1532.190996,-3478.967927,13027.624579
312.774172,-2451.505594,-1924.535449,11621.233289
312.774479,-1608.800546,-1036.288319,10658.965565
312.774787,-612.876398,518.144159,10288.862594
312.775095,612.876398,1480.411884,9030.512492
312.775403,1378.971896,1924.535449,7994.224174
312.775711,1838.629195,1850.514855,7624.121203
312.776019,1991.848295,1776.494261,7994.224174
312.776327,1455.581446,888.247130,9030.512492
312.776635,1608.800546,1036.288319,9326.594869
312.776943,1149.143247,1480.411884,8660.409521
312.777251,1915.238745,1554.432478,8290.306550
312.777558,2145.067394,1702.473667,8438.347739
312.777866,2528.115143,1628.453072,8586.388927
312.778174,2757.943793,592.164754,8808.450710
312.778482,2374.896044,-370.102971,9030.512492
312.778790,1225.752797,-2072.576638,9992.780217
312.779098,-383.047749,-3182.885551,11843.295072
312.779406,-1455.581446,-3552.988522,12361.439231
312.779714,-1532.190996,-3034.844362,11991.336260
312.780022,-2221.676944,-666.185348,11103.089130
312.780329,-766.095498,296.082377,10510.924376
312.780637,76.609550,1998.556043,8882.471304
312.780945,995.924147,2368.659014,8586.388927
312.781253,1915.238745,1924.535449,7846.182985
312.781561,1915.238745,2072.576638,7550.100608
312.781869,1225.752797,518.144159,9770.718434
312.782177,536.266849,740.205942,9918.759623
312.782485,-153.219100,740.205942,9992.780217
312.782793,-229.828649,740.205942,10214.842000
312.783100,766.095498,1036.288319,9474.636058
312.783408,1149.143247,1554.432478,9178.553681
312.783716,2374.896044,370.102971,9252.574275
312.784024,2528.115143,-370.102971,8512.368333
312.784332,1838.629195,-1628.453072,8882.471304
312.784640,383.047749,-3182.885551,11325.150913
312.784948,-842.705048,-3256.906145,11325.150913
312.785256,-1838.629195,-2146.597232,11547.212695
312.785564,-1455.581446,-1258.350101,11029.068536
312.785871,-1072.533697,666.185348,9030.512492
312.786179,0.000000,1850.514855,8660.409521
312.786487,1302.362347,2220.617826,8660.409521
312.786795,1532.190996,1628.453072,7846.182985
312.787103,1455.581446,1332.370696,8364.327145
312.787411,1225.752797,740.205942,9252.574275
312.787719,383.047749,-74.020594,9696.697840
312.788027,0.000000,148.041188,10658.965565
312.788335,229.828649,222.061783,10140.821405
312.788642,229.828649,740.205942,9178.553681
312.788950,1378.971896,1110.308913,9548.656652
312.789258,2451.505594,814.226536,8438.347739
312.789566,2911.162892,518.144159,8660.409521
312.789874,2528.115143,-370.102971,9104.533087
312.790182,1149.143247,-1480.411884,9400.615463
312.790490,153.219100,-2220.617826,11029.068536
312.790798,-689.485948,-2368.659014,11769.274478
312.791106,-1149.143247,-1776.494261,11621.233289
312.791413,-1225.752797,-518.144159,10732.986159
312.791721,0.000000,814.226536,10214.842000
312.792029,0.000000,1924.535449,9326.594869
312.792337,1378.971896,2146.597232,8512.368333
312.792645,2221.676944,1850.514855,7772.162391
312.792953,1608.800546,1850.514855,7772.162391
312.793261,1915.238745,444.123565,9030.512492
312.793569,1149.143247,888.247130,9252.574275
312.793877,459.657299,962.267725,9918.759623
312.794184,1072.533697,888.247130,9918.759623
312.794492,2221.676944,1554.432478,8512.368333
312.794800,995.924147,2072.576638,8290.306550
312.795108,3064.381992,-0.000000,9400.615463
312.795416,1838.629195,666.185348,8512.368333
312.795724,995.924147,-1776.494261,11325.150913
312.796032,-536.266849,-2960.823768,11177.109724
312.796340,-1838.629195,-3108.864956,12657.521608
312.796648,-2451.505594,-3256.906145,14063.912898
312.796956,-2068.457845,-1850.514855,10881.027347
312.797263,-1608.800546,-74.020594,10436.903782
312.797571,-1378.971896,1406.391290,9252.574275
312.797879,1149.143247,2072.576638,8956.491898
312.798187,1378.971896,2812.782580,7254.018232
312.798495,1455.581446,1850.514855,7846.182985
312.798803,1838.629195,1258.350101,8216.285956
312.799111,1455.581446,592.164754,8808.450710
312.799419,842.705048,370.102971,9474.636058
312.799727,76.609550,740.205942,8882.471304
312.800034,1378.971896,1036.288319,9474.636058
312.800342,1762.019645,1184.329507,9252.574275
312.800650,2221.676944,1258.350101,8142.265362
312.800958,2911.162892,740.205942,8216.285956
312.801266,2757.943793,-814.226536,9326.594869
312.801574,1838.629195,-1554.432478,9030.512492
312.801882,-229.828649,-2516.700203,10955.047942
312.802190,-1225.752797,-3108.864956,12583.501014
312.802498,-2298.286494,-2368.659014,11621.233289
312.802805,-1991.848295,-740.205942,11103.089130
312.803113,-1225.752797,370.102971,10584.944971
312.803421,-229.828649,1628.453072,9400.615463
312.803729,612.876398,1554.432478,8438.347739
312.804037,1072.533697,1480.411884,8734.430116
312.804345,1072.533697,962.267725,8808.450710
312.804653,689.485948,592.164754,9104.533087
312.804961,459.657299,-148.041188,10362.883188
312.805269,612.876398,-148.041188,10066.800811
312.805576,1685.410096,370.102971,9252.574275
312.805884,1149.143247,1554.432478,9030.512492
312.806192,2911.162892,1702.473667,8216.285956
312.806500,3677.258390,1850.514855,7920.203579
312.806808,3524.039291,1332.370696,7846.182985
312.807116,2757.943793,-296.082377,8438.347739
312.807424,1072.533697,-1776.494261,9770.718434
312.807732,-766.095498,-2294.638420,11621.233289
312.808040,-1532.190996,-2368.659014,11843.295072
312.808347,-2528.115143,-1258.350101,11843.295072
312.808655,-1915.238745,-74.020594,11103.089130
312.808963,-1378.971896,1258.350101,9622.677246
312.809271,0.000000,1924.535449,9696.697840
312.809579,383.047749,1554.432478,9326.594869
312.809887,1072.533697,1406.391290,8216.285956
312.810195,842.705048,740.205942,8808.450710
312.810503,229.828649,-0.000000,10510.924376
312.810811,229.828649,-592.164754,9770.718434
312.811118,229.828649,296.082377,9992.780217
312.811426,1532.190996,888.247130,8956.491898
312.811734,1302.362347,1554.432478,8142.265362
312.812042,2604.724693,1850.514855,8586.388927
312.812350,3217.601092,1628.453072,8216.285956
312.812658,3217.601092,444.123565,7402.059420
312.812966,2068.457845,-1036.288319,9400.615463
312.813274,459.657299,-2590.720797,10362.883188
312.813582,0.000000,-3182.885551,12065.356855
312.813890,-2068.457845,-2294.638420,11547.212695
312.814197,-1915.238745,-1406.391290,10955.047942
312.814505,-1455.581446,-296.082377,10288.862594
312.814813,-612.876398,1332.370696,9474.636058
312.815121,612.876398,1702.473667,9252.574275
312.815429,1378.971896,1332.370696,7698.141797
312.815737,1838.629195,888.247130,7920.203579
312.816045,1378.971896,-0.000000,8438.347739
312.816353,536.266849,-370.102971,9548.656652
312.816661,766.095498,-222.061783,10140.821405
312.816968,612.876398,888.247130,9696.697840
312.817276,1225.752797,1332.370696,9178.553681
312.817584,1838.629195,962.267725,8808.450710
312.817892,2528.115143,1258.350101,8512.368333
312.818200,2681.334243,370.102971,7994.224174
312.818508,2451.505594,-1184.329507,9474.636058
312.818816,536.266849,-2664.741391,10510.924376
312.819124,-459.657299,-2812.782580,11473.192101
312.819432,-1532.190996,-2442.679609,11917.315666
312.819739,-1991.848295,-1184.329507,11473.192101
312.820047,-1225.752797,222.061783,9992.780217
312.820355,-229.828649,1554.432478,9474.636058
312.820663,842.705048,2294.638420,9400.615463
312.820971,1378.971896,2220.617826,8068.244768
312.821279,1608.800546,2072.576638,7624.121203
312.821587,1532.190996,962.267725,8956.491898
312.821895,919.314598,370.102971,9104.533087
312.822203,76.609550,-0.000000,9770.718434
312.822510,612.876398,-370.102971,10732.986159
312.822818,766.095498,592.164754,9474.636058
312.823126,689.485948,1258.350101,9548.656652
312.823434,2987.772442,666.185348,9104.533087
312.823742,2528.115143,888.247130,8216.285956
312.824050,1915.238745,-296.082377,9622.677246
312.824358,1685.410096,-1332.370696,9992.780217
312.824666,-306.438199,-2146.597232,10807.006753
312.824974,-1225.752797,-2664.741391,11695.253884
312.825281,-1608.800546,-2146.597232,11917.315666
312.825589,-2068.457845,-814.226536,11769.274478
312.825897,-1838.629195,370.102971,10584.944971
312.826205,-459.657299,1850.514855,9474.636058
312.826513,383.047749,2368.659014,9178.553681
312.826821,1302.362347,1924.535449,8068.244768
312.827129,919.314598,2146.597232,7772.162391
312.827438,995.924147,740.205942,9400.615463
312.827746,536.266849,-0.000000,9326.594869
312.828054,306.438199,-148.041188,9622.677246
312.828362,842.705048,296.082377,10140.821405
312.828670,1455.581446,1258.350101,8438.347739
312.828978,1762.019645,1332.370696,8808.450710
312.829286,2911.162892,1110.308913,9178.553681
312.829594,3064.381992,444.123565,8290.306550
312.829902,1762.019645,-814.226536,9252.574275
312.830210,995.924147,-2368.659014,11029.068536
312.830518,-689.485948,-2664.741391,11621.233289
312.830826,-1685.410096,-2516.700203,12731.542202
312.831134,-1532.190996,-1776.494261,11917.315666
312.831442,-1915.238745,-0.000000,9992.780217
312.831750,-842.705048,1480.411884,9548.656652
312.832058,459.657299,2664.741391,8734.430116
312.832366,1685.410096,2738.761985,8216.285956
312.832674,2145.067394,1924.535449,7476.080014
312.832982,1455.581446,1110.308913,8290.306550
312.833290,842.705048,296.082377,9326.594869
312.833598,689.485948,-1036.288319,10807.006753
312.833906,0.000000,-0.000000,10066.800811
312.834214,1072.533697,-296.082377,9770.718434
312.834522,1378.971896,592.164754,9178.553681
312.834830,1915.238745,1110.308913,8586.388927
312.835138,3677.258390,148.041188,8734.430116
312.835446,2911.162892,-148.041188,8364.327145
312.835754,2451.505594,-1184.329507,8956.491898
312.836062,689.485948,-1924.535449,10658.965565
312.836370,-153.219100,-1776.494261,11695.253884
312.836678,-1455.581446,-1628.453072,11325.150913
312.836986,-1378.971896,-74.020594,10807.006753
312.837294,-689.485948,1036.288319,10288.862594
312.837602,-229.828649,1924.535449,8882.471304
312.837910,306.438199,2886.803174,8586.388927
312.838218,1608.800546,1924.535449,8512.368333
312.838526,1378.971896,1628.453072,8364.327145
312.838834,306.438199,814.226536,9252.574275
312.839143,0.000000,-814.226536,10140.821405
312.839451,-536.266849,-814.226536,10881.027347
312.839759,0.000000,-444.123565,10732.986159
312.840067,0.000000,740.205942,9326.594869
312.840375,1838.629195,296.082377,9474.636058
312.840683,2221.676944,1332.370696,8512.368333
312.840991,2604.724693,518.144159,7920.203579
312.841299,2911.162892,-74.020594,9104.533087
312.841607,1762.019645,-1110.308913,9326.594869
312.841915,459.657299,-1776.494261,10362.883188
312.842223,-842.705048,-2220.617826,10807.006753
312.842531,-1532.190996,-1184.329507,11621.233289
312.842839,-1532.190996,-518.144159,10362.883188
312.843147,-459.657299,1480.411884,10140.821405
312.843455,229.828649,1776.494261,8882.471304
312.843763,919.314598,2368.659014,8290.306550
312.844071,1762.019645,2368.659014,7994.224174
312.844379,1225.752797,1628.453072,8364.327145
312.844687,1302.362347,1036.288319,9104.533087
312.844995,0.000000,-222.061783,10140.821405
312.845303,76.609550,-0.000000,10436.903782
312.845611,766.095498,-0.000000,10510.924376
312.845919,919.314598,1110.308913,10140.821405
312.846227,1532.190996,740.205942,9548.656652
312.846535,2145.067394,592.164754,9326.594869
312.846843,1915.238745,-296.082377,9474.636058
312.847151,1838.629195,-1628.453072,9844.739029
312.847459,995.924147,-2146.597232,9622.677246
312.847767,229.828649,-2442.679609,11177.109724
312.848075,-612.876398,-2368.659014,10955.047942
312.848383,-689.485948,-814.226536,10288.862594
312.848691,-766.095498,888.247130,10436.903782
312.848999,766.095498,1924.535449,8882.471304
312.849307,1608.800546,2960.823768,7920.203579
312.849615,1915.238745,2812.782580,7550.100608
312.849923,2221.676944,2072.576638,8216.285956
312.850231,1149.143247,1110.308913,8512.368333
312.850539,689.485948,222.061783,9622.677246
312.850848,612.876398,-370.102971,10288.862594
312.851156,536.266849,222.061783,10288.862594
312.851464,536.266849,-0.000000,9696.697840
312.851772,1608.800546,814.226536,9400.615463
312.852080,2298.286494,666.185348,9252.574275
312.852388,2068.457845,-0.000000,9326.594869
312.852696,1991.848295,-1036.288319,8808.450710
312.853004,1072.533697,-2072.576638,9992.780217
312.853312,0.000000,-2516.700203,11547.212695
312.853620,-1072.533697,-2220.617826,11251.130318
312.853928,-2451.505594,-1480.411884,11621.233289
312.854236,-1762.019645,-814.226536,11473.192101
312.854544,-536.266849,2072.576638,8956.491898
312.854852,306.438199,1998.556043,9178.553681
312.855160,689.485948,2220.617826,7550.100608
312.855468,2068.457845,1998.556043,7994.224174
312.855776,842.705048,1406.391290,8660.409521
312.856084,229.828649,518.144159,8808.450710
312.856392,153.219100,518.144159,9548.656652
312.856700,536.266849,-0.000000,9696.697840
312.857008,153.219100,444.123565,9104.533087
312.857316,919.314598,666.185348,8660.409521
312.857624,2451.505594,592.164754,8956.491898
312.857932,3064.381992,740.205942,8586.388927
312.858240,2221.676944,370.102971,8512.368333
312.858548,2604.724693,-1110.308913,9696.697840
312.858856,766.095498,-1554.432478,9770.718434
312.859164,-995.924147,-2516.700203,10881.027347
312.859472,-1378.971896,-2516.700203,12287.418637
312.859780,-1838.629195,-1998.556043,11695.253884
312.860088,-2068.457845,-370.102971,10658.965565
312.860396,-536.266849,814.226536,9918.759623
312.860704,-306.438199,1554.432478,9474.636058
312.861012,76.609550,2072.576638,8512.368333
312.861320,1072.533697,2146.597232,8660.409521
312.861628,995.924147,1480.411884,8068.244768
312.861936,612.876398,592.164754,8586.388927
312.862244,153.219100,592.164754,9622.677246
312.862553,766.095498,222.061783,9548.656652
312.862861,1149.143247,888.247130,9178.553681
312.863169,2068.457845,1110.308913,9178.553681
312.863477,2145.067394,1480.411884,9178.553681
312.863785,2604.724693,444.123565,9104.533087
312.864093,2451.505594,-222.061783,9622.677246
312.864401,842.705048,-1628.453072,9992.780217
312.864709,0.000000,-2812.782580,11399.171507
312.865017,-1378.971896,-2738.761985,12065.356855
312.865325,-1991.848295,-1628.453072,12139.377449
312.865633,-1455.581446,-1702.473667,11769.274478
312.865941,-459.657299,888.247130,9770.718434
312.866249,306.438199,1850.514855,9474.636058
312.866557,1149.143247,2220.617826,8808.450710
312.866865,1838.629195,2368.659014,8290.306550
312.867173,1991.848295,1924.535449,7846.182985
312.867481,1072.533697,1406.391290,9030.512492
312.867789,919.314598,962.267725,9622.677246
312.868097,229.828649,370.102971,10140.821405
312.868405,1608.800546,370.102971,10584.944971
312.868713,-229.828649,2072.576638,7179.997637
312.869021,3064.381992,1258.350101,9400.615463
312.869329,2068.457845,1480.411884,9104.533087
312.869637,1685.410096,-0.000000,9030.512492
312.869945,2068.457845,-888.247130,10214.842000
312.870253,919.314598,-2516.700203,10140.821405
312.870561,-766.095498,-3478.967927,11547.212695
312.870869,-1302.362347,-2590.720797,11547.212695
312.871177,-1149.143247,-1924.535449,12213.398043
312.871485,-1991.848295,-444.123565,10214.842000
312.871793,-153.219100,1036.288319,9844.739029
312.872101,1378.971896,2664.741391,8364.327145
312.872409,1225.752797,2368.659014,7698.141797
312.872717,2757.943793,2442.679609,7476.080014
312.873025,1455.581446,2442.679609,6957.935855
312.873333,1532.190996,740.205942,9326.594869
312.873641,153.219100,222.061783,9770.718434
312.873949,306.438199,962.267725,10510.924376
312.874257,-612.876398,296.082377,10658.965565
312.874566,842.705048,962.267725,9178.553681
312.874874,1838.629195,962.267725,9696.697840
312.875182,1302.362347,-74.020594,9252.574275
312.875490,2451.505594,-592.164754,9178.553681
312.875798,1302.362347,-1776.494261,9326.594869
312.876106,76.609550,-2886.803174,11251.130318
312.876414,-919.314598,-3552.988522,11843.295072
312.876722,-612.876398,-2886.803174,11695.253884
312.877030,-1225.752797,-1332.370696,10881.027347
312.877338,-306.438199,814.226536,9696.697840
312.877646,612.876398,2146.597232,8660.409521
312.877954,1838.629195,2812.782580,8290.306550
312.878262,1685.410096,2738.761985,7105.977043
312.878570,1608.800546,2368.659014,7994.224174
312.878878,1149.143247,666.185348,8882.471304
312.879186,766.095498,-148.041188,9696.697840
312.879494,0.000000,-296.082377,11029.068536
312.879802,-153.219100,-0.000000,10140.821405
312.880110,766.095498,962.267725,9918.759623
312.880418,0.000000,1258.350101,9474.636058
312.880726,1991.848295,444.123565,9696.697840
312.881034,2374.896044,-0.000000,8586.388927
312.881342,1762.019645,-370.102971,8956.491898
312.881650,919.314598,-2368.659014,10140.821405
312.881958,0.000000,-2738.761985,10881.027347
312.882266,-842.705048,-3108.864956,12213.398043
312.882574,-1532.190996,-2072.576638,11177.109724
312.882882,-1685.410096,-148.041188,10436.903782
312.883190,-612.876398,1480.411884,9844.739029
312.883498,612.876398,2442.679609,8364.327145
312.883806,1455.581446,3330.926739,7624.121203
312.884114,2374.896044,2590.720797,7550.100608
312.884422,1915.238745,2294.638420,7772.162391
312.884730,2298.286494,1702.473667,8290.306550
312.885038,1838.629195,666.185348,9474.636058
312.885346,919.314598,888.247130,9622.677246
312.885654,536.266849,1258.350101,9326.594869
312.885962,1915.238745,1184.329507,9400.615463
312.886271,1532.190996,1554.432478,9104.533087
312.886579,1838.629195,296.082377,8808.450710
312.886887,2145.067394,-518.144159,9474.636058
312.887195,1225.752797,-1850.514855,10140.821405
312.887503,-459.657299,-3404.947333,11547.212695
312.887811,-1378.971896,-3923.091493,12435.459826
312.888119,-1991.848295,-3108.864956,12287.418637
312.888427,-2068.457845,-1776.494261,11547.212695
312.888735,-919.314598,-0.000000,10066.800811
312.889043,76.609550,1924.535449,9252.574275
312.889351,1532.190996,2886.803174,8068.244768
312.889659,2987.772442,3182.885551,6883.915261
312.889967,2528.115143,2886.803174,7105.977043
312.890275,1991.848295,1850.514855,7328.038826
312.890583,1225.752797,740.205942,8882.471304
312.890891,0.000000,444.123565,9992.780217
312.891199,-229.828649,-148.041188,10362.883188
312.891507,383.047749,444.123565,9474.636058
312.891815,919.314598,666.185348,10140.821405
312.892123,1378.971896,148.041188,9178.553681
312.892431,2145.067394,296.082377,8734.430116
312.892739,2374.896044,-1110.308913,9474.636058
312.893047,995.924147,-2442.679609,9992.780217
312.893355,-383.047749,-3034.844362,11251.130318
312.893663,-919.314598,-3478.967927,12213.398043
312.893971,-1378.971896,-2294.638420,11473.192101
312.894279,-1378.971896,-962.267725,11177.109724
312.894587,0.000000,1036.288319,10288.862594
312.894895,383.047749,1850.514855,9104.533087
312.895203,766.095498,2442.679609,7772.162391
312.895511,1685.410096,2220.617826,8142.265362
312.895819,1072.533697,1554.432478,8216.285956
312.896127,383.047749,370.102971,9326.594869
312.896435,0.000000,-148.041188,10436.903782
312.896743,153.219100,740.205942,9992.780217
312.897051,689.485948,1332.370696,9400.615463
312.897359,1225.752797,2664.741391,8142.265362
312.897667,2681.334243,2146.597232,8734.430116
312.897976,3064.381992,1850.514855,8364.327145
312.898284,2911.162892,1406.391290,8216.285956
312.898592,1685.410096,-1110.308913,9474.636058
312.898900,0.000000,-2368.659014,10362.883188
312.899208,-459.657299,-3701.029710,12953.603985
312.899516,-2451.505594,-3552.988522,12583.501014
312.899824,-2221.676944,-2738.761985,12509.480420
312.900132,-1378.971896,-592.164754,10881.027347
312.900440,0.000000,666.185348,9696.697840
312.900748,1149.143247,2146.597232,8956.491898
312.901056,1608.800546,2590.720797,7772.162391
312.901364,1838.629195,2146.597232,7328.038826
312.901672,1608.800546,1702.473667,7402.059420
312.901980,1685.410096,1036.288319,8882.471304
312.902288,383.047749,1406.391290,9548.656652
312.902596,229.828649,1036.288319,9548.656652
312.902904,842.705048,1554.432478,9474.636058
312.903212,919.314598,2072.576638,8956.491898
312.903520,1915.238745,1406.391290,9770.718434
312.903828,2374.896044,444.123565,9696.697840
312.904136,1838.629195,-962.267725,9030.512492
312.904444,536.266849,-2516.700203,10510.924376
312.904752,-842.705048,-3849.070898,12287.418637
312.905060,-1532.190996,-4441.235652,12879.583391
312.905368,-2374.896044,-3182.885551,12287.418637
312.905676,-1455.581446,-1702.473667,11177.109724
312.905984,153.219100,444.123565,9474.636058
312.906292,1302.362347,1998.556043,9326.594869
312.906600,2068.457845,2220.617826,7698.141797
312.906908,2451.505594,2738.761985,7698.141797
312.907216,2221.676944,2072.576638,7772.162391
312.907524,1149.143247,1036.288319,8586.388927
312.907832,536.266849,962.267725,9696.697840
312.908140,229.828649,370.102971,10214.842000
312.908448,612.876398,1184.329507,9548.656652
312.908756,1532.190996,2220.617826,9030.512492
312.909064,1991.848295,2516.700203,8808.450710
312.909372,2298.286494,1480.411884,8882.471304
312.909681,2528.115143,518.144159,8586.388927
312.909989,1915.238745,-740.205942,9178.553681
312.910297,229.828649,-2294.638420,9770.718434
312.910605,-1072.533697,-3404.947333,12065.356855
312.910913,-1608.800546,-3775.050304,12583.501014
312.911221,-2298.286494,-2442.679609,11843.295072
312.911529,-1225.752797,-1332.370696,11103.089130
312.911837,229.828649,-0.000000,9104.533087
312.912145,0.000000,1702.473667,9252.574275
312.912453,1378.971896,1924.535449,8438.347739
312.912761,1685.410096,2368.659014,7476.080014
312.913069,2298.286494,1258.350101,8882.471304
312.913377,76.609550,1332.370696,6809.894666
312.913685,2068.457845,-0.000000,10140.821405
312.913993,689.485948,1850.514855,9252.574275
312.914301,1455.581446,2072.576638,8364.327145
312.914609,2451.505594,2516.700203,8068.244768
312.914917,3064.381992,2738.761985,7772.162391
312.915225,2604.724693,592.164754,8956.491898
312.915533,2451.505594,-0.000000,7846.182985
312.915841,1455.581446,-1776.494261,10066.800811
312.916149,-766.095498,-3849.070898,11547.212695
312.916457,-1838.629195,-4663.297435,13323.706956
312.916765,-2757.943793,-3478.967927,13249.686362
312.917073,-2528.115143,-2516.700203,12139.377449
312.917381,-1378.971896,222.061783,10436.903782
312.917689,-153.219100,1406.391290,9696.697840
312.917997,995.924147,2072.576638,8882.471304
312.918305,689.485948,2294.638420,7550.100608
312.918613,1608.800546,2072.576638,8290.306550
312.918921,919.314598,1258.350101,8734.430116
312.919229,536.266849,888.247130,9474.636058
312.919537,76.609550,888.247130,10066.800811
312.919845,459.657299,1332.370696,9696.697840
312.920153,919.314598,1850.514855,8512.368333
312.920461,1838.629195,2072.576638,8068.244768
312.920769,2604.724693,1258.350101,8808.450710
312.921077,2681.334243,-0.000000,8290.306550
312.921386,2374.896044,-666.185348,9030.512492
312.921694,919.314598,-2738.761985,10066.800811
312.922002,-153.219100,-3404.947333,11325.150913
312.922310,-1685.410096,-3108.864956,11991.336260
312.922618,-2145.067394,-2516.700203,12139.377449
312.922926,-1608.800546,-888.247130,10732.986159
312.923234,-766.095498,1036.288319,9992.780217
312.923542,0.000000,1924.535449,9474.636058
312.923850,842.705048,1480.411884,8216.285956
312.924158,1378.971896,1406.391290,8438.347739
312.924466,536.266849,1110.308913,8956.491898
312.924774,612.876398,-148.041188,9844.739029
312.925082,-612.876398,-148.041188,9474.636058
312.925390,76.609550,370.102971,10214.842000
312.925698,1072.533697,1258.350101,9400.615463
312.926006,1302.362347,1554.432478,8216.285956
312.926314,2757.943793,1998.556043,8364.327145
312.926622,3370.820191,1406.391290,7476.080014
312.926930,2987.772442,-0.000000,8290.306550
312.927238,1991.848295,-888.247130,8808.450710
312.927546,459.657299,-2516.700203,10288.862594
312.927854,-1455.581446,-3182.885551,11843.295072
312.928162,-1762.019645,-3330.926739,13101.645173
312.928470,-459.657299,-2590.720797,12213.398043
312.928778,-2145.067394,-0.000000,8882.471304
312.929086,1608.800546,-0.000000,10732.986159
312.929394,919.314598,2590.720797,7550.100608
312.929702,1225.752797,2368.659014,8290.306550
312.930010,2145.067394,1036.288319,8956.491898
312.930318,766.095498,1258.350101,7772.162391
312.930626,995.924147,-74.020594,10288.862594
312.930934,383.047749,518.144159,8660.409521
312.931242,1685.410096,1184.329507,9622.677246
312.931550,612.876398,1184.329507,8882.471304
312.931858,1685.410096,2146.597232,8734.430116
312.932166,2145.067394,1332.370696,9252.574275
312.932474,1991.848295,-0.000000,9030.512492
312.932782,1685.410096,-444.123565,9474.636058
312.933090,383.047749,-2368.659014,10584.944971
312.933398,-383.047749,-3478.967927,11917.315666
312.933707,-2681.334243,-3478.967927,12435.459826
312.934015,-1915.238745,-2738.761985,12435.459826
312.934323,-1302.362347,-518.144159,10362.883188
312.934631,-229.828649,1554.432478,9104.533087
312.934939,1149.143247,1776.494261,9622.677246
312.935247,1991.848295,2960.823768,7254.018232
312.935555,2451.505594,2294.638420,7920.203579
312.935863,1302.362347,1184.329507,8956.491898
312.936171,1532.190996,1110.308913,8586.388927
312.936479,1455.581446,962.267725,9844.739029
312.936787,612.876398,592.164754,10658.965565
312.937095,1149.143247,1850.514855,8882.471304
312.937403,1762.019645,2294.638420,8808.450710
312.937711,2145.067394,2072.576638,8734.430116
312.938019,2834.553343,1184.329507,8438.347739
312.938327,2681.334243,370.102971,8216.285956
312.938635,1608.800546,-1406.391290,10362.883188
312.938943,0.000000,-3108.864956,10807.006753
312.939251,-1762.019645,-2664.741391,12657.521608
312.939559,-2451.505594,-3108.864956,13471.748144
312.939867,-1915.238745,-2072.576638,11917.315666
312.940175,-1225.752797,296.082377,10288.862594
312.940483,-459.657299,962.267725,9548.656652
312.940791,689.485948,1258.350101,9178.553681
312.941099,1685.410096,2146.597232,8586.388927
312.941407,1455.581446,1924.535449,8364.327145
312.941715,1302.362347,1036.288319,8142.265362
312.942023,1685.410096,370.102971,9178.553681
312.942331,842.705048,592.164754,9326.594869
312.942639,842.705048,740.205942,8808.450710
312.942947,1378.971896,1776.494261,8290.306550
312.943255,3064.381992,2368.659014,7994.224174
312.943563,2834.553343,1628.453072,7624.121203
312.943871,3677.258390,740.205942,8216.285956
312.944179,2987.772442,444.123565,8290.306550
312.944487,1225.752797,-1110.308913,9326.594869
312.944795,-229.828649,-3182.885551,11695.253884
312.945103,-1608.800546,-3256.906145,12065.356855
312.945411,-1991.848295,-2738.761985,11991.336260
312.945719,-1991.848295,-1184.329507,11103.089130
312.946027,-995.924147,370.102971,10140.821405
312.946335,-459.657299,666.185348,9770.718434
312.946643,383.047749,962.267725,9104.533087
312.946951,766.095498,1332.370696,8216.285956
312.947259,612.876398,592.164754,8956.491898
312.947568,383.047749,-74.020594,9474.636058
312.947876,0.000000,-0.000000,10584.944971
312.948184,0.000000,-148.041188,10436.903782
312.948492,0.000000,962.267725,9474.636058
312.948800,1302.362347,2368.659014,8956.491898
312.949108,2681.334243,2442.679609,8364.327145
312.949416,2987.772442,2146.597232,7772.162391
312.949724,3140.991542,1554.432478,7550.100608
312.950032,2451.505594,-296.082377,8586.388927
312.950340,919.314598,-1258.350101,9992.780217
312.950648,-689.485948,-2516.700203,11991.336260
312.950956,-2145.067394,-2590.720797,12657.521608
312.951264,-2451.505594,-1332.370696,11769.274478
312.951572,-1225.752797,-74.020594,10140.821405
312.951880,-612.876398,962.267725,10066.800811
312.952188,459.657299,1628.453072,10066.800811
312.952496,842.705048,1776.494261,8660.409521
312.952804,919.314598,1554.432478,8364.327145
312.953112,1302.362347,740.205942,9400.615463
312.953420,612.876398,-74.020594,10066.800811
312.953728,383.047749,518.144159,10732.986159
312.954036,842.705048,518.144159,10140.821405
312.954344,995.924147,1924.535449,8734.430116
312.954652,2221.676944,1850.514855,9326.594869
312.954960,2834.553343,2072.576638,8586.388927
312.955268,3217.601092,1332.370696,7994.224174
312.955576,2987.772442,-148.041188,8290.306550
312.955884,1685.410096,-1110.308913,8216.285956
312.956192,459.657299,-2812.782580,10955.047942
312.956500,-1608.800546,-3256.906145,12213.398043
312.956808,-1838.629195,-2590.720797,11917.315666
312.957116,-1532.190996,-888.247130,10362.883188
312.957424,0.000000,444.123565,9548.656652
312.957732,842.705048,888.247130,9252.574275
312.958040,2068.457845,2664.741391,7179.997637
312.958348,1915.238745,1776.494261,8142.265362
312.958656,1378.971896,1332.370696,7920.203579
312.958964,1532.190996,518.144159,9622.677246
312.959272,536.266849,592.164754,9622.677246
312.959580,459.657299,444.123565,9918.759623
312.959888,842.705048,814.226536,9474.636058
312.960196,1838.629195,1258.350101,9474.636058
312.960504,1838.629195,1480.411884,9326.594869
312.960812,2145.067394,888.247130,8068.244768
312.961120,2451.505594,370.102971,8808.450710
312.961429,1532.190996,-518.144159,9030.512492
312.961737,0.000000,-2294.638420,10362.883188
312.962045,-1225.752797,-3256.906145,12509.480420
312.962353,-2451.505594,-3108.864956,11917.315666
312.962661,-2911.162892,-1628.453072,11399.171507
312.962969,-2145.067394,-592.164754,11103.089130
312.963277,0.000000,1406.391290,9622.677246
312.963585,459.657299,2072.576638,9030.512492
312.963893,1685.410096,2220.617826,8068.244768
312.964201,1915.238745,1998.556043,7550.100608
312.964509,1225.752797,1480.411884,8364.327145
312.964817,1455.581446,-0.000000,9548.656652
312.965125,842.705048,222.061783,9770.718434
312.965433,995.924147,444.123565,9770.718434
312.965741,1072.533697,740.205942,8734.430116
312.966049,1991.848295,1332.370696,7846.182985
312.966357,2681.334243,1480.411884,8290.306550
312.966665,2757.943793,962.267725,8512.368333
312.966973,1991.848295,-444.123565,9104.533087
312.967281,0.000000,-2220.617826,9992.780217
312.967589,-383.047749,-3849.070898,11547.212695
312.967897,-2987.772442,-4071.132681,12065.356855
312.968205,-3370.820191,-3404.947333,12953.603985
312.968513,-2221.676944,-1480.411884,11399.171507
312.968821,-919.314598,666.185348,9474.636058
312.969129,459.657299,1628.453072,9030.512492
312.969437,1608.800546,2812.782580,8734.430116
312.969745,2528.115143,3182.885551,7772.162391
312.970053,2145.067394,2368.659014,7254.018232
312.970361,2298.286494,1480.411884,8586.388927
312.970669,1302.362347,740.205942,9326.594869
312.970977,995.924147,740.205942,9844.739029
312.971285,1608.800546,1258.350101,9548.656652
312.971593,1685.410096,2072.576638,8438.347739
312.971901,2068.457845,1184.329507,9030.512492
312.972209,2374.896044,1480.411884,8364.327145
312.972517,3830.477490,814.226536,9252.574275
312.972825,1378.971896,-444.123565,9326.594869
312.973133,306.438199,-1702.473667,10732.986159
312.973441,-689.485948,-2516.700203,13249.686362
312.973749,-2451.505594,-2294.638420,11769.274478
312.974057,-2298.286494,-1702.473667,12879.583391
312.974365,-1302.362347,222.061783,10510.924376
312.974673,-842.705048,1554.432478,10288.862594
312.974981,536.266849,1776.494261,9548.656652
312.975290,689.485948,2960.823768,8364.327145
312.975598,1378.971896,962.267725,9326.594869
312.975906,1225.752797,1110.308913,8290.306550
312.976214,1225.752797,444.123565,9548.656652
312.976522,995.924147,-740.205942,10584.944971
312.976830,306.438199,-0.000000,9252.574275
312.977138,1532.190996,444.123565,9474.636058
312.977446,1149.143247,1480.411884,8290.306550
312.977754,2451.505594,1850.514855,8290.306550
312.978062,3753.867940,1332.370696,8142.265362
312.978370,2757.943793,592.164754,7920.203579
312.978678,1149.143247,-1406.391290,8808.450710
312.978986,0.000000,-3034.844362,10732.986159
312.979294,-919.314598,-2812.782580,11251.130318
312.979602,-2145.067394,-2738.761985,11177.109724
312.979910,-1302.362347,-1628.453072,10807.006753
312.980218,-1225.752797,-296.082377,9918.759623
312.980526,229.828649,1480.411884,8882.471304
312.980834,536.266849,1332.370696,8290.306550
312.981142,1378.971896,1406.391290,8142.265362
312.981450,689.485948,518.144159,8142.265362
312.981758,153.219100,-0.000000,9252.574275
312.982066,76.609550,-1554.432478,10658.965565
312.982374,153.219100,-592.164754,10140.821405
312.982682,229.828649,-296.082377,9918.759623
312.982990,1225.752797,962.267725,9178.553681
312.983298,2604.724693,1628.453072,8660.409521
312.983606,2911.162892,2072.576638,7550.100608
312.983914,3217.601092,1036.288319,7402.059420
312.984222,2221.676944,-518.144159,8956.491898
312.984530,459.657299,-1184.329507,9474.636058
312.984838,-383.047749,-2220.617826,11103.089130
312.985146,-1378.971896,-2368.659014,10955.047942
312.985454,-1762.019645,-1406.391290,11473.192101
312.985762,-1455.581446,-0.000000,10807.006753
312.986070,-306.438199,1702.473667,10066.800811
312.986378,766.095498,2220.617826,9178.553681
312.986686,612.876398,2960.823768,8216.285956
312.986994,1838.629195,1776.494261,8438.347739
312.987302,1762.019645,1258.350101,8660.409521
312.987610,229.828649,592.164754,9770.718434
312.987918,459.657299,-370.102971,10732.986159
312.988226,0.000000,444.123565,10807.006753
312.988534,612.876398,444.123565,10584.944971
312.988842,1302.362347,1554.432478,9252.574275
312.989150,2604.724693,1776.494261,9400.615463
312.989459,2298.286494,1036.288319,8882.471304
312.989767,2681.334243,222.061783,9104.533087
312.990075,1608.800546,-1332.370696,9844.739029
312.990383,-383.047749,-1998.556043,10807.006753
312.990691,-842.705048,-2442.679609,11843.295072
312.990999,-1915.238745,-2590.720797,12065.356855
312.991307,-2068.457845,-962.267725,11547.212695
312.991615,-1149.143247,666.185348,9992.780217
312.991923,229.828649,2294.638420,9178.553681
312.992231,766.095498,2664.741391,8142.265362
312.992539,1378.971896,2664.741391,7994.224174
312.992847,1915.238745,2146.597232,8586.388927
312.993155,1302.362347,740.205942,8512.368333
312.993463,229.828649,222.061783,9770.718434
312.993771,459.657299,-0.000000,10362.883188
312.994079,842.705048,370.102971,9696.697840
312.994387,153.219100,888.247130,9474.636058
312.994695,1149.143247,888.247130,9918.759623
312.995003,2374.896044,666.185348,8660.409521
312.995311,2528.115143,740.205942,8660.409521
312.995619,1685.410096,-666.185348,9252.574275
312.995927,842.705048,-1480.411884,9770.718434
312.996235,-536.266849,-2886.803174,11473.192101
312.996543,-1455.581446,-3478.967927,12065.356855
312.996851,-1532.190996,-2368.659014,11325.150913
312.997159,-1302.362347,-814.226536,11103.089130
312.997467,-229.828649,1036.288319,9474.636058
312.997775,919.314598,2072.576638,8364.327145
312.998083,1532.190996,2664.741391,7920.203579
312.998391,1991.848295,1998.556043,7254.018232
312.998699,1685.410096,1184.329507,8068.244768
312.999007,995.924147,-0.000000,9474.636058
312.999315,229.828649,-518.144159,10288.862594
312.999623,1072.533697,-370.102971,10140.821405
312.999931,1149.143247,370.102971,9400.615463
313.000239,1225.752797,1406.391290,8586.388927
313.000547,3064.381992,1406.391290,8142.265362
313.000855,3064.381992,1702.473667,7624.121203
313.001163,2911.162892,370.102971,8512.368333
313.001471,2451.505594,-814.226536,9104.533087
313.001779,229.828649,-2368.659014,10362.883188
313.002087,-689.485948,-3404.947333,11917.315666
313.002395,-1532.190996,-2590.720797,12065.356855
313.002703,-2145.067394,-1776.494261,11547.212695
313.003011,-1991.848295,-296.082377,10510.924376
313.003320,0.000000,1332.370696,9252.574275
313.003628,689.485948,2368.659014,8216.285956
313.003936,1532.190996,2072.576638,8290.306550
313.004244,1302.362347,2146.597232,8216.285956
313.004552,995.924147,1184.329507,8808.450710
313.004860,842.705048,-0.000000,10140.821405
313.005168,306.438199,296.082377,9992.780217
313.005476,842.705048,444.123565,10288.862594
313.005784,612.876398,814.226536,9104.533087
313.006092,1915.238745,1702.473667,9252.574275
313.006400,2298.286494,1628.453072,9474.636058
313.006708,2528.115143,814.226536,9252.574275
313.007016,1838.629195,-370.102971,9400.615463
313.007324,1455.581446,-1258.350101,10436.903782
313.007632,0.000000,-2516.700203,11251.130318
313.007940,-1532.190996,-2738.761985,11917.315666
313.008248,-1455.581446,-1702.473667,11917.315666
313.008556,-1225.752797,-296.082377,10807.006753
313.008864,-306.438199,1406.391290,9400.615463
313.009172,1455.581446,2516.700203,8734.430116
313.009480,1838.629195,3108.864956,7920.203579
313.009788,1838.629195,2812.782580,8068.244768
313.010096,1455.581446,2294.638420,8512.368333
313.010404,612.876398,1110.308913,9622.677246
313.010712,-229.828649,-148.041188,10658.965565
313.011020,-766.095498,-444.123565,11029.068536
313.011328,-306.438199,-296.082377,10584.944971
313.011636,689.485948,-0.000000,10436.903782
313.011944,1072.533697,1184.329507,9104.533087
313.012252,2374.896044,1184.329507,9252.574275
313.012560,2451.505594,148.041188,9178.553681
313.012868,1915.238745,-666.185348,9030.512492
313.013176,766.095498,-1924.535449,9918.759623
313.013484,-229.828649,-3034.844362,11473.192101
313.013792,-1455.581446,-2738.761985,11547.212695
313.014100,-1685.410096,-1998.556043,10807.006753
313.014408,-842.705048,148.041188,9844.739029
313.014716,76.609550,1110.308913,9030.512492
313.015024,1608.800546,2368.659014,7772.162391
313.015332,1838.629195,2664.741391,7179.997637
313.015640,2145.067394,2072.576638,6661.853478
313.015948,2068.457845,1406.391290,7846.182985
313.016256,1149.143247,-0.000000,9400.615463
313.016564,229.828649,-222.061783,9548.656652
313.016872,536.266849,-74.020594,10732.986159
313.017181,536.266849,444.123565,9252.574275
313.017489,1072.533697,740.205942,9030.512492
313.017797,1838.629195,592.164754,9474.636058
313.018105,1991.848295,888.247130,8512.368333
313.018413,1072.533697,-518.144159,9252.574275
313.018721,766.095498,-2590.720797,10510.924376
313.019029,-1608.800546,-3182.885551,11325.150913
313.019337,-766.095498,-4589.276840,13027.624579
313.019645,-3064.381992,-2442.679609,11029.068536
313.019953,-1991.848295,-2220.617826,11991.336260
313.020261,-1149.143247,-0.000000,10436.903782
313.020569,0.000000,2146.597232,8660.409521
313.020877,1762.019645,3182.885551,7846.182985
313.021185,2604.724693,3627.009116,6735.874072
313.021493,3064.381992,2738.761985,7550.100608
313.021801,2298.286494,2442.679609,7328.038826
313.022109,2528.115143,814.226536,9400.615463
313.022417,536.266849,592.164754,9178.553681
313.022725,459.657299,592.164754,9770.718434
313.023033,842.705048,1776.494261,9622.677246
313.023341,842.705048,962.267725,9548.656652
313.023649,1991.848295,1406.391290,9696.697840
313.023957,1685.410096,222.061783,9844.739029
313.024265,1378.971896,-444.123565,10510.924376
313.024573,-536.266849,-2516.700203,10732.986159
313.024881,-612.876398,-2812.782580,12065.356855
313.025189,-1915.238745,-3182.885551,13249.686362
313.025497,-2298.286494,-2220.617826,12361.439231
313.025805,-1072.533697,-222.061783,11029.068536
313.026113,76.609550,888.247130,9400.615463
313.026421,689.485948,3108.864956,8734.430116
313.026729,1991.848295,2738.761985,7328.038826
313.027037,2374.896044,2368.659014,7846.182985
313.027345,1149.143247,1406.391290,7846.182985
313.027653,689.485948,370.102971,9030.512492
313.027961,766.095498,-0.000000,10732.986159
313.028269,153.219100,-0.000000,9918.759623
313.028577,919.314598,592.164754,9474.636058
313.028885,2604.724693,1776.494261,9104.533087
313.029191,2834.553343,2368.659014,8364.327145
313.029499,3447.429741,2072.576638,8142.265362
313.029807,3294.210641,962.267725,8216.285956
313.030115,1685.410096,-592.164754,9696.697840
313.030423,-306.438199,-2146.597232,10732.986159
313.030731,-1225.752797,-3034.844362,12435.459826
313.031039,-1915.238745,-3034.844362,12731.542202
313.031346,-2145.067394,-1924.535449,11399.171507
313.031654,-1378.971896,-370.102971,10436.903782
313.031962,-153.219100,1184.329507,9696.697840
313.032270,1302.362347,1998.556043,8364.327145
313.032578,1608.800546,2368.659014,7624.121203
313.032886,2145.067394,1702.473667,8216.285956
313.033194,1072.533697,518.144159,8512.368333
313.033502,1455.581446,-370.102971,9918.759623
313.033810,76.609550,-0.000000,10214.842000
313.034118,76.609550,-74.020594,9918.759623
313.034426,1378.971896,592.164754,9992.780217
313.034734,1685.410096,1554.432478,9030.512492
313.035041,2604.724693,1480.411884,8216.285956
313.035349,2604.724693,962.267725,8290.306550
313.035657,2451.505594,-296.082377,8364.327145
313.035965,995.924147,-2368.659014,9622.677246
313.036273,-689.485948,-3478.967927,10955.047942
313.036581,-766.095498,-3182.885551,11917.315666
313.036889,-2221.676944,-2442.679609,11399.171507
313.037197,-1608.800546,-740.205942,9992.780217
313.037505,0.000000,666.185348,9696.697840
313.037813,995.924147,2072.576638,8216.285956
313.038121,229.828649,2590.720797,8290.306550
313.038429,1378.971896,2146.597232,8734.430116
313.038736,766.095498,1628.453072,8142.265362
313.039044,-459.657299,592.164754,10807.006753
313.039352,-536.266849,-592.164754,10955.047942
313.039660,-612.876398,-222.061783,10955.047942
313.039968,-612.876398,592.164754,11029.068536
313.040276,842.705048,1554.432478,9474.636058
313.040584,2145.067394,2294.638420,8660.409521
313.040892,2451.505594,1776.494261,8364.327145
313.041200,3140.991542,592.164754,9030.512492
313.041508,1838.629195,-666.185348,9030.512492
313.041816,76.609550,-2368.659014,11103.089130
313.042124,-612.876398,-3256.906145,12065.356855
313.042432,-1378.971896,-2590.720797,11991.336260
313.042739,-1608.800546,-1628.453072,11621.233289
313.043047,0.000000,-370.102971,10362.883188
313.043355,919.314598,2072.576638,8808.450710
313.043663,1915.238745,2886.803174,7846.182985
313.043971,2374.896044,2960.823768,7476.080014
313.044279,3064.381992,2664.741391,7328.038826
313.044587,1915.238745,1554.432478,8586.388927
313.044895,1072.533697,740.205942,9622.677246
313.045203,689.485948,592.164754,10140.821405
313.045511,-306.438199,666.185348,10066.800811
313.045819,229.828649,1258.350101,10214.842000
313.046127,1991.848295,1110.308913,9696.697840
313.046434,1991.848295,1184.329507,8586.388927
313.046742,2374.896044,518.144159,9474.636058
313.047050,1915.238745,-962.267725,9548.656652
313.047358,229.828649,-2590.720797,10807.006753
313.047666,-1072.533697,-3627.009116,12435.459826
313.047974,-1991.848295,-3701.029710,12583.501014
313.048282,-1991.848295,-3182.885551,11991.336260
313.048590,-1838.629195,-962.267725,11251.130318
313.048898,306.438199,666.185348,9474.636058
313.049206,1608.800546,2590.720797,8142.265362
313.049514,2374.896044,3108.864956,7328.038826
313.049822,2528.115143,3034.844362,6735.874072
313.050129,2451.505594,2590.720797,7105.977043
313.050437,1915.238745,1258.350101,8438.347739
313.050745,612.876398,592.164754,8586.388927
313.051053,995.924147,-0.000000,9474.636058
313.051361,842.705048,1036.288319,9252.574275
313.051669,995.924147,1998.556043,8216.285956
313.051977,1838.629195,1406.391290,8586.388927
313.052285,2145.067394,592.164754,8956.491898
313.052593,1838.629195,-444.123565,9252.574275
313.052901,383.047749,-2146.597232,9992.780217
313.053209,-612.876398,-3701.029710,11917.315666
313.053517,-1915.238745,-4885.359217,12731.542202
313.053824,-2911.162892,-3923.091493,13101.645173
313.054132,-2757.943793,-2886.803174,12287.418637
313.054440,-1762.019645,-1184.329507,10881.027347
313.054748,-383.047749,1184.329507,9770.718434
313.055056,689.485948,2072.576638,8586.388927
313.055364,1838.629195,2368.659014,7994.224174
313.055672,2681.334243,2368.659014,7624.121203
313.055980,2528.115143,2368.659014,7476.080014
313.056288,1991.848295,1480.411884,8586.388927
313.056596,1762.019645,1554.432478,9326.594869
313.056904,919.314598,1554.432478,8438.347739
313.057212,1378.971896,1924.535449,8586.388927
313.057520,2221.676944,1850.514855,8142.265362
313.057827,2834.553343,1850.514855,8512.368333
313.058135,2451.505594,888.247130,8660.409521
313.058443,2145.067394,-74.020594,8586.388927
313.058751,383.047749,-1776.494261,10881.027347
313.059059,-842.705048,-3256.906145,12361.439231
313.059367,-2145.067394,-3404.947333,13101.645173
313.059675,-2528.115143,-2960.823768,13323.706956
313.059983,-2221.676944,-1924.535449,11843.295072
313.060291,-1915.238745,-74.020594,10436.903782
313.060599,153.219100,1258.350101,10066.800811
313.060907,1685.410096,1850.514855,9104.533087
313.061215,1225.752797,2664.741391,7476.080014
313.061522,1915.238745,1480.411884,8068.244768
313.061830,1838.629195,1628.453072,7772.162391
313.062138,1532.190996,1110.308913,9178.553681
313.062446,1378.971896,1036.288319,9326.594869
313.062754,1149.143247,1776.494261,8734.430116
313.063062,2221.676944,1776.494261,8734.430116
313.063370,3140.991542,1702.473667,8438.347739
313.063678,3064.381992,1776.494261,8734.430116
313.063986,2911.162892,740.205942,8586.388927
313.064294,1378.971896,-148.041188,9474.636058
313.064602,0.000000,-2294.638420,11399.171507
313.064910,-1685.410096,-3256.906145,12361.439231
313.065217,-2604.724693,-3256.906145,13619.789333
313.065525,-2451.505594,-2294.638420,12213.398043
313.065833,-1608.800546,-1036.288319,11843.295072
313.066141,-1302.362347,370.102971,10584.944971
313.066449,383.047749,1554.432478,9326.594869
313.066757,919.314598,2442.679609,8142.265362
313.067065,1149.143247,2220.617826,7772.162391
313.067373,1378.971896,1406.391290,8068.244768
313.067681,612.876398,1184.329507,9400.615463
313.067989,459.657299,814.226536,9474.636058
313.068297,919.314598,666.185348,9400.615463
313.068605,689.485948,1554.432478,9104.533087
313.068912,1685.410096,1850.514855,8808.450710
313.069220,2298.286494,2072.576638,7772.162391
313.069528,2681.334243,1406.391290,7772.162391
313.069836,2451.505594,-222.061783,8586.388927
313.070144,919.314598,-1776.494261,9030.512492
313.070452,0.000000,-3108.864956,10807.006753
313.070760,-1149.143247,-3849.070898,12213.398043
313.071068,-1915.238745,-3330.926739,11769.274478
313.071376,-2221.676944,-2368.659014,11177.109724
313.071684,-612.876398,-962.267725,10658.965565
313.071992,383.047749,962.267725,8808.450710
313.072300,766.095498,1776.494261,8290.306550
313.072607,2374.896044,1554.432478,7698.141797
313.072915,1685.410096,1110.308913,7624.121203
313.073223,842.705048,296.082377,8882.471304
313.073531,1149.143247,-222.061783,9548.656652
313.073839,612.876398,-0.000000,9918.759623
313.074147,229.828649,296.082377,10288.862594
313.074455,919.314598,1184.329507,8660.409521
313.074763,2145.067394,1924.535449,8956.491898
313.075071,2298.286494,1702.473667,8512.368333
313.075379,2451.505594,962.267725,8290.306550
313.075687,2068.457845,148.041188,8956.491898
313.075995,459.657299,-2146.597232,10510.924376
313.076303,-766.095498,-2812.782580,11325.150913
313.076610,-1838.629195,-2738.761985,12287.418637
313.076918,-2221.676944,-2368.659014,12509.480420
313.077226,-1915.238745,-444.123565,11029.068536
313.077534,-459.657299,1258.350101,9770.718434
313.077842,689.485948,2886.803174,8660.409521
313.078150,2068.457845,3034.844362,8438.347739
313.078458,2451.505594,2368.659014,7846.182985
313.078766,1608.800546,1850.514855,8290.306550
313.079074,1608.800546,962.267725,9178.553681
313.079382,842.705048,592.164754,9770.718434
313.079690,-229.828649,740.205942,10955.047942
313.079998,766.095498,888.247130,9992.780217
313.080305,1225.752797,1850.514855,9104.533087
313.080613,1455.581446,1998.556043,9252.574275
313.080921,2911.162892,1628.453072,8734.430116
313.081229,2221.676944,962.267725,8956.491898
313.081537,842.705048,-888.247130,9992.780217
313.081845,-536.266849,-2368.659014,10955.047942
313.082153,-1915.238745,-3108.864956,12657.521608
313.082461,-2834.553343,-3701.029710,13693.809927
313.082769,-2681.334243,-2442.679609,11843.295072
313.083077,-2451.505594,-74.020594,11177.109724
313.083385,-536.266849,592.164754,10732.986159
313.083693,766.095498,2072.576638,8734.430116
313.084000,1838.629195,2590.720797,8142.265362
313.084308,2221.676944,2146.597232,7254.018232
313.084616,2451.505594,1628.453072,7624.121203
313.084924,2068.457845,962.267725,9252.574275
313.085232,919.314598,518.144159,9474.636058
313.085540,1378.971896,1110.308913,9252.574275
313.085848,1838.629195,1184.329507,8660.409521
313.086156,2068.457845,1850.514855,8512.368333
313.086464,2604.724693,1628.453072,8364.327145
313.086772,2834.553343,1036.288319,8438.347739
313.087080,2681.334243,-0.000000,8438.347739
313.087388,842.705048,-1776.494261,9326.594869
313.087695,-459.657299,-3552.988522,11621.233289
313.088003,-1762.019645,-3923.091493,12509.480420
313.088311,-2221.676944,-2812.782580,11843.295072
313.088619,-1762.019645,-1554.432478,11103.089130
313.088927,-919.314598,-0.000000,10362.883188
313.089235,536.266849,1110.308913,9474.636058
313.089543,1149.143247,1924.535449,8142.265362
313.089851,1838.629195,1628.453072,8068.244768
313.090159,1838.629195,1110.308913,7994.224174
313.090467,1685.410096,-0.000000,8660.409521
313.090775,919.314598,-444.123565,10140.821405
313.091083,995.924147,-370.102971,10066.800811
313.091391,1072.533697,666.185348,9326.594869
313.091698,1915.238745,1628.453072,8364.327145
313.092006,3524.039291,2146.597232,7920.203579
313.092314,3524.039291,2294.638420,7476.080014
313.092622,3140.991542,1258.350101,7624.121203
313.092930,2451.505594,-222.061783,9030.512492
313.093238,459.657299,-1258.350101,10140.821405
313.093546,-459.657299,-2738.761985,12065.356855
313.093854,-2221.676944,-2590.720797,11991.336260
313.094162,-2451.505594,-1702.473667,11991.336260
313.094470,-1455.581446,-814.226536,11621.233289
313.094778,-1378.971896,1332.370696,9696.697840
313.095086,0.000000,1036.288319,9696.697840
313.095393,1225.752797,1332.370696,8660.409521
313.095701,689.485948,1998.556043,8142.265362
313.096009,766.095498,666.185348,9474.636058
313.096317,459.657299,-0.000000,9844.739029
313.096625,0.000000,296.082377,9992.780217
313.096933,229.828649,518.144159,9696.697840
313.097241,995.924147,1332.370696,9474.636058
313.097549,1455.581446,1702.473667,9252.574275
313.097857,2987.772442,1998.556043,8512.368333
313.098165,3064.381992,1776.494261,7920.203579
313.098473,1608.800546,444.123565,8290.306550
313.098781,995.924147,-1554.432478,10288.862594
313.099088,-766.095498,-2516.700203,11251.130318
313.099396,-2068.457845,-3182.885551,12509.480420
313.099704,-2451.505594,-2738.761985,12879.583391
313.100012,-2451.505594,-592.164754,11251.130318
313.100320,-766.095498,740.205942,10584.944971
313.100628,689.485948,2072.576638,8882.471304
313.100936,1455.581446,2738.761985,7920.203579
313.101244,1838.629195,2442.679609,8290.306550
313.101552,1608.800546,1554.432478,7846.182985
313.101860,766.095498,1036.288319,9548.656652
313.102168,383.047749,-518.144159,10584.944971
313.102476,0.000000,-148.041188,10584.944971
313.102783,536.266849,-148.041188,10807.006753
313.103091,1302.362347,1184.329507,9622.677246
313.103399,2068.457845,1850.514855,8660.409521
313.103707,3064.381992,1850.514855,8290.306550
313.104015,3217.601092,962.267725,8364.327145
313.104323,2604.724693,-740.205942,8808.450710
313.104631,1302.362347,-1998.556043,9622.677246
313.104939,-612.876398,-3182.885551,11399.171507
313.105247,-1838.629195,-3182.885551,12287.418637
313.105555,-1991.848295,-1702.473667,11103.089130
313.105863,-919.314598,-296.082377,10732.986159
313.106171,-383.047749,1258.350101,8882.471304
313.106479,1149.143247,2220.617826,8734.430116
313.106786,1378.971896,1850.514855,7402.059420
313.107094,1915.238745,1628.453072,7772.162391
313.107402,1378.971896,444.123565,8438.347739
313.107710,459.657299,-222.061783,9030.512492
313.108018,383.047749,-370.102971,10436.903782
313.108326,536.266849,-296.082377,10288.862594
313.108634,689.485948,1110.308913,9474.636058
313.108942,1762.019645,1406.391290,9178.553681
313.109250,3140.991542,1480.411884,8068.244768
313.109558,2834.553343,1554.432478,7624.121203
313.109866,2987.772442,-592.164754,8586.388927
313.110174,536.266849,-1628.453072,9548.656652
313.110481,-995.924147,-3034.844362,11399.171507
313.110789,-1991.848295,-3849.070898,13027.624579
313.111097,-2604.724693,-3034.844362,12509.480420
313.111405,-2374.896044,-962.267725,11251.130318
313.111713,-1378.971896,148.041188,10881.027347
313.112021,383.047749,1628.453072,9030.512492
313.112329,1378.971896,2664.741391,7698.141797
313.112637,2298.286494,2738.761985,7624.121203
313.112945,2221.676944,2072.576638,7624.121203
313.113253,1532.190996,1628.453072,8512.368333
313.113561,995.924147,222.061783,10066.800811
313.113869,153.219100,296.082377,9622.677246
313.114176,612.876398,148.041188,10510.924376
313.114484,995.924147,888.247130,9178.553681
313.114792,1608.800546,1258.350101,8364.327145
313.115100,2145.067394,1184.329507,8882.471304
313.115408,2681.334243,740.205942,8290.306550
313.115716,1991.848295,-592.164754,9326.594869
313.116024,766.095498,-2442.679609,10510.924376
313.116332,-1072.533697,-2664.741391,11917.315666
313.116640,-1838.629195,-2812.782580,13101.645173
313.116948,-1685.410096,-1998.556043,11695.253884
313.117256,-1762.019645,370.102971,10955.047942
313.117564,0.000000,1406.391290,9992.780217
313.117871,689.485948,2960.823768,8364.327145
313.118179,919.314598,3330.926739,8290.306550
313.118487,1838.629195,2368.659014,7846.182985
313.118795,1455.581446,1776.494261,8512.368333
313.119103,612.876398,370.102971,9770.718434
313.119411,76.609550,-444.123565,11029.068536
313.119719,0.000000,-74.020594,10732.986159
313.120027,229.828649,-74.020594,9844.739029
313.120335,1608.800546,888.247130,9400.615463
313.120643,2834.553343,1554.432478,8290.306550
313.120951,3140.991542,1258.350101,7624.121203
313.121259,3447.429741,-0.000000,8216.285956
313.121567,2604.724693,-1110.308913,8882.471304
313.121874,229.828649,-1850.514855,10881.027347
313.122182,-536.266849,-2738.761985,12065.356855
313.122490,-1532.190996,-2294.638420,11473.192101
313.122798,-1225.752797,-888.247130,11251.130318
313.123106,-766.095498,296.082377,9622.677246
313.123414,-306.438199,1924.535449,9400.615463
313.123722,766.095498,2146.597232,8882.471304
313.124030,1378.971896,2442.679609,7772.162391
313.124338,766.095498,1406.391290,8290.306550
313.124646,919.314598,-0.000000,9178.553681
313.124954,-612.876398,-0.000000,9400.615463
313.125262,-383.047749,-1258.350101,11251.130318
313.125569,-383.047749,-518.144159,10362.883188
313.125877,0.000000,1184.329507,9400.615463
313.126185,1762.019645,888.247130,9326.594869
313.126493,2528.115143,1480.411884,7698.141797
313.126801,3753.867940,814.226536,7772.162391
313.127109,3064.381992,-74.020594,8142.265362
313.127417,1455.581446,-1628.453072,9474.636058
313.127725,0.000000,-2738.761985,11029.068536
313.128033,-995.924147,-3034.844362,11991.336260
313.128341,-1838.629195,-1998.556043,11991.336260
313.128649,-1455.581446,-74.020594,10140.821405
313.128957,76.609550,1110.308913,9770.718434
313.129264,306.438199,2590.720797,8512.368333
313.129572,2068.457845,2812.782580,7476.080014
313.129880,1149.143247,2368.659014,7476.080014
313.130188,1225.752797,1184.329507,8216.285956
313.130496,229.828649,148.041188,9622.677246
313.130804,-459.657299,-518.144159,10658.965565
313.131112,76.609550,-1258.350101,11399.171507
313.131420,306.438199,-74.020594,10288.862594
313.131728,1532.190996,518.144159,9844.739029
313.132036,1762.019645,1332.370696,8808.450710
313.132344,2834.553343,666.185348,8734.430116
313.132652,2834.553343,592.164754,8586.388927
313.132960,2145.067394,-518.144159,8956.491898
313.133268,842.705048,-1850.514855,10807.006753
313.133576,-306.438199,-2442.679609,11769.274478
313.133884,-1072.533697,-1480.411884,11769.274478
313.134192,-1149.143247,-1184.329507,11251.130318
313.134500,-1072.533697,962.267725,10658.965565
313.134807,76.609550,2294.638420,9326.594869
313.135115,1225.752797,3182.885551,8068.244768
313.135423,1685.410096,2738.761985,8142.265362
313.135731,1455.581446,2072.576638,7179.997637
313.136039,919.314598,962.267725,9030.512492
313.136347,306.438199,-444.123565,10288.862594
313.136655,-229.828649,-444.123565,10362.883188
313.136963,0.000000,-148.041188,10584.944971
313.137271,459.657299,222.061783,10214.842000
313.137579,1225.752797,1332.370696,8586.388927
313.137887,2451.505594,1702.473667,8586.388927
313.138195,2451.505594,1184.329507,8586.388927
313.138503,2528.115143,-222.061783,8734.430116
313.138811,842.705048,-1332.370696,9992.780217
313.139119,-689.485948,-2368.659014,11991.336260
313.139427,-995.924147,-3108.864956,12805.562797
313.139735,-1532.190996,-2368.659014,11621.233289
313.140043,-1685.410096,-370.102971,10732.986159
313.140351,-689.485948,444.123565,9474.636058
313.140659,1072.533697,1258.350101,9104.533087
313.140966,383.047749,1998.556043,7179.997637
313.141274,2451.505594,1258.350101,7550.100608
313.141582,1532.190996,962.267725,8142.265362
313.141890,459.657299,-74.020594,8290.306550
313.142198,689.485948,-740.205942,9696.697840
313.142506,459.657299,-148.041188,9622.677246
313.142814,536.266849,-74.020594,9696.697840
313.143122,1608.800546,1110.308913,8290.306550
313.143430,2834.553343,1702.473667,8512.368333
313.143738,2145.067394,1036.288319,8956.491898
313.144046,3447.429741,-0.000000,8660.409521
313.144354,2145.067394,-888.247130,9474.636058
313.144662,536.266849,-1998.556043,10214.842000
313.144970,-536.266849,-3404.947333,11695.253884
313.145278,-1915.238745,-2220.617826,11991.336260
313.145586,-1455.581446,-2294.638420,12583.501014
313.145894,-1532.190996,-0.000000,9992.780217
313.146202,0.000000,1998.556043,9252.574275
313.146510,689.485948,1702.473667,8956.491898
313.146818,1225.752797,2442.679609,7328.038826
313.147126,1378.971896,2072.576638,8216.285956
313.147433,1149.143247,1110.308913,8882.471304
313.147741,459.657299,370.102971,9178.553681
313.148049,0.000000,-0.000000,10510.924376
313.148357,383.047749,222.061783,10955.047942
313.148665,459.657299,1184.329507,9400.615463
313.148973,1072.533697,1776.494261,8734.430116
313.149281,2757.943793,1554.432478,9252.574275
313.149589,2911.162892,1554.432478,7994.224174
313.149897,2604.724693,740.205942,8734.430116
313.150205,1838.629195,-1184.329507,9474.636058
313.150513,306.438199,-2442.679609,10807.006753
313.150821,-1302.362347,-2590.720797,12879.583391
313.151129,-1762.019645,-2738.761985,12435.459826
313.151437,-1225.752797,-1110.308913,11029.068536
313.151745,-842.705048,666.185348,10140.821405
313.152053,383.047749,1480.411884,9104.533087
313.152361,766.095498,2146.597232,8364.327145
313.152669,1072.533697,1924.535449,8216.285956
313.152977,459.657299,1406.391290,8216.285956
313.153285,536.266849,1110.308913,9252.574275
313.153593,-459.657299,-0.000000,10881.027347
313.153900,-766.095498,-74.020594,10658.965565
313.154208,383.047749,592.164754,10362.883188
313.154516,612.876398,1332.370696,9548.656652
313.154824,1991.848295,1998.556043,8956.491898
313.155132,2068.457845,1998.556043,8512.368333
313.155440,2757.943793,740.205942,8586.388927
313.155748,2298.286494,-814.226536,9326.594869
313.156056,459.657299,-2072.576638,10288.862594
313.156364,-842.705048,-3775.050304,11769.274478
313.156672,-1455.581446,-2812.782580,12139.377449
313.156980,-1991.848295,-1998.556043,11325.150913
313.157288,-842.705048,-74.020594,10066.800811
313.157596,383.047749,1702.473667,8734.430116
313.157904,1225.752797,2516.700203,7476.080014
313.158212,2451.505594,3108.864956,7476.080014
313.158520,2374.896044,2738.761985,6957.935855
313.158828,1532.190996,1480.411884,7994.224174
313.159136,612.876398,740.205942,9696.697840
313.159444,-689.485948,-0.000000,10066.800811
313.159752,-536.266849,-740.205942,10881.027347
313.160060,0.000000,148.041188,10362.883188
313.160367,76.609550,-0.000000,9918.759623
313.160675,1608.800546,148.041188,9474.636058
313.160983,2757.943793,-0.000000,9030.512492
313.161291,1455.581446,-666.185348,9548.656652
313.161599,1149.143247,-2368.659014,9178.553681
313.161907,766.095498,-2812.782580,10214.842000
313.162215,-612.876398,-3330.926739,11769.274478
313.162523,-1072.533697,-2368.659014,11399.171507
313.162831,-459.657299,-296.082377,10140.821405
313.163139,0.000000,1110.308913,9474.636058
313.163447,1225.752797,2442.679609,7328.038826
313.163755,2528.115143,3182.885551,7550.100608
313.164063,1149.143247,2960.823768,7254.018232
313.164371,1378.971896,2146.597232,7105.977043
313.164679,1072.533697,1480.411884,8882.471304
313.164987,-229.828649,-444.123565,10510.924376
313.165295,-536.266849,-518.144159,11103.089130
313.165603,-612.876398,-74.020594,11177.109724
313.165911,0.000000,1184.329507,10732.986159
313.166219,1072.533697,962.267725,9474.636058
313.166527,2068.457845,1406.391290,9474.636058
313.166834,2528.115143,740.205942,9844.739029
313.167142,1378.971896,-666.185348,8808.450710
313.167450,1532.190996,-1998.556043,10955.047942
313.167758,-612.876398,-2442.679609,11769.274478
313.168066,-1149.143247,-3404.947333,13249.686362
313.168374,-1762.019645,-1776.494261,12065.356855
313.168682,-766.095498,148.041188,10807.006753
313.168990,383.047749,1406.391290,9622.677246
313.169298,1149.143247,3256.906145,7624.121203
313.169606,2681.334243,3256.906145,7105.977043
313.169914,2221.676944,3404.947333,6439.791695
313.170222,2451.505594,2146.597232,7254.018232
313.170530,1149.143247,814.226536,8142.265362
313.170838,536.266849,-0.000000,10362.883188
313.171146,0.000000,-592.164754,9918.759623
313.171454,229.828649,444.123565,9622.677246
313.171762,842.705048,1110.308913,9622.677246
313.172070,1608.800546,1184.329507,8956.491898
313.172378,2451.505594,666.185348,9770.718434
313.172686,1915.238745,-0.000000,9326.594869
313.172993,995.924147,-2294.638420,9918.759623
313.173301,153.219100,-2886.803174,11547.212695
313.173609,-1455.581446,-4293.194464,13027.624579
313.173917,-1838.629195,-3256.906145,12731.542202
313.174225,-1302.362347,-1850.514855,11103.089130
313.174533,-459.657299,592.164754,10140.821405
313.174841,689.485948,1480.411884,8438.347739
313.175149,1991.848295,2738.761985,7254.018232
313.175457,1838.629195,2664.741391,7105.977043
313.175765,2451.505594,1998.556043,7402.059420
313.176073,1225.752797,1258.350101,7994.224174
313.176381,229.828649,222.061783,9548.656652
313.176689,0.000000,-222.061783,9918.759623
313.176997,-153.219100,518.144159,9400.615463
313.177305,383.047749,1184.329507,9844.739029
313.177613,1378.971896,1184.329507,8734.430116
313.177921,2298.286494,1628.453072,8438.347739
313.178229,2604.724693,814.226536,9474.636058
313.178537,1762.019645,-814.226536,9104.533087
313.178845,229.828649,-1776.494261,9918.759623
313.179153,-612.876398,-3256.906145,12953.603985
313.179460,-1685.410096,-3330.926739,12361.439231
313.179768,-2145.067394,-1924.535449,12213.398043
313.180076,-1149.143247,-814.226536,12139.377449
313.180384,0.000000,1036.288319,9400.615463
313.180692,612.876398,3034.844362,8734.430116
313.181000,1991.848295,2886.803174,8512.368333
313.181308,1991.848295,2442.679609,7550.100608
313.181616,1072.533697,1702.473667,8068.244768
313.181924,766.095498,148.041188,9770.718434
313.182232,153.219100,-0.000000,9844.739029
313.182540,-229.828649,148.041188,10658.965565
313.182848,842.705048,592.164754,10140.821405
313.183156,995.924147,2146.597232,7846.182985
313.183464,2451.505594,2368.659014,8290.306550
313.183772,2911.162892,2442.679609,7994.224174
313.184080,2068.457845,1924.535449,7402.059420
313.184388,1532.190996,-222.061783,9326.594869
313.184696,-229.828649,-1850.514855,10732.986159
313.185004,-1455.581446,-2738.761985,12287.418637
313.185312,-2987.772442,-3256.906145,13249.686362
313.185620,-3370.820191,-2220.617826,12657.521608
313.185927,-3140.991542,-740.205942,11177.109724
313.186235,-2298.286494,740.205942,10066.800811
313.186543,-1225.752797,2220.617826,9104.533087
313.186851,-383.047749,2294.638420,7920.203579
313.187159,0.000000,2146.597232,7476.080014
313.187467,0.000000,1184.329507,8364.327145
313.187775,-383.047749,-0.000000,9178.553681
313.188083,-1378.971896,-592.164754,10066.800811
313.188391,-1072.533697,-222.061783,9992.780217
313.188699,-1685.410096,740.205942,9400.615463
313.189007,-766.095498,814.226536,9474.636058
313.189315,-153.219100,1628.453072,8290.306550
313.189623,536.266849,1184.329507,8808.450710
313.189931,766.095498,-0.000000,7994.224174
313.190239,229.828649,-1110.308913,8660.409521
313.190547,-1302.362347,-2960.823768,10732.986159
313.190855,-3217.601092,-3849.070898,12139.377449
313.191163,-3830.477490,-3923.091493,13101.645173
313.191471,-3907.087040,-3404.947333,11843.295072
313.191779,-3064.381992,-1332.370696,10732.986159
313.192087,-2451.505594,666.185348,9400.615463
313.192394,-383.047749,1628.453072,8512.368333
313.192702,459.657299,2590.720797,7105.977043
313.193010,1072.533697,2442.679609,6143.709319
313.193318,1532.190996,1850.514855,6957.935855
313.193626,842.705048,740.205942,7994.224174
313.193934,-229.828649,-296.082377,9326.594869
313.194242,-1302.362347,-1110.308913,10288.862594
313.194550,-1991.848295,-518.144159,9992.780217
313.194858,-1762.019645,296.082377,9992.780217
313.195166,-1149.143247,1776.494261,9844.739029
313.195474,612.876398,2812.782580,8734.430116
313.195782,766.095498,3034.844362,7402.059420
313.196090,1072.533697,2590.720797,7550.100608
313.196398,76.609550,1036.288319,8808.450710
313.196706,-1532.190996,-518.144159,10584.944971
313.197014,-3524.039291,-2368.659014,13027.624579
313.197322,-5592.497135,-3404.947333,13989.892304
313.197630,-7507.735880,-3775.050304,14137.933492
313.197938,-6665.030833,-2664.741391,13693.809927
313.198246,-5515.887586,-888.247130,12361.439231
313.198553,-3447.429741,814.226536,10066.800811
313.198861,-689.485948,2664.741391,7846.182985
313.199169,842.705048,4145.153275,5773.606348
313.199477,2757.943793,3701.029710,5995.668130
313.199785,2451.505594,3256.906145,5921.647536
313.200093,1072.533697,2220.617826,7105.977043
313.200401,-306.438199,-222.061783,9030.512492
313.200709,-2374.896044,-1406.391290,10436.903782
313.201017,-3983.696590,-2368.659014,11399.171507
313.201325,-4443.353888,-2590.720797,12065.356855
313.201633,-3524.039291,-1850.514855,11695.253884
313.201941,-2145.067394,-222.061783,10732.986159
313.202249,-306.438199,1332.370696,9104.533087
313.202557,1838.629195,3034.844362,7550.100608
313.202865,1915.238745,3923.091493,6365.771101
313.203173,1532.190996,3256.906145,6735.874072
313.203481,76.609550,2146.597232,8364.327145
313.203789,-2834.553343,-0.000000,9918.759623
313.204097,-5439.278036,-1998.556043,12213.398043
313.204405,-7277.907231,-3404.947333,14211.954086
313.204713,-8120.612279,-4293.194464,15322.262999
313.205020,-7814.174080,-4441.235652,15026.180623
313.205328,-5745.716235,-3034.844362,13323.706956
313.205636,-3753.867940,-1554.432478,10807.006753
313.205944,-1225.752797,1554.432478,7698.141797
313.206252,1455.581446,3552.988522,5625.565159
313.206560,2911.162892,4737.318029,4367.215058
313.206868,2834.553343,5107.421000,3404.947333
313.207176,2298.286494,4293.194464,4737.318029
313.207484,995.924147,2516.700203,6439.791695
313.207792,-1608.800546,814.226536,9252.574275
313.208100,-3447.429741,-740.205942,11769.274478
313.208408,-4979.620737,-2590.720797,12657.521608
313.208716,-6128.763984,-3923.091493,13619.789333
313.209024,-5898.935335,-3627.009116,13841.851115
313.209332,-3907.087040,-2590.720797,12139.377449
313.209640,-2681.334243,-740.205942,9104.533087
313.209948,-689.485948,1702.473667,7698.141797
313.210256,383.047749,2516.700203,6957.935855
313.210564,536.266849,4367.215058,6291.750507
313.210872,766.095498,5107.421000,6439.791695
313.211180,459.657299,4737.318029,6809.894666
313.211487,-1991.848295,2960.823768,7846.182985
313.211795,-3907.087040,-0.000000,10510.924376
313.212103,-6588.421283,-2516.700203,13249.686362
313.212411,-8963.317327,-4737.318029,15026.180623
313.212719,-10342.289223,-6217.729913,16580.613101
313.213027,-9422.974625,-7624.121203,16580.613101
313.213335,-7507.735880,-6291.750507,15322.262999
313.213643,-4366.744339,-4071.132681,11621.233289
313.213951,-842.705048,-1110.308913,8660.409521
313.214259,995.924147,1554.432478,5625.565159
313.214567,3524.039291,3997.112087,4959.379811
313.214875,5286.058936,5773.606348,3404.947333
313.215183,5209.449386,8142.265362,1998.556043
313.215491,4749.792088,7920.203579,3256.906145
313.215799,2987.772442,6735.874072,4589.276840
313.216107,0.000000,4367.215058,7550.100608
313.216415,-3370.820191,888.247130,10955.047942
313.216723,-6052.154434,-2664.741391,14137.933492
313.217031,-8120.612279,-4145.153275,14285.974681
313.217339,-9346.365076,-4663.297435,14878.139434
313.217647,-7201.297681,-5403.503377,15396.283594
313.217954,-6281.983084,-4071.132681,13323.706956
313.218262,-5362.668486,-2664.741391,10436.903782
313.218570,-2681.334243,-1184.329507,9326.594869
313.218878,-689.485948,518.144159,8290.306550
313.219186,153.219100,2516.700203,7105.977043
313.219494,1532.190996,4219.173869,6735.874072
313.219802,2681.334243,3627.009116,6735.874072
313.220110,1225.752797,2812.782580,7254.018232
313.220418,766.095498,2516.700203,8068.244768
313.220726,-459.657299,1036.288319,9326.594869
313.221034,-1608.800546,-814.226536,10955.047942
313.221342,-2834.553343,-962.267725,10584.944971
313.221650,-3217.601092,-1628.453072,11251.130318
313.221958,-2911.162892,-1924.535449,10362.883188
313.222266,-2604.724693,-222.061783,8956.491898
313.222574,-1302.362347,222.061783,9030.512492
313.222882,-1149.143247,-0.000000,9178.553681
313.223190,-1685.410096,1184.329507,8438.347739
313.223498,-2374.896044,1702.473667,9326.594869
313.223806,-2911.162892,1036.288319,10510.924376
313.224113,-4366.744339,518.144159,11103.089130
313.224421,-4979.620737,-444.123565,12139.377449
313.224729,-6128.763984,-1554.432478,12435.459826
313.225037,-6818.249932,-1850.514855,12805.562797
313.225345,-6665.030833,-1776.494261,12731.542202
313.225653,-5515.887586,-1628.453072,11991.336260
313.225961,-4136.915689,-1554.432478,10732.986159
313.226269,-2757.943793,-740.205942,9326.594869
313.226577,-919.314598,518.144159,7994.224174
313.226885,0.000000,592.164754,6587.832884
313.227193,689.485948,1332.370696,6513.812290
313.227501,1072.533697,1480.411884,6217.729913
313.227809,536.266849,2146.597232,6439.791695
313.228117,459.657299,1850.514855,7179.997637
313.228425,0.000000,1554.432478,8068.244768
313.228733,-766.095498,1110.308913,8808.450710
313.229041,-1072.533697,296.082377,9622.677246
313.229349,-1991.848295,296.082377,10436.903782
313.229657,-2834.553343,-0.000000,10510.924376
313.229965,-3064.381992,-222.061783,11177.109724
313.230273,-3140.991542,-444.123565,10807.006753
313.230580,-2757.943793,-740.205942,10140.821405
313.230888,-2451.505594,-1110.308913,10584.944971
313.231196,-2451.505594,-740.205942,10066.800811
313.231504,-1838.629195,-666.185348,10140.821405
313.231812,-1838.629195,-296.082377,10510.924376
313.232120,-1455.581446,370.102971,9992.780217
313.232428,-1838.629195,592.164754,10140.821405
313.232736,-1915.238745,444.123565,9992.780217
313.233044,-1608.800546,444.123565,9918.759623
313.233352,-1532.190996,740.205942,9844.739029
313.233660,-1608.800546,1036.288319,9696.697840
313.233968,-1302.362347,1036.288319,9918.759623
313.234276,-995.924147,962.267725,9178.553681
313.234584,-919.314598,1036.288319,9030.512492
313.234892,-612.876398,1184.329507,8808.450710
313.235200,-995.924147,1332.370696,8512.368333
313.235507,-1149.143247,1406.391290,8956.491898
313.235815,-1608.800546,1110.308913,8882.471304
313.236123,-2221.676944,814.226536,9326.594869
313.236431,-2757.943793,592.164754,9696.697840
313.236739,-2834.553343,-222.061783,10510.924376
313.237047,-3294.210641,-592.164754,11029.068536
313.237355,-3677.258390,-1036.288319,11251.130318
313.237663,-3753.867940,-814.226536,11621.233289
313.237971,-3907.087040,-1036.288319,10732.986159
313.238279,-3524.039291,-814.226536,10584.944971
313.238587,-2834.553343,-518.144159,10214.842000
313.238895,-2221.676944,-444.123565,10066.800811
313.239203,-1915.238745,-666.185348,9622.677246
313.239510,-1302.362347,-518.144159,9104.533087
313.239818,-995.924147,-296.082377,9178.553681
313.240126,-842.705048,-0.000000,9178.553681
313.240434,-612.876398,-0.000000,8882.471304
313.240742,-536.266849,222.061783,8512.368333
313.241050,-229.828649,1184.329507,8512.368333
313.241358,459.657299,1184.329507,8364.327145
313.241666,383.047749,1480.411884,7994.224174
313.241974,459.657299,1184.329507,7920.203579
