#time,accel_x,accel_y,accel_z
207.998458,2298.286494,-814.226536,9770.718434
207.998766,2374.896044,-370.102971,9844.739029
207.999073,2911.162892,-444.123565,9844.739029
207.999381,3140.991542,-296.082377,9104.533087
207.999689,3217.601092,-74.020594,9474.636058
207.999997,3064.381992,222.061783,9326.594869
208.000305,3524.039291,370.102971,9622.677246
208.000612,3907.087040,222.061783,9400.615463
208.000920,3907.087040,148.041188,9474.636058
208.001228,3600.648841,518.144159,8586.388927
208.001536,3677.258390,962.267725,8586.388927
208.001844,3830.477490,1184.329507,9178.553681
208.002152,3677.258390,1184.329507,9178.553681
208.002459,3524.039291,1258.350101,9252.574275
208.002767,2987.772442,1036.288319,9178.553681
208.003075,2834.553343,-0.000000,9992.780217
208.003383,2451.505594,-74.020594,10807.006753
208.003691,1838.629195,-444.123565,11251.130318
208.003999,1685.410096,-962.267725,11695.253884
208.004306,1455.581446,-1258.350101,11399.171507
208.004614,2374.896044,-814.226536,11251.130318
208.004922,2911.162892,-222.061783,10510.924376
208.005230,3524.039291,-222.061783,9696.697840
208.005538,4060.306139,-0.000000,9770.718434
208.005846,4213.525239,148.041188,9474.636058
208.006153,3907.087040,296.082377,9400.615463
208.006461,3830.477490,-0.000000,9104.533087
208.006769,4366.744339,-0.000000,9178.553681
208.007077,4596.572988,296.082377,9178.553681
208.007385,4596.572988,-0.000000,8808.450710
208.007693,4596.572988,370.102971,9104.533087
208.008000,4979.620737,296.082377,9104.533087
208.008308,5592.497135,-0.000000,8808.450710
208.008616,5362.668486,-0.000000,8956.491898
208.008924,5286.058936,518.144159,8586.388927
208.009232,5822.325785,592.164754,8512.368333
208.009540,5669.106685,888.247130,8586.388927
208.009847,6052.154434,1036.288319,8734.430116
208.010155,5745.716235,1332.370696,8586.388927
208.010463,5362.668486,1628.453072,8586.388927
208.010771,5362.668486,1628.453072,8586.388927
208.011079,5439.278036,1702.473667,9178.553681
208.011387,5209.449386,1406.391290,8956.491898
208.011694,4596.572988,1554.432478,9548.656652
208.012002,4213.525239,962.267725,9918.759623
208.012310,3600.648841,666.185348,10288.862594
208.012618,3217.601092,-0.000000,10881.027347
208.012926,2451.505594,-370.102971,11325.150913
208.013234,2374.896044,-370.102971,11399.171507
208.013541,2068.457845,-444.123565,11325.150913
208.013849,2298.286494,-222.061783,11325.150913
208.014157,1915.238745,-0.000000,11029.068536
208.014465,2374.896044,222.061783,10436.903782
208.014773,2911.162892,-0.000000,10066.800811
208.015081,2987.772442,370.102971,9992.780217
208.015388,3217.601092,-0.000000,9474.636058
208.015696,3447.429741,222.061783,9696.697840
208.016004,3294.210641,-148.041188,9474.636058
208.016312,3677.258390,-0.000000,9770.718434
208.016620,3524.039291,-518.144159,9548.656652
208.016928,3370.820191,-444.123565,9252.574275
208.017235,3447.429741,-444.123565,9104.533087
208.017543,3753.867940,-370.102971,9030.512492
208.017851,4519.963438,-0.000000,8586.388927
208.018159,3677.258390,-148.041188,8734.430116
208.018467,3983.696590,-74.020594,8660.409521
208.018775,3600.648841,-0.000000,8586.388927
208.019082,3217.601092,-0.000000,8734.430116
208.019390,2834.553343,-0.000000,8956.491898
208.019698,2451.505594,-0.000000,9030.512492
208.020006,2068.457845,-0.000000,9326.594869
208.020314,1915.238745,296.082377,9474.636058
208.020622,1455.581446,1036.288319,8660.409521
208.020929,2528.115143,1850.514855,8808.450710
208.021237,2451.505594,2220.617826,8364.327145
208.021545,2068.457845,2442.679609,8512.368333
208.021853,1762.019645,1924.535449,9030.512492
208.022161,1149.143247,1258.350101,9400.615463
208.022469,229.828649,148.041188,10584.944971
208.022776,-842.705048,-962.267725,11769.274478
208.023084,-1225.752797,-1850.514855,12065.356855
208.023392,-1532.190996,-2590.720797,13101.645173
208.023700,-1762.019645,-3256.906145,13027.624579
208.024008,-1685.410096,-3182.885551,13101.645173
208.024316,-459.657299,-2812.782580,12879.583391
208.024623,536.266849,-1776.494261,11029.068536
208.024931,2374.896044,-888.247130,9696.697840
208.025239,4060.306139,444.123565,8882.471304
208.025547,4673.182538,1924.535449,7402.059420
208.025855,4903.011187,2072.576638,7254.018232
208.026163,5745.716235,3182.885551,6587.832884
208.026470,4903.011187,3108.864956,5995.668130
208.026778,3753.867940,2886.803174,5995.668130
208.027086,3217.601092,3108.864956,6735.874072
208.027394,2451.505594,2812.782580,6883.915261
208.027702,1378.971896,2368.659014,7105.977043
208.028010,1149.143247,2294.638420,9104.533087
208.028317,459.657299,1332.370696,9622.677246
208.028625,306.438199,518.144159,10510.924376
208.028933,-919.314598,518.144159,9548.656652
208.029241,-1685.410096,-740.205942,11325.150913
208.029549,-2374.896044,-2294.638420,13767.830521
208.029857,-3217.601092,-2590.720797,13619.789333
208.030164,-3907.087040,-3404.947333,14211.954086
208.030472,-4443.353888,-4515.256246,14211.954086
208.030780,-4519.963438,-4663.297435,15026.180623
208.031088,-3217.601092,-3923.091493,13101.645173
208.031396,-1378.971896,-2812.782580,11991.336260
208.031703,383.047749,-1554.432478,10436.903782
208.032011,1532.190996,222.061783,7994.224174
208.032319,3217.601092,1628.453072,7846.182985
208.032627,4826.401637,1924.535449,6809.894666
208.032935,4519.963438,3108.864956,6217.729913
208.033243,5132.839837,3478.967927,5255.462188
208.033550,4366.744339,3923.091493,4959.379811
208.033858,3524.039291,3997.112087,5033.400406
208.034166,2987.772442,4811.338623,4811.338623
208.034474,3294.210641,4515.256246,6439.791695
208.034782,2451.505594,3034.844362,6735.874072
208.035090,76.609550,1850.514855,8142.265362
208.035397,-842.705048,-592.164754,10362.883188
208.035705,-1149.143247,-2146.597232,12361.439231
208.036013,-3294.210641,-3923.091493,13397.727550
208.036321,-3830.477490,-4737.318029,13841.851115
208.036629,-3524.039291,-5255.462188,14656.077652
208.036936,-3370.820191,-4441.235652,13841.851115
208.037244,-1762.019645,-3108.864956,13175.665768
208.037552,229.828649,-2146.597232,12657.521608
208.037860,1455.581446,-1702.473667,10658.965565
208.038168,2528.115143,-0.000000,8956.491898
208.038476,2528.115143,1258.350101,7624.121203
208.038783,3677.258390,1924.535449,7402.059420
208.039091,4443.353888,2368.659014,7031.956449
208.039399,4213.525239,3552.988522,5403.503377
208.039707,4136.915689,3775.050304,5181.441594
208.040015,3677.258390,3404.947333,5921.647536
208.040322,3370.820191,3775.050304,6291.750507
208.040630,2451.505594,2664.741391,6957.935855
208.040938,1838.629195,1850.514855,8364.327145
208.041246,689.485948,962.267725,9548.656652
208.041554,-766.095498,-740.205942,11399.171507
208.041861,-1762.019645,-1998.556043,12731.542202
208.042169,-2451.505594,-3330.926739,13619.789333
208.042477,-3294.210641,-3997.112087,14359.995275
208.042785,-2987.772442,-4145.153275,14359.995275
208.043093,-2528.115143,-3552.988522,14211.954086
208.043400,-2221.676944,-2590.720797,13027.624579
208.043708,-306.438199,-1776.494261,11695.253884
208.044016,1455.581446,-592.164754,9918.759623
208.044324,2604.724693,444.123565,8586.388927
208.044632,3524.039291,2072.576638,7328.038826
208.044939,3983.696590,2812.782580,7031.956449
208.045247,4290.134789,2886.803174,6735.874072
208.045555,4673.182538,3997.112087,5995.668130
208.045863,4060.306139,4441.235652,5255.462188
208.046171,3447.429741,4219.173869,6291.750507
208.046478,2987.772442,3923.091493,6809.894666
208.046786,2068.457845,3552.988522,7254.018232
208.047094,1072.533697,2146.597232,8512.368333
208.047402,766.095498,-0.000000,10214.842000
208.047710,-383.047749,-1184.329507,11917.315666
208.048017,-1532.190996,-2368.659014,13175.665768
208.048325,-2604.724693,-3404.947333,14063.912898
208.048633,-2987.772442,-4071.132681,14211.954086
208.048941,-2757.943793,-4293.194464,14508.036463
208.049249,-1455.581446,-3478.967927,13915.871710
208.049556,-766.095498,-2368.659014,12139.377449
208.049864,612.876398,-1036.288319,10732.986159
208.050172,2451.505594,370.102971,9326.594869
208.050480,3677.258390,1036.288319,7994.224174
208.050788,3907.087040,2368.659014,7550.100608
208.051096,4290.134789,3627.009116,6217.729913
208.051403,4443.353888,4293.194464,5255.462188
208.051711,3983.696590,4293.194464,5033.400406
208.052019,3294.210641,4367.215058,5921.647536
208.052327,2528.115143,3330.926739,7105.977043
208.052635,1225.752797,2368.659014,7994.224174
208.052942,0.000000,962.267725,9474.636058
208.053250,-1455.581446,-1554.432478,11547.212695
208.053558,-2681.334243,-2442.679609,12731.542202
208.053866,-3064.381992,-3775.050304,13619.789333
208.054174,-4213.525239,-4219.173869,13397.727550
208.054481,-3600.648841,-4589.276840,14137.933492
208.054789,-2911.162892,-4145.153275,13471.748144
208.055097,-2528.115143,-2590.720797,11843.295072
208.055405,76.609550,-2294.638420,11103.089130
208.055713,1225.752797,-592.164754,8660.409521
208.056020,2221.676944,740.205942,7846.182985
208.056328,2911.162892,1628.453072,7105.977043
208.056636,3064.381992,2516.700203,6365.771101
208.056944,3370.820191,3182.885551,5995.668130
208.057252,3064.381992,3552.988522,5773.606348
208.057559,3140.991542,3775.050304,6143.709319
208.057867,1915.238745,3256.906145,5847.626942
208.058175,1685.410096,3701.029710,7105.977043
208.058483,995.924147,2664.741391,7550.100608
208.058791,0.000000,1850.514855,8734.430116
208.059098,-919.314598,-0.000000,10510.924376
208.059406,-1608.800546,-1036.288319,11473.192101
208.059714,-2451.505594,-3034.844362,13027.624579
208.060022,-3677.258390,-3404.947333,13249.686362
208.060330,-3830.477490,-3923.091493,13989.892304
208.060637,-2757.943793,-4293.194464,14285.974681
208.060945,-2604.724693,-3256.906145,13101.645173
208.061253,-1378.971896,-2294.638420,12435.459826
208.061561,0.000000,-1850.514855,10955.047942
208.061869,1455.581446,-222.061783,9400.615463
208.062176,2451.505594,962.267725,8216.285956
208.062484,2681.334243,1998.556043,6661.853478
208.062792,3907.087040,3256.906145,7105.977043
208.063100,4060.306139,3997.112087,5477.523971
208.063408,3907.087040,4737.318029,5033.400406
208.063715,3524.039291,4071.132681,5551.544565
208.064023,2681.334243,3849.070898,6735.874072
208.064331,1149.143247,2886.803174,7846.182985
208.064639,459.657299,1184.329507,9474.636058
208.064947,-1225.752797,-518.144159,11325.150913
208.065255,-2451.505594,-2294.638420,11843.295072
208.065562,-2987.772442,-3627.009116,13619.789333
208.065870,-3524.039291,-4367.215058,14285.974681
208.066178,-3524.039291,-4589.276840,14359.995275
208.066486,-2911.162892,-4441.235652,14137.933492
208.066794,-1532.190996,-3404.947333,13175.665768
208.067101,306.438199,-2368.659014,11325.150913
208.067409,1378.971896,-296.082377,9030.512492
208.067717,2528.115143,888.247130,8586.388927
208.068025,3140.991542,1850.514855,7031.956449
208.068333,4443.353888,2960.823768,7624.121203
208.068640,4749.792088,3404.947333,6587.832884
208.068948,3983.696590,4145.153275,5255.462188
208.069256,4060.306139,3775.050304,5403.503377
208.069564,3294.210641,3627.009116,5699.585753
208.069872,3064.381992,3627.009116,7105.977043
208.070179,2834.553343,2738.761985,7254.018232
208.070487,1225.752797,2220.617826,8734.430116
208.070795,-229.828649,518.144159,9696.697840
208.071103,-536.266849,-962.267725,11621.233289
208.071411,-1838.629195,-1998.556043,13027.624579
208.071718,-2451.505594,-3108.864956,13397.727550
208.072026,-2604.724693,-3552.988522,13841.851115
208.072334,-1762.019645,-3775.050304,13915.871710
208.072642,-1149.143247,-3627.009116,13175.665768
208.072950,-229.828649,-2368.659014,11991.336260
208.073257,1225.752797,-1258.350101,10881.027347
208.073565,2298.286494,-74.020594,9326.594869
208.073873,2604.724693,592.164754,8290.306550
208.074181,4060.306139,1924.535449,7920.203579
208.074489,4596.572988,2812.782580,6513.812290
208.074796,4443.353888,3849.070898,6217.729913
208.075104,4366.744339,3775.050304,5403.503377
208.075412,3907.087040,4071.132681,5699.585753
208.075720,3217.601092,3701.029710,6513.812290
208.076028,1762.019645,2738.761985,7328.038826
208.076335,383.047749,1702.473667,9178.553681
208.076643,-995.924147,-518.144159,11103.089130
208.076951,-2298.286494,-2368.659014,12509.480420
208.077259,-3140.991542,-3182.885551,13619.789333
208.077567,-3524.039291,-3923.091493,13619.789333
208.077875,-3983.696590,-4367.215058,13989.892304
208.078182,-3294.210641,-3997.112087,13989.892304
208.078490,-2145.067394,-3034.844362,12731.542202
208.078798,-842.705048,-1776.494261,11251.130318
208.079106,1072.533697,-814.226536,9844.739029
208.079414,2298.286494,-74.020594,8290.306550
208.079721,3064.381992,1258.350101,7476.080014
208.080029,4213.525239,1924.535449,7105.977043
208.080337,3677.258390,2960.823768,6587.832884
208.080645,3600.648841,3478.967927,6069.688724
208.080953,3370.820191,3775.050304,5551.544565
208.081260,2987.772442,3923.091493,5551.544565
208.081568,2451.505594,3256.906145,6291.750507
208.081876,2221.676944,3034.844362,7476.080014
208.082184,689.485948,2072.576638,8216.285956
208.082492,229.828649,814.226536,9622.677246
208.082799,-1225.752797,-592.164754,10881.027347
208.083107,-2068.457845,-2146.597232,12509.480420
208.083415,-2451.505594,-3108.864956,13249.686362
208.083723,-3447.429741,-3108.864956,13175.665768
208.084031,-2757.943793,-3627.009116,13989.892304
208.084338,-1915.238745,-3627.009116,13767.830521
208.084646,-2298.286494,-2812.782580,12509.480420
208.084954,0.000000,-2442.679609,11843.295072
208.085262,612.876398,-1110.308913,9992.780217
208.085570,1532.190996,222.061783,8882.471304
208.085877,2681.334243,1332.370696,7994.224174
208.086185,3217.601092,2442.679609,7031.956449
208.086493,3983.696590,3330.926739,6291.750507
208.086801,4290.134789,4071.132681,5477.523971
208.087109,3983.696590,4737.318029,4959.379811
208.087416,3447.429741,3701.029710,6513.812290
208.087724,2145.067394,3404.947333,7105.977043
208.088032,536.266849,2072.576638,8586.388927
208.088340,-766.095498,-0.000000,10066.800811
208.088648,-2451.505594,-1554.432478,11769.274478
208.088955,-3370.820191,-3182.885551,13619.789333
208.089263,-4060.306139,-4293.194464,14211.954086
208.089571,-4290.134789,-4663.297435,14359.995275
208.089879,-3830.477490,-4293.194464,13989.892304
208.090187,-2528.115143,-3552.988522,13249.686362
208.090494,-1149.143247,-2072.576638,11547.212695
208.090802,766.095498,-740.205942,9696.697840
208.091110,2221.676944,592.164754,8068.244768
208.091418,3370.820191,2294.638420,7402.059420
208.091726,3753.867940,2368.659014,7031.956449
208.092034,3830.477490,3182.885551,5921.647536
208.092341,3753.867940,2812.782580,6883.915261
208.092649,2757.943793,3034.844362,6069.688724
208.092957,2374.896044,3404.947333,6069.688724
208.093265,2298.286494,2960.823768,7105.977043
208.093573,2068.457845,2590.720797,7846.182985
208.093880,1378.971896,2146.597232,8142.265362
208.094188,689.485948,1332.370696,9178.553681
208.094496,0.000000,-222.061783,10732.986159
208.094804,-919.314598,-1110.308913,11695.253884
208.095112,-1608.800546,-2442.679609,13101.645173
208.095419,-2221.676944,-3034.844362,13471.748144
208.095727,-2451.505594,-3404.947333,13693.809927
208.096035,-1991.848295,-3256.906145,13841.851115
208.096343,-766.095498,-2664.741391,13249.686362
208.096651,383.047749,-2294.638420,11695.253884
208.096958,1608.800546,-1258.350101,10436.903782
208.097266,2068.457845,-444.123565,8808.450710
208.097574,2681.334243,666.185348,8290.306550
208.097882,3524.039291,2146.597232,7328.038826
208.098190,3907.087040,3256.906145,6957.935855
208.098497,4366.744339,3775.050304,5477.523971
208.098805,3907.087040,4737.318029,4663.297435
208.099113,4519.963438,4737.318029,6069.688724
208.099421,3600.648841,4145.153275,6661.853478
208.099729,1685.410096,3256.906145,8290.306550
208.100036,306.438199,1110.308913,9474.636058
208.100344,-1225.752797,-1110.308913,11251.130318
208.100652,-2987.772442,-3182.885551,13397.727550
208.100960,-3830.477490,-4663.297435,14285.974681
208.101268,-4213.525239,-4811.338623,14952.160028
208.101575,-3907.087040,-4589.276840,14582.057057
208.101883,-2911.162892,-3775.050304,13915.871710
208.102191,-1762.019645,-2368.659014,12509.480420
208.102499,689.485948,-814.226536,10362.883188
208.102807,2145.067394,518.144159,8290.306550
208.103114,3370.820191,2146.597232,7105.977043
208.103422,4060.306139,2590.720797,7105.977043
208.103730,4136.915689,2886.803174,5921.647536
208.104038,3677.258390,3552.988522,6513.812290
208.104346,3524.039291,3256.906145,6217.729913
208.104654,2911.162892,2960.823768,5921.647536
208.104961,2451.505594,3034.844362,6661.853478
208.105269,1762.019645,2590.720797,7624.121203
208.105577,1455.581446,2368.659014,7994.224174
208.105885,842.705048,1480.411884,8882.471304
208.106193,766.095498,222.061783,10214.842000
208.106500,-1072.533697,-666.185348,10732.986159
208.106808,-842.705048,-2442.679609,12361.439231
208.107116,-2145.067394,-2886.803174,13545.768739
208.107424,-2834.553343,-3552.988522,13471.748144
208.107732,-2911.162892,-3552.988522,13989.892304
208.108039,-2221.676944,-3034.844362,13693.809927
208.108347,-1532.190996,-2442.679609,12213.398043
208.108655,0.000000,-1480.411884,10881.027347
208.108963,1149.143247,-148.041188,9178.553681
208.109271,1991.848295,-0.000000,8068.244768
208.109578,3064.381992,1702.473667,7698.141797
208.109886,3600.648841,2812.782580,6661.853478
208.110194,3677.258390,3552.988522,5699.585753
208.110502,3753.867940,4071.132681,5477.523971
208.110810,3983.696590,4219.173869,5477.523971
208.111117,3217.601092,3849.070898,6365.771101
208.111425,1762.019645,2960.823768,7328.038826
208.111733,766.095498,1628.453072,9400.615463
208.112041,-1225.752797,-444.123565,10881.027347
208.112349,-3294.210641,-2368.659014,12139.377449
208.112656,-3907.087040,-4219.173869,13989.892304
208.112964,-4596.572988,-4515.256246,14211.954086
208.113272,-3907.087040,-4811.338623,14730.098246
208.113580,-3217.601092,-4293.194464,13619.789333
208.113888,-2068.457845,-2960.823768,12065.356855
208.114195,-536.266849,-2516.700203,11177.109724
208.114503,1685.410096,-148.041188,9104.533087
208.114811,2757.943793,962.267725,7698.141797
208.115119,3447.429741,2368.659014,6513.812290
208.115427,3983.696590,2738.761985,6661.853478
208.115734,3983.696590,3108.864956,6217.729913
208.116042,3753.867940,3256.906145,5773.606348
208.116350,2987.772442,3404.947333,5847.626942
208.116658,3370.820191,3478.967927,6513.812290
208.116966,2298.286494,3330.926739,7476.080014
208.117273,1608.800546,2738.761985,7846.182985
208.117581,1455.581446,1924.535449,8808.450710
208.117889,153.219100,1110.308913,9474.636058
208.118197,-306.438199,-888.247130,10881.027347
208.118505,-1532.190996,-1924.535449,12657.521608
208.118813,-1838.629195,-3256.906145,13175.665768
208.119120,-2987.772442,-3627.009116,14359.995275
208.119428,-2987.772442,-3923.091493,14285.974681
208.119736,-2451.505594,-3478.967927,14285.974681
208.120044,-1149.143247,-2516.700203,12731.542202
208.120352,306.438199,-1332.370696,11325.150913
208.120659,1915.238745,-296.082377,9030.512492
208.120967,2451.505594,740.205942,8290.306550
208.121275,3524.039291,2146.597232,7550.100608
208.121583,4366.744339,3108.864956,6587.832884
208.121891,4519.963438,3404.947333,5921.647536
208.122198,4213.525239,4145.153275,5255.462188
208.122506,4060.306139,4219.173869,5699.585753
208.122814,2987.772442,3997.112087,6365.771101
208.123122,2221.676944,2664.741391,7624.121203
208.123430,612.876398,1776.494261,8956.491898
208.123737,-995.924147,-518.144159,10510.924376
208.124045,-1991.848295,-2442.679609,11991.336260
208.124353,-3447.429741,-3256.906145,13471.748144
208.124661,-3907.087040,-4441.235652,14285.974681
208.124969,-3907.087040,-4663.297435,14137.933492
208.125276,-3217.601092,-4145.153275,13841.851115
208.125584,-1072.533697,-3330.926739,12361.439231
208.125892,0.000000,-1998.556043,11547.212695
208.126200,1991.848295,-740.205942,9474.636058
208.126508,2911.162892,814.226536,7328.038826
208.126815,3753.867940,1184.329507,7994.224174
208.127123,3983.696590,1850.514855,7254.018232
208.127431,3140.991542,3256.906145,5477.523971
208.127739,3677.258390,2886.803174,6809.894666
208.128047,2987.772442,2812.782580,6291.750507
208.128354,2757.943793,3478.967927,6291.750507
208.128662,2681.334243,3997.112087,6587.832884
208.128970,2528.115143,3330.926739,7179.997637
208.129278,1685.410096,2738.761985,7402.059420
208.129586,306.438199,1554.432478,8956.491898
208.129893,0.000000,-74.020594,10881.027347
208.130201,-1685.410096,-1998.556043,11917.315666
208.130509,-2528.115143,-3256.906145,14137.933492
208.130817,-3370.820191,-3849.070898,14434.015869
208.131125,-3753.867940,-4663.297435,14656.077652
208.131432,-2987.772442,-4293.194464,14656.077652
208.131740,-1455.581446,-2516.700203,12953.603985
208.132048,153.219100,-1776.494261,11473.192101
208.132356,1532.190996,-518.144159,9474.636058
208.132664,3217.601092,962.267725,8290.306550
208.132972,4213.525239,1628.453072,7328.038826
208.133279,4519.963438,2886.803174,6513.812290
208.133587,4443.353888,3701.029710,6439.791695
208.133895,4673.182538,4071.132681,5403.503377
208.134203,4060.306139,4071.132681,5477.523971
208.134511,2834.553343,3923.091493,6143.709319
208.134818,1762.019645,3034.844362,7328.038826
208.135126,153.219100,1850.514855,9030.512492
208.135434,-995.924147,-0.000000,10510.924376
208.135742,-2068.457845,-1998.556043,12065.356855
208.136050,-3217.601092,-3404.947333,13249.686362
208.136357,-3830.477490,-4219.173869,13693.809927
208.136665,-3830.477490,-4515.256246,14211.954086
208.136973,-3294.210641,-3997.112087,13989.892304
208.137281,-2451.505594,-3034.844362,12953.603985
208.137589,-766.095498,-2072.576638,11917.315666
208.137897,995.924147,-444.123565,9992.780217
208.138205,1455.581446,-0.000000,8734.430116
208.138513,3140.991542,1036.288319,7328.038826
208.138821,3217.601092,1480.411884,7476.080014
208.139129,3140.991542,2294.638420,6883.915261
208.139437,2834.553343,2442.679609,6587.832884
208.139746,3140.991542,3330.926739,6439.791695
208.140054,2987.772442,3923.091493,5847.626942
208.140362,2374.896044,3849.070898,6069.688724
208.140670,2681.334243,4071.132681,6809.894666
208.140978,2221.676944,3404.947333,7254.018232
208.141286,383.047749,1776.494261,8438.347739
208.141594,-383.047749,296.082377,10214.842000
208.141902,-1685.410096,-1406.391290,11991.336260
208.142210,-2757.943793,-3108.864956,13693.809927
208.142518,-3370.820191,-4145.153275,14359.995275
208.142826,-3140.991542,-4441.235652,14656.077652
208.143134,-2528.115143,-3775.050304,14804.118840
208.143442,-1608.800546,-3478.967927,13249.686362
208.143750,-229.828649,-2146.597232,11399.171507
208.144058,1532.190996,-962.267725,9474.636058
208.144366,2528.115143,296.082377,7994.224174
208.144674,3600.648841,1702.473667,7105.977043
208.144983,4519.963438,3108.864956,6809.894666
208.145291,4749.792088,3849.070898,6143.709319
208.145599,4060.306139,4663.297435,5107.421000
208.145907,4060.306139,4515.256246,5255.462188
208.146215,3294.210641,4293.194464,5847.626942
208.146523,1455.581446,3552.988522,6957.935855
208.146831,459.657299,2294.638420,8808.450710
208.147139,-1072.533697,148.041188,10436.903782
208.147447,-3064.381992,-1776.494261,11843.295072
208.147755,-3447.429741,-3478.967927,13619.789333
208.148063,-3907.087040,-4589.276840,14211.954086
208.148371,-4673.182538,-4589.276840,14063.912898
208.148679,-3753.867940,-4663.297435,14582.057057
208.148987,-2451.505594,-3478.967927,13545.768739
208.149295,-1378.971896,-2812.782580,11843.295072
208.149603,689.485948,-888.247130,9844.739029
208.149911,2221.676944,296.082377,8956.491898
208.150220,2757.943793,1036.288319,8660.409521
208.150528,3907.087040,1554.432478,7328.038826
208.150836,3600.648841,2590.720797,6365.771101
208.151144,2681.334243,2368.659014,6291.750507
208.151452,3140.991542,3108.864956,6069.688724
208.151760,3294.210641,4145.153275,5921.647536
208.152068,2757.943793,3997.112087,5847.626942
208.152376,2911.162892,3849.070898,5847.626942
208.152684,2145.067394,3701.029710,6883.915261
208.152992,1532.190996,1850.514855,8512.368333
208.153300,0.000000,296.082377,9992.780217
208.153608,-995.924147,-1110.308913,11695.253884
208.153916,-2451.505594,-2664.741391,13397.727550
208.154224,-3294.210641,-3775.050304,14211.954086
208.154532,-3524.039291,-4293.194464,14656.077652
208.154840,-2834.553343,-4293.194464,14434.015869
208.155149,-1838.629195,-3923.091493,13619.789333
208.155457,-229.828649,-2664.741391,12065.356855
208.155765,1149.143247,-1258.350101,10584.944971
208.156073,2374.896044,-444.123565,9326.594869
208.156381,3370.820191,1184.329507,7772.162391
208.156689,4366.744339,2220.617826,7031.956449
208.156997,4596.572988,3552.988522,6217.729913
208.157305,4749.792088,4219.173869,5329.482782
208.157613,4673.182538,4737.318029,5181.441594
208.157921,3600.648841,4663.297435,5699.585753
208.158229,3370.820191,3775.050304,6365.771101
208.158537,1685.410096,2590.720797,7846.182985
208.158845,0.000000,1406.391290,9474.636058
208.159153,-1532.190996,-444.123565,11251.130318
208.159461,-2451.505594,-2368.659014,12657.521608
208.159769,-3983.696590,-3552.988522,13619.789333
208.160077,-3753.867940,-4367.215058,14359.995275
208.160386,-3907.087040,-4885.359217,14508.036463
208.160694,-2604.724693,-4219.173869,13767.830521
208.161002,-1532.190996,-2960.823768,13175.665768
208.161310,0.000000,-1924.535449,11177.109724
208.161618,1532.190996,-222.061783,9326.594869
208.161926,2757.943793,296.082377,8660.409521
208.162234,3294.210641,1184.329507,7698.141797
208.162542,3830.477490,2220.617826,7402.059420
208.162850,3140.991542,2664.741391,7031.956449
208.163158,2757.943793,2664.741391,5921.647536
208.163466,3217.601092,3404.947333,6291.750507
208.163774,3064.381992,4293.194464,5625.565159
208.164082,3217.601092,4219.173869,5773.606348
208.164390,2451.505594,3923.091493,6439.791695
208.164698,1149.143247,2664.741391,7550.100608
208.165006,536.266849,1036.288319,9622.677246
208.165314,-842.705048,-962.267725,10881.027347
208.165623,-2681.334243,-2442.679609,12657.521608
208.165931,-3064.381992,-3849.070898,14063.912898
208.166239,-3600.648841,-4441.235652,14508.036463
208.166547,-3524.039291,-4367.215058,14582.057057
208.166855,-2681.334243,-4071.132681,13989.892304
208.167163,-1302.362347,-3478.967927,12287.418637
208.167471,459.657299,-1776.494261,11029.068536
208.167779,2298.286494,-444.123565,9178.553681
208.168087,2911.162892,592.164754,7328.038826
208.168395,3983.696590,2368.659014,6809.894666
208.168703,4519.963438,3330.926739,5995.668130
208.169011,4290.134789,4219.173869,5699.585753
208.169319,3830.477490,4737.318029,5255.462188
208.169627,3217.601092,4293.194464,5773.606348
208.169935,2145.067394,3404.947333,6513.812290
208.170243,536.266849,2664.741391,7994.224174
208.170552,-536.266849,1184.329507,9770.718434
208.170860,-1915.238745,-222.061783,11103.089130
208.171168,-2451.505594,-2220.617826,12583.501014
208.171476,-3753.867940,-3182.885551,13323.706956
208.171784,-3830.477490,-3997.112087,13841.851115
208.172092,-3600.648841,-4737.318029,14211.954086
208.172400,-3294.210641,-3923.091493,13693.809927
208.172708,-1149.143247,-3552.988522,12361.439231
208.173016,0.000000,-2294.638420,11177.109724
208.173324,1225.752797,-962.267725,9548.656652
208.173632,2145.067394,370.102971,8438.347739
208.173940,3140.991542,888.247130,8364.327145
208.174248,3447.429741,2220.617826,6957.935855
208.174556,3370.820191,2516.700203,6439.791695
208.174864,3294.210641,2886.803174,6291.750507
208.175172,2987.772442,4145.153275,6365.771101
208.175480,2834.553343,3923.091493,6439.791695
208.175789,2528.115143,4219.173869,6365.771101
208.176097,2068.457845,3701.029710,6883.915261
208.176405,1378.971896,2738.761985,7846.182985
208.176713,229.828649,1184.329507,9696.697840
208.177021,-995.924147,-592.164754,11103.089130
208.177329,-2374.896044,-2516.700203,13101.645173
208.177637,-3064.381992,-3849.070898,14582.057057
208.177945,-3983.696590,-4441.235652,14730.098246
208.178253,-3370.820191,-4515.256246,14508.036463
208.178561,-2451.505594,-4145.153275,13989.892304
208.178869,-766.095498,-2812.782580,12435.459826
208.179177,919.314598,-1776.494261,10732.986159
208.179485,2068.457845,-518.144159,9030.512492
208.179793,3830.477490,1406.391290,7772.162391
208.180101,4903.011187,2442.679609,6809.894666
208.180409,4903.011187,3552.988522,6365.771101
208.180717,4979.620737,4219.173869,5477.523971
208.181026,4826.401637,4663.297435,5403.503377
208.181334,3524.039291,4737.318029,5625.565159
208.181642,2604.724693,3775.050304,6735.874072
208.181950,1302.362347,2812.782580,7698.141797
208.182258,0.000000,2294.638420,9326.594869
208.182566,-842.705048,-296.082377,11103.089130
208.182874,-2528.115143,-1628.453072,12139.377449
208.183182,-3294.210641,-3108.864956,13101.645173
208.183490,-3600.648841,-3923.091493,13767.830521
208.183798,-3600.648841,-4515.256246,14063.912898
208.184106,-2757.943793,-4293.194464,13989.892304
208.184414,-1838.629195,-3256.906145,13249.686362
208.184722,76.609550,-2442.679609,11917.315666
208.185030,1149.143247,-1110.308913,9696.697840
208.185338,2298.286494,-0.000000,8808.450710
208.185646,3064.381992,814.226536,8216.285956
208.185955,3064.381992,1924.535449,7105.977043
208.186263,3524.039291,2812.782580,6587.832884
208.186571,3830.477490,3108.864956,5847.626942
208.186879,3753.867940,3923.091493,5847.626942
208.187187,3983.696590,4293.194464,5181.441594
208.187495,3600.648841,4293.194464,5403.503377
208.187803,3294.210641,4293.194464,6143.709319
208.188111,1685.410096,3330.926739,7254.018232
208.188419,153.219100,1702.473667,9474.636058
208.188727,-1072.533697,-666.185348,11547.212695
208.189035,-2068.457845,-2146.597232,13101.645173
208.189343,-3140.991542,-4441.235652,14434.015869
208.189651,-3907.087040,-5181.441594,14878.139434
208.189959,-3753.867940,-4885.359217,15692.365970
208.190267,-2911.162892,-4441.235652,14285.974681
208.190575,-1302.362347,-2664.741391,13249.686362
208.190883,689.485948,-1924.535449,11325.150913
208.191192,2374.896044,-0.000000,8586.388927
208.191500,3983.696590,1480.411884,7105.977043
208.191808,4596.572988,2072.576638,6661.853478
208.192116,5056.230287,3404.947333,6291.750507
208.192424,4979.620737,4219.173869,5773.606348
208.192732,4366.744339,4663.297435,5329.482782
208.193040,3753.867940,4441.235652,5847.626942
208.193348,2681.334243,4071.132681,6513.812290
208.193656,1225.752797,2960.823768,7698.141797
208.193964,0.000000,1406.391290,9474.636058
208.194272,-1072.533697,-666.185348,10732.986159
208.194580,-2528.115143,-1628.453072,12287.418637
208.194888,-3217.601092,-3182.885551,12879.583391
208.195196,-3524.039291,-3775.050304,13397.727550
208.195504,-3983.696590,-4145.153275,13841.851115
208.195812,-3294.210641,-3849.070898,13989.892304
208.196120,-2068.457845,-3478.967927,13027.624579
208.196429,-1532.190996,-2442.679609,11843.295072
208.196737,995.924147,-1258.350101,10066.800811
208.197045,2068.457845,-814.226536,9474.636058
208.197353,1302.362347,-0.000000,7624.121203
208.197661,2911.162892,1036.288319,7920.203579
208.197969,3370.820191,2146.597232,6809.894666
208.198277,3064.381992,2442.679609,6217.729913
208.198585,3677.258390,3330.926739,5921.647536
208.198893,4136.915689,4737.318029,5255.462188
208.199201,3907.087040,4737.318029,5477.523971
208.199509,3524.039291,4219.173869,5773.606348
208.199817,2604.724693,3627.009116,6587.832884
208.200125,536.266849,1776.494261,8512.368333
208.200433,-842.705048,-222.061783,11177.109724
208.200741,-2145.067394,-1776.494261,12361.439231
208.201049,-3677.258390,-3997.112087,14285.974681
208.201357,-4443.353888,-5255.462188,14952.160028
208.201666,-4213.525239,-5033.400406,15026.180623
208.201974,-3217.601092,-4441.235652,14582.057057
208.202282,-1685.410096,-3775.050304,13175.665768
208.202590,229.828649,-1850.514855,11251.130318
208.202898,2068.457845,-518.144159,8734.430116
208.203206,3294.210641,1332.370696,7105.977043
208.203514,4673.182538,2368.659014,6513.812290
208.203822,5056.230287,3256.906145,6735.874072
208.204130,4903.011187,4219.173869,5773.606348
208.204438,4290.134789,4441.235652,5403.503377
208.204746,3830.477490,4737.318029,6069.688724
208.205054,2681.334243,3404.947333,6513.812290
208.205362,1225.752797,2516.700203,7772.162391
208.205670,0.000000,1628.453072,9326.594869
208.205978,-995.924147,222.061783,10584.944971
208.206286,-2145.067394,-1776.494261,11843.295072
208.206595,-3447.429741,-3256.906145,12657.521608
208.206903,-3140.991542,-3775.050304,13175.665768
208.207211,-3753.867940,-3997.112087,13693.809927
208.207519,-3217.601092,-4071.132681,13545.768739
208.207827,-2451.505594,-3108.864956,13397.727550
208.208135,-919.314598,-2072.576638,12065.356855
208.208443,153.219100,-740.205942,10510.924376
208.208751,1455.581446,-370.102971,9474.636058
208.209059,2221.676944,592.164754,8438.347739
208.209367,2528.115143,1628.453072,8142.265362
208.209675,2681.334243,1628.453072,6735.874072
208.209983,3140.991542,2220.617826,6661.853478
208.210291,3370.820191,3330.926739,6217.729913
208.210599,3447.429741,3775.050304,5477.523971
208.210907,3447.429741,4811.338623,5329.482782
208.211215,3370.820191,4515.256246,5773.606348
208.211523,2145.067394,4145.153275,7105.977043
208.211832,919.314598,2220.617826,8956.491898
208.212140,-459.657299,740.205942,10732.986159
208.212448,-1915.238745,-1110.308913,12287.418637
208.212756,-3064.381992,-2812.782580,13915.871710
208.213064,-3830.477490,-4441.235652,15026.180623
208.213372,-3907.087040,-4441.235652,14878.139434
208.213680,-3370.820191,-4219.173869,14211.954086
208.213988,-1762.019645,-3552.988522,13545.768739
208.214296,0.000000,-2220.617826,11917.315666
208.214604,1378.971896,-1184.329507,9548.656652
208.214912,2681.334243,-0.000000,8290.306550
208.215220,4519.963438,1480.411884,7698.141797
208.215528,4826.401637,2812.782580,6513.812290
208.215836,4903.011187,3478.967927,5773.606348
208.216144,5132.839837,4145.153275,6217.729913
208.216452,3753.867940,4219.173869,5847.626942
208.216760,3140.991542,4219.173869,6661.853478
208.217069,2451.505594,3478.967927,7105.977043
208.217377,1378.971896,2368.659014,8512.368333
208.217685,-383.047749,1184.329507,9474.636058
208.217993,-1455.581446,-296.082377,10881.027347
208.218301,-2681.334243,-2368.659014,12287.418637
208.218609,-3064.381992,-3775.050304,12879.583391
208.218917,-3524.039291,-4071.132681,13693.809927
208.219225,-3600.648841,-4589.276840,13545.768739
208.219533,-2604.724693,-4145.153275,13841.851115
208.219841,-1225.752797,-2294.638420,12139.377449
208.220149,76.609550,-1628.453072,11251.130318
208.220457,1378.971896,-740.205942,9622.677246
208.220765,2681.334243,370.102971,7846.182985
208.221073,3294.210641,1406.391290,6883.915261
208.221381,2911.162892,1332.370696,7105.977043
208.221689,3600.648841,2220.617826,6439.791695
208.221998,3677.258390,2664.741391,6143.709319
208.222306,2911.162892,3552.988522,5477.523971
208.222614,3064.381992,3849.070898,5329.482782
208.222922,3140.991542,4293.194464,5773.606348
208.223230,1991.848295,3330.926739,6735.874072
208.223538,842.705048,2072.576638,8142.265362
208.223846,-842.705048,-0.000000,10362.883188
208.224154,-1915.238745,-1850.514855,11843.295072
208.224462,-3064.381992,-3182.885551,13471.748144
208.224770,-3447.429741,-3701.029710,14211.954086
208.225078,-3447.429741,-4219.173869,14211.954086
208.225386,-2604.724693,-3923.091493,13915.871710
208.225694,-2221.676944,-3552.988522,12953.603985
208.226002,459.657299,-2368.659014,11769.274478
208.226310,1532.190996,-1036.288319,9474.636058
208.226618,3064.381992,-0.000000,8512.368333
208.226926,4136.915689,1258.350101,7994.224174
208.227235,4749.792088,2516.700203,6661.853478
208.227543,4596.572988,3330.926739,5847.626942
208.227851,4519.963438,3849.070898,6217.729913
208.228159,3447.429741,3404.947333,6439.791695
208.228467,2221.676944,3923.091493,6217.729913
208.228775,2298.286494,3108.864956,7550.100608
208.229083,689.485948,2442.679609,8438.347739
208.229391,-689.485948,1258.350101,9918.759623
208.229699,-1685.410096,-0.000000,11325.150913
208.230007,-2604.724693,-1776.494261,12287.418637
208.230315,-3524.039291,-2886.803174,13101.645173
208.230623,-3294.210641,-3701.029710,13841.851115
208.230931,-3524.039291,-3997.112087,14508.036463
208.231239,-2451.505594,-3923.091493,13545.768739
208.231547,-1225.752797,-2960.823768,12879.583391
208.231855,0.000000,-1776.494261,11103.089130
208.232163,1072.533697,-740.205942,9548.656652
208.232472,2145.067394,296.082377,8586.388927
208.232780,3140.991542,1184.329507,7550.100608
208.233088,3907.087040,2072.576638,6957.935855
208.233396,4136.915689,2590.720797,6513.812290
208.233704,3753.867940,3034.844362,6069.688724
208.234012,3677.258390,4071.132681,4959.379811
208.234320,3600.648841,4737.318029,5403.503377
208.234628,2834.553343,4219.173869,5699.585753
208.234936,1991.848295,3923.091493,6957.935855
208.235244,536.266849,2368.659014,8512.368333
208.235552,0.000000,-74.020594,10066.800811
208.235860,-1838.629195,-1628.453072,11991.336260
208.236168,-3600.648841,-3182.885551,13915.871710
208.236476,-4136.915689,-4663.297435,14656.077652
208.236784,-4060.306139,-4515.256246,14804.118840
208.237092,-3677.258390,-4515.256246,14508.036463
208.237400,-2374.896044,-3627.009116,13249.686362
208.237708,-383.047749,-2738.761985,11695.253884
208.238016,1378.971896,-1850.514855,10140.821405
208.238324,2221.676944,-148.041188,8142.265362
208.238632,4290.134789,1110.308913,7476.080014
208.238940,4979.620737,2368.659014,6587.832884
208.239248,4903.011187,3256.906145,6069.688724
208.239556,4903.011187,3997.112087,5181.441594
208.239864,4596.572988,3849.070898,5181.441594
208.240172,3370.820191,4071.132681,5773.606348
208.240480,2298.286494,3330.926739,7031.956449
208.240788,153.219100,2146.597232,8364.327145
208.241096,-536.266849,814.226536,9252.574275
208.241404,-1378.971896,-296.082377,11103.089130
208.241712,-2757.943793,-1998.556043,12287.418637
208.242020,-3140.991542,-2960.823768,13249.686362
208.242328,-3524.039291,-3182.885551,13693.809927
208.242636,-3217.601092,-3552.988522,14137.933492
208.242944,-2834.553343,-3108.864956,14211.954086
208.243252,-1532.190996,-3034.844362,12879.583391
208.243560,0.000000,-1776.494261,11843.295072
208.243868,842.705048,-888.247130,10288.862594
208.244176,2068.457845,-0.000000,8956.491898
208.244484,2681.334243,962.267725,8216.285956
208.244792,3370.820191,1702.473667,7772.162391
208.245100,3294.210641,2442.679609,6661.853478
208.245408,3600.648841,3552.988522,6439.791695
208.245716,3370.820191,4071.132681,5773.606348
208.246024,3217.601092,4885.359217,5403.503377
208.246332,2987.772442,4737.318029,5625.565159
208.246640,2681.334243,4293.194464,6439.791695
208.246948,1685.410096,2886.803174,8068.244768
208.247256,76.609550,1332.370696,9992.780217
208.247564,-1532.190996,-518.144159,11177.109724
208.247872,-3140.991542,-2294.638420,13027.624579
208.248180,-3370.820191,-3849.070898,14211.954086
208.248488,-3830.477490,-4145.153275,14878.139434
208.248796,-3370.820191,-4145.153275,14656.077652
208.249104,-2068.457845,-3997.112087,14063.912898
208.249412,-842.705048,-3034.844362,12361.439231
208.249720,766.095498,-1850.514855,10510.924376
208.250028,2451.505594,-296.082377,9030.512492
208.250336,4060.306139,592.164754,7624.121203
208.250644,4749.792088,1776.494261,6513.812290
208.250952,4826.401637,3034.844362,6291.750507
208.251260,4596.572988,3552.988522,6143.709319
208.251567,4213.525239,3997.112087,5699.585753
208.251875,2987.772442,3997.112087,5921.647536
208.252183,2834.553343,3034.844362,7402.059420
208.252491,612.876398,2664.741391,7476.080014
208.252799,0.000000,1110.308913,9400.615463
208.253107,-536.266849,-370.102971,10955.047942
208.253415,-3294.210641,-1332.370696,11695.253884
208.253723,-3600.648841,-2960.823768,13249.686362
208.254031,-3830.477490,-3404.947333,13027.624579
208.254339,-3677.258390,-4145.153275,14137.933492
208.254647,-3294.210641,-3775.050304,13101.645173
208.254955,-1991.848295,-3182.885551,12657.521608
208.255263,-1072.533697,-2368.659014,11399.171507
208.255571,229.828649,-1406.391290,10214.842000
208.255879,1149.143247,-74.020594,9104.533087
208.256187,3140.991542,740.205942,7624.121203
208.256495,3753.867940,1924.535449,7031.956449
208.256803,3830.477490,2738.761985,5773.606348
208.257111,4519.963438,3034.844362,5625.565159
208.257419,4136.915689,3404.947333,5329.482782
208.257727,3524.039291,3997.112087,4737.318029
208.258035,2681.334243,3997.112087,5403.503377
208.258343,2681.334243,3478.967927,6513.812290
208.258651,995.924147,2368.659014,8142.265362
208.258959,-229.828649,814.226536,9548.656652
208.259267,-1608.800546,-888.247130,11399.171507
208.259575,-2834.553343,-2368.659014,12583.501014
208.259883,-2451.505594,-3627.009116,13915.871710
208.260191,-3600.648841,-4737.318029,14359.995275
208.260499,-3217.601092,-4515.256246,14211.954086
208.260807,-2221.676944,-4145.153275,13545.768739
208.261115,-689.485948,-2738.761985,12287.418637
208.261423,766.095498,-1924.535449,10732.986159
208.261731,2298.286494,-222.061783,9104.533087
208.262039,3600.648841,888.247130,7920.203579
208.262347,4673.182538,1850.514855,7476.080014
208.262655,3983.696590,2960.823768,6587.832884
208.262963,4519.963438,3256.906145,6069.688724
208.263271,3753.867940,3775.050304,5995.668130
208.263579,3447.429741,3627.009116,6217.729913
208.263887,2451.505594,3478.967927,6957.935855
208.264195,1608.800546,2960.823768,8142.265362
208.264503,689.485948,2220.617826,8734.430116
208.264811,-1072.533697,1184.329507,9918.759623
208.265119,-1838.629195,-666.185348,11843.295072
208.265427,-3370.820191,-1924.535449,12805.562797
208.265735,-3600.648841,-2960.823768,13767.830521
208.266043,-3753.867940,-3849.070898,13989.892304
208.266351,-3677.258390,-3552.988522,14211.954086
208.266659,-2987.772442,-3552.988522,13989.892304
208.266967,-2068.457845,-2664.741391,12583.501014
208.267275,-306.438199,-1406.391290,11547.212695
208.267583,689.485948,-222.061783,9548.656652
208.267891,2911.162892,1332.370696,8438.347739
208.268199,3907.087040,1850.514855,7402.059420
208.268507,4060.306139,3330.926739,5773.606348
208.268815,4749.792088,3627.009116,5625.565159
208.269123,4443.353888,4367.215058,4885.359217
208.269431,3907.087040,4663.297435,4959.379811
208.269739,3677.258390,4515.256246,5329.482782
208.270047,2987.772442,3478.967927,6439.791695
208.270355,1149.143247,2590.720797,8586.388927
208.270663,-306.438199,444.123565,9622.677246
208.270971,-1762.019645,-1110.308913,11547.212695
208.271279,-2987.772442,-3034.844362,13323.706956
208.271587,-3983.696590,-3849.070898,14211.954086
208.271895,-3753.867940,-4515.256246,14582.057057
208.272203,-3064.381992,-4811.338623,14359.995275
208.272511,-1915.238745,-3997.112087,13619.789333
208.272819,-842.705048,-2442.679609,12065.356855
208.273127,766.095498,-1332.370696,10658.965565
208.273435,1991.848295,-0.000000,8808.450710
208.273743,3600.648841,962.267725,7846.182985
208.274051,4213.525239,1998.556043,6883.915261
208.274359,4749.792088,2368.659014,6439.791695
208.274667,4903.011187,2516.700203,6143.709319
208.274975,4290.134789,3182.885551,6217.729913
208.275283,3140.991542,2960.823768,6069.688724
208.275591,2528.115143,3034.844362,6883.915261
208.275898,2145.067394,3034.844362,7624.121203
208.276206,919.314598,2072.576638,8142.265362
208.276514,-383.047749,814.226536,9548.656652
208.276822,-1455.581446,-370.102971,11029.068536
208.277130,-2834.553343,-2072.576638,12805.562797
208.277438,-3140.991542,-3108.864956,13693.809927
208.277746,-4213.525239,-3775.050304,14137.933492
208.278054,-4136.915689,-4145.153275,14285.974681
208.278362,-3217.601092,-3330.926739,14063.912898
208.278670,-2298.286494,-2590.720797,13101.645173
208.278978,-536.266849,-1702.473667,11325.150913
208.279286,1225.752797,-592.164754,9548.656652
208.279594,2298.286494,592.164754,8438.347739
208.279902,3753.867940,1184.329507,7476.080014
208.280210,3830.477490,2442.679609,5921.647536
208.280518,4673.182538,3108.864956,5477.523971
208.280826,4903.011187,3849.070898,5107.421000
208.281134,3983.696590,4293.194464,4737.318029
208.281442,3677.258390,4737.318029,5255.462188
208.281750,2911.162892,3923.091493,6143.709319
208.282058,1762.019645,2664.741391,7772.162391
208.282366,459.657299,1776.494261,9178.553681
208.282674,-459.657299,-222.061783,10955.047942
208.282982,-2298.286494,-1776.494261,12583.501014
208.283290,-3447.429741,-3552.988522,14137.933492
208.283598,-3983.696590,-4145.153275,14804.118840
208.283906,-3830.477490,-4219.173869,14878.139434
208.284214,-3217.601092,-4071.132681,14434.015869
208.284522,-2068.457845,-3034.844362,13101.645173
208.284830,-536.266849,-1924.535449,11473.192101
208.285138,1225.752797,-592.164754,10066.800811
208.285446,3217.601092,370.102971,8586.388927
208.285754,3294.210641,2146.597232,6957.935855
208.286062,4673.182538,2442.679609,7105.977043
208.286370,4903.011187,3330.926739,6439.791695
208.286678,4443.353888,3923.091493,5847.626942
208.286986,3983.696590,3997.112087,6143.709319
208.287294,3907.087040,3775.050304,5773.606348
208.287602,2528.115143,2886.803174,7105.977043
208.287910,1149.143247,1850.514855,7402.059420
208.288218,229.828649,1184.329507,9474.636058
208.288526,-1378.971896,-814.226536,11251.130318
208.288834,-2681.334243,-2442.679609,12509.480420
208.289142,-3140.991542,-3256.906145,13619.789333
208.289450,-3830.477490,-3923.091493,14285.974681
208.289758,-3983.696590,-4071.132681,14285.974681
208.290066,-2834.553343,-3701.029710,13915.871710
208.290374,-1608.800546,-2738.761985,13175.665768
208.290682,-689.485948,-1850.514855,11325.150913
208.290990,919.314598,-666.185348,9770.718434
208.291298,2145.067394,518.144159,8512.368333
208.291606,3064.381992,1480.411884,7402.059420
208.291914,4290.134789,2294.638420,6587.832884
208.292222,4826.401637,2738.761985,5551.544565
208.292530,4213.525239,3775.050304,5329.482782
208.292838,3907.087040,3923.091493,4885.359217
208.293146,3600.648841,3923.091493,5625.565159
208.293454,3140.991542,4145.153275,5699.585753
208.293762,2604.724693,3330.926739,6809.894666
208.294070,1532.190996,2146.597232,8438.347739
208.294378,0.000000,370.102971,10066.800811
208.294686,-1378.971896,-1332.370696,11547.212695
208.294994,-3064.381992,-2886.803174,13175.665768
208.295302,-3753.867940,-4071.132681,13915.871710
208.295610,-3983.696590,-4071.132681,14285.974681
208.295918,-3217.601092,-4145.153275,14508.036463
208.296226,-2528.115143,-3478.967927,13619.789333
208.296534,-1838.629195,-2368.659014,12361.439231
208.296842,0.000000,-1332.370696,11399.171507
208.297150,1378.971896,-74.020594,9622.677246
208.297458,2604.724693,740.205942,8290.306550
208.297766,3677.258390,2220.617826,7179.997637
208.298074,4443.353888,2960.823768,6513.812290
208.298382,4366.744339,3849.070898,5551.544565
208.298690,4290.134789,4515.256246,5551.544565
208.298998,3983.696590,4145.153275,5625.565159
208.299306,3677.258390,4219.173869,6143.709319
208.299614,1762.019645,2812.782580,7476.080014
208.299922,766.095498,1332.370696,8808.450710
208.300229,-459.657299,-222.061783,10362.883188
208.300537,-2298.286494,-2146.597232,12213.398043
208.300845,-3447.429741,-3330.926739,13693.809927
208.301153,-4060.306139,-4219.173869,14434.015869
208.301461,-4443.353888,-4959.379811,14804.118840
208.301769,-4060.306139,-4441.235652,15100.201217
208.302077,-2451.505594,-4071.132681,14211.954086
208.302385,-1225.752797,-2146.597232,12435.459826
208.302693,306.438199,-1036.288319,9918.759623
208.303001,1915.238745,592.164754,8808.450710
208.303309,2987.772442,1776.494261,7550.100608
208.303617,4136.915689,3034.844362,6439.791695
208.303925,4749.792088,3701.029710,5551.544565
208.304233,4596.572988,4071.132681,4959.379811
208.304541,4366.744339,4885.359217,4811.338623
208.304849,3983.696590,4589.276840,4663.297435
208.305157,3524.039291,4219.173869,5477.523971
208.305465,2528.115143,3256.906145,7105.977043
208.305773,1608.800546,1850.514855,8660.409521
208.306081,0.000000,222.061783,10140.821405
208.306389,-1378.971896,-1406.391290,11769.274478
208.306697,-1991.848295,-3256.906145,12879.583391
208.307005,-3294.210641,-3775.050304,13915.871710
208.307313,-3447.429741,-4293.194464,14730.098246
208.307621,-3370.820191,-4219.173869,14359.995275
208.307929,-2451.505594,-3404.947333,13841.851115
208.308237,-1685.410096,-2368.659014,12583.501014
208.308545,-306.438199,-1480.411884,11103.089130
208.308853,1149.143247,-0.000000,9770.718434
208.309161,2834.553343,444.123565,8512.368333
208.309469,3370.820191,1480.411884,7624.121203
208.309777,4290.134789,3108.864956,6735.874072
208.310085,4060.306139,3330.926739,5773.606348
208.310393,4060.306139,3997.112087,5255.462188
208.310701,3983.696590,3849.070898,5181.441594
208.311009,2987.772442,4071.132681,5625.565159
208.311317,2221.676944,2886.803174,7254.018232
208.311625,1532.190996,1332.370696,8216.285956
208.311933,306.438199,-74.020594,9622.677246
208.312241,-1608.800546,-1924.535449,11177.109724
208.312549,-2834.553343,-3404.947333,12657.521608
208.312857,-3524.039291,-4071.132681,13767.830521
208.313165,-3907.087040,-4663.297435,14285.974681
208.313473,-3753.867940,-4441.235652,14063.912898
208.313781,-3524.039291,-4145.153275,13545.768739
208.314089,-1455.581446,-3034.844362,12361.439231
208.314397,0.000000,-1480.411884,10584.944971
208.314705,689.485948,296.082377,9770.718434
208.315013,2604.724693,1480.411884,7920.203579
208.315321,3677.258390,2516.700203,6735.874072
208.315629,4290.134789,3330.926739,6069.688724
208.315937,4366.744339,4293.194464,5107.421000
208.316245,4366.744339,4589.276840,5107.421000
208.316553,3983.696590,4737.318029,5181.441594
208.316861,3830.477490,3997.112087,5773.606348
208.317169,2604.724693,3256.906145,7031.956449
208.317477,1532.190996,2294.638420,8142.265362
208.317785,229.828649,370.102971,9992.780217
208.318093,-1225.752797,-1036.288319,11325.150913
208.318401,-2145.067394,-2442.679609,12879.583391
208.318709,-2911.162892,-3923.091493,13471.748144
208.319017,-3140.991542,-3923.091493,14359.995275
208.319325,-3217.601092,-4071.132681,14582.057057
208.319633,-2145.067394,-3182.885551,13989.892304
208.319941,-1149.143247,-2368.659014,12805.562797
208.320249,153.219100,-1480.411884,11103.089130
208.320557,1608.800546,-74.020594,9474.636058
208.320865,2757.943793,1258.350101,8290.306550
208.321173,3217.601092,2072.576638,7624.121203
208.321481,4749.792088,3108.864956,6513.812290
208.321789,4213.525239,3552.988522,5699.585753
208.322097,3753.867940,4145.153275,5921.647536
208.322405,3524.039291,4071.132681,5625.565159
208.322713,2528.115143,3997.112087,5995.668130
208.323021,2298.286494,3182.885551,7920.203579
208.323329,1608.800546,1554.432478,8660.409521
208.323637,-1302.362347,740.205942,9474.636058
208.323945,-1685.410096,-2072.576638,12361.439231
208.324253,-2834.553343,-3182.885551,12435.459826
208.324561,-4136.915689,-3775.050304,14434.015869
208.324868,-3677.258390,-4663.297435,14434.015869
208.325176,-3600.648841,-4515.256246,14211.954086
208.325484,-2757.943793,-3997.112087,13841.851115
208.325792,-1685.410096,-2812.782580,12213.398043
208.326100,306.438199,-1554.432478,10955.047942
208.326408,995.924147,-0.000000,8734.430116
208.326716,2681.334243,1036.288319,7624.121203
208.327024,3907.087040,2220.617826,6513.812290
208.327332,4290.134789,2960.823768,5847.626942
208.327640,4519.963438,4145.153275,5181.441594
208.327948,4213.525239,4663.297435,4959.379811
208.328256,4060.306139,4589.276840,5033.400406
208.328564,3294.210641,4219.173869,5181.441594
208.328872,2681.334243,3775.050304,6661.853478
208.329180,1378.971896,2294.638420,8512.368333
208.329488,0.000000,592.164754,9696.697840
208.329796,-1302.362347,-888.247130,11325.150913
208.330104,-2374.896044,-2442.679609,12731.542202
208.330412,-3140.991542,-3701.029710,13841.851115
208.330720,-3370.820191,-4515.256246,14434.015869
208.331028,-2757.943793,-4441.235652,14359.995275
208.331336,-2604.724693,-4293.194464,13767.830521
208.331644,-1762.019645,-3552.988522,13027.624579
208.331952,0.000000,-2368.659014,11621.233289
208.332260,842.705048,-814.226536,10066.800811
208.332568,2451.505594,518.144159,8660.409521
208.332876,3677.258390,1998.556043,7772.162391
208.333184,4366.744339,2590.720797,6217.729913
208.333492,4366.744339,3404.947333,5995.668130
208.333800,4979.620737,4071.132681,5403.503377
208.334108,4903.011187,4589.276840,5181.441594
208.334416,3830.477490,4737.318029,5551.544565
208.334724,2757.943793,3775.050304,6587.832884
208.335032,1608.800546,2442.679609,7846.182985
208.335340,0.000000,1110.308913,9474.636058
208.335648,-1532.190996,-1110.308913,11843.295072
208.335956,-2681.334243,-2738.761985,12879.583391
208.336264,-3907.087040,-4219.173869,14063.912898
208.336572,-4443.353888,-5255.462188,15248.242405
208.336880,-4290.134789,-5033.400406,15174.221811
208.337188,-3447.429741,-4145.153275,14434.015869
208.337496,-2221.676944,-3108.864956,13175.665768
208.337804,-306.438199,-1702.473667,11251.130318
208.338112,1762.019645,-148.041188,9622.677246
208.338420,3064.381992,1258.350101,7920.203579
208.338728,3983.696590,2590.720797,7328.038826
208.339036,4596.572988,3478.967927,6439.791695
208.339344,4366.744339,3849.070898,5847.626942
208.339652,3983.696590,4293.194464,5329.482782
208.339960,3677.258390,4589.276840,5477.523971
208.340268,3064.381992,4589.276840,5773.606348
208.340576,2451.505594,3997.112087,6439.791695
208.340884,1838.629195,3182.885551,7624.121203
208.341192,766.095498,1776.494261,8586.388927
208.341500,-383.047749,-0.000000,10436.903782
208.341808,-1532.190996,-1554.432478,11547.212695
208.342116,-2451.505594,-2812.782580,13175.665768
208.342424,-3370.820191,-3775.050304,13841.851115
208.342731,-3447.429741,-4219.173869,14211.954086
208.343039,-2987.772442,-4663.297435,14434.015869
208.343347,-2145.067394,-3627.009116,13619.789333
208.343655,-536.266849,-3182.885551,12139.377449
208.343963,229.828649,-1924.535449,10881.027347
208.344271,1455.581446,-296.082377,9326.594869
208.344579,2834.553343,592.164754,8068.244768
208.344887,3753.867940,2146.597232,7105.977043
208.345195,4519.963438,2960.823768,6143.709319
208.345503,4213.525239,3701.029710,5181.441594
208.345811,4136.915689,4367.215058,5255.462188
208.346119,4366.744339,4145.153275,5477.523971
208.346427,2834.553343,4071.132681,6217.729913
208.346735,1838.629195,3034.844362,7402.059420
208.347043,306.438199,1480.411884,9104.533087
208.347351,-1378.971896,-444.123565,11103.089130
208.347659,-2757.943793,-2442.679609,12435.459826
208.347967,-3447.429741,-3923.091493,14063.912898
208.348275,-4213.525239,-5107.421000,14730.098246
208.348583,-4366.744339,-4959.379811,14878.139434
208.348891,-3064.381992,-4885.359217,13915.871710
208.349199,-2374.896044,-3627.009116,12731.542202
208.349507,-153.219100,-2072.576638,11547.212695
208.349815,1378.971896,-296.082377,9474.636058
208.350123,3064.381992,1036.288319,7994.224174
208.350431,3753.867940,1628.453072,6809.894666
208.350739,4290.134789,2812.782580,5921.647536
208.351047,4366.744339,3701.029710,5699.585753
208.351355,4596.572988,3997.112087,5403.503377
208.351663,3753.867940,4367.215058,5403.503377
208.351971,2757.943793,4293.194464,5699.585753
208.352279,2451.505594,3627.009116,6957.935855
208.352587,1532.190996,2812.782580,7846.182985
208.352895,689.485948,1480.411884,9178.553681
208.353203,-689.485948,814.226536,10140.821405
208.353511,-1455.581446,-888.247130,11695.253884
208.353819,-1915.238745,-2220.617826,13323.706956
208.354126,-2604.724693,-3034.844362,13027.624579
208.354434,-2987.772442,-3330.926739,13693.809927
208.354742,-2604.724693,-3923.091493,14137.933492
208.355050,-1991.848295,-3256.906145,13323.706956
208.355358,-1072.533697,-2664.741391,12435.459826
208.355666,536.266849,-1776.494261,11325.150913
208.355974,1991.848295,-148.041188,9474.636058
208.356282,2987.772442,962.267725,9030.512492
208.356590,3447.429741,1850.514855,7624.121203
208.356898,3983.696590,2738.761985,6735.874072
208.357206,4136.915689,3552.988522,5551.544565
208.357514,3753.867940,4441.235652,5625.565159
208.357822,3753.867940,3997.112087,6143.709319
208.358130,2451.505594,3701.029710,6513.812290
208.358438,1915.238745,3034.844362,7994.224174
208.358746,229.828649,1776.494261,9104.533087
208.359054,-1532.190996,-0.000000,10732.986159
208.359362,-2911.162892,-1924.535449,12657.521608
208.359670,-3907.087040,-3552.988522,13619.789333
208.359978,-4519.963438,-4367.215058,14582.057057
208.360286,-4596.572988,-4737.318029,14359.995275
208.360594,-3294.210641,-4441.235652,14137.933492
208.360902,-2451.505594,-3404.947333,13175.665768
208.361210,76.609550,-1776.494261,11325.150913
208.361518,1455.581446,-370.102971,9400.615463
208.361826,2757.943793,518.144159,8068.244768
208.362134,3524.039291,1702.473667,7105.977043
208.362442,4290.134789,2664.741391,6513.812290
208.362750,4213.525239,3034.844362,5921.647536
208.363058,3677.258390,3552.988522,5625.565159
208.363366,3830.477490,3627.009116,5551.544565
208.363674,2911.162892,4219.173869,5847.626942
208.363982,2757.943793,3701.029710,6513.812290
208.364290,2221.676944,3034.844362,7254.018232
208.364598,1072.533697,2220.617826,8512.368333
208.364906,459.657299,814.226536,9770.718434
208.365214,-842.705048,-592.164754,10881.027347
208.365521,-1685.410096,-2516.700203,12657.521608
208.365829,-2145.067394,-3627.009116,13471.748144
208.366137,-3064.381992,-3849.070898,14063.912898
208.366445,-3140.991542,-4071.132681,14063.912898
208.366753,-2374.896044,-3997.112087,13915.871710
208.367061,-1302.362347,-2886.803174,12731.542202
208.367369,76.609550,-1998.556043,11621.233289
208.367677,1838.629195,-1036.288319,9770.718434
208.367985,2374.896044,296.082377,8660.409521
208.368293,3983.696590,1776.494261,7550.100608
208.368601,4366.744339,2960.823768,5847.626942
208.368909,4673.182538,4219.173869,5403.503377
208.369217,4519.963438,4293.194464,5403.503377
208.369525,3600.648841,4663.297435,5255.462188
208.369833,3064.381992,4071.132681,6217.729913
208.370141,1838.629195,3108.864956,7476.080014
208.370449,229.828649,1924.535449,9178.553681
208.370757,-1532.190996,-888.247130,10881.027347
208.371065,-2987.772442,-1924.535449,12435.459826
208.371373,-3677.258390,-3182.885551,13471.748144
208.371681,-4060.306139,-4293.194464,14285.974681
208.371989,-4443.353888,-4367.215058,14211.954086
208.372297,-3294.210641,-4219.173869,14211.954086
208.372605,-2451.505594,-3256.906145,12953.603985
208.372913,-766.095498,-1924.535449,11695.253884
208.373221,766.095498,-888.247130,9474.636058
208.373529,2298.286494,814.226536,8290.306550
208.373837,3140.991542,1628.453072,7179.997637
208.374145,3677.258390,2442.679609,7031.956449
208.374453,3753.867940,2664.741391,6883.915261
208.374761,3677.258390,3182.885551,6291.750507
208.375069,2911.162892,3478.967927,5477.523971
208.375377,3294.210641,3404.947333,6143.709319
208.375685,2528.115143,3552.988522,6661.853478
208.375993,2604.724693,3108.864956,7254.018232
208.376301,1915.238745,2738.761985,7772.162391
208.376608,1072.533697,1258.350101,9104.533087
208.376916,-76.609550,-0.000000,10214.842000
208.377224,-1608.800546,-1554.432478,12065.356855
208.377532,-2451.505594,-3256.906145,13767.830521
208.377840,-3294.210641,-3775.050304,14063.912898
208.378148,-2604.724693,-4367.215058,14211.954086
208.378456,-2757.943793,-3923.091493,14137.933492
208.378764,-1608.800546,-3034.844362,12953.603985
208.379072,0.000000,-2146.597232,11843.295072
208.379380,1378.971896,-740.205942,10140.821405
208.379688,2987.772442,592.164754,8956.491898
208.379996,3600.648841,1998.556043,7846.182985
208.380304,4443.353888,2960.823768,6365.771101
208.380612,5056.230287,3923.091493,5551.544565
208.380920,4443.353888,4515.256246,5551.544565
208.381228,3907.087040,4737.318029,5773.606348
208.381536,2757.943793,4515.256246,5921.647536
208.381844,2068.457845,3330.926739,7476.080014
208.382152,0.000000,1776.494261,8808.450710
208.382460,-1302.362347,-0.000000,10510.924376
208.382768,-2068.457845,-1998.556043,12509.480420
208.383076,-3677.258390,-2960.823768,13397.727550
208.383384,-4213.525239,-3775.050304,13841.851115
208.383692,-3907.087040,-4441.235652,14211.954086
208.384000,-3217.601092,-4145.153275,13767.830521
208.384308,-2298.286494,-3404.947333,13027.624579
208.384616,-383.047749,-2146.597232,11843.295072
208.384924,766.095498,-592.164754,9918.759623
208.385232,2298.286494,148.041188,8734.430116
208.385540,2987.772442,962.267725,7550.100608
208.385848,3907.087040,2072.576638,7179.997637
208.386156,3600.648841,2368.659014,6883.915261
208.386464,3524.039291,3034.844362,6365.771101
208.386772,3294.210641,3627.009116,5699.585753
208.387080,3524.039291,3701.029710,6217.729913
208.387388,3370.820191,3552.988522,6513.812290
208.387696,2528.115143,3256.906145,6957.935855
208.388003,2374.896044,2516.700203,8364.327145
208.388311,612.876398,1036.288319,9400.615463
208.388619,-689.485948,-444.123565,10288.862594
208.388927,-1685.410096,-1998.556043,12361.439231
208.389235,-2374.896044,-3256.906145,13545.768739
208.389543,-2451.505594,-4219.173869,13841.851115
208.389851,-2451.505594,-3997.112087,13989.892304
208.390159,-2298.286494,-3552.988522,14137.933492
208.390467,-1455.581446,-3108.864956,13027.624579
208.390775,0.000000,-2294.638420,11991.336260
208.391083,536.266849,-1036.288319,10214.842000
208.391391,1915.238745,148.041188,9178.553681
208.391699,3064.381992,1332.370696,8216.285956
208.392007,4519.963438,2590.720797,6809.894666
208.392315,4290.134789,3775.050304,5921.647536
208.392623,4749.792088,4515.256246,5181.441594
208.392931,4060.306139,5033.400406,5181.441594
208.393239,3447.429741,4959.379811,5625.565159
208.393547,2528.115143,3997.112087,7105.977043
208.393855,1072.533697,2738.761985,8216.285956
208.394163,-612.876398,592.164754,9844.739029
208.394471,-2068.457845,-1480.411884,11769.274478
208.394779,-3064.381992,-2738.761985,13027.624579
208.395087,-3830.477490,-3849.070898,14211.954086
208.395395,-4519.963438,-4293.194464,14211.954086
208.395703,-3753.867940,-4293.194464,14063.912898
208.396011,-2681.334243,-3775.050304,13397.727550
208.396319,-1225.752797,-2960.823768,12065.356855
208.396627,229.828649,-1332.370696,10288.862594
208.396935,1608.800546,-148.041188,9326.594869
208.397243,2911.162892,592.164754,7772.162391
208.397551,4060.306139,1480.411884,7254.018232
208.397859,3830.477490,2664.741391,6439.791695
208.398167,3830.477490,3034.844362,5921.647536
208.398475,3677.258390,3478.967927,5329.482782
208.398783,3294.210641,3627.009116,5625.565159
208.399090,2604.724693,3701.029710,6143.709319
208.399398,2451.505594,3182.885551,6883.915261
208.399706,1302.362347,2516.700203,7698.141797
208.400014,459.657299,1554.432478,8956.491898
208.400322,-536.266849,-0.000000,9770.718434
208.400630,-1302.362347,-1258.350101,11695.253884
208.400938,-2451.505594,-2664.741391,13249.686362
208.401246,-3447.429741,-3775.050304,13693.809927
208.401554,-3524.039291,-4367.215058,14137.933492
208.401862,-3294.210641,-4441.235652,14434.015869
208.402170,-1991.848295,-3923.091493,14137.933492
208.402478,-536.266849,-2960.823768,12509.480420
208.402786,383.047749,-1850.514855,10658.965565
208.403094,1991.848295,-74.020594,9104.533087
208.403402,3064.381992,888.247130,7846.182985
208.403710,3907.087040,2516.700203,6883.915261
208.404018,4673.182538,3775.050304,5477.523971
208.404326,4903.011187,4663.297435,4737.318029
208.404634,5056.230287,5403.503377,5033.400406
208.404942,3983.696590,4737.318029,4885.359217
208.405250,2451.505594,4293.194464,6587.832884
208.405558,1685.410096,3034.844362,7994.224174
208.405866,-383.047749,962.267725,9548.656652
208.406174,-2068.457845,-962.267725,11695.253884
208.406482,-2987.772442,-2738.761985,13323.706956
208.406790,-3907.087040,-3923.091493,14137.933492
208.407098,-4443.353888,-4959.379811,14359.995275
208.407406,-4596.572988,-4737.318029,14285.974681
208.407714,-2987.772442,-4293.194464,14063.912898
208.408022,-1532.190996,-3034.844362,12583.501014
208.408330,229.828649,-1998.556043,11103.089130
208.408638,1532.190996,-888.247130,9400.615463
208.408946,2451.505594,444.123565,7920.203579
208.409254,3677.258390,1406.391290,7328.038826
208.409562,4443.353888,2072.576638,6735.874072
208.409870,4366.744339,3034.844362,5921.647536
208.410178,3830.477490,3627.009116,5773.606348
208.410485,3600.648841,3849.070898,5699.585753
208.410793,3140.991542,4219.173869,5773.606348
208.411101,3064.381992,4071.132681,6143.709319
208.411409,1915.238745,3849.070898,7105.977043
208.411717,1838.629195,2960.823768,8364.327145
208.412025,306.438199,1554.432478,9326.594869
208.412333,-383.047749,-148.041188,11029.068536
208.412641,-1915.238745,-2368.659014,12287.418637
208.412949,-2987.772442,-3478.967927,13915.871710
208.413257,-3753.867940,-4145.153275,14508.036463
208.413565,-3830.477490,-4515.256246,14656.077652
208.413873,-3140.991542,-4219.173869,14359.995275
208.414181,-1838.629195,-3256.906145,13323.706956
208.414489,-153.219100,-2368.659014,11399.171507
208.414797,2068.457845,-740.205942,9696.697840
208.415105,3140.991542,962.267725,8068.244768
208.415413,3983.696590,2220.617826,6957.935855
208.415721,5056.230287,3775.050304,6143.709319
208.416029,4903.011187,4441.235652,5255.462188
208.416337,4596.572988,4737.318029,4959.379811
208.416645,4826.401637,4293.194464,5329.482782
208.416953,3294.210641,3997.112087,6069.688724
208.417261,1532.190996,3034.844362,7698.141797
208.417569,76.609550,1258.350101,9104.533087
208.417877,-1455.581446,-444.123565,10881.027347
208.418185,-2604.724693,-2072.576638,11991.336260
208.418493,-3753.867940,-3330.926739,13323.706956
208.418801,-3907.087040,-4367.215058,14063.912898
208.419109,-3447.429741,-4737.318029,14063.912898
208.419417,-2681.334243,-3627.009116,13693.809927
208.419725,-1915.238745,-3256.906145,12287.418637
208.420033,-612.876398,-1998.556043,11547.212695
208.420341,842.705048,-962.267725,9992.780217
208.420649,2145.067394,-0.000000,8956.491898
208.420957,2528.115143,888.247130,7920.203579
208.421265,3217.601092,1628.453072,7624.121203
208.421573,2604.724693,2072.576638,7031.956449
208.421880,3140.991542,2368.659014,6735.874072
208.422188,3140.991542,3404.947333,5625.565159
208.422496,3294.210641,3849.070898,5995.668130
208.422804,3217.601092,4219.173869,6069.688724
208.423112,2987.772442,3849.070898,6365.771101
208.423420,2451.505594,3182.885551,7105.977043
208.423728,1149.143247,1628.453072,8586.388927
208.424036,229.828649,-0.000000,10214.842000
208.424344,-1532.190996,-1776.494261,11843.295072
208.424652,-2451.505594,-3108.864956,13693.809927
208.424960,-3600.648841,-3701.029710,14285.974681
208.425268,-3600.648841,-4515.256246,14730.098246
208.425576,-3294.210641,-4367.215058,14656.077652
208.425884,-2145.067394,-3627.009116,13323.706956
208.426192,0.000000,-2368.659014,12065.356855
208.426500,1149.143247,-814.226536,9992.780217
208.426808,2451.505594,370.102971,9178.553681
208.427116,3753.867940,1998.556043,7476.080014
208.427424,4443.353888,3404.947333,6143.709319
208.427732,4596.572988,4367.215058,5329.482782
208.428040,4519.963438,4885.359217,5403.503377
208.428348,4060.306139,4885.359217,5699.585753
208.428656,3294.210641,4219.173869,6439.791695
208.428964,1762.019645,3478.967927,7698.141797
208.429272,306.438199,1554.432478,9178.553681
208.429580,-995.924147,-444.123565,10510.924376
208.429888,-2451.505594,-1850.514855,12213.398043
208.430196,-3217.601092,-3034.844362,12879.583391
208.430504,-3524.039291,-3849.070898,13619.789333
208.430812,-3524.039291,-4145.153275,13767.830521
208.431120,-3370.820191,-4145.153275,13545.768739
208.431428,-1915.238745,-2886.803174,12287.418637
208.431736,-842.705048,-1702.473667,11769.274478
208.432044,306.438199,-962.267725,10214.842000
208.432352,1762.019645,-0.000000,8956.491898
208.432660,2451.505594,962.267725,7994.224174
208.432967,2757.943793,1332.370696,7402.059420
208.433275,3064.381992,2146.597232,7105.977043
208.433583,2604.724693,2368.659014,6735.874072
208.433891,2757.943793,2812.782580,6513.812290
208.434199,2987.772442,3330.926739,5995.668130
208.434507,3217.601092,3701.029710,6069.688724
208.434815,2987.772442,3849.070898,5995.668130
208.435123,2528.115143,3404.947333,7031.956449
208.435431,1532.190996,2146.597232,8290.306550
208.435739,306.438199,-0.000000,9992.780217
208.436047,-1072.533697,-2072.576638,11399.171507
208.436355,-2068.457845,-3330.926739,13471.748144
208.436663,-2911.162892,-4293.194464,13841.851115
208.436971,-3447.429741,-4441.235652,14582.057057
208.437279,-2757.943793,-4885.359217,14434.015869
208.437588,-2374.896044,-3404.947333,13249.686362
208.437896,-306.438199,-2960.823768,11843.295072
208.438204,919.314598,-1258.350101,10288.862594
208.438512,2068.457845,296.082377,8808.450710
208.438820,3983.696590,2072.576638,7772.162391
208.439128,4596.572988,3330.926739,5995.668130
208.439436,4826.401637,4071.132681,5107.421000
208.439744,4903.011187,5033.400406,4737.318029
208.440052,4290.134789,4885.359217,5403.503377
208.440360,2987.772442,4441.235652,6143.709319
208.440668,1762.019645,3256.906145,7624.121203
208.440976,383.047749,1850.514855,9030.512492
208.441284,-842.705048,-74.020594,10362.883188
208.441592,-2145.067394,-1480.411884,12287.418637
208.441900,-3294.210641,-2960.823768,13175.665768
208.442208,-3524.039291,-3478.967927,13767.830521
208.442516,-3447.429741,-3923.091493,13693.809927
208.442824,-2987.772442,-3627.009116,13619.789333
208.443132,-2145.067394,-3256.906145,12805.562797
208.443440,-306.438199,-2368.659014,11917.315666
208.443749,919.314598,-962.267725,10732.986159
208.444057,1302.362347,-222.061783,9178.553681
208.444365,2145.067394,814.226536,8438.347739
208.444673,2681.334243,1702.473667,7698.141797
208.444981,2911.162892,2072.576638,7105.977043
208.445289,2911.162892,2590.720797,6587.832884
208.445597,3370.820191,3404.947333,6217.729913
208.445905,2987.772442,3849.070898,5773.606348
208.446213,3064.381992,4071.132681,5773.606348
208.446521,3064.381992,3552.988522,6143.709319
208.446829,2298.286494,3478.967927,7031.956449
208.447137,1225.752797,2146.597232,8216.285956
208.447445,153.219100,296.082377,10140.821405
208.447753,-1225.752797,-1480.411884,11991.336260
208.448061,-2298.286494,-3108.864956,13545.768739
208.448369,-3140.991542,-4441.235652,14137.933492
208.448677,-3447.429741,-5107.421000,14434.015869
208.448985,-3064.381992,-4959.379811,14137.933492
208.449293,-1915.238745,-3552.988522,14211.954086
208.449601,-459.657299,-2738.761985,11843.295072
208.449909,1378.971896,-1184.329507,10362.883188
208.450218,2834.553343,-74.020594,8512.368333
208.450526,4213.525239,1406.391290,7254.018232
208.450834,4749.792088,2664.741391,6513.812290
208.451142,4826.401637,3849.070898,5699.585753
208.451450,5056.230287,4663.297435,5329.482782
208.451758,4366.744339,5329.482782,5625.565159
208.452066,3294.210641,4959.379811,6069.688724
208.452374,2145.067394,3849.070898,7254.018232
208.452682,842.705048,2368.659014,8364.327145
208.452990,-306.438199,740.205942,9918.759623
208.453298,-2298.286494,-1110.308913,11843.295072
208.453606,-2911.162892,-2442.679609,13397.727550
208.453914,-3753.867940,-3330.926739,13323.706956
208.454222,-3907.087040,-3256.906145,13915.871710
208.454530,-3370.820191,-3923.091493,13841.851115
208.454838,-2298.286494,-3256.906145,13175.665768
208.455146,-1608.800546,-2590.720797,11843.295072
208.455454,229.828649,-1480.411884,11103.089130
208.455762,1072.533697,-1110.308913,9622.677246
208.456070,1685.410096,-0.000000,8660.409521
208.456379,2757.943793,518.144159,7994.224174
208.456687,2987.772442,1776.494261,7328.038826
208.456995,2987.772442,2664.741391,6291.750507
208.457303,3140.991542,3552.988522,5625.565159
208.457611,3524.039291,4145.153275,5255.462188
208.457919,3370.820191,4219.173869,5551.544565
208.458227,3064.381992,4145.153275,5699.585753
208.458535,2834.553343,3330.926739,6809.894666
208.458843,842.705048,2072.576638,7846.182985
208.459151,-153.219100,296.082377,9918.759623
208.459459,-1532.190996,-1480.411884,11843.295072
208.459767,-2757.943793,-3256.906145,13693.809927
208.460075,-3830.477490,-4737.318029,14508.036463
208.460383,-4213.525239,-4811.338623,14508.036463
208.460691,-3447.429741,-5181.441594,14656.077652
208.460999,-1991.848295,-3997.112087,13619.789333
208.461307,0.000000,-2664.741391,12435.459826
208.461615,1149.143247,-1628.453072,10362.883188
208.461923,2451.505594,-0.000000,8364.327145
208.462231,3907.087040,1480.411884,7328.038826
208.462540,4596.572988,3034.844362,6365.771101
208.462848,4903.011187,3701.029710,5921.647536
208.463156,4903.011187,4737.318029,5255.462188
208.463464,4366.744339,4811.338623,5033.400406
208.463772,3753.867940,4441.235652,5625.565159
208.464080,2681.334243,3775.050304,6735.874072
208.464388,1455.581446,2738.761985,8364.327145
208.464696,-229.828649,962.267725,9622.677246
208.465004,-1915.238745,-740.205942,11251.130318
208.465312,-2757.943793,-2220.617826,12953.603985
208.465620,-3753.867940,-2812.782580,13915.871710
208.465928,-3447.429741,-3849.070898,14211.954086
208.466236,-3217.601092,-3923.091493,13841.851115
208.466544,-2911.162892,-3552.988522,13397.727550
208.466852,-1762.019645,-3182.885551,12953.603985
208.467160,-612.876398,-2294.638420,11769.274478
208.467468,842.705048,-1184.329507,9918.759623
208.467776,2374.896044,-444.123565,8882.471304
208.468084,2528.115143,666.185348,8216.285956
208.468392,3907.087040,1924.535449,7179.997637
208.468700,4366.744339,2664.741391,6365.771101
208.469009,3907.087040,3627.009116,5847.626942
208.469317,4060.306139,4441.235652,5329.482782
208.469625,3907.087040,4737.318029,5403.503377
208.469933,3677.258390,4737.318029,5477.523971
208.470241,3294.210641,3849.070898,6365.771101
208.470549,1991.848295,2664.741391,7624.121203
208.470857,689.485948,666.185348,9622.677246
208.471165,-536.266849,-1554.432478,11917.315666
208.471473,-2451.505594,-2590.720797,12879.583391
208.471781,-3524.039291,-4293.194464,14285.974681
208.472089,-4136.915689,-5181.441594,14952.160028
208.472397,-3983.696590,-5033.400406,15174.221811
208.472705,-2834.553343,-4737.318029,14211.954086
208.473013,-1149.143247,-3404.947333,13027.624579
208.473321,459.657299,-1258.350101,11251.130318
208.473629,2528.115143,-222.061783,8956.491898
208.473937,4213.525239,1850.514855,7550.100608
208.474245,4673.182538,3404.947333,6291.750507
208.474553,5515.887586,4441.235652,5477.523971
208.474861,5132.839837,5181.441594,4959.379811
208.475170,4519.963438,4959.379811,5181.441594
208.475478,3983.696590,4515.256246,6143.709319
208.475786,1915.238745,3627.009116,7254.018232
208.476094,689.485948,2146.597232,8586.388927
208.476402,-995.924147,814.226536,10140.821405
208.476710,-1991.848295,-740.205942,11621.233289
208.477018,-3064.381992,-1998.556043,12435.459826
208.477326,-3524.039291,-3108.864956,13397.727550
208.477634,-3217.601092,-3478.967927,13767.830521
208.477942,-2604.724693,-3627.009116,13915.871710
208.478250,-2681.334243,-3627.009116,13175.665768
208.478558,-1302.362347,-2664.741391,12509.480420
208.478866,-459.657299,-1776.494261,11399.171507
208.479174,689.485948,-666.185348,10066.800811
208.479482,1455.581446,-0.000000,8882.471304
208.479790,2374.896044,444.123565,8216.285956
208.480098,2757.943793,1554.432478,7624.121203
208.480406,3140.991542,1924.535449,6439.791695
208.480714,3294.210641,2886.803174,5773.606348
208.481022,3524.039291,3775.050304,6217.729913
208.481330,3370.820191,4145.153275,5403.503377
208.481639,3600.648841,4589.276840,5773.606348
208.481947,2987.772442,4219.173869,5995.668130
208.482255,2068.457845,2886.803174,7254.018232
208.482563,612.876398,1036.288319,9474.636058
208.482871,-459.657299,-888.247130,11399.171507
208.483179,-2451.505594,-2368.659014,13175.665768
208.483487,-3983.696590,-4071.132681,14285.974681
208.483795,-4366.744339,-5033.400406,14878.139434
208.484103,-3983.696590,-4885.359217,15100.201217
208.484411,-2987.772442,-4663.297435,14434.015869
208.484719,-1608.800546,-3034.844362,12953.603985
208.485027,459.657299,-2220.617826,11103.089130
208.485335,2068.457845,-222.061783,9326.594869
208.485643,3677.258390,1110.308913,7994.224174
208.485951,4903.011187,2960.823768,6661.853478
208.486259,4979.620737,4145.153275,5625.565159
208.486567,4903.011187,4811.338623,5255.462188
208.486875,4290.134789,4959.379811,5181.441594
208.487183,3677.258390,4737.318029,5477.523971
208.487491,2221.676944,4071.132681,7105.977043
208.487800,919.314598,2812.782580,8364.327145
208.488108,76.609550,1184.329507,9548.656652
208.488416,-1991.848295,-296.082377,10955.047942
208.488724,-2681.334243,-1776.494261,12287.418637
208.489032,-3370.820191,-2960.823768,13101.645173
208.489340,-3753.867940,-3701.029710,13545.768739
208.489648,-3524.039291,-4293.194464,13619.789333
208.489956,-2681.334243,-3849.070898,12879.583391
208.490264,-1762.019645,-3034.844362,12879.583391
208.490572,-306.438199,-2368.659014,11473.192101
208.490880,536.266849,-1406.391290,10510.924376
208.491188,1455.581446,-296.082377,9104.533087
208.491496,2374.896044,444.123565,7846.182985
208.491804,2987.772442,1110.308913,7179.997637
208.492112,2911.162892,2072.576638,6883.915261
208.492420,3753.867940,2886.803174,6143.709319
208.492728,4366.744339,3997.112087,5773.606348
208.493036,3677.258390,4219.173869,5181.441594
208.493344,3600.648841,4441.235652,5181.441594
208.493652,3217.601092,3775.050304,5699.585753
208.493961,1991.848295,2886.803174,7179.997637
208.494269,766.095498,1036.288319,8956.491898
208.494577,-766.095498,-518.144159,11251.130318
208.494885,-2757.943793,-2738.761985,12879.583391
208.495193,-3677.258390,-3997.112087,14359.995275
208.495501,-3753.867940,-4959.379811,14804.118840
208.495809,-3830.477490,-4811.338623,14952.160028
208.496117,-2757.943793,-4811.338623,14582.057057
208.496425,-1302.362347,-3182.885551,13027.624579
208.496733,536.266849,-2146.597232,11473.192101
208.497041,1915.238745,-370.102971,9400.615463
208.497349,3447.429741,1554.432478,8068.244768
208.497657,4903.011187,2590.720797,7179.997637
208.497965,4903.011187,3256.906145,5921.647536
208.498273,4903.011187,4441.235652,5551.544565
208.498581,4749.792088,4885.359217,5477.523971
208.498889,3907.087040,4811.338623,5847.626942
208.499197,2911.162892,4441.235652,6735.874072
208.499505,2374.896044,3404.947333,7846.182985
208.499813,536.266849,2368.659014,8882.471304
208.500121,-919.314598,592.164754,10288.862594
208.500430,-2221.676944,-814.226536,11769.274478
208.500738,-2604.724693,-2072.576638,12583.501014
208.501046,-3064.381992,-3256.906145,13545.768739
208.501354,-3370.820191,-3627.009116,13767.830521
208.501662,-3217.601092,-3701.029710,13767.830521
208.501970,-2604.724693,-3478.967927,13767.830521
208.502278,-1915.238745,-3108.864956,12805.562797
208.502586,0.000000,-2220.617826,11325.150913
208.502894,612.876398,-888.247130,10140.821405
208.503202,1838.629195,370.102971,8512.368333
208.503510,2528.115143,1406.391290,7698.141797
208.503818,3370.820191,2294.638420,6809.894666
208.504126,3677.258390,3330.926739,5847.626942
208.504434,4366.744339,4293.194464,5699.585753
208.504742,3753.867940,4737.318029,5033.400406
208.505050,3294.210641,4737.318029,5551.544565
208.505358,2374.896044,3923.091493,6291.750507
208.505666,1915.238745,2886.803174,7105.977043
208.505974,383.047749,1110.308913,9178.553681
208.506282,-995.924147,-518.144159,10881.027347
208.506591,-2298.286494,-2368.659014,12435.459826
208.506899,-3370.820191,-4071.132681,13619.789333
208.507207,-3677.258390,-5329.482782,14211.954086
208.507515,-3370.820191,-5181.441594,14211.954086
208.507823,-2834.553343,-4811.338623,13841.851115
208.508131,-1378.971896,-3330.926739,12731.542202
208.508439,306.438199,-2072.576638,10955.047942
208.508747,1608.800546,-518.144159,9252.574275
208.509055,2911.162892,888.247130,7846.182985
208.509363,4366.744339,2146.597232,6883.915261
208.509671,4749.792088,3034.844362,6587.832884
208.509979,4519.963438,3923.091493,6513.812290
208.510287,3983.696590,4293.194464,5773.606348
208.510595,2757.943793,4441.235652,6217.729913
208.510903,2451.505594,3923.091493,6883.915261
208.511211,1378.971896,3330.926739,7698.141797
208.511519,536.266849,2368.659014,8512.368333
208.511827,-536.266849,888.247130,9622.677246
208.512135,-1991.848295,-740.205942,11251.130318
208.512443,-2757.943793,-1850.514855,12213.398043
208.512751,-2911.162892,-2664.741391,13027.624579
208.513060,-3370.820191,-3256.906145,13619.789333
208.513368,-3217.601092,-3627.009116,13471.748144
208.513676,-2451.505594,-3478.967927,13323.706956
208.513984,-1838.629195,-2886.803174,12583.501014
208.514292,-383.047749,-2294.638420,11399.171507
208.514600,766.095498,-1406.391290,10140.821405
208.514908,1378.971896,-0.000000,8586.388927
208.515216,2068.457845,740.205942,7698.141797
208.515524,3064.381992,1850.514855,6883.915261
208.515832,3370.820191,3182.885551,6217.729913
208.516140,3753.867940,4219.173869,5181.441594
208.516448,3753.867940,4515.256246,5107.421000
208.516756,3600.648841,4811.338623,5477.523971
208.517064,2987.772442,4441.235652,5921.647536
208.517372,2221.676944,3182.885551,6883.915261
208.517680,612.876398,1332.370696,8660.409521
208.517988,-536.266849,-592.164754,10807.006753
208.518296,-2451.505594,-2442.679609,12509.480420
208.518604,-3677.258390,-3775.050304,13841.851115
208.518912,-3677.258390,-4885.359217,14582.057057
208.519221,-3983.696590,-5181.441594,14434.015869
208.519529,-2604.724693,-5107.421000,14285.974681
208.519837,-1455.581446,-3923.091493,12879.583391
208.520145,229.828649,-2442.679609,11399.171507
208.520453,1991.848295,-666.185348,9696.697840
208.520761,3524.039291,888.247130,8216.285956
208.521069,4366.744339,2442.679609,7105.977043
208.521377,5056.230287,3478.967927,6217.729913
208.521685,5056.230287,4293.194464,5921.647536
208.521993,4903.011187,4663.297435,5773.606348
208.522301,3677.258390,4367.215058,5921.647536
208.522609,2451.505594,4145.153275,6587.832884
208.522917,1838.629195,3404.947333,7624.121203
208.523225,229.828649,2368.659014,8438.347739
208.523533,-536.266849,740.205942,10214.842000
208.523841,-1608.800546,-592.164754,11399.171507
208.524149,-2451.505594,-1554.432478,12139.377449
208.524457,-2757.943793,-2590.720797,12805.562797
208.524765,-2834.553343,-3478.967927,13767.830521
208.525073,-2681.334243,-3775.050304,13619.789333
208.525382,-2221.676944,-3478.967927,13249.686362
208.525690,-1072.533697,-3182.885551,12583.501014
208.525998,0.000000,-2294.638420,11251.130318
208.526306,612.876398,-1628.453072,9844.739029
208.526614,1762.019645,-666.185348,8882.471304
208.526922,2528.115143,518.144159,8142.265362
208.527230,2604.724693,1702.473667,7328.038826
208.527538,3370.820191,2368.659014,6365.771101
208.527846,3677.258390,3849.070898,5329.482782
208.528154,3830.477490,4663.297435,4811.338623
208.528462,4290.134789,4737.318029,4885.359217
208.528770,3830.477490,4441.235652,5107.421000
208.529078,2604.724693,3404.947333,6365.771101
208.529386,1302.362347,2368.659014,8660.409521
208.529694,-153.219100,-222.061783,9992.780217
208.530002,-1532.190996,-1998.556043,12139.377449
208.530310,-2987.772442,-3256.906145,13545.768739
208.530618,-3983.696590,-4737.318029,14211.954086
208.530926,-4366.744339,-5107.421000,14656.077652
208.531234,-3294.210641,-5107.421000,14211.954086
208.531542,-1915.238745,-4145.153275,13397.727550
208.531851,-153.219100,-3182.885551,12139.377449
208.532159,1532.190996,-1776.494261,10288.862594
208.532467,2528.115143,222.061783,8882.471304
208.532775,3677.258390,1628.453072,7772.162391
208.533083,4519.963438,3034.844362,6735.874072
208.533391,4673.182538,4515.256246,5995.668130
208.533699,4519.963438,4737.318029,6143.709319
208.534007,3907.087040,4663.297435,5847.626942
208.534315,3064.381992,4515.256246,6957.935855
208.534623,2145.067394,3552.988522,7105.977043
208.534931,1072.533697,2812.782580,7994.224174
208.535239,0.000000,1184.329507,9770.718434
208.535547,-1762.019645,-296.082377,11251.130318
208.535855,-2451.505594,-1702.473667,12065.356855
208.536163,-2987.772442,-2738.761985,12953.603985
208.536471,-2834.553343,-3256.906145,13693.809927
208.536779,-2604.724693,-3478.967927,13471.748144
208.537087,-1915.238745,-3701.029710,13323.706956
208.537395,-1608.800546,-3256.906145,12805.562797
208.537703,-459.657299,-2368.659014,11843.295072
208.538011,766.095498,-1554.432478,10214.842000
208.538320,1302.362347,-370.102971,9178.553681
208.538628,2604.724693,444.123565,8216.285956
208.538936,3370.820191,1480.411884,6957.935855
208.539244,3447.429741,2886.803174,6291.750507
208.539552,3830.477490,3552.988522,5699.585753
208.539860,3753.867940,4515.256246,5255.462188
208.540168,3677.258390,4737.318029,5477.523971
208.540476,3140.991542,4515.256246,5773.606348
208.540784,2221.676944,3627.009116,6587.832884
208.541092,1072.533697,2146.597232,8512.368333
208.541400,-229.828649,148.041188,9844.739029
208.541708,-1991.848295,-1406.391290,11695.253884
208.542016,-2681.334243,-3404.947333,13101.645173
208.542324,-3677.258390,-4219.173869,14285.974681
208.542632,-3830.477490,-4885.359217,14434.015869
208.542940,-3217.601092,-4737.318029,14285.974681
208.543248,-2374.896044,-4145.153275,13545.768739
208.543556,-459.657299,-2738.761985,11917.315666
208.543864,1608.800546,-1258.350101,10362.883188
208.544172,2374.896044,296.082377,9104.533087
208.544480,3524.039291,1332.370696,7920.203579
208.544788,4290.134789,2516.700203,6809.894666
208.545096,4443.353888,3775.050304,6217.729913
208.545404,4136.915689,4219.173869,5625.565159
208.545712,3600.648841,4367.215058,6069.688724
208.546020,2451.505594,4071.132681,6809.894666
208.546328,1685.410096,3478.967927,7179.997637
208.546636,766.095498,2220.617826,8142.265362
208.546944,-459.657299,1110.308913,9104.533087
208.547252,-1072.533697,-0.000000,10510.924376
208.547560,-2145.067394,-1110.308913,11917.315666
208.547868,-2834.553343,-2220.617826,12509.480420
208.548176,-3064.381992,-3256.906145,13249.686362
208.548485,-3677.258390,-3701.029710,13767.830521
208.548793,-3064.381992,-4219.173869,13397.727550
208.549101,-1762.019645,-3108.864956,13027.624579
208.549409,-919.314598,-3034.844362,12509.480420
208.549717,0.000000,-2072.576638,10658.965565
208.550025,1072.533697,-888.247130,9474.636058
208.550333,1991.848295,148.041188,8216.285956
208.550641,3064.381992,1406.391290,7402.059420
208.550949,3830.477490,2294.638420,6365.771101
208.551257,3983.696590,3478.967927,5699.585753
208.551565,4443.353888,4145.153275,5181.441594
208.551873,3983.696590,4959.379811,4737.318029
208.552181,3524.039291,4663.297435,5181.441594
208.552489,2911.162892,3849.070898,6143.709319
208.552797,1455.581446,2442.679609,7698.141797
208.553105,-153.219100,666.185348,9622.677246
208.553413,-1608.800546,-1702.473667,11399.171507
208.553721,-2604.724693,-3404.947333,12879.583391
208.554029,-3753.867940,-3997.112087,14063.912898
208.554337,-3907.087040,-5107.421000,14878.139434
208.554645,-3140.991542,-4737.318029,14285.974681
208.554953,-1915.238745,-3849.070898,13545.768739
208.555261,-229.828649,-2812.782580,12287.418637
208.555569,1378.971896,-1554.432478,10140.821405
208.555877,3064.381992,-0.000000,8808.450710
208.556185,3907.087040,1258.350101,7846.182985
208.556493,4596.572988,2442.679609,7105.977043
208.556801,4596.572988,3478.967927,6439.791695
208.557109,4519.963438,3997.112087,6365.771101
208.557417,3677.258390,4219.173869,6217.729913
208.557725,2834.553343,4145.153275,6809.894666
208.558033,2298.286494,3849.070898,7328.038826
208.558342,1455.581446,3182.885551,8068.244768
208.558650,1072.533697,2072.576638,8882.471304
208.558958,-229.828649,962.267725,10288.862594
208.559266,-1149.143247,-444.123565,11325.150913
208.559574,-2068.457845,-1776.494261,12361.439231
208.559882,-2604.724693,-2664.741391,13027.624579
208.560190,-3140.991542,-3627.009116,13619.789333
208.560498,-3064.381992,-4293.194464,13915.871710
208.560806,-2451.505594,-3849.070898,13619.789333
208.561114,-2068.457845,-3627.009116,12731.542202
208.561422,-383.047749,-2072.576638,11843.295072
208.561730,0.000000,-814.226536,9474.636058
208.562038,2911.162892,-666.185348,10066.800811
208.562346,2145.067394,1554.432478,6513.812290
208.562654,3140.991542,2368.659014,6217.729913
208.562962,3983.696590,2886.803174,6735.874072
208.563270,3753.867940,4515.256246,4219.173869
208.563578,3983.696590,4589.276840,5625.565159
208.563886,3524.039291,5181.441594,4219.173869
208.564194,3294.210641,3923.091493,6365.771101
208.564502,1072.533697,3256.906145,7105.977043
208.564810,536.266849,1258.350101,9400.615463
208.565118,-1378.971896,-740.205942,10955.047942
208.565426,-3217.601092,-2368.659014,12657.521608
208.565734,-3217.601092,-3849.070898,14137.933492
208.566042,-3907.087040,-4737.318029,14137.933492
208.566350,-3217.601092,-4737.318029,15026.180623
208.566658,-2451.505594,-4293.194464,13619.789333
208.566966,-766.095498,-2812.782580,12731.542202
208.567274,153.219100,-1998.556043,11251.130318
208.567582,1991.848295,-0.000000,9030.512492
208.567890,3370.820191,1258.350101,8512.368333
208.568198,3983.696590,1924.535449,7328.038826
208.568507,4366.744339,3330.926739,6735.874072
208.568815,4673.182538,4071.132681,6291.750507
208.569123,3830.477490,4293.194464,6587.832884
208.569431,3064.381992,4293.194464,6439.791695
208.569739,2298.286494,4145.153275,6883.915261
208.570047,1685.410096,3404.947333,7550.100608
208.570355,919.314598,2294.638420,8438.347739
208.570663,0.000000,888.247130,9918.759623
208.570971,-1225.752797,-666.185348,11399.171507
208.571279,-2451.505594,-2368.659014,12435.459826
208.571587,-2987.772442,-3034.844362,13397.727550
208.571895,-3447.429741,-3775.050304,14359.995275
208.572203,-3294.210641,-4219.173869,14211.954086
208.572511,-2451.505594,-3923.091493,13767.830521
208.572819,-1991.848295,-3034.844362,12953.603985
208.573127,76.609550,-2294.638420,11399.171507
208.573435,1302.362347,-1036.288319,9548.656652
208.573743,2145.067394,444.123565,8142.265362
208.574051,3217.601092,1332.370696,6957.935855
208.574359,3524.039291,2368.659014,6217.729913
208.574667,3907.087040,3108.864956,5773.606348
208.574975,3753.867940,3997.112087,5255.462188
208.575283,3370.820191,4145.153275,5033.400406
208.575591,3140.991542,4293.194464,5403.503377
208.575899,2681.334243,3997.112087,5921.647536
208.576207,2681.334243,2442.679609,7105.977043
208.576515,459.657299,1554.432478,8734.430116
208.576823,-766.095498,-518.144159,10584.944971
208.577131,-1685.410096,-1998.556043,11843.295072
208.577439,-2911.162892,-3330.926739,12879.583391
208.577747,-2987.772442,-4441.235652,13841.851115
208.578055,-2911.162892,-4515.256246,13989.892304
208.578364,-2987.772442,-4441.235652,13249.686362
208.578672,-1378.971896,-3330.926739,12287.418637
208.578980,536.266849,-2368.659014,11695.253884
208.579288,1225.752797,-1110.308913,9622.677246
208.579596,2451.505594,-0.000000,8808.450710
208.579904,3370.820191,1110.308913,8438.347739
208.580212,4136.915689,2220.617826,7179.997637
208.580520,4213.525239,3034.844362,6883.915261
208.580828,4060.306139,4293.194464,5847.626942
208.581136,3140.991542,4811.338623,6217.729913
208.581444,3140.991542,4515.256246,6365.771101
208.581752,2528.115143,4293.194464,7105.977043
208.582060,1838.629195,2886.803174,7846.182985
208.582368,383.047749,1480.411884,9104.533087
208.582676,-995.924147,-296.082377,11029.068536
208.582984,-1685.410096,-1924.535449,12361.439231
208.583292,-2451.505594,-3256.906145,13545.768739
208.583600,-3677.258390,-4515.256246,13989.892304
208.583908,-3524.039291,-4589.276840,14508.036463
208.584216,-3600.648841,-4737.318029,14508.036463
208.584524,-2374.896044,-3997.112087,13471.748144
208.584832,-689.485948,-2516.700203,11769.274478
208.585140,842.705048,-1258.350101,10140.821405
208.585448,2068.457845,-0.000000,8142.265362
208.585756,3370.820191,1702.473667,7402.059420
208.586064,4290.134789,3182.885551,6587.832884
208.586372,4519.963438,4293.194464,5477.523971
208.586680,4290.134789,4737.318029,4959.379811
208.586988,4060.306139,5033.400406,5107.421000
208.587296,3294.210641,4663.297435,5625.565159
208.587604,2221.676944,4145.153275,5773.606348
208.587912,1455.581446,2590.720797,7772.162391
208.588220,459.657299,1110.308913,9178.553681
208.588529,-1149.143247,-666.185348,10807.006753
208.588837,-2221.676944,-1924.535449,12361.439231
208.589145,-2987.772442,-3552.988522,13471.748144
208.589453,-3524.039291,-4071.132681,14137.933492
208.589761,-3294.210641,-4219.173869,14063.912898
208.590069,-2681.334243,-3849.070898,13915.871710
208.590377,-1532.190996,-3775.050304,12509.480420
208.590685,229.828649,-2368.659014,10881.027347
208.590993,1455.581446,-1110.308913,10214.842000
208.591301,2298.286494,-0.000000,8660.409521
208.591609,2834.553343,1184.329507,7920.203579
208.591917,3600.648841,2072.576638,7624.121203
208.592225,3677.258390,2812.782580,6661.853478
208.592533,3217.601092,3478.967927,6291.750507
208.592841,3370.820191,3775.050304,6291.750507
208.593149,3140.991542,3923.091493,6217.729913
208.593457,2451.505594,3701.029710,6291.750507
208.593765,1455.581446,3108.864956,7698.141797
208.594073,536.266849,1776.494261,8882.471304
208.594381,-612.876398,-0.000000,10881.027347
208.594689,-1608.800546,-1406.391290,11695.253884
208.594997,-2681.334243,-2664.741391,12805.562797
208.595305,-3753.867940,-3627.009116,13545.768739
208.595613,-3677.258390,-4293.194464,14211.954086
208.595921,-2987.772442,-4589.276840,13989.892304
208.596229,-2451.505594,-3849.070898,13397.727550
208.596537,-842.705048,-2960.823768,11991.336260
208.596845,76.609550,-1776.494261,9918.759623
208.597153,2451.505594,-296.082377,8734.430116
208.597461,3447.429741,1110.308913,7624.121203
208.597769,3600.648841,1702.473667,6587.832884
208.598077,3677.258390,3182.885551,6143.709319
208.598386,4519.963438,4219.173869,4811.338623
208.598694,4519.963438,5033.400406,5107.421000
208.599002,4060.306139,5107.421000,5033.400406
208.599310,3217.601092,4885.359217,5699.585753
208.599618,2145.067394,3627.009116,6883.915261
208.599926,689.485948,1998.556043,8660.409521
208.600234,-842.705048,222.061783,10807.006753
208.600542,-1532.190996,-1554.432478,12213.398043
208.600850,-2681.334243,-3182.885551,13471.748144
208.601158,-3447.429741,-3997.112087,14063.912898
208.601466,-3370.820191,-4663.297435,14285.974681
208.601774,-2834.553343,-4367.215058,14285.974681
208.602082,-1915.238745,-3256.906145,13249.686362
208.602390,-76.609550,-2220.617826,12361.439231
208.602698,1149.143247,-1036.288319,10584.944971
208.603006,2298.286494,-0.000000,8808.450710
208.603314,3447.429741,888.247130,8290.306550
208.603622,4136.915689,2516.700203,7031.956449
208.603930,4213.525239,3552.988522,6143.709319
208.604238,3830.477490,4145.153275,6143.709319
208.604546,3447.429741,4441.235652,6143.709319
208.604854,2604.724693,4367.215058,6217.729913
208.605162,2068.457845,3923.091493,6883.915261
208.605470,1532.190996,2664.741391,7772.162391
208.605778,0.000000,1480.411884,9252.574275
208.606086,-995.924147,-0.000000,10955.047942
208.606394,-2374.896044,-1480.411884,11991.336260
208.606702,-3217.601092,-2960.823768,13249.686362
208.607010,-3600.648841,-3775.050304,14285.974681
208.607318,-3524.039291,-4737.318029,14434.015869
208.607626,-3447.429741,-4367.215058,14211.954086
208.607934,-2451.505594,-3923.091493,13693.809927
208.608242,-842.705048,-3108.864956,11917.315666
208.608551,459.657299,-1776.494261,10066.800811
208.608859,2145.067394,-148.041188,8734.430116
208.609167,3370.820191,888.247130,7698.141797
208.609475,3983.696590,2368.659014,6291.750507
208.609783,4290.134789,3552.988522,6217.729913
208.610091,4290.134789,4219.173869,5329.482782
208.610399,4443.353888,5107.421000,4959.379811
208.610707,3907.087040,5033.400406,4441.235652
208.611015,3294.210641,4811.338623,5403.503377
208.611323,2374.896044,3923.091493,6735.874072
208.611631,919.314598,2368.659014,8290.306550
208.611939,0.000000,370.102971,9992.780217
208.612247,-1915.238745,-1184.329507,11251.130318
208.612555,-2681.334243,-2664.741391,12805.562797
208.612863,-2911.162892,-3849.070898,14211.954086
208.613171,-3907.087040,-4737.318029,14211.954086
208.613479,-3064.381992,-4737.318029,14434.015869
208.613787,-2221.676944,-4145.153275,13619.789333
208.614095,-536.266849,-3256.906145,12731.542202
208.614403,689.485948,-1998.556043,11473.192101
208.614711,1838.629195,-444.123565,9400.615463
208.615019,3600.648841,296.082377,8216.285956
208.615327,3370.820191,1406.391290,7624.121203
208.615635,3753.867940,2960.823768,6883.915261
208.615943,4060.306139,4071.132681,6143.709319
208.616251,4136.915689,4663.297435,5625.565159
208.616559,3907.087040,4737.318029,5403.503377
208.616867,2987.772442,4737.318029,6069.688724
208.617175,2451.505594,3552.988522,6735.874072
208.617483,1302.362347,2368.659014,7698.141797
208.617791,536.266849,666.185348,9770.718434
208.618099,-1378.971896,-1332.370696,11769.274478
208.618408,-2528.115143,-2812.782580,12509.480420
208.618716,-3830.477490,-4367.215058,13915.871710
208.619024,-4366.744339,-5255.462188,14508.036463
208.619332,-4060.306139,-5551.544565,14508.036463
208.619640,-2834.553343,-4663.297435,13693.809927
208.619948,-1838.629195,-3775.050304,12805.562797
208.620256,612.876398,-2220.617826,10658.965565
208.620564,1608.800546,-148.041188,8882.471304
208.620872,3217.601092,1258.350101,7550.100608
208.621180,4060.306139,2368.659014,6661.853478
208.621488,4596.572988,3330.926739,5625.565159
208.621796,4673.182538,3923.091493,5255.462188
208.622104,3753.867940,4515.256246,5403.503377
208.622412,3294.210641,4737.318029,5403.503377
208.622720,2374.896044,4219.173869,6143.709319
208.623028,1685.410096,3552.988522,7105.977043
208.623336,612.876398,2368.659014,8438.347739
208.623644,-229.828649,1110.308913,9844.739029
208.623952,-1532.190996,-296.082377,11325.150913
208.624260,-2528.115143,-1628.453072,12879.583391
208.624568,-2298.286494,-3034.844362,13471.748144
208.624876,-3294.210641,-3775.050304,14211.954086
208.625184,-3294.210641,-3701.029710,14582.057057
208.625492,-2681.334243,-3627.009116,13397.727550
208.625800,-1302.362347,-2812.782580,13397.727550
208.626108,0.000000,-2072.576638,11695.253884
208.626416,766.095498,-740.205942,9918.759623
208.626724,2298.286494,222.061783,9548.656652
208.627032,3064.381992,1406.391290,8364.327145
208.627340,3064.381992,2516.700203,7402.059420
208.627648,3753.867940,3478.967927,6439.791695
208.627956,4060.306139,4293.194464,6069.688724
208.628264,3983.696590,4737.318029,5699.585753
208.628573,3447.429741,4885.359217,6143.709319
208.628881,2451.505594,4071.132681,6661.853478
208.629189,1378.971896,2368.659014,8068.244768
208.629497,0.000000,444.123565,9992.780217
208.629805,-1455.581446,-1110.308913,11473.192101
208.630113,-2451.505594,-2886.803174,13101.645173
208.630421,-3907.087040,-4145.153275,14211.954086
208.630729,-4673.182538,-4737.318029,14434.015869
208.631037,-4060.306139,-4885.359217,15026.180623
208.631345,-3140.991542,-4589.276840,14137.933492
208.631653,-2221.676944,-3552.988522,12435.459826
208.631961,612.876398,-2368.659014,11399.171507
208.632269,1378.971896,-814.226536,8882.471304
208.632577,2221.676944,666.185348,7624.121203
208.632885,4136.915689,1998.556043,6587.832884
208.633193,4213.525239,3182.885551,5625.565159
208.633501,4290.134789,3701.029710,5255.462188
208.633809,4443.353888,4293.194464,4811.338623
208.634117,3600.648841,4145.153275,5625.565159
208.634425,3140.991542,4737.318029,5477.523971
208.634733,2604.724693,3330.926739,6809.894666
208.635041,919.314598,2368.659014,7920.203579
208.635349,76.609550,962.267725,8882.471304
208.635657,-383.047749,-296.082377,10510.924376
208.635965,-1378.971896,-1628.453072,11473.192101
208.636273,-2145.067394,-2960.823768,12731.542202
208.636581,-3140.991542,-3849.070898,13249.686362
208.636889,-2451.505594,-4219.173869,13841.851115
208.637197,-2221.676944,-4219.173869,13545.768739
208.637505,-919.314598,-3701.029710,12435.459826
208.637813,0.000000,-2368.659014,11769.274478
208.638121,1302.362347,-1110.308913,10066.800811
208.638430,2528.115143,-0.000000,8734.430116
208.638738,2757.943793,962.267725,7994.224174
208.639046,3447.429741,1776.494261,7105.977043
208.639354,3830.477490,3256.906145,6365.771101
208.639662,4366.744339,3627.009116,5995.668130
208.639970,3524.039291,4441.235652,5847.626942
208.640278,3447.429741,4663.297435,5773.606348
208.640586,2681.334243,4293.194464,6809.894666
208.640894,1608.800546,3108.864956,8142.265362
208.641202,612.876398,1628.453072,9400.615463
208.641510,-766.095498,-0.000000,11103.089130
208.641818,-2298.286494,-1850.514855,12361.439231
208.642126,-2604.724693,-3034.844362,14063.912898
208.642434,-3217.601092,-3627.009116,15396.283594
208.642742,-3983.696590,-4663.297435,14730.098246
208.643050,-3140.991542,-4293.194464,14211.954086
208.643358,-1991.848295,-3330.926739,13397.727550
208.643666,-536.266849,-2368.659014,11621.233289
208.643974,1378.971896,-1258.350101,9992.780217
208.644282,2298.286494,444.123565,8068.244768
208.644590,3753.867940,1628.453072,7254.018232
208.644898,3907.087040,3108.864956,6587.832884
208.645206,4596.572988,3849.070898,5477.523971
208.645514,3983.696590,4663.297435,5107.421000
208.645822,3753.867940,4737.318029,5181.441594
208.646130,3064.381992,4441.235652,5847.626942
208.646438,2604.724693,3849.070898,6661.853478
208.646747,1762.019645,3034.844362,7328.038826
208.647055,1302.362347,1480.411884,9178.553681
208.647363,-842.705048,-148.041188,10214.842000
208.647671,-1762.019645,-1258.350101,11843.295072
208.647979,-2528.115143,-2664.741391,12879.583391
208.648287,-3370.820191,-3627.009116,13693.809927
208.648595,-3370.820191,-4219.173869,13989.892304
208.648903,-3064.381992,-3849.070898,14063.912898
208.649211,-2145.067394,-3775.050304,13619.789333
208.649519,-1225.752797,-2664.741391,12287.418637
208.649827,919.314598,-1184.329507,10658.965565
208.650135,1225.752797,-0.000000,9104.533087
208.650443,2604.724693,962.267725,8142.265362
208.650751,3140.991542,2294.638420,7402.059420
208.651059,3217.601092,3256.906145,6661.853478
208.651367,3983.696590,3997.112087,6069.688724
208.651675,3907.087040,4441.235652,5403.503377
208.651983,3524.039291,4145.153275,6365.771101
208.652291,2681.334243,3849.070898,6513.812290
208.652599,1532.190996,2960.823768,7105.977043
208.652907,306.438199,1258.350101,9030.512492
208.653215,-919.314598,-592.164754,10584.944971
208.653523,-2451.505594,-2368.659014,12287.418637
208.653831,-3677.258390,-4737.318029,13397.727550
208.654139,-3830.477490,-5107.421000,14434.015869
208.654447,-3524.039291,-5033.400406,14285.974681
208.654756,-2834.553343,-4293.194464,13915.871710
208.655064,-1838.629195,-3701.029710,12583.501014
208.655372,0.000000,-2368.659014,10955.047942
208.655680,1915.238745,-1110.308913,9400.615463
208.655988,2757.943793,370.102971,7402.059420
208.656296,3830.477490,1406.391290,7105.977043
208.656604,5056.230287,2368.659014,6291.750507
208.656912,4213.525239,3627.009116,5773.606348
208.657220,3907.087040,4293.194464,5847.626942
208.657528,3600.648841,4515.256246,5551.544565
208.657836,3064.381992,4515.256246,6365.771101
208.658144,2145.067394,3997.112087,6735.874072
208.658452,1532.190996,3404.947333,8216.285956
208.658760,229.828649,2146.597232,9474.636058
208.659068,-1302.362347,370.102971,10807.006753
208.659376,-2145.067394,-1036.288319,12287.418637
208.659684,-2987.772442,-2368.659014,13471.748144
208.659992,-2987.772442,-3182.885551,14359.995275
208.660300,-3294.210641,-3404.947333,14508.036463
208.660608,-2757.943793,-3478.967927,14211.954086
208.660916,-1838.629195,-3034.844362,13915.871710
208.661224,-76.609550,-1998.556043,12287.418637
208.661532,1532.190996,-666.185348,11177.109724
208.661840,2374.896044,370.102971,9474.636058
208.662148,3370.820191,1554.432478,8438.347739
208.662456,4443.353888,2812.782580,7179.997637
208.662765,4519.963438,4071.132681,6069.688724
208.663073,4366.744339,4663.297435,5699.585753
208.663381,4519.963438,4885.359217,5773.606348
208.663689,3294.210641,4589.276840,5995.668130
208.663997,2604.724693,4367.215058,6661.853478
208.664305,1608.800546,2960.823768,7624.121203
208.664613,536.266849,1406.391290,9474.636058
208.664921,-1149.143247,-592.164754,10732.986159
208.665229,-2374.896044,-2294.638420,12361.439231
208.665537,-3677.258390,-3997.112087,13767.830521
208.665845,-4443.353888,-5107.421000,14211.954086
208.666153,-4213.525239,-5551.544565,14359.995275
208.666461,-3907.087040,-5255.462188,13767.830521
208.666769,-1762.019645,-4737.318029,12879.583391
208.667077,-536.266849,-3404.947333,11177.109724
208.667385,1455.581446,-1628.453072,9252.574275
208.667693,2681.334243,-518.144159,7994.224174
208.668001,3830.477490,1036.288319,6809.894666
208.668309,4519.963438,1924.535449,5921.647536
208.668617,4903.011187,2812.782580,5329.482782
208.668925,4519.963438,3923.091493,5181.441594
208.669233,4060.306139,3997.112087,4663.297435
208.669541,3370.820191,3701.029710,5403.503377
208.669849,2451.505594,3404.947333,6291.750507
208.670157,1455.581446,2738.761985,6957.935855
208.670465,229.828649,1776.494261,8290.306550
208.670774,-229.828649,592.164754,9474.636058
208.671082,-1378.971896,-962.267725,11251.130318
208.671390,-2451.505594,-2294.638420,12361.439231
208.671698,-3064.381992,-3701.029710,13397.727550
208.672006,-3217.601092,-4219.173869,13989.892304
208.672314,-2834.553343,-4145.153275,13841.851115
208.672622,-2068.457845,-3478.967927,13471.748144
208.672930,-612.876398,-2812.782580,12435.459826
208.673238,1072.533697,-1480.411884,10881.027347
208.673546,1838.629195,-296.082377,9326.594869
208.673854,3447.429741,1406.391290,7994.224174
208.674162,4366.744339,2146.597232,7105.977043
208.674470,4519.963438,3478.967927,6291.750507
208.674778,4596.572988,4367.215058,5625.565159
208.675086,4213.525239,4811.338623,5551.544565
208.675394,3753.867940,4885.359217,5847.626942
208.675702,2911.162892,4663.297435,6365.771101
208.676010,1378.971896,2812.782580,8216.285956
208.676318,0.000000,1332.370696,9622.677246
208.676626,-1915.238745,-592.164754,10807.006753
208.676934,-3140.991542,-1924.535449,12509.480420
208.677242,-4060.306139,-3478.967927,14359.995275
208.677550,-4519.963438,-4367.215058,15026.180623
208.677858,-4519.963438,-4515.256246,14878.139434
208.678166,-2528.115143,-4145.153275,14285.974681
208.678475,-1991.848295,-2886.803174,13323.706956
208.678783,-459.657299,-2590.720797,12139.377449
208.679091,1149.143247,-1258.350101,10436.903782
208.679399,1991.848295,444.123565,8586.388927
208.679707,3524.039291,1184.329507,7698.141797
208.680015,4060.306139,2442.679609,6883.915261
208.680323,4443.353888,3034.844362,6069.688724
208.680631,4596.572988,3997.112087,6291.750507
208.680939,4290.134789,3997.112087,5033.400406
208.681247,3524.039291,4145.153275,5477.523971
208.681555,2757.943793,4293.194464,6883.915261
208.681863,1915.238745,3478.967927,7105.977043
208.682171,689.485948,2442.679609,8290.306550
208.682479,-153.219100,1258.350101,9474.636058
208.682787,-1378.971896,-148.041188,11103.089130
208.683095,-2145.067394,-1406.391290,12879.583391
208.683403,-2604.724693,-2886.803174,14285.974681
208.683711,-3064.381992,-3552.988522,14285.974681
208.684019,-2528.115143,-4441.235652,14211.954086
208.684327,-2528.115143,-4071.132681,13841.851115
208.684635,-1302.362347,-3108.864956,12879.583391
208.684943,0.000000,-2294.638420,11621.233289
208.685251,1685.410096,-962.267725,9548.656652
208.685559,2757.943793,-148.041188,8364.327145
208.685867,3983.696590,1480.411884,7550.100608
208.686175,4136.915689,2442.679609,5995.668130
208.686484,4826.401637,3997.112087,5625.565159
208.686792,4826.401637,4663.297435,5181.441594
208.687100,3983.696590,4959.379811,4811.338623
208.687408,3294.210641,4441.235652,5699.585753
208.687716,2374.896044,3627.009116,7254.018232
208.688024,536.266849,1998.556043,8512.368333
208.688332,-1225.752797,-0.000000,10362.883188
208.688640,-2374.896044,-2146.597232,11843.295072
208.688948,-3983.696590,-3108.864956,13175.665768
208.689256,-4673.182538,-4737.318029,14211.954086
208.689564,-4213.525239,-4959.379811,14582.057057
208.689872,-3830.477490,-4811.338623,13915.871710
208.690180,-2757.943793,-4219.173869,13101.645173
208.690488,-306.438199,-2812.782580,11769.274478
208.690796,1455.581446,-1776.494261,9844.739029
208.691104,2528.115143,-518.144159,8586.388927
208.691412,3370.820191,740.205942,7328.038826
208.691720,4290.134789,1702.473667,6809.894666
208.692028,4213.525239,2442.679609,6291.750507
208.692336,4060.306139,3182.885551,5625.565159
208.692644,3677.258390,3404.947333,5847.626942
208.692952,3064.381992,3849.070898,6143.709319
208.693260,2451.505594,3256.906145,6587.832884
208.693568,1378.971896,3330.926739,7624.121203
208.693876,1225.752797,2812.782580,7846.182985
208.694184,459.657299,1850.514855,8808.450710
208.694493,-229.828649,666.185348,9918.759623
208.694801,-1225.752797,-592.164754,11473.192101
208.695109,-2374.896044,-2294.638420,12361.439231
208.695417,-2604.724693,-3627.009116,14063.912898
208.695725,-3370.820191,-3997.112087,14211.954086
208.696033,-2451.505594,-4441.235652,14508.036463
208.696341,-1915.238745,-3701.029710,13693.809927
208.696649,-766.095498,-2664.741391,12731.542202
208.696957,766.095498,-1184.329507,10658.965565
208.697265,2221.676944,148.041188,9474.636058
208.697573,3600.648841,1628.453072,8216.285956
208.697881,4749.792088,3256.906145,7031.956449
208.698189,4903.011187,4145.153275,5921.647536
208.698497,4979.620737,5181.441594,5329.482782
208.698805,4443.353888,5033.400406,5551.544565
208.699113,3753.867940,5255.462188,5403.503377
208.699421,2451.505594,4441.235652,6735.874072
208.699729,919.314598,2886.803174,8512.368333
208.700037,-842.705048,888.247130,10140.821405
208.700345,-2528.115143,-1258.350101,11843.295072
208.700653,-3447.429741,-2960.823768,13767.830521
208.700961,-4213.525239,-4219.173869,14582.057057
208.701269,-4136.915689,-4811.338623,14508.036463
208.701577,-3600.648841,-4811.338623,14508.036463
208.701885,-2604.724693,-4367.215058,13619.789333
208.702193,-1072.533697,-3108.864956,12139.377449
208.702502,1072.533697,-1998.556043,10658.965565
208.702810,2374.896044,-518.144159,8808.450710
208.703118,2681.334243,666.185348,7846.182985
208.703426,4290.134789,1998.556043,7105.977043
208.703734,3907.087040,2738.761985,5847.626942
208.704042,4290.134789,3182.885551,5847.626942
208.704350,3753.867940,3775.050304,5921.647536
208.704658,2757.943793,3701.029710,5477.523971
208.704966,2834.553343,3701.029710,6587.832884
208.705274,1532.190996,3627.009116,6587.832884
208.705582,919.314598,3034.844362,7328.038826
208.705890,536.266849,1702.473667,8660.409521
208.706198,-766.095498,1036.288319,9622.677246
208.706506,-1762.019645,-1332.370696,12139.377449
208.706814,-2451.505594,-2590.720797,12657.521608
208.707122,-3294.210641,-3849.070898,14063.912898
208.707430,-3370.820191,-4589.276840,14508.036463
208.707738,-2451.505594,-4737.318029,14211.954086
208.708046,-2298.286494,-4071.132681,13619.789333
208.708354,-306.438199,-2886.803174,12213.398043
208.708662,612.876398,-1702.473667,10436.903782
208.708970,2221.676944,-0.000000,9104.533087
208.709278,2834.553343,888.247130,8068.244768
208.709586,4060.306139,2368.659014,6587.832884
208.709894,4519.963438,3775.050304,5625.565159
208.710202,4366.744339,4663.297435,5181.441594
208.710511,4826.401637,4737.318029,5255.462188
208.710819,3983.696590,5255.462188,5699.585753
208.711127,2528.115143,3849.070898,6439.791695
208.711435,842.705048,2886.803174,7550.100608
208.711743,-459.657299,1184.329507,9918.759623
208.712051,-2451.505594,-518.144159,11547.212695
208.712359,-3217.601092,-2220.617826,12805.562797
208.712667,-3677.258390,-3552.988522,13989.892304
208.712975,-4366.744339,-4219.173869,14285.974681
208.713283,-3294.210641,-4589.276840,14730.098246
208.713591,-2681.334243,-4145.153275,13841.851115
208.713899,-1532.190996,-3330.926739,12657.521608
208.714207,0.000000,-2220.617826,11325.150913
208.714515,1378.971896,-814.226536,9548.656652
208.714823,2834.553343,-0.000000,8586.388927
208.715131,3677.258390,1480.411884,7772.162391
208.715439,4290.134789,2220.617826,6587.832884
208.715747,4519.963438,3182.885551,6291.750507
208.716055,3753.867940,3997.112087,5699.585753
208.716363,3524.039291,3923.091493,5847.626942
208.716671,3294.210641,4367.215058,5773.606348
208.716979,2451.505594,4145.153275,6513.812290
208.717287,1762.019645,4145.153275,7254.018232
208.717595,1225.752797,2516.700203,7846.182985
208.717903,383.047749,1258.350101,9696.697840
208.718211,-612.876398,-518.144159,11177.109724
208.718520,-1991.848295,-1998.556043,12435.459826
208.718828,-2834.553343,-3701.029710,13989.892304
208.719136,-3217.601092,-4293.194464,14582.057057
208.719444,-3217.601092,-4219.173869,13915.871710
208.719752,-1915.238745,-4293.194464,14434.015869
208.720060,-153.219100,-3775.050304,13249.686362
208.720368,-459.657299,-1998.556043,10288.862594
208.720676,2374.896044,-1184.329507,10140.821405
208.720984,3524.039291,148.041188,7846.182985
208.721292,3907.087040,1924.535449,7328.038826
208.721600,4443.353888,3404.947333,6513.812290
208.721908,4673.182538,4515.256246,5181.441594
208.722216,4366.744339,4663.297435,5181.441594
208.722524,3447.429741,5181.441594,5847.626942
208.722832,2681.334243,4737.318029,6291.750507
208.723140,1149.143247,3034.844362,7994.224174
208.723448,0.000000,1702.473667,9178.553681
208.723756,-1762.019645,148.041188,10955.047942
208.724064,-2911.162892,-1776.494261,12583.501014
208.724372,-3524.039291,-2960.823768,13545.768739
208.724680,-3830.477490,-3552.988522,13175.665768
208.724988,-3830.477490,-4219.173869,14063.912898
208.725296,-2374.896044,-4145.153275,13841.851115
208.725604,-995.924147,-3478.967927,12435.459826
208.725912,-306.438199,-2442.679609,11843.295072
208.726220,1072.533697,-1406.391290,9548.656652
208.726529,2221.676944,-370.102971,8734.430116
208.726837,2834.553343,444.123565,7920.203579
208.727145,3447.429741,1110.308913,7105.977043
208.727453,3677.258390,2294.638420,6735.874072
208.727761,3830.477490,3034.844362,5921.647536
208.728069,3217.601092,2812.782580,5699.585753
208.728377,2604.724693,3923.091493,6217.729913
208.728685,2374.896044,4145.153275,6365.771101
208.728993,1838.629195,3775.050304,6883.915261
208.729301,1455.581446,3034.844362,7476.080014
208.729609,766.095498,1480.411884,9030.512492
208.729917,-1072.533697,-148.041188,10881.027347
208.730225,-1608.800546,-2072.576638,12287.418637
208.730533,-2987.772442,-4219.173869,13915.871710
208.730841,-3600.648841,-4737.318029,14434.015869
208.731149,-3447.429741,-5033.400406,14656.077652
208.731457,-2451.505594,-4885.359217,14285.974681
208.731765,-1072.533697,-3552.988522,13027.624579
208.732073,76.609550,-2294.638420,11177.109724
208.732381,2374.896044,-370.102971,9326.594869
208.732689,3600.648841,814.226536,7994.224174
208.732997,4290.134789,2146.597232,6809.894666
208.733305,4979.620737,4145.153275,5995.668130
208.733613,4979.620737,4885.359217,4959.379811
208.733921,4366.744339,5477.523971,4959.379811
208.734229,3753.867940,5107.421000,5551.544565
208.734538,2681.334243,4589.276840,6291.750507
208.734846,1072.533697,3182.885551,7698.141797
208.735154,-383.047749,1480.411884,9400.615463
208.735462,-1991.848295,-370.102971,11547.212695
208.735770,-3447.429741,-1628.453072,12657.521608
208.736078,-4213.525239,-3256.906145,13471.748144
208.736386,-4213.525239,-3997.112087,13915.871710
208.736694,-3753.867940,-4071.132681,13989.892304
208.737002,-3140.991542,-3627.009116,13767.830521
208.737310,-2145.067394,-3627.009116,12509.480420
208.737618,-153.219100,-2368.659014,11695.253884
208.737926,1302.362347,-1480.411884,9992.780217
208.738234,2298.286494,-518.144159,8734.430116
208.738542,2987.772442,-0.000000,8068.244768
208.738850,2987.772442,1110.308913,7476.080014
208.739158,3600.648841,1998.556043,6883.915261
208.739466,3907.087040,2738.761985,6735.874072
208.739774,3830.477490,3627.009116,5773.606348
208.740082,2681.334243,3997.112087,5699.585753
208.740390,2987.772442,4071.132681,6217.729913
208.740698,2298.286494,4219.173869,6587.832884
208.741006,1302.362347,3256.906145,7328.038826
208.741314,76.609550,1924.535449,8956.491898
208.741622,-1072.533697,-0.000000,10881.027347
208.741930,-2451.505594,-2146.597232,12361.439231
208.742238,-3064.381992,-3478.967927,14285.974681
208.742546,-3524.039291,-4367.215058,14582.057057
208.742854,-3370.820191,-4737.318029,14878.139434
208.743162,-2911.162892,-4589.276840,14582.057057
208.743471,-1149.143247,-3775.050304,13693.809927
208.743779,383.047749,-2294.638420,11473.192101
208.744087,2221.676944,-222.061783,9178.553681
208.744395,4673.182538,962.267725,7624.121203
208.744703,5286.058936,2368.659014,6439.791695
208.745011,5669.106685,3701.029710,5921.647536
208.745319,5592.497135,4737.318029,4737.318029
208.745627,4903.011187,5329.482782,4737.318029
208.745935,4060.306139,5107.421000,5403.503377
208.746243,2834.553343,4515.256246,6217.729913
208.746551,1149.143247,3404.947333,7846.182985
208.746859,-153.219100,1480.411884,9696.697840
208.747167,-2221.676944,-296.082377,11103.089130
208.747475,-3217.601092,-1998.556043,12953.603985
208.747783,-4519.963438,-3478.967927,13841.851115
208.748091,-4443.353888,-4219.173869,14211.954086
208.748399,-4060.306139,-4737.318029,14211.954086
208.748707,-3370.820191,-4737.318029,13989.892304
208.749015,-2145.067394,-3552.988522,12805.562797
208.749323,153.219100,-2960.823768,12065.356855
208.749631,1302.362347,-1406.391290,10288.862594
208.749939,2298.286494,-0.000000,8808.450710
208.750247,3830.477490,296.082377,7254.018232
208.750555,4136.915689,1258.350101,6809.894666
208.750863,4060.306139,2146.597232,6217.729913
208.751171,4136.915689,2812.782580,5625.565159
208.751479,3600.648841,3552.988522,5181.441594
208.751787,3217.601092,4071.132681,5329.482782
208.752095,2911.162892,4145.153275,5995.668130
208.752403,2298.286494,3997.112087,6143.709319
208.752711,2068.457845,3404.947333,7328.038826
208.753019,536.266849,2220.617826,8734.430116
208.753327,-919.314598,296.082377,10510.924376
208.753635,-2451.505594,-1554.432478,12509.480420
208.753943,-3370.820191,-3404.947333,14137.933492
208.754251,-3830.477490,-4737.318029,14656.077652
208.754559,-4060.306139,-5477.523971,15470.304188
208.754867,-2987.772442,-4589.276840,15470.304188
208.755175,-1762.019645,-4515.256246,14137.933492
208.755483,0.000000,-2738.761985,12139.377449
208.755792,1685.410096,-1110.308913,9696.697840
208.756100,3217.601092,962.267725,8364.327145
208.756408,5056.230287,2368.659014,7105.977043
208.756716,5669.106685,4071.132681,5699.585753
208.757024,6281.983084,5107.421000,5107.421000
208.757332,5822.325785,5477.523971,4515.256246
208.757640,4826.401637,5847.626942,5107.421000
208.757948,3294.210641,5033.400406,6069.688724
208.758256,1991.848295,3849.070898,7328.038826
208.758564,-306.438199,2294.638420,9178.553681
208.758872,-1915.238745,296.082377,10955.047942
208.759180,-2987.772442,-1480.411884,12731.542202
208.759488,-4596.572988,-3034.844362,13767.830521
208.759796,-4673.182538,-3923.091493,14434.015869
208.760104,-4443.353888,-4293.194464,14285.974681
208.760412,-3524.039291,-4367.215058,14285.974681
208.760720,-2374.896044,-3701.029710,13619.789333
208.761028,-689.485948,-2738.761985,12213.398043
208.761336,1532.190996,-2072.576638,10807.006753
208.761644,1838.629195,-888.247130,9252.574275
208.761952,3370.820191,-74.020594,7846.182985
208.762260,3600.648841,962.267725,6957.935855
208.762568,4060.306139,1776.494261,6291.750507
208.762876,3830.477490,2590.720797,5699.585753
208.763184,3983.696590,3404.947333,5107.421000
208.763492,3447.429741,4145.153275,4959.379811
208.763800,3830.477490,3923.091493,5773.606348
208.764108,2911.162892,4145.153275,6217.729913
208.764416,1838.629195,3478.967927,6809.894666
208.764724,383.047749,1850.514855,8142.265362
208.765032,-689.485948,518.144159,9918.759623
208.765340,-1991.848295,-1184.329507,12065.356855
208.765648,-3294.210641,-3404.947333,13545.768739
208.765956,-4213.525239,-4663.297435,14878.139434
208.766264,-4213.525239,-5477.523971,14656.077652
208.766572,-3217.601092,-5625.565159,15100.201217
208.766880,-2681.334243,-4737.318029,14063.912898
208.767188,-689.485948,-3404.947333,12287.418637
208.767496,1532.190996,-1258.350101,10214.842000
208.767804,3294.210641,296.082377,8364.327145
208.768113,4596.572988,2220.617826,7105.977043
208.768421,5669.106685,3701.029710,5847.626942
208.768729,6052.154434,4737.318029,4885.359217
208.769037,5822.325785,5403.503377,4367.215058
208.769345,4519.963438,5477.523971,5033.400406
208.769653,3294.210641,4959.379811,5847.626942
