#time,accel_x,accel_y,accel_z
149.670074,2451.505594,-666.185348,9400.615463
149.670382,2911.162892,-592.164754,9474.636058
149.670690,2681.334243,-592.164754,9474.636058
149.670998,2757.943793,-222.061783,9548.656652
149.671306,3140.991542,-148.041188,9474.636058
149.671614,3294.210641,-0.000000,9104.533087
149.671922,3677.258390,296.082377,9326.594869
149.672230,3600.648841,-0.000000,9400.615463
149.672539,3600.648841,518.144159,9474.636058
149.672847,3753.867940,518.144159,8956.491898
149.673155,3907.087040,1110.308913,8734.430116
149.673463,3447.429741,1406.391290,8882.471304
149.673771,3524.039291,1406.391290,9030.512492
149.674079,3370.820191,1554.432478,8882.471304
149.674387,2911.162892,962.267725,9030.512492
149.674695,2451.505594,814.226536,9474.636058
149.675003,2528.115143,370.102971,10436.903782
149.675311,1838.629195,-222.061783,11029.068536
149.675619,1455.581446,-666.185348,10881.027347
149.675927,1072.533697,-1036.288319,11103.089130
149.676235,1072.533697,-962.267725,11695.253884
149.676543,1685.410096,-814.226536,11251.130318
149.676851,1838.629195,-370.102971,10584.944971
149.677159,2298.286494,-148.041188,10140.821405
149.677467,2451.505594,-222.061783,9770.718434
149.677775,2911.162892,296.082377,9474.636058
149.678083,3294.210641,518.144159,9104.533087
149.678391,3370.820191,222.061783,8734.430116
149.678699,3370.820191,370.102971,8586.388927
149.679007,3370.820191,296.082377,8882.471304
149.679315,3524.039291,-0.000000,9030.512492
149.679623,3064.381992,222.061783,9178.553681
149.679931,3447.429741,-0.000000,9030.512492
149.680240,2911.162892,-296.082377,9030.512492
149.680548,2987.772442,-74.020594,9326.594869
149.680856,3140.991542,296.082377,9030.512492
149.681164,3140.991542,370.102971,9104.533087
149.681472,3600.648841,518.144159,9104.533087
149.681780,3370.820191,296.082377,9400.615463
149.682088,3983.696590,-0.000000,9474.636058
149.682396,3217.601092,370.102971,9696.697840
149.682704,3677.258390,-148.041188,9400.615463
149.683012,3294.210641,222.061783,9548.656652
149.683320,2911.162892,296.082377,9770.718434
149.683628,2987.772442,222.061783,9622.677246
149.683936,3217.601092,296.082377,9548.656652
149.684244,2987.772442,666.185348,9548.656652
149.684552,3140.991542,444.123565,9474.636058
149.684860,3600.648841,1184.329507,9548.656652
149.685168,3140.991542,1184.329507,9252.574275
149.685476,2681.334243,1554.432478,9474.636058
149.685784,2604.724693,1480.411884,9622.677246
149.686092,2068.457845,1406.391290,9474.636058
149.686400,1762.019645,1258.350101,9844.739029
149.686708,612.876398,1184.329507,10066.800811
149.687016,1455.581446,518.144159,10436.903782
149.687324,842.705048,740.205942,10140.821405
149.687632,383.047749,740.205942,10140.821405
149.687940,76.609550,296.082377,10362.883188
149.688249,0.000000,-0.000000,10510.924376
149.688557,-306.438199,-0.000000,10436.903782
149.688865,-306.438199,-0.000000,10288.862594
149.689173,-459.657299,-444.123565,10658.965565
149.689481,-306.438199,-296.082377,10362.883188
149.689789,-153.219100,-296.082377,10140.821405
149.690097,0.000000,-1258.350101,9918.759623
149.690405,0.000000,-814.226536,9696.697840
149.690713,-229.828649,-888.247130,9770.718434
149.691021,229.828649,-1036.288319,9548.656652
149.691329,459.657299,-962.267725,9178.553681
149.691637,842.705048,-1110.308913,9178.553681
149.691945,919.314598,-148.041188,8956.491898
149.692253,995.924147,-1184.329507,8660.409521
149.692561,1762.019645,-666.185348,9178.553681
149.692869,1532.190996,-518.144159,9178.553681
149.693177,1762.019645,-518.144159,9030.512492
149.693485,1608.800546,-370.102971,9178.553681
149.693793,2451.505594,-444.123565,9178.553681
149.694101,1991.848295,-666.185348,9326.594869
149.694409,1455.581446,-296.082377,9474.636058
149.694717,1838.629195,-370.102971,9474.636058
149.695025,766.095498,-148.041188,9326.594869
149.695333,995.924147,-0.000000,9770.718434
149.695641,842.705048,-0.000000,9696.697840
149.695950,1149.143247,296.082377,9844.739029
149.696258,1149.143247,518.144159,9696.697840
149.696566,1378.971896,1332.370696,9326.594869
149.696874,1762.019645,1776.494261,9474.636058
149.697182,1991.848295,1924.535449,8956.491898
149.697490,1838.629195,2590.720797,8956.491898
149.697798,1915.238745,2738.761985,8734.430116
149.698106,1685.410096,2886.803174,8808.450710
149.698414,1532.190996,2812.782580,8882.471304
149.698722,1302.362347,2368.659014,9178.553681
149.699030,842.705048,1776.494261,9770.718434
149.699338,612.876398,1036.288319,9844.739029
149.699646,-153.219100,518.144159,9696.697840
149.699954,-689.485948,-0.000000,10807.006753
149.700262,-1225.752797,-592.164754,10807.006753
149.700570,-1532.190996,-740.205942,11103.089130
149.700878,-1608.800546,-1184.329507,11103.089130
149.701186,-1378.971896,-1406.391290,11029.068536
149.701494,-1455.581446,-1332.370696,11399.171507
149.701802,-1378.971896,-1628.453072,11029.068536
149.702110,-995.924147,-1258.350101,11029.068536
149.702418,-919.314598,-1702.473667,10436.903782
149.702726,-229.828649,-1258.350101,9622.677246
149.703034,153.219100,-1184.329507,9400.615463
149.703342,383.047749,-962.267725,8956.491898
149.703651,689.485948,-1258.350101,8512.368333
149.703959,1608.800546,-666.185348,8142.265362
149.704267,1762.019645,-592.164754,7920.203579
149.704575,2145.067394,-370.102971,8068.244768
149.704883,2221.676944,-0.000000,7846.182985
149.705191,2374.896044,592.164754,7772.162391
149.705499,2298.286494,740.205942,8068.244768
149.705807,2068.457845,740.205942,8216.285956
149.706115,1915.238745,1184.329507,8956.491898
149.706423,1455.581446,518.144159,8882.471304
149.706731,766.095498,148.041188,9770.718434
149.707039,153.219100,-0.000000,9992.780217
149.707347,-229.828649,-74.020594,10584.944971
149.707655,-766.095498,-0.000000,11251.130318
149.707963,-766.095498,-0.000000,11547.212695
149.708271,-612.876398,-0.000000,11103.089130
149.708579,-536.266849,-0.000000,10732.986159
149.708887,229.828649,814.226536,10807.006753
149.709195,842.705048,1184.329507,10584.944971
149.709503,919.314598,1258.350101,9844.739029
149.709811,842.705048,1776.494261,9474.636058
149.710119,1225.752797,1998.556043,9178.553681
149.710427,1225.752797,2146.597232,9030.512492
149.710735,1302.362347,1702.473667,9178.553681
149.711043,1455.581446,1554.432478,9252.574275
149.711352,536.266849,1110.308913,9178.553681
149.711660,383.047749,888.247130,9326.594869
149.711968,-306.438199,296.082377,9696.697840
149.712276,-459.657299,-222.061783,9992.780217
149.712584,-306.438199,-444.123565,10140.821405
149.712892,-383.047749,-740.205942,9992.780217
149.713200,-536.266849,-1184.329507,10140.821405
149.713508,-1072.533697,-1406.391290,10288.862594
149.713816,-612.876398,-1702.473667,10362.883188
149.714124,-459.657299,-1702.473667,10436.903782
149.714432,229.828649,-1406.391290,10362.883188
149.714740,153.219100,-2146.597232,9770.718434
149.715048,383.047749,-1628.453072,9992.780217
149.715356,842.705048,-1480.411884,9696.697840
149.715664,1072.533697,-1184.329507,9548.656652
149.715972,1685.410096,-814.226536,9104.533087
149.716280,2068.457845,-814.226536,8660.409521
149.716588,2528.115143,-74.020594,9400.615463
149.716896,2681.334243,-0.000000,8808.450710
149.717204,2757.943793,592.164754,8586.388927
149.717512,2987.772442,1554.432478,8216.285956
149.717820,2911.162892,1628.453072,8290.306550
149.718128,2911.162892,1850.514855,8438.347739
149.718436,3140.991542,1628.453072,9178.553681
149.718744,2221.676944,1406.391290,9326.594869
149.719053,1378.971896,1184.329507,9474.636058
149.719361,919.314598,740.205942,9992.780217
149.719669,689.485948,962.267725,10288.862594
149.719977,459.657299,1036.288319,10362.883188
149.720285,689.485948,1036.288319,10214.842000
149.720593,766.095498,1480.411884,10066.800811
149.720901,1225.752797,1184.329507,10288.862594
149.721209,1302.362347,1480.411884,9992.780217
149.721517,2068.457845,2072.576638,9918.759623
149.721825,1455.581446,1702.473667,9770.718434
149.722133,1685.410096,1924.535449,9400.615463
149.722441,1225.752797,1924.535449,9548.656652
149.722749,1072.533697,1628.453072,9326.594869
149.723057,536.266849,1036.288319,9474.636058
149.723365,536.266849,222.061783,9622.677246
149.723673,0.000000,-370.102971,9992.780217
149.723981,-766.095498,-962.267725,10066.800811
149.724289,-766.095498,-1554.432478,10732.986159
149.724597,-1072.533697,-1406.391290,10362.883188
149.724905,-1455.581446,-1850.514855,10140.821405
149.725213,-766.095498,-1628.453072,10066.800811
149.725521,-689.485948,-1480.411884,9844.739029
149.725829,-383.047749,-1184.329507,9918.759623
149.726137,459.657299,-1628.453072,9770.718434
149.726446,-306.438199,-1702.473667,9400.615463
149.726754,0.000000,-1554.432478,9030.512492
149.727062,0.000000,-1480.411884,9104.533087
149.727370,766.095498,-1184.329507,8882.471304
149.727678,842.705048,-666.185348,8660.409521
149.727986,1149.143247,-296.082377,8364.327145
149.728294,919.314598,-518.144159,8290.306550
149.728602,1685.410096,-74.020594,8808.450710
149.728910,2068.457845,74.020594,8586.388927
149.729218,1838.629195,518.144159,8660.409521
149.729526,1455.581446,666.185348,8512.368333
149.729834,1225.752797,1036.288319,9030.512492
149.730142,1225.752797,1110.308913,9474.636058
149.730450,536.266849,1258.350101,9844.739029
149.730758,153.219100,888.247130,10362.883188
149.731066,-306.438199,1110.308913,10807.006753
149.731374,-306.438199,666.185348,10955.047942
149.731682,-612.876398,814.226536,11177.109724
149.731990,-383.047749,666.185348,10881.027347
149.732298,-153.219100,888.247130,10510.924376
149.732606,229.828649,962.267725,10510.924376
149.732914,612.876398,1258.350101,10288.862594
149.733222,995.924147,1406.391290,9696.697840
149.733530,1225.752797,1628.453072,9622.677246
149.733838,1378.971896,1406.391290,9696.697840
149.734147,1072.533697,1628.453072,9622.677246
149.734455,1072.533697,1406.391290,9474.636058
149.734763,842.705048,1406.391290,9474.636058
149.735071,459.657299,1110.308913,9326.594869
149.735379,306.438199,222.061783,9548.656652
149.735687,0.000000,-0.000000,9696.697840
149.735995,0.000000,-296.082377,10362.883188
149.736303,-459.657299,-814.226536,10214.842000
149.736611,-459.657299,-962.267725,10362.883188
149.736919,-766.095498,-1184.329507,10066.800811
149.737227,-536.266849,-1480.411884,10362.883188
149.737535,-689.485948,-1554.432478,10362.883188
149.737843,-612.876398,-1480.411884,10066.800811
149.738151,-153.219100,-1554.432478,10584.944971
149.738459,-153.219100,-1332.370696,10140.821405
149.738767,536.266849,-1554.432478,10140.821405
149.739075,0.000000,-740.205942,9918.759623
149.739383,919.314598,-740.205942,9252.574275
149.739691,1225.752797,-370.102971,8956.491898
149.739999,1762.019645,-0.000000,8956.491898
149.740307,2374.896044,592.164754,8808.450710
149.740615,2528.115143,666.185348,8068.244768
149.740923,2451.505594,740.205942,8438.347739
149.741231,1991.848295,1480.411884,8290.306550
149.741539,2374.896044,1554.432478,8142.265362
149.741848,2145.067394,1480.411884,8660.409521
149.742156,2068.457845,1480.411884,8586.388927
149.742464,1532.190996,1110.308913,9178.553681
149.742772,1455.581446,1110.308913,9696.697840
149.743080,1378.971896,888.247130,10288.862594
149.743388,1072.533697,592.164754,10140.821405
149.743696,766.095498,666.185348,10140.821405
149.744004,995.924147,962.267725,10214.842000
149.744312,689.485948,666.185348,10436.903782
149.744620,1149.143247,888.247130,10436.903782
149.744928,1149.143247,962.267725,10436.903782
149.745236,995.924147,962.267725,9918.759623
149.745544,1225.752797,1258.350101,9918.759623
149.745852,842.705048,1184.329507,9696.697840
149.746160,1685.410096,1258.350101,9548.656652
149.746468,1072.533697,962.267725,9474.636058
149.746776,842.705048,888.247130,9474.636058
149.747084,306.438199,370.102971,9548.656652
149.747392,0.000000,-0.000000,9622.677246
149.747700,-383.047749,-592.164754,9696.697840
149.748008,-612.876398,-888.247130,9992.780217
149.748316,-536.266849,-888.247130,9844.739029
149.748624,0.000000,-740.205942,9918.759623
149.748932,-306.438199,-888.247130,9844.739029
149.749240,-459.657299,-814.226536,9696.697840
149.749549,0.000000,-1036.288319,9622.677246
149.749857,-383.047749,-1036.288319,9474.636058
149.750165,229.828649,-1332.370696,9474.636058
149.750473,995.924147,-814.226536,9252.574275
149.750781,229.828649,-1036.288319,9178.553681
149.751089,995.924147,-740.205942,8956.491898
149.751397,1149.143247,-444.123565,8734.430116
149.751705,1532.190996,-222.061783,8734.430116
149.752013,1532.190996,-222.061783,8882.471304
149.752321,1532.190996,-0.000000,8734.430116
149.752629,1838.629195,-0.000000,8882.471304
149.752937,1149.143247,740.205942,9030.512492
149.753245,1149.143247,814.226536,9030.512492
149.753553,1762.019645,444.123565,9178.553681
149.753861,1149.143247,888.247130,9474.636058
149.754169,995.924147,962.267725,9918.759623
149.754477,689.485948,962.267725,9992.780217
149.754785,229.828649,518.144159,10214.842000
149.755093,306.438199,592.164754,10584.944971
149.755401,153.219100,592.164754,10362.883188
149.755709,0.000000,888.247130,10362.883188
149.756017,536.266849,1110.308913,10584.944971
149.756325,383.047749,888.247130,10436.903782
149.756633,306.438199,962.267725,10288.862594
149.756941,842.705048,1184.329507,10288.862594
149.757250,536.266849,1332.370696,9918.759623
149.757558,229.828649,1406.391290,9992.780217
149.757866,919.314598,1184.329507,9992.780217
149.758174,383.047749,1258.350101,9918.759623
149.758482,306.438199,888.247130,9548.656652
149.758790,153.219100,592.164754,9474.636058
149.759098,0.000000,518.144159,9770.718434
149.759406,0.000000,296.082377,9474.636058
149.759714,-536.266849,296.082377,9474.636058
149.760022,-383.047749,-222.061783,9548.656652
149.760330,-1302.362347,-444.123565,9474.636058
149.760638,-306.438199,-666.185348,9696.697840
149.760946,-842.705048,-888.247130,9622.677246
149.761254,-766.095498,-888.247130,9992.780217
149.761562,-1072.533697,-1110.308913,9992.780217
149.761870,-536.266849,-1258.350101,9918.759623
149.762178,-459.657299,-1184.329507,10066.800811
149.762486,-383.047749,-1110.308913,10066.800811
149.762794,153.219100,-1480.411884,10362.883188
149.763102,689.485948,-1184.329507,9548.656652
149.763410,459.657299,-1110.308913,9252.574275
149.763718,1149.143247,-666.185348,9178.553681
149.764026,1608.800546,-222.061783,9178.553681
149.764334,1838.629195,-0.000000,8660.409521
149.764642,2221.676944,740.205942,8512.368333
149.764951,2374.896044,740.205942,8438.347739
149.765259,2451.505594,1258.350101,9030.512492
149.765567,1685.410096,962.267725,8956.491898
149.765875,1762.019645,1184.329507,8956.491898
149.766183,1225.752797,1332.370696,9400.615463
149.766491,995.924147,1258.350101,9770.718434
149.766799,1072.533697,962.267725,9918.759623
149.767107,919.314598,888.247130,9770.718434
149.767415,689.485948,1110.308913,9992.780217
149.767723,1072.533697,1036.288319,10066.800811
149.768031,1225.752797,666.185348,9770.718434
149.768339,995.924147,1036.288319,9992.780217
149.768647,1072.533697,1332.370696,9844.739029
149.768955,1149.143247,1110.308913,9622.677246
149.769263,1072.533697,1258.350101,9474.636058
149.769571,1302.362347,1184.329507,9474.636058
149.769879,842.705048,814.226536,9696.697840
149.770187,919.314598,592.164754,9474.636058
149.770495,76.609550,148.041188,9696.697840
149.770803,-153.219100,-518.144159,10066.800811
149.771111,-919.314598,-222.061783,9992.780217
149.771419,-612.876398,-592.164754,10066.800811
149.771727,-919.314598,-740.205942,10140.821405
149.772035,-766.095498,-1110.308913,9844.739029
149.772344,-229.828649,-666.185348,10066.800811
149.772652,-153.219100,-814.226536,9474.636058
149.772960,153.219100,-296.082377,9918.759623
149.773268,306.438199,-740.205942,9400.615463
149.773576,459.657299,-518.144159,9252.574275
149.773884,842.705048,-666.185348,9030.512492
149.774192,995.924147,-962.267725,9104.533087
149.774500,842.705048,-962.267725,8882.471304
149.774808,1455.581446,-1036.288319,8808.450710
149.775116,1991.848295,-592.164754,8660.409521
149.775424,1838.629195,-592.164754,9030.512492
149.775732,1378.971896,-296.082377,8586.388927
149.776040,1455.581446,-0.000000,8882.471304
149.776348,1838.629195,444.123565,8734.430116
149.776656,1915.238745,740.205942,8956.491898
149.776964,1455.581446,962.267725,8882.471304
149.777272,1455.581446,888.247130,9474.636058
149.777580,1685.410096,814.226536,9918.759623
149.777888,1072.533697,592.164754,9992.780217
149.778196,766.095498,740.205942,10362.883188
149.778504,76.609550,740.205942,10732.986159
149.778812,0.000000,444.123565,10955.047942
149.779120,0.000000,666.185348,10881.027347
149.779428,0.000000,592.164754,10288.862594
149.779736,459.657299,740.205942,10510.924376
149.780045,842.705048,370.102971,9992.780217
149.780353,1302.362347,1036.288319,9992.780217
149.780661,995.924147,1406.391290,9622.677246
149.780969,1302.362347,1554.432478,9474.636058
149.781277,1149.143247,1776.494261,9548.656652
149.781585,919.314598,1850.514855,9252.574275
149.781893,1072.533697,1258.350101,9548.656652
149.782201,995.924147,888.247130,9252.574275
149.782509,612.876398,1110.308913,9474.636058
149.782817,76.609550,518.144159,9548.656652
149.783125,0.000000,222.061783,9622.677246
149.783433,-612.876398,-148.041188,9770.718434
149.783741,-766.095498,-666.185348,9918.759623
149.784049,-995.924147,-888.247130,9992.780217
149.784357,-995.924147,-1332.370696,10436.903782
149.784665,-689.485948,-1776.494261,10807.006753
149.784973,-842.705048,-1776.494261,10658.965565
149.785281,-919.314598,-1776.494261,10658.965565
149.785589,-536.266849,-1702.473667,10362.883188
149.785897,-383.047749,-1480.411884,10140.821405
149.786205,0.000000,-1184.329507,9992.780217
149.786513,306.438199,-1036.288319,9622.677246
149.786821,612.876398,-1110.308913,9252.574275
149.787129,1225.752797,-962.267725,9474.636058
149.787437,1302.362347,-666.185348,8956.491898
149.787746,1532.190996,148.041188,8734.430116
149.788054,1685.410096,666.185348,8290.306550
149.788362,2068.457845,1184.329507,8068.244768
149.788670,2451.505594,1554.432478,7846.182985
149.788978,2298.286494,1776.494261,7846.182985
149.789286,2374.896044,1480.411884,7772.162391
149.789594,2298.286494,1554.432478,8586.388927
149.789902,1915.238745,1184.329507,9326.594869
149.790210,1225.752797,962.267725,9474.636058
149.790518,842.705048,888.247130,9844.739029
149.790826,612.876398,814.226536,9992.780217
149.791134,536.266849,666.185348,10214.842000
149.791442,459.657299,518.144159,10362.883188
149.791750,383.047749,-0.000000,10140.821405
149.792058,919.314598,-222.061783,10436.903782
149.792366,153.219100,-0.000000,10436.903782
149.792674,536.266849,592.164754,10214.842000
149.792982,612.876398,666.185348,10140.821405
149.793290,459.657299,666.185348,10140.821405
149.793598,459.657299,518.144159,9918.759623
149.793906,536.266849,370.102971,9918.759623
149.794214,-306.438199,222.061783,10140.821405
149.794522,76.609550,-0.000000,10066.800811
149.794830,-536.266849,-222.061783,9992.780217
149.795138,-459.657299,-1110.308913,9770.718434
149.795447,-383.047749,-444.123565,9474.636058
149.795755,-383.047749,-222.061783,9474.636058
149.796063,0.000000,-296.082377,9474.636058
149.796371,383.047749,-296.082377,9104.533087
149.796679,536.266849,-444.123565,9400.615463
149.796987,306.438199,-592.164754,8438.347739
149.797295,459.657299,-518.144159,9104.533087
149.797603,919.314598,-592.164754,9400.615463
149.797911,995.924147,-814.226536,9326.594869
149.798219,842.705048,-592.164754,9178.553681
149.798527,1149.143247,-296.082377,8956.491898
149.798835,1455.581446,-296.082377,9030.512492
149.799143,1608.800546,-222.061783,9252.574275
149.799451,1685.410096,-148.041188,9326.594869
149.799759,1685.410096,-0.000000,9252.574275
149.800067,1991.848295,222.061783,9252.574275
149.800375,1685.410096,370.102971,9326.594869
149.800683,1685.410096,814.226536,9696.697840
149.800991,1225.752797,1036.288319,9918.759623
149.801299,1072.533697,888.247130,10140.821405
149.801607,689.485948,666.185348,10436.903782
149.801915,766.095498,1332.370696,10288.862594
149.802223,1149.143247,518.144159,10436.903782
149.802531,459.657299,814.226536,10510.924376
149.802839,689.485948,888.247130,10584.944971
149.803148,689.485948,888.247130,10214.842000
149.803456,919.314598,1036.288319,10288.862594
149.803764,842.705048,1406.391290,9918.759623
149.804072,1608.800546,1258.350101,9696.697840
149.804380,1455.581446,1776.494261,9474.636058
149.804688,1302.362347,1258.350101,9252.574275
149.804996,1225.752797,1850.514855,9326.594869
149.805304,919.314598,1554.432478,9104.533087
149.805612,536.266849,1406.391290,9178.553681
149.805920,229.828649,1184.329507,9252.574275
149.806228,0.000000,592.164754,9474.636058
149.806536,0.000000,-0.000000,9548.656652
149.806844,-229.828649,-444.123565,10288.862594
149.807152,-689.485948,-592.164754,10658.965565
149.807460,-842.705048,-1110.308913,10510.924376
149.807768,-1225.752797,-1406.391290,10584.944971
149.808076,-1149.143247,-1628.453072,10584.944971
149.808384,-1149.143247,-1628.453072,10658.965565
149.808692,-919.314598,-1702.473667,10214.842000
149.809000,0.000000,-1850.514855,10066.800811
149.809308,-229.828649,-1628.453072,9622.677246
149.809616,153.219100,-1628.453072,9622.677246
149.809924,306.438199,-1184.329507,9252.574275
149.810232,766.095498,-962.267725,9104.533087
149.810540,1149.143247,-518.144159,9030.512492
149.810849,1378.971896,-296.082377,8660.409521
149.811147,2145.067394,-0.000000,8216.285956
149.811455,2451.505594,444.123565,7920.203579
149.811763,2834.553343,962.267725,7772.162391
149.812071,2528.115143,1554.432478,7994.224174
149.812379,2681.334243,1998.556043,7994.224174
149.812687,2298.286494,1554.432478,8068.244768
149.812995,1991.848295,1406.391290,8586.388927
149.813303,1455.581446,1480.411884,9474.636058
149.813610,1455.581446,888.247130,9696.697840
149.813918,919.314598,592.164754,9992.780217
149.814226,842.705048,444.123565,10214.842000
149.814534,76.609550,296.082377,10658.965565
149.814842,0.000000,444.123565,10881.027347
149.815150,153.219100,370.102971,10955.047942
149.815458,76.609550,444.123565,10955.047942
149.815766,229.828649,518.144159,10584.944971
149.816073,383.047749,296.082377,10214.842000
149.816381,689.485948,222.061783,10140.821405
149.816689,766.095498,888.247130,10362.883188
149.816997,1378.971896,740.205942,9400.615463
149.817305,536.266849,1036.288319,9400.615463
149.817613,383.047749,962.267725,9178.553681
149.817921,153.219100,740.205942,9474.636058
149.818229,0.000000,444.123565,9474.636058
149.818536,-153.219100,-0.000000,9400.615463
149.818844,0.000000,-444.123565,9548.656652
149.819152,0.000000,-518.144159,9770.718434
149.819460,0.000000,-814.226536,9474.636058
149.819768,-153.219100,-814.226536,9548.656652
149.820076,-153.219100,-518.144159,9474.636058
149.820384,153.219100,-740.205942,9400.615463
149.820692,229.828649,-740.205942,9400.615463
149.820999,689.485948,-666.185348,9622.677246
149.821307,536.266849,-666.185348,9770.718434
149.821615,766.095498,-1332.370696,9474.636058
149.821923,612.876398,-1184.329507,9030.512492
149.822231,766.095498,-666.185348,9178.553681
149.822539,1072.533697,-518.144159,9252.574275
149.822847,1302.362347,-222.061783,9400.615463
149.823155,1455.581446,-0.000000,9178.553681
149.823462,1685.410096,-74.020594,8956.491898
149.823770,1378.971896,296.082377,9178.553681
149.824078,1378.971896,666.185348,9548.656652
149.824386,1378.971896,962.267725,9474.636058
149.824694,1455.581446,814.226536,9622.677246
149.825002,689.485948,962.267725,9770.718434
149.825310,459.657299,666.185348,9844.739029
149.825618,459.657299,814.226536,10510.924376
149.825925,229.828649,740.205942,10658.965565
149.826233,0.000000,666.185348,10362.883188
149.826541,229.828649,592.164754,10214.842000
149.826849,1455.581446,962.267725,9770.718434
149.827157,1072.533697,1480.411884,9696.697840
149.827465,1302.362347,1628.453072,9474.636058
149.827773,1378.971896,1480.411884,9474.636058
149.828081,1455.581446,1628.453072,9400.615463
149.828388,995.924147,1406.391290,9474.636058
149.828696,383.047749,814.226536,9400.615463
149.829004,536.266849,1258.350101,9696.697840
149.829312,76.609550,370.102971,9474.636058
149.829620,0.000000,222.061783,9474.636058
149.829928,-383.047749,148.041188,9918.759623
149.830236,-536.266849,-0.000000,9992.780217
149.830544,-995.924147,-592.164754,10140.821405
149.830851,-1302.362347,-666.185348,10362.883188
149.831159,-459.657299,-888.247130,10510.924376
149.831467,-612.876398,-1554.432478,10362.883188
149.831775,-306.438199,-1480.411884,10362.883188
149.832083,-459.657299,-1258.350101,10214.842000
149.832391,0.000000,-1184.329507,9918.759623
149.832699,76.609550,-1332.370696,9770.718434
149.833007,306.438199,-1406.391290,9696.697840
149.833314,306.438199,-1258.350101,9474.636058
149.833622,1072.533697,-1184.329507,9548.656652
149.833930,1838.629195,-1184.329507,8734.430116
149.834238,1532.190996,-888.247130,8290.306550
149.834546,2145.067394,-0.000000,8808.450710
149.834854,2604.724693,888.247130,8512.368333
149.835162,2604.724693,1036.288319,8290.306550
149.835470,2757.943793,1480.411884,7994.224174
149.835777,1991.848295,1850.514855,8660.409521
149.836085,2374.896044,1998.556043,8660.409521
149.836393,2298.286494,1332.370696,8882.471304
149.836701,1915.238745,1184.329507,9326.594869
149.837009,995.924147,1258.350101,9622.677246
149.837317,536.266849,962.267725,9992.780217
149.837625,459.657299,518.144159,10510.924376
149.837933,229.828649,222.061783,10881.027347
149.838240,-229.828649,-0.000000,10807.006753
149.838548,153.219100,-74.020594,10584.944971
149.838856,0.000000,-0.000000,10658.965565
149.839164,229.828649,666.185348,10436.903782
149.839472,919.314598,962.267725,10066.800811
149.839780,1302.362347,1184.329507,9548.656652
149.840088,1455.581446,1184.329507,9622.677246
149.840396,995.924147,1702.473667,9400.615463
149.840703,1302.362347,1332.370696,9400.615463
149.841011,919.314598,1258.350101,9030.512492
149.841319,536.266849,1036.288319,9326.594869
149.841627,0.000000,444.123565,9474.636058
149.841935,-229.828649,148.041188,9474.636058
149.842243,-306.438199,-296.082377,9696.697840
149.842551,-689.485948,-592.164754,10066.800811
149.842859,-1149.143247,-962.267725,9992.780217
149.843166,-995.924147,-1110.308913,10214.842000
149.843474,-1149.143247,-1406.391290,10288.862594
149.843782,-306.438199,-1184.329507,10288.862594
149.844090,153.219100,-1110.308913,9844.739029
149.844398,0.000000,-1036.288319,9696.697840
149.844706,0.000000,-1184.329507,9770.718434
149.845014,76.609550,-1110.308913,9770.718434
149.845321,229.828649,-888.247130,9400.615463
149.845629,536.266849,-1036.288319,8808.450710
149.845937,1149.143247,-444.123565,9326.594869
149.846245,383.047749,-0.000000,9474.636058
149.846553,1302.362347,-148.041188,9178.553681
149.846861,1455.581446,370.102971,8882.471304
149.847169,1685.410096,666.185348,8882.471304
149.847477,1608.800546,962.267725,8882.471304
149.847784,1532.190996,1184.329507,8956.491898
149.848092,1302.362347,1258.350101,8882.471304
149.848400,919.314598,1258.350101,9326.594869
149.848708,1302.362347,814.226536,9770.718434
149.849016,919.314598,1628.453072,10140.821405
149.849324,689.485948,1184.329507,9844.739029
149.849632,612.876398,1258.350101,9992.780217
149.849940,919.314598,1184.329507,9992.780217
149.850247,919.314598,1036.288319,10214.842000
149.850555,919.314598,814.226536,10288.862594
149.850863,536.266849,740.205942,10066.800811
149.851171,306.438199,518.144159,9770.718434
149.851479,536.266849,814.226536,10214.842000
149.851787,229.828649,962.267725,10140.821405
149.852095,536.266849,814.226536,9770.718434
149.852403,76.609550,444.123565,9770.718434
149.852710,689.485948,666.185348,9696.697840
149.853018,229.828649,296.082377,9548.656652
149.853326,612.876398,148.041188,9696.697840
149.853634,0.000000,-0.000000,9696.697840
149.853942,-306.438199,-0.000000,9548.656652
149.854250,-229.828649,-148.041188,9622.677246
149.854558,-612.876398,-444.123565,9918.759623
149.854866,-612.876398,-666.185348,10140.821405
149.855173,-459.657299,-1184.329507,9992.780217
149.855481,-766.095498,-1110.308913,10288.862594
149.855789,-689.485948,-1332.370696,10066.800811
149.856097,306.438199,-1332.370696,10066.800811
149.856405,383.047749,-1036.288319,10140.821405
149.856713,612.876398,-888.247130,9474.636058
149.857021,995.924147,-592.164754,9178.553681
149.857329,1302.362347,-148.041188,8956.491898
149.857636,1915.238745,-0.000000,8734.430116
149.857944,1608.800546,-0.000000,8512.368333
149.858252,2451.505594,-0.000000,8068.244768
149.858560,2528.115143,814.226536,8216.285956
149.858868,2451.505594,814.226536,8142.265362
149.859176,2221.676944,1036.288319,8512.368333
149.859484,2145.067394,962.267725,8882.471304
149.859792,1762.019645,888.247130,9104.533087
149.860099,1838.629195,740.205942,9326.594869
149.860407,995.924147,592.164754,9770.718434
149.860715,1378.971896,592.164754,10288.862594
149.861023,536.266849,296.082377,10510.924376
149.861331,612.876398,444.123565,10510.924376
149.861639,1072.533697,740.205942,10214.842000
149.861947,919.314598,592.164754,10140.821405
149.862255,1072.533697,518.144159,10140.821405
149.862562,1455.581446,814.226536,10214.842000
149.862870,1685.410096,814.226536,9548.656652
149.863178,1762.019645,1258.350101,9770.718434
149.863486,1302.362347,1406.391290,9474.636058
149.863794,1149.143247,1258.350101,9474.636058
149.864102,1149.143247,1258.350101,9474.636058
149.864410,995.924147,1184.329507,9326.594869
149.864718,612.876398,1110.308913,9252.574275
149.865025,766.095498,444.123565,9622.677246
149.865333,153.219100,-0.000000,9474.636058
149.865641,-229.828649,-222.061783,9770.718434
149.865949,-919.314598,-592.164754,9696.697840
149.866257,-689.485948,-740.205942,9992.780217
149.866565,-919.314598,-962.267725,10362.883188
149.866873,-919.314598,-962.267725,10584.944971
149.867181,-766.095498,-1480.411884,10362.883188
149.867488,-842.705048,-1480.411884,9918.759623
149.867796,0.000000,-1110.308913,10288.862594
149.868104,-383.047749,-1480.411884,9844.739029
149.868412,536.266849,-1554.432478,9770.718434
149.868720,536.266849,-740.205942,9400.615463
149.869028,919.314598,-592.164754,8808.450710
149.869336,1072.533697,-0.000000,9030.512492
149.869644,1378.971896,-0.000000,8882.471304
149.869951,1915.238745,148.041188,8734.430116
149.870259,1685.410096,666.185348,8512.368333
149.870567,1532.190996,740.205942,8734.430116
149.870875,1532.190996,888.247130,9178.553681
149.871183,1378.971896,888.247130,8956.491898
149.871491,1149.143247,962.267725,9326.594869
149.871799,1072.533697,888.247130,9326.594869
149.872107,689.485948,962.267725,9696.697840
149.872414,1072.533697,1110.308913,9918.759623
149.872722,612.876398,814.226536,10140.821405
149.873030,229.828649,592.164754,10362.883188
149.873338,689.485948,444.123565,10362.883188
149.873646,536.266849,814.226536,10214.842000
149.873954,612.876398,666.185348,10288.862594
149.874262,612.876398,740.205942,9992.780217
149.874570,995.924147,1110.308913,9918.759623
149.874877,1455.581446,1110.308913,9992.780217
149.875185,1072.533697,740.205942,9474.636058
149.875493,842.705048,1036.288319,9992.780217
149.875801,229.828649,444.123565,9844.739029
149.876109,76.609550,592.164754,9622.677246
149.876417,0.000000,444.123565,9770.718434
149.876725,-383.047749,370.102971,9622.677246
149.877033,-229.828649,222.061783,9548.656652
149.877340,-383.047749,296.082377,9770.718434
149.877648,306.438199,-296.082377,9696.697840
149.877956,-1455.581446,-0.000000,10140.821405
149.878264,-459.657299,-592.164754,9992.780217
149.878572,-842.705048,-666.185348,10066.800811
149.878880,-995.924147,-1110.308913,10140.821405
149.879188,-689.485948,-962.267725,10140.821405
149.879496,-459.657299,-1406.391290,10066.800811
149.879803,-306.438199,-1110.308913,10140.821405
149.880111,229.828649,-1258.350101,10140.821405
149.880419,0.000000,-1332.370696,9992.780217
149.880727,229.828649,-962.267725,9622.677246
149.881035,689.485948,-518.144159,9326.594869
149.881343,1225.752797,-74.020594,9104.533087
149.881651,1991.848295,-0.000000,8734.430116
149.881959,2068.457845,518.144159,8586.388927
149.882266,2451.505594,518.144159,8364.327145
149.882574,2528.115143,1554.432478,8290.306550
149.882882,2374.896044,1258.350101,8512.368333
149.883190,2528.115143,1554.432478,8586.388927
149.883498,2221.676944,1406.391290,8882.471304
149.883806,1762.019645,1110.308913,9104.533087
149.884114,1455.581446,888.247130,9622.677246
149.884422,1225.752797,592.164754,10066.800811
149.884729,536.266849,296.082377,10214.842000
149.885037,995.924147,222.061783,10510.924376
149.885345,689.485948,222.061783,10362.883188
149.885653,689.485948,296.082377,9918.759623
149.885961,1072.533697,740.205942,9770.718434
149.886269,1072.533697,814.226536,9844.739029
149.886577,1378.971896,1036.288319,9696.697840
149.886885,1302.362347,814.226536,9548.656652
149.887192,1455.581446,814.226536,9474.636058
149.887500,1532.190996,888.247130,9178.553681
149.887808,919.314598,592.164754,9474.636058
149.888116,306.438199,296.082377,9622.677246
149.888424,0.000000,296.082377,9474.636058
149.888732,-229.828649,-74.020594,9770.718434
149.889040,-612.876398,-518.144159,9770.718434
149.889347,-536.266849,-592.164754,9844.739029
149.889655,-536.266849,-666.185348,9622.677246
149.889963,-536.266849,-592.164754,9548.656652
149.890271,-306.438199,-962.267725,9770.718434
149.890579,0.000000,-666.185348,9548.656652
149.890887,76.609550,-592.164754,9474.636058
149.891195,306.438199,-518.144159,9400.615463
149.891503,229.828649,-888.247130,9326.594869
149.891810,229.828649,-888.247130,9400.615463
149.892118,689.485948,-814.226536,9252.574275
149.892426,842.705048,-740.205942,9104.533087
149.892734,1455.581446,-1036.288319,9178.553681
149.893042,995.924147,-296.082377,9104.533087
149.893350,1225.752797,-296.082377,8734.430116
149.893658,1225.752797,296.082377,9104.533087
149.893966,1455.581446,370.102971,8734.430116
149.894273,1685.410096,1110.308913,9252.574275
149.894581,1991.848295,814.226536,9326.594869
149.894889,1838.629195,1036.288319,9474.636058
149.895197,919.314598,1480.411884,9548.656652
149.895505,842.705048,962.267725,9770.718434
149.895813,842.705048,814.226536,10214.842000
149.896121,306.438199,814.226536,10510.924376
149.896429,153.219100,740.205942,10732.986159
149.896736,536.266849,592.164754,10584.944971
149.897044,459.657299,814.226536,10288.862594
149.897352,1225.752797,1036.288319,10362.883188
149.897660,995.924147,1332.370696,10214.842000
149.897968,1378.971896,1258.350101,9918.759623
149.898276,1302.362347,1332.370696,9696.697840
149.898584,1455.581446,1184.329507,9474.636058
149.898892,919.314598,1258.350101,9622.677246
149.899199,842.705048,518.144159,9770.718434
149.899507,1072.533697,962.267725,9696.697840
149.899815,306.438199,444.123565,9326.594869
149.900123,-459.657299,148.041188,9622.677246
149.900431,-536.266849,-0.000000,9770.718434
149.900739,-995.924147,-0.000000,9992.780217
149.901047,-842.705048,-148.041188,10140.821405
149.901355,-919.314598,-518.144159,10140.821405
149.901662,-995.924147,-814.226536,10288.862594
149.901970,-995.924147,-1110.308913,10362.883188
149.902278,-612.876398,-1184.329507,9992.780217
149.902586,0.000000,-888.247130,10436.903782
149.902894,-459.657299,-1110.308913,10066.800811
149.903202,-459.657299,-962.267725,9918.759623
149.903510,-153.219100,-1184.329507,9548.656652
149.903818,76.609550,-814.226536,9474.636058
149.904125,383.047749,-740.205942,9326.594869
149.904433,229.828649,-888.247130,8956.491898
149.904741,1762.019645,-740.205942,8808.450710
149.905049,1915.238745,-74.020594,8734.430116
149.905357,1762.019645,222.061783,8586.388927
149.905665,2145.067394,962.267725,8290.306550
149.905973,2145.067394,1184.329507,8216.285956
149.906281,2221.676944,1628.453072,8216.285956
149.906588,2221.676944,1850.514855,8586.388927
149.906896,1838.629195,1554.432478,8660.409521
149.907204,1378.971896,1184.329507,9178.553681
149.907512,842.705048,1110.308913,9770.718434
149.907820,766.095498,740.205942,9918.759623
149.908128,383.047749,370.102971,10066.800811
149.908436,459.657299,296.082377,10362.883188
149.908744,383.047749,148.041188,10214.842000
149.909051,689.485948,-0.000000,10584.944971
149.909359,536.266849,-0.000000,10732.986159
149.909667,612.876398,-0.000000,10436.903782
149.909975,919.314598,296.082377,10510.924376
149.910283,1072.533697,666.185348,9918.759623
149.910591,1072.533697,740.205942,9918.759623
149.910899,842.705048,888.247130,9548.656652
149.911207,766.095498,740.205942,9622.677246
149.911515,612.876398,444.123565,9622.677246
149.911823,306.438199,222.061783,9474.636058
149.912130,0.000000,-0.000000,9474.636058
149.912438,-459.657299,-0.000000,9844.739029
149.912746,-459.657299,-0.000000,9622.677246
149.913054,-459.657299,-74.020594,9252.574275
149.913362,-536.266849,-148.041188,9400.615463
149.913670,-459.657299,-222.061783,9548.656652
149.913978,0.000000,-370.102971,9992.780217
149.914286,306.438199,-666.185348,9622.677246
149.914594,0.000000,-370.102971,9622.677246
149.914902,229.828649,-666.185348,9844.739029
149.915209,383.047749,-592.164754,9548.656652
149.915517,306.438199,-740.205942,9696.697840
149.915825,766.095498,-740.205942,9474.636058
149.916133,612.876398,-740.205942,9326.594869
149.916441,1072.533697,-740.205942,9400.615463
149.916749,1455.581446,-444.123565,9104.533087
149.917057,2068.457845,-444.123565,9474.636058
149.917365,1302.362347,-222.061783,9104.533087
149.917673,1532.190996,518.144159,8956.491898
149.917981,1455.581446,888.247130,9326.594869
149.918289,1608.800546,1036.288319,9548.656652
149.918596,1455.581446,1332.370696,9548.656652
149.918904,1378.971896,1258.350101,9844.739029
149.919212,1072.533697,740.205942,10066.800811
149.919520,1302.362347,888.247130,9844.739029
149.919828,689.485948,666.185348,10066.800811
149.920136,842.705048,814.226536,10214.842000
149.920444,842.705048,814.226536,10066.800811
149.920752,1072.533697,888.247130,9992.780217
149.921060,1225.752797,1184.329507,9770.718434
149.921368,1225.752797,1036.288319,9918.759623
149.921675,1455.581446,1702.473667,9770.718434
149.921983,1455.581446,1480.411884,9474.636058
149.922291,919.314598,1036.288319,9622.677246
149.922599,842.705048,888.247130,9770.718434
149.922907,536.266849,962.267725,9548.656652
149.923215,76.609550,444.123565,9770.718434
149.923523,0.000000,-0.000000,10288.862594
149.923831,-383.047749,-0.000000,10066.800811
149.924139,-459.657299,-222.061783,9992.780217
149.924447,-306.438199,-518.144159,10066.800811
149.924755,-1302.362347,-296.082377,9622.677246
149.925062,-995.924147,-962.267725,9918.759623
149.925370,-766.095498,-888.247130,9918.759623
149.925678,-689.485948,-1036.288319,9918.759623
149.925986,-306.438199,-1184.329507,10066.800811
149.926294,-766.095498,-1258.350101,10214.842000
149.926602,229.828649,-888.247130,9992.780217
149.926910,0.000000,-1184.329507,9696.697840
149.927218,306.438199,-666.185348,9770.718434
149.927526,536.266849,-592.164754,9474.636058
149.927834,766.095498,-592.164754,8956.491898
149.928141,1455.581446,-370.102971,8734.430116
149.928449,1532.190996,-0.000000,8660.409521
149.928757,2145.067394,-148.041188,8216.285956
149.929065,2451.505594,222.061783,8290.306550
149.929373,2298.286494,1554.432478,8216.285956
149.929681,2451.505594,1332.370696,7994.224174
149.929989,2145.067394,1628.453072,8438.347739
149.930297,1838.629195,1702.473667,8808.450710
149.930605,1532.190996,1628.453072,9030.512492
149.930913,919.314598,1036.288319,9400.615463
149.931221,919.314598,592.164754,9844.739029
149.931528,536.266849,444.123565,10288.862594
149.931836,306.438199,-0.000000,10658.965565
149.932144,0.000000,148.041188,10807.006753
149.932452,0.000000,-148.041188,10807.006753
149.932760,229.828649,-0.000000,10732.986159
149.933068,306.438199,-0.000000,10732.986159
149.933376,919.314598,-0.000000,10362.883188
149.933684,919.314598,666.185348,10140.821405
149.933992,1225.752797,814.226536,9770.718434
149.934300,689.485948,888.247130,9770.718434
149.934607,919.314598,1110.308913,9474.636058
149.934915,612.876398,1258.350101,9104.533087
149.935223,459.657299,1036.288319,9104.533087
149.935531,229.828649,592.164754,9178.553681
149.935839,0.000000,592.164754,9474.636058
149.936147,-229.828649,-0.000000,9696.697840
149.936455,-459.657299,-148.041188,9918.759623
149.936763,-1072.533697,-148.041188,9918.759623
149.937071,-536.266849,-592.164754,9548.656652
149.937379,-459.657299,-666.185348,9622.677246
149.937687,-306.438199,-814.226536,9622.677246
149.937994,0.000000,-962.267725,9474.636058
149.938302,-612.876398,-1036.288319,9474.636058
149.938610,0.000000,-814.226536,9770.718434
149.938918,459.657299,-666.185348,10140.821405
149.939226,383.047749,-1184.329507,9844.739029
149.939534,-153.219100,-666.185348,10140.821405
149.939842,536.266849,-962.267725,9622.677246
149.940150,612.876398,-518.144159,9696.697840
149.940458,842.705048,-370.102971,9474.636058
149.940766,1838.629195,-0.000000,9696.697840
149.941073,1608.800546,-0.000000,9252.574275
149.941381,1838.629195,370.102971,8882.471304
149.941689,1838.629195,666.185348,8512.368333
149.941997,1991.848295,1406.391290,9030.512492
149.942305,1915.238745,1332.370696,9030.512492
149.942613,1685.410096,1628.453072,8956.491898
149.942921,1762.019645,1554.432478,9178.553681
149.943229,1915.238745,1554.432478,9252.574275
149.943537,1302.362347,1406.391290,9622.677246
149.943845,1455.581446,740.205942,9474.636058
149.944152,1532.190996,888.247130,10214.842000
149.944460,919.314598,888.247130,9696.697840
149.944768,842.705048,1036.288319,10288.862594
149.945076,919.314598,666.185348,10140.821405
149.945384,689.485948,666.185348,9992.780217
149.945692,919.314598,296.082377,10362.883188
149.946000,459.657299,370.102971,10066.800811
149.946308,689.485948,222.061783,10288.862594
149.946616,-689.485948,518.144159,10214.842000
149.946924,-306.438199,222.061783,10288.862594
149.947232,-612.876398,74.020594,10066.800811
149.947539,-689.485948,-0.000000,10140.821405
149.947847,-689.485948,-296.082377,9992.780217
149.948155,-842.705048,-740.205942,10214.842000
149.948463,-919.314598,-740.205942,9918.759623
149.948771,-995.924147,-1258.350101,9770.718434
149.949079,0.000000,-814.226536,10140.821405
149.949387,-229.828649,-888.247130,9844.739029
149.949695,153.219100,-740.205942,9622.677246
149.950003,306.438199,-592.164754,9474.636058
149.950311,229.828649,-592.164754,9252.574275
149.950618,919.314598,-740.205942,9548.656652
149.950926,919.314598,-888.247130,9178.553681
149.951234,1302.362347,-740.205942,8808.450710
149.951542,1302.362347,-666.185348,8586.388927
149.951850,1762.019645,-222.061783,8660.409521
149.952158,2068.457845,222.061783,8364.327145
149.952466,2145.067394,666.185348,8364.327145
149.952774,2374.896044,814.226536,8068.244768
149.953082,2528.115143,1480.411884,8364.327145
149.953390,2298.286494,1332.370696,8438.347739
149.953698,1838.629195,1036.288319,8956.491898
149.954005,1532.190996,1110.308913,9400.615463
149.954313,766.095498,740.205942,9770.718434
149.954621,459.657299,296.082377,10362.883188
149.954929,0.000000,-0.000000,10584.944971
149.955237,-153.219100,-0.000000,11029.068536
149.955545,0.000000,-222.061783,11399.171507
149.955853,612.876398,-222.061783,11029.068536
149.956161,919.314598,-0.000000,10807.006753
149.956469,842.705048,370.102971,10732.986159
149.956777,919.314598,592.164754,10066.800811
149.957084,1149.143247,1184.329507,9548.656652
149.957392,1762.019645,1332.370696,9474.636058
149.957700,1455.581446,1850.514855,8882.471304
149.958008,1302.362347,1998.556043,9104.533087
149.958316,612.876398,1702.473667,8956.491898
149.958624,383.047749,1406.391290,8808.450710
149.958932,536.266849,1036.288319,9252.574275
149.959240,0.000000,666.185348,9326.594869
149.959548,-383.047749,148.041188,9474.636058
149.959856,-536.266849,-74.020594,9770.718434
149.960164,-612.876398,-592.164754,9918.759623
149.960471,-689.485948,-740.205942,10214.842000
149.960779,-306.438199,-666.185348,10436.903782
149.961087,-612.876398,-740.205942,10510.924376
149.961395,-919.314598,-1480.411884,9918.759623
149.961703,-536.266849,-1406.391290,10066.800811
149.962011,-459.657299,-1332.370696,10140.821405
149.962319,-306.438199,-1406.391290,10362.883188
149.962627,-306.438199,-1332.370696,10362.883188
149.962935,306.438199,-1628.453072,9992.780217
149.963243,76.609550,-814.226536,9696.697840
149.963550,306.438199,-814.226536,9252.574275
149.963858,1378.971896,-666.185348,9252.574275
149.964166,1991.848295,-148.041188,9030.512492
149.964474,1991.848295,518.144159,8512.368333
149.964782,2221.676944,962.267725,8142.265362
149.965090,2451.505594,1332.370696,7994.224174
149.965398,2604.724693,1480.411884,8142.265362
149.965706,2834.553343,1332.370696,8512.368333
149.966014,2068.457845,1554.432478,8512.368333
149.966322,1838.629195,1406.391290,8882.471304
149.966630,1302.362347,1702.473667,9474.636058
149.966937,1225.752797,1184.329507,9622.677246
149.967245,766.095498,962.267725,9918.759623
149.967553,689.485948,1036.288319,10066.800811
149.967861,459.657299,666.185348,10362.883188
149.968169,612.876398,592.164754,10807.006753
149.968477,76.609550,518.144159,10732.986159
149.968785,306.438199,444.123565,10288.862594
149.969093,306.438199,592.164754,10362.883188
149.969401,383.047749,740.205942,10362.883188
149.969709,153.219100,592.164754,10362.883188
149.970016,459.657299,296.082377,10362.883188
149.970324,-306.438199,222.061783,10510.924376
149.970632,-689.485948,-0.000000,10288.862594
149.970940,-1072.533697,-444.123565,10436.903782
149.971248,-689.485948,-222.061783,10066.800811
149.971556,-689.485948,-370.102971,9918.759623
149.971864,-766.095498,-74.020594,9696.697840
149.972172,-536.266849,-444.123565,9622.677246
149.972480,-536.266849,-666.185348,9696.697840
149.972788,-153.219100,-1036.288319,9770.718434
149.973095,0.000000,-666.185348,9474.636058
149.973403,153.219100,-740.205942,9400.615463
149.973711,153.219100,-666.185348,9474.636058
149.974019,306.438199,-962.267725,9178.553681
149.974327,536.266849,-592.164754,9400.615463
149.974635,766.095498,-740.205942,8956.491898
149.974943,1302.362347,-740.205942,8808.450710
149.975251,1072.533697,-814.226536,8734.430116
149.975559,1225.752797,-74.020594,9030.512492
149.975867,1838.629195,148.041188,8586.388927
149.976175,1838.629195,518.144159,8512.368333
149.976482,2221.676944,1036.288319,8290.306550
149.976790,1991.848295,1184.329507,8586.388927
149.977098,1838.629195,1184.329507,8734.430116
149.977406,1608.800546,962.267725,9178.553681
149.977714,1378.971896,814.226536,9696.697840
149.978022,1072.533697,222.061783,10214.842000
149.978330,383.047749,296.082377,10510.924376
149.978638,229.828649,-74.020594,10807.006753
149.978946,229.828649,-0.000000,10881.027347
149.979254,383.047749,-0.000000,10658.965565
149.979561,383.047749,-0.000000,10584.944971
149.979869,229.828649,148.041188,10362.883188
149.980177,1149.143247,592.164754,10214.842000
149.980485,1915.238745,888.247130,9474.636058
149.980793,1838.629195,1480.411884,9474.636058
149.981101,1915.238745,1924.535449,8882.471304
149.981409,1838.629195,1776.494261,8808.450710
149.981717,1378.971896,1702.473667,9030.512492
149.982025,919.314598,1628.453072,8882.471304
149.982333,612.876398,666.185348,9326.594869
149.982641,0.000000,666.185348,9548.656652
149.982948,-459.657299,148.041188,9992.780217
149.983256,-766.095498,-74.020594,9918.759623
149.983564,-766.095498,-370.102971,9770.718434
149.983872,-689.485948,-740.205942,9992.780217
149.984180,-995.924147,-740.205942,10214.842000
149.984488,-383.047749,-1036.288319,10362.883188
149.984796,-153.219100,-1110.308913,10436.903782
149.985104,-1072.533697,-1332.370696,10140.821405
149.985412,-306.438199,-1406.391290,10584.944971
149.985720,-459.657299,-1702.473667,10214.842000
149.986027,-153.219100,-1628.453072,9992.780217
149.986335,153.219100,-1332.370696,9918.759623
149.986643,842.705048,-888.247130,9474.636058
149.986951,1072.533697,-666.185348,9178.553681
149.987259,1455.581446,-518.144159,8808.450710
149.987567,2068.457845,296.082377,8734.430116
149.987875,2451.505594,592.164754,8290.306550
149.988183,2145.067394,1110.308913,7698.141797
149.988491,2528.115143,1406.391290,7772.162391
149.988799,2528.115143,1628.453072,8142.265362
149.989107,2298.286494,1554.432478,8290.306550
149.989414,1762.019645,1480.411884,8660.409521
149.989722,1532.190996,1184.329507,9622.677246
149.990030,766.095498,888.247130,9918.759623
149.990338,459.657299,296.082377,10066.800811
149.990646,536.266849,814.226536,10732.986159
149.990954,306.438199,814.226536,10510.924376
149.991262,306.438199,592.164754,10362.883188
149.991570,766.095498,518.144159,10584.944971
149.991878,383.047749,370.102971,10510.924376
149.992186,459.657299,222.061783,10362.883188
149.992493,459.657299,666.185348,10436.903782
149.992801,1072.533697,666.185348,10140.821405
149.993109,229.828649,592.164754,9844.739029
149.993417,306.438199,666.185348,10288.862594
149.993725,0.000000,888.247130,10140.821405
149.994033,-306.438199,370.102971,10140.821405
149.994341,-229.828649,518.144159,9844.739029
149.994649,-153.219100,296.082377,9918.759623
149.994957,-995.924147,-222.061783,9844.739029
149.995265,153.219100,-0.000000,9622.677246
149.995573,0.000000,-0.000000,9400.615463
149.995880,-306.438199,-0.000000,9400.615463
149.996188,-383.047749,-370.102971,9770.718434
149.996496,-306.438199,-592.164754,9696.697840
149.996804,-459.657299,-1036.288319,9770.718434
149.997112,-383.047749,-1258.350101,9992.780217
149.997420,-536.266849,-1184.329507,9844.739029
149.997728,229.828649,-1184.329507,9918.759623
149.998036,0.000000,-666.185348,9696.697840
149.998344,383.047749,-740.205942,9326.594869
149.998652,919.314598,-592.164754,9030.512492
149.998959,1225.752797,-444.123565,8734.430116
149.999267,1915.238745,-0.000000,8956.491898
149.999575,1685.410096,148.041188,8364.327145
149.999883,2374.896044,814.226536,8438.347739
150.000191,1991.848295,1332.370696,8808.450710
150.000499,1991.848295,1702.473667,8734.430116
150.000807,1532.190996,1184.329507,8734.430116
150.001115,1378.971896,740.205942,9178.553681
150.001423,1072.533697,888.247130,9474.636058
150.001731,995.924147,814.226536,9918.759623
150.002038,229.828649,370.102971,10214.842000
150.002346,459.657299,-74.020594,10362.883188
150.002654,612.876398,-0.000000,10807.006753
150.002962,459.657299,-0.000000,10658.965565
150.003270,459.657299,-0.000000,10362.883188
150.003578,689.485948,444.123565,10140.821405
150.003886,995.924147,740.205942,9918.759623
150.004194,919.314598,518.144159,9474.636058
150.004502,1149.143247,962.267725,9474.636058
150.004810,2221.676944,1258.350101,9474.636058
150.005118,1149.143247,1332.370696,9326.594869
150.005425,766.095498,1184.329507,9104.533087
150.005733,766.095498,1110.308913,9104.533087
150.006041,306.438199,814.226536,9178.553681
150.006349,153.219100,592.164754,9400.615463
150.006657,76.609550,-74.020594,9548.656652
150.006965,0.000000,-592.164754,9548.656652
150.007273,-229.828649,-666.185348,9474.636058
150.007581,-306.438199,-666.185348,9992.780217
150.007889,-383.047749,-888.247130,10362.883188
150.008197,0.000000,-888.247130,10066.800811
150.008504,0.000000,-962.267725,9992.780217
150.008812,-153.219100,-962.267725,9992.780217
150.009120,306.438199,-1702.473667,9992.780217
150.009428,766.095498,-1406.391290,10066.800811
150.009736,1225.752797,-1036.288319,10214.842000
150.010044,995.924147,-962.267725,9178.553681
150.010352,1455.581446,-666.185348,9252.574275
150.010660,1608.800546,-740.205942,9178.553681
150.010968,1608.800546,-74.020594,8586.388927
150.011276,1991.848295,-0.000000,8882.471304
150.011584,2374.896044,592.164754,8364.327145
150.011892,2221.676944,1184.329507,8808.450710
150.012200,2451.505594,1110.308913,8586.388927
150.012508,2221.676944,1332.370696,8290.306550
150.012816,1838.629195,1628.453072,8956.491898
150.013124,1455.581446,1628.453072,9104.533087
150.013432,1302.362347,1406.391290,9474.636058
150.013740,919.314598,1184.329507,9696.697840
150.014048,995.924147,296.082377,10140.821405
150.014356,995.924147,1036.288319,10066.800811
150.014664,612.876398,592.164754,10140.821405
150.014972,766.095498,592.164754,10732.986159
150.015281,689.485948,962.267725,10584.944971
150.015589,766.095498,592.164754,10436.903782
150.015897,766.095498,740.205942,10214.842000
150.016205,689.485948,740.205942,10214.842000
150.016513,766.095498,1036.288319,10362.883188
150.016821,459.657299,814.226536,10066.800811
150.017129,0.000000,370.102971,9844.739029
150.017437,0.000000,296.082377,10288.862594
150.017745,-459.657299,592.164754,10066.800811
150.018053,-612.876398,222.061783,9844.739029
150.018361,-536.266849,-0.000000,10066.800811
150.018669,-766.095498,-148.041188,9770.718434
150.018977,-766.095498,-592.164754,9918.759623
150.019285,-536.266849,-666.185348,9844.739029
150.019593,-306.438199,-518.144159,10066.800811
150.019901,-689.485948,-592.164754,10288.862594
150.020210,-229.828649,-1332.370696,9548.656652
150.020518,-536.266849,-962.267725,9844.739029
150.020826,0.000000,-1184.329507,9548.656652
150.021134,153.219100,-1110.308913,9474.636058
150.021442,0.000000,-888.247130,9400.615463
150.021750,995.924147,-888.247130,9474.636058
150.022058,612.876398,-592.164754,8882.471304
150.022366,1149.143247,-148.041188,8956.491898
150.022674,1225.752797,370.102971,8438.347739
150.022982,1991.848295,370.102971,8142.265362
150.023290,1838.629195,814.226536,8216.285956
150.023598,1762.019645,1184.329507,8142.265362
150.023906,1838.629195,1480.411884,8882.471304
150.024214,1455.581446,1110.308913,8882.471304
150.024522,842.705048,592.164754,9474.636058
150.024830,383.047749,666.185348,9770.718434
150.025138,459.657299,444.123565,10436.903782
150.025447,76.609550,-0.000000,10436.903782
150.025755,0.000000,-148.041188,10807.006753
150.026063,0.000000,-74.020594,10658.965565
150.026371,0.000000,-74.020594,10288.862594
150.026679,383.047749,-0.000000,10140.821405
150.026987,842.705048,592.164754,10214.842000
150.027295,1149.143247,444.123565,9770.718434
150.027603,1302.362347,962.267725,9400.615463
150.027911,1608.800546,1332.370696,9030.512492
150.028219,1532.190996,1628.453072,9178.553681
150.028527,1608.800546,1554.432478,9104.533087
150.028835,1072.533697,1406.391290,8956.491898
150.029143,842.705048,1036.288319,9104.533087
150.029451,76.609550,814.226536,9474.636058
150.029759,-383.047749,444.123565,9548.656652
150.030067,-689.485948,-74.020594,9770.718434
150.030375,-536.266849,-74.020594,9918.759623
150.030684,-536.266849,-518.144159,9992.780217
150.030992,-306.438199,-592.164754,10066.800811
150.031300,-229.828649,-888.247130,10288.862594
150.031608,76.609550,-1258.350101,10140.821405
150.031916,383.047749,-962.267725,10140.821405
150.032224,153.219100,-1480.411884,9770.718434
150.032532,0.000000,-888.247130,9622.677246
150.032840,306.438199,-1036.288319,9844.739029
150.033148,536.266849,-888.247130,9622.677246
150.033456,1072.533697,-888.247130,9400.615463
150.033764,1225.752797,-888.247130,9252.574275
150.034072,1532.190996,-592.164754,9178.553681
150.034380,2221.676944,-222.061783,8734.430116
150.034688,2221.676944,-74.020594,8586.388927
150.034996,2145.067394,370.102971,8586.388927
150.035304,2451.505594,814.226536,8586.388927
150.035613,2451.505594,1258.350101,8512.368333
150.035921,2604.724693,1480.411884,8512.368333
150.036229,2528.115143,1332.370696,8586.388927
150.036537,1685.410096,1480.411884,9104.533087
150.036845,1685.410096,1406.391290,9178.553681
150.037153,1532.190996,1480.411884,9918.759623
150.037461,1225.752797,1406.391290,9696.697840
150.037769,919.314598,1332.370696,9992.780217
150.038077,919.314598,962.267725,10066.800811
150.038385,689.485948,814.226536,10214.842000
150.038693,153.219100,370.102971,10510.924376
150.039001,612.876398,666.185348,10881.027347
150.039309,995.924147,370.102971,10288.862594
150.039617,229.828649,814.226536,10658.965565
150.039925,153.219100,888.247130,10584.944971
150.040233,153.219100,814.226536,10288.862594
150.040541,-76.609550,666.185348,10066.800811
150.040850,0.000000,666.185348,10214.842000
150.041158,-689.485948,518.144159,10584.944971
150.041466,-1225.752797,148.041188,10066.800811
150.041774,-1149.143247,-74.020594,10214.842000
150.042082,-689.485948,-222.061783,9696.697840
150.042390,-842.705048,-518.144159,9844.739029
150.042698,-842.705048,-518.144159,9992.780217
150.043006,-919.314598,-962.267725,9844.739029
150.043314,-919.314598,-1184.329507,9696.697840
150.043622,0.000000,-1110.308913,9992.780217
150.043930,-153.219100,-1258.350101,9622.677246
150.044238,-306.438199,-1036.288319,9474.636058
150.044546,383.047749,-962.267725,9326.594869
150.044854,459.657299,-592.164754,9030.512492
150.045162,919.314598,-444.123565,8882.471304
150.045470,919.314598,-0.000000,8660.409521
150.045778,1378.971896,-444.123565,8512.368333
150.046087,1302.362347,-0.000000,8808.450710
150.046395,1302.362347,-74.020594,8660.409521
150.046703,1378.971896,518.144159,8216.285956
150.047011,995.924147,370.102971,8734.430116
150.047319,919.314598,518.144159,9252.574275
150.047627,919.314598,666.185348,9474.636058
150.047935,536.266849,370.102971,9696.697840
150.048243,306.438199,222.061783,9918.759623
150.048551,306.438199,-0.000000,10140.821405
150.048859,536.266849,148.041188,10362.883188
150.049167,459.657299,296.082377,10214.842000
150.049475,76.609550,370.102971,10362.883188
150.049783,536.266849,518.144159,9918.759623
150.050091,766.095498,814.226536,9770.718434
150.050399,919.314598,962.267725,9918.759623
150.050707,1149.143247,1554.432478,9696.697840
150.051016,1915.238745,1480.411884,9474.636058
150.051324,1608.800546,1628.453072,9622.677246
150.051632,2145.067394,962.267725,9326.594869
150.051940,1302.362347,1258.350101,9178.553681
150.052248,995.924147,1110.308913,9252.574275
150.052556,919.314598,1332.370696,9104.533087
150.052864,689.485948,888.247130,9178.553681
150.053172,306.438199,296.082377,9326.594869
150.053480,0.000000,296.082377,9474.636058
150.053788,76.609550,-74.020594,9918.759623
150.054096,-229.828649,-814.226536,9918.759623
150.054404,-766.095498,-592.164754,10288.862594
150.054712,-842.705048,-1184.329507,10510.924376
150.055020,-919.314598,-1184.329507,10510.924376
150.055328,-766.095498,-1406.391290,10584.944971
150.055636,-153.219100,-1332.370696,10362.883188
150.055944,-612.876398,-1332.370696,10288.862594
150.056253,459.657299,-888.247130,10140.821405
150.056561,919.314598,-1110.308913,9326.594869
150.056869,766.095498,-592.164754,9252.574275
150.057177,1149.143247,-370.102971,9030.512492
150.057485,1685.410096,-148.041188,8586.388927
150.057793,1991.848295,-0.000000,8364.327145
150.058101,2451.505594,-0.000000,8068.244768
150.058409,2374.896044,370.102971,8216.285956
150.058717,2757.943793,666.185348,8882.471304
150.059025,2221.676944,888.247130,8586.388927
150.059333,1762.019645,1258.350101,8734.430116
150.059641,2068.457845,962.267725,9104.533087
150.059949,1838.629195,1258.350101,9326.594869
150.060257,1532.190996,1332.370696,9326.594869
150.060565,1225.752797,1554.432478,9770.718434
150.060873,536.266849,888.247130,10140.821405
150.061181,689.485948,1036.288319,10362.883188
150.061490,612.876398,1110.308913,10288.862594
150.061798,612.876398,888.247130,10436.903782
150.062106,306.438199,740.205942,10658.965565
150.062414,153.219100,888.247130,10732.986159
150.062722,0.000000,592.164754,10658.965565
150.063030,229.828649,444.123565,10881.027347
150.063338,0.000000,518.144159,10807.006753
150.063646,-536.266849,740.205942,10732.986159
150.063954,-306.438199,-0.000000,10584.944971
150.064262,-306.438199,296.082377,10288.862594
150.064570,-383.047749,370.102971,9696.697840
150.064878,-383.047749,370.102971,9622.677246
150.065186,-306.438199,444.123565,9474.636058
150.065494,0.000000,-0.000000,9030.512492
150.065802,76.609550,296.082377,9252.574275
150.066110,0.000000,148.041188,9400.615463
150.066418,459.657299,-74.020594,9104.533087
150.066727,0.000000,-370.102971,9474.636058
150.067035,0.000000,-666.185348,9474.636058
150.067343,0.000000,-814.226536,9474.636058
150.067651,229.828649,-1184.329507,9622.677246
150.067959,76.609550,-1110.308913,9474.636058
150.068267,842.705048,-1258.350101,9548.656652
150.068575,612.876398,-1406.391290,9326.594869
150.068883,1149.143247,-962.267725,9326.594869
150.069191,1149.143247,-1110.308913,8956.491898
150.069499,1302.362347,-518.144159,9104.533087
150.069807,1532.190996,-444.123565,9104.533087
150.070115,1608.800546,-222.061783,8882.471304
150.070423,1991.848295,444.123565,8734.430116
150.070731,1685.410096,296.082377,9178.553681
150.071039,2068.457845,740.205942,9400.615463
150.071347,1149.143247,1184.329507,9548.656652
150.071656,1302.362347,888.247130,9622.677246
150.071964,1225.752797,740.205942,9770.718434
150.072272,842.705048,666.185348,10140.821405
150.072580,919.314598,962.267725,10362.883188
150.072888,995.924147,1036.288319,9844.739029
150.073196,1149.143247,592.164754,9474.636058
150.073504,1762.019645,888.247130,9474.636058
150.073812,1685.410096,1184.329507,9548.656652
150.074120,1532.190996,1480.411884,9400.615463
150.074428,1915.238745,1850.514855,9474.636058
150.074736,1838.629195,1776.494261,9178.553681
150.075044,1915.238745,2072.576638,9252.574275
150.075352,1838.629195,1406.391290,9474.636058
150.075660,1532.190996,1406.391290,9104.533087
150.075968,689.485948,1406.391290,9474.636058
150.076276,459.657299,962.267725,9548.656652
150.076584,0.000000,518.144159,9770.718434
150.076893,-306.438199,-0.000000,10140.821405
150.077201,-842.705048,-518.144159,10510.924376
150.077509,-1149.143247,-1036.288319,10510.924376
150.077817,-1149.143247,-1110.308913,10436.903782
150.078125,-842.705048,-1258.350101,10732.986159
150.078433,-995.924147,-1110.308913,10584.944971
150.078741,-842.705048,-1036.288319,10584.944971
150.079049,-689.485948,-1184.329507,10362.883188
150.079357,-229.828649,-888.247130,9548.656652
150.079665,76.609550,-814.226536,9696.697840
150.079973,306.438199,-1184.329507,9474.636058
150.080281,306.438199,-1036.288319,9252.574275
150.080589,919.314598,-1036.288319,9030.512492
150.080897,842.705048,-592.164754,8808.450710
150.081205,919.314598,-1036.288319,8290.306550
150.081513,1378.971896,-370.102971,8586.388927
150.081821,1762.019645,-74.020594,8586.388927
150.082130,1915.238745,444.123565,8216.285956
150.082438,1915.238745,814.226536,8290.306550
150.082746,2298.286494,962.267725,8512.368333
150.083054,2068.457845,962.267725,8142.265362
150.083362,1991.848295,1332.370696,8808.450710
150.083670,1378.971896,962.267725,8956.491898
150.083978,995.924147,1184.329507,9474.636058
150.084286,689.485948,1036.288319,9918.759623
150.084594,459.657299,1184.329507,10362.883188
150.084902,76.609550,1036.288319,10362.883188
150.085210,153.219100,444.123565,10362.883188
150.085518,153.219100,518.144159,10436.903782
150.085826,306.438199,148.041188,10214.842000
150.086134,-306.438199,444.123565,10955.047942
150.086442,76.609550,666.185348,10510.924376
150.086750,459.657299,592.164754,10510.924376
150.087059,0.000000,592.164754,10436.903782
150.087367,0.000000,592.164754,10288.862594
150.087675,76.609550,370.102971,9918.759623
150.087983,76.609550,740.205942,10140.821405
150.088291,153.219100,296.082377,9622.677246
150.088599,-229.828649,222.061783,9696.697840
150.088907,-459.657299,-0.000000,9474.636058
150.089215,-229.828649,-222.061783,9474.636058
150.089523,-383.047749,-148.041188,9252.574275
150.089831,536.266849,-370.102971,9992.780217
150.090139,0.000000,-518.144159,9326.594869
150.090447,-383.047749,-740.205942,9400.615463
150.090755,0.000000,-1258.350101,9696.697840
150.091063,-306.438199,-1258.350101,9548.656652
150.091371,0.000000,-1184.329507,9696.697840
150.091679,229.828649,-1036.288319,9474.636058
150.091987,459.657299,-888.247130,9474.636058
150.092296,153.219100,-814.226536,9400.615463
150.092604,919.314598,-962.267725,9474.636058
150.092912,1302.362347,-740.205942,9030.512492
150.093220,1225.752797,-518.144159,8956.491898
150.093528,1455.581446,-0.000000,9326.594869
150.093836,1762.019645,-0.000000,8882.471304
150.094144,1838.629195,296.082377,8882.471304
150.094452,1685.410096,666.185348,8882.471304
150.094760,2374.896044,1110.308913,9104.533087
150.095068,1762.019645,1184.329507,8956.491898
150.095376,1991.848295,814.226536,9252.574275
150.095684,1149.143247,1702.473667,9992.780217
150.095992,1455.581446,1184.329507,9548.656652
150.096300,1225.752797,1036.288319,9918.759623
150.096608,1378.971896,1184.329507,9992.780217
150.096916,1608.800546,1036.288319,10140.821405
150.097224,1455.581446,1258.350101,9992.780217
150.097533,1838.629195,1184.329507,10140.821405
150.097841,2145.067394,1036.288319,9844.739029
150.098149,1608.800546,962.267725,9400.615463
150.098457,1685.410096,1332.370696,9548.656652
150.098765,1685.410096,1406.391290,9474.636058
150.099073,1455.581446,1480.411884,9400.615463
150.099381,1149.143247,1332.370696,9474.636058
150.099689,689.485948,1406.391290,9178.553681
150.099997,383.047749,888.247130,9622.677246
150.100305,0.000000,592.164754,10066.800811
150.100613,-383.047749,148.041188,10436.903782
150.100921,-689.485948,-148.041188,10066.800811
150.101229,-1072.533697,-518.144159,10288.862594
150.101537,-1072.533697,-888.247130,10362.883188
150.101845,-995.924147,-1332.370696,10436.903782
150.102153,-766.095498,-1480.411884,10510.924376
150.102461,-919.314598,-1554.432478,10140.821405
150.102770,-1225.752797,-1924.535449,10214.842000
150.103078,0.000000,-1776.494261,9770.718434
150.103386,0.000000,-1406.391290,9918.759623
150.103694,229.828649,-1184.329507,9474.636058
150.104002,689.485948,-1036.288319,8882.471304
150.104310,919.314598,-814.226536,8808.450710
150.104618,1838.629195,-666.185348,8586.388927
150.104926,1455.581446,-74.020594,8438.347739
150.105234,1838.629195,-0.000000,8142.265362
150.105542,1762.019645,296.082377,8216.285956
150.105850,2068.457845,888.247130,7698.141797
150.106158,2298.286494,1184.329507,8290.306550
150.106466,2145.067394,1184.329507,8586.388927
150.106774,1455.581446,1554.432478,8512.368333
150.107082,1762.019645,1110.308913,9252.574275
150.107390,919.314598,1332.370696,9400.615463
150.107699,689.485948,592.164754,9696.697840
150.108007,306.438199,592.164754,10362.883188
150.108315,383.047749,666.185348,10362.883188
150.108623,0.000000,518.144159,10510.924376
150.108931,0.000000,518.144159,10732.986159
150.109239,76.609550,370.102971,11103.089130
150.109547,-383.047749,666.185348,11029.068536
150.109855,153.219100,296.082377,11325.150913
150.110163,0.000000,592.164754,10807.006753
150.110471,689.485948,518.144159,10362.883188
150.110779,-306.438199,740.205942,10362.883188
150.111087,0.000000,888.247130,10140.821405
150.111395,0.000000,814.226536,9696.697840
150.111703,-229.828649,888.247130,9548.656652
150.112011,0.000000,1110.308913,9622.677246
150.112319,-229.828649,518.144159,9474.636058
150.112627,-153.219100,296.082377,8882.471304
150.112936,153.219100,370.102971,9326.594869
150.113244,0.000000,-0.000000,9326.594869
150.113552,-383.047749,-296.082377,9400.615463
150.113860,-306.438199,-592.164754,9696.697840
150.114168,-153.219100,-740.205942,9844.739029
150.114476,-229.828649,-1554.432478,9770.718434
150.114784,229.828649,-1406.391290,9622.677246
150.115092,229.828649,-1184.329507,9770.718434
150.115400,459.657299,-1258.350101,9474.636058
150.115708,229.828649,-1036.288319,9252.574275
150.116016,842.705048,-814.226536,9326.594869
150.116324,1149.143247,-814.226536,9326.594869
150.116632,1302.362347,-518.144159,9104.533087
150.116940,1302.362347,-0.000000,8956.491898
150.117248,1915.238745,222.061783,9178.553681
150.117557,1762.019645,1036.288319,9252.574275
150.117865,1991.848295,296.082377,8660.409521
150.118173,1685.410096,814.226536,9400.615463
150.118481,1302.362347,814.226536,9326.594869
150.118789,1225.752797,740.205942,9474.636058
150.119097,842.705048,814.226536,9844.739029
150.119405,1225.752797,962.267725,9992.780217
150.119713,1072.533697,962.267725,9918.759623
150.120021,1532.190996,962.267725,9918.759623
150.120329,1149.143247,1036.288319,9548.656652
150.120637,1838.629195,1480.411884,9844.739029
150.120945,1608.800546,1406.391290,9474.636058
150.121253,1838.629195,1480.411884,9400.615463
150.121561,1915.238745,1702.473667,9400.615463
150.121869,1991.848295,1628.453072,9474.636058
150.122178,1762.019645,1332.370696,9696.697840
150.122486,1608.800546,1110.308913,9474.636058
150.122794,842.705048,962.267725,9918.759623
150.123102,153.219100,1184.329507,9770.718434
150.123410,306.438199,666.185348,9770.718434
150.123718,0.000000,666.185348,9770.718434
150.124026,-153.219100,-0.000000,9992.780217
150.124334,-612.876398,-74.020594,10288.862594
150.124642,-76.609550,-518.144159,10362.883188
150.124950,-689.485948,-814.226536,10510.924376
150.125258,-1072.533697,-962.267725,10658.965565
150.125566,-995.924147,-1258.350101,10732.986159
150.125874,-1072.533697,-1554.432478,10510.924376
150.126182,-842.705048,-1776.494261,10362.883188
150.126490,-306.438199,-1554.432478,10066.800811
150.126799,-383.047749,-1924.535449,9770.718434
150.127107,459.657299,-1258.350101,9474.636058
150.127415,689.485948,-1036.288319,9400.615463
150.127723,1532.190996,-592.164754,8882.471304
150.128031,1455.581446,-0.000000,8586.388927
150.128339,2068.457845,-0.000000,8142.265362
150.128647,2298.286494,370.102971,7846.182985
150.128955,2221.676944,666.185348,7698.141797
150.129263,2604.724693,1480.411884,8216.285956
150.129571,2068.457845,1406.391290,8142.265362
150.129879,2374.896044,1258.350101,8512.368333
150.130187,1838.629195,1036.288319,9030.512492
150.130495,1225.752797,1036.288319,9474.636058
150.130803,766.095498,1036.288319,9770.718434
150.131111,459.657299,962.267725,10362.883188
150.131420,153.219100,666.185348,10732.986159
150.131728,153.219100,592.164754,11103.089130
150.132036,76.609550,444.123565,10658.965565
150.132344,0.000000,592.164754,11103.089130
150.132652,612.876398,296.082377,11029.068536
150.132960,0.000000,740.205942,11103.089130
150.133268,153.219100,666.185348,10881.027347
150.133576,306.438199,740.205942,10584.944971
150.133884,383.047749,814.226536,10436.903782
150.134192,459.657299,1110.308913,10658.965565
150.134500,383.047749,740.205942,9918.759623
150.134808,383.047749,740.205942,9548.656652
150.135116,536.266849,1036.288319,9474.636058
150.135424,76.609550,888.247130,9326.594869
150.135732,76.609550,740.205942,9178.553681
150.136041,153.219100,518.144159,9326.594869
150.136349,0.000000,222.061783,9326.594869
150.136657,-306.438199,-0.000000,9474.636058
150.136965,-306.438199,-518.144159,9770.718434
150.137273,0.000000,-666.185348,9918.759623
150.137581,-459.657299,-1110.308913,10066.800811
150.137889,-766.095498,-1184.329507,9918.759623
150.138197,-612.876398,-1554.432478,10140.821405
150.138505,-306.438199,-1702.473667,9918.759623
150.138813,-76.609550,-1480.411884,9992.780217
150.139121,229.828649,-1850.514855,9918.759623
150.139429,383.047749,-1480.411884,9548.656652
150.139737,766.095498,-1554.432478,9030.512492
150.140045,1378.971896,-1036.288319,9104.533087
150.140353,1378.971896,-370.102971,9030.512492
150.140661,1532.190996,-0.000000,8660.409521
150.140970,1838.629195,444.123565,8586.388927
150.141278,1685.410096,814.226536,8290.306550
150.141586,2298.286494,1110.308913,8290.306550
150.141894,2451.505594,888.247130,8660.409521
150.142202,1991.848295,1110.308913,9104.533087
150.142510,1685.410096,814.226536,9104.533087
150.142818,1378.971896,1036.288319,9326.594869
150.143126,1378.971896,1036.288319,9474.636058
150.143434,1149.143247,814.226536,9622.677246
150.143742,1149.143247,962.267725,9918.759623
150.144050,1608.800546,888.247130,10214.842000
150.144358,766.095498,740.205942,9992.780217
150.144666,1378.971896,1036.288319,10066.800811
150.144974,1225.752797,814.226536,9918.759623
150.145282,1302.362347,1184.329507,9548.656652
150.145591,1532.190996,1184.329507,9622.677246
150.145899,842.705048,1406.391290,9474.636058
150.146207,1455.581446,1258.350101,9844.739029
150.146515,1072.533697,888.247130,9548.656652
150.146823,-306.438199,1036.288319,9992.780217
150.147131,153.219100,296.082377,10288.862594
150.147439,-153.219100,-0.000000,10362.883188
150.147747,-689.485948,-222.061783,10436.903782
150.148055,-766.095498,-444.123565,10288.862594
150.148363,-842.705048,-740.205942,10510.924376
150.148671,-1378.971896,-814.226536,10288.862594
150.148979,-536.266849,-740.205942,10214.842000
150.149287,-919.314598,-1110.308913,10362.883188
150.149595,-689.485948,-1110.308913,10140.821405
150.149903,0.000000,-1554.432478,9770.718434
150.150212,76.609550,-888.247130,9622.677246
150.150520,306.438199,-962.267725,9326.594869
150.150828,536.266849,-666.185348,9030.512492
150.151136,1685.410096,-444.123565,8808.450710
150.151444,1685.410096,-592.164754,8364.327145
150.151752,1532.190996,-296.082377,8438.347739
150.152060,1762.019645,-444.123565,8808.450710
150.152368,1532.190996,-0.000000,8586.388927
150.152676,1991.848295,518.144159,8438.347739
150.152984,1608.800546,740.205942,8364.327145
150.153292,1762.019645,1036.288319,8586.388927
150.153600,2221.676944,1406.391290,9030.512492
150.153908,1838.629195,1406.391290,9474.636058
150.154216,1608.800546,814.226536,9474.636058
150.154524,1378.971896,666.185348,10066.800811
150.154833,766.095498,592.164754,10288.862594
150.155141,536.266849,518.144159,10288.862594
150.155449,306.438199,444.123565,10510.924376
150.155757,229.828649,740.205942,10732.986159
150.156065,383.047749,592.164754,10732.986159
150.156373,842.705048,518.144159,10510.924376
150.156681,842.705048,518.144159,10658.965565
150.156989,1072.533697,444.123565,9696.697840
150.157297,383.047749,1110.308913,10288.862594
150.157605,689.485948,1184.329507,9918.759623
150.157913,612.876398,1332.370696,9844.739029
150.158221,612.876398,1036.288319,9474.636058
150.158529,612.876398,1110.308913,9622.677246
150.158837,0.000000,666.185348,9474.636058
150.159145,-459.657299,296.082377,9770.718434
150.159454,-612.876398,148.041188,9770.718434
150.159762,-459.657299,-0.000000,9770.718434
150.160070,-612.876398,-296.082377,9696.697840
150.160378,-536.266849,-518.144159,9696.697840
150.160686,-459.657299,-592.164754,9770.718434
150.160994,-536.266849,-740.205942,9992.780217
150.161302,-229.828649,-1110.308913,9918.759623
150.161610,-306.438199,-888.247130,9696.697840
150.161918,0.000000,-666.185348,10066.800811
150.162226,229.828649,-1110.308913,9770.718434
150.162534,383.047749,-1258.350101,9696.697840
150.162842,383.047749,-1036.288319,9696.697840
150.163150,536.266849,-962.267725,9474.636058
150.163458,995.924147,-740.205942,9326.594869
150.163766,1225.752797,-370.102971,9104.533087
150.164075,2068.457845,-0.000000,9104.533087
150.164383,1915.238745,444.123565,8586.388927
150.164691,1915.238745,888.247130,8734.430116
150.164999,1838.629195,1110.308913,8734.430116
150.165307,1762.019645,1184.329507,9104.533087
150.165615,1532.190996,1258.350101,9104.533087
150.165923,1225.752797,1110.308913,9474.636058
150.166231,842.705048,666.185348,9918.759623
150.166539,689.485948,666.185348,10214.842000
150.166847,383.047749,518.144159,10362.883188
150.167155,536.266849,592.164754,10510.924376
150.167463,612.876398,666.185348,10066.800811
150.167771,766.095498,888.247130,10214.842000
150.168079,1149.143247,1036.288319,9992.780217
150.168387,1915.238745,1258.350101,9918.759623
150.168696,1838.629195,1628.453072,9622.677246
150.169004,2145.067394,1480.411884,9474.636058
150.169312,1685.410096,1406.391290,9178.553681
150.169620,1149.143247,1480.411884,9178.553681
150.169928,995.924147,1480.411884,9104.533087
150.170236,766.095498,1110.308913,9474.636058
150.170544,0.000000,666.185348,9844.739029
150.170852,-612.876398,592.164754,10362.883188
150.171160,-995.924147,-296.082377,10584.944971
150.171468,-1532.190996,-888.247130,10881.027347
150.171776,-1302.362347,-888.247130,10584.944971
150.172084,-1378.971896,-962.267725,10732.986159
150.172392,-1149.143247,-1184.329507,10732.986159
150.172700,-995.924147,-1110.308913,10510.924376
150.173008,-842.705048,-1258.350101,10214.842000
150.173317,-536.266849,-1406.391290,9992.780217
150.173625,383.047749,-1332.370696,9770.718434
150.173933,0.000000,-1184.329507,9622.677246
150.174241,536.266849,-1184.329507,9474.636058
150.174549,1302.362347,-888.247130,8956.491898
150.174857,1532.190996,-518.144159,8660.409521
150.175165,1838.629195,-370.102971,8364.327145
150.175473,2298.286494,-148.041188,8068.244768
150.175781,2221.676944,-0.000000,8290.306550
150.176089,2528.115143,296.082377,8216.285956
150.176397,2451.505594,814.226536,8068.244768
150.176705,2451.505594,888.247130,8142.265362
150.177013,2068.457845,1480.411884,8438.347739
150.177321,1838.629195,1332.370696,8882.471304
150.177629,1532.190996,1332.370696,9178.553681
150.177938,1149.143247,1110.308913,9622.677246
150.178246,919.314598,740.205942,9770.718434
150.178554,689.485948,444.123565,10658.965565
150.178862,153.219100,-0.000000,10732.986159
150.179170,229.828649,222.061783,10362.883188
150.179478,153.219100,444.123565,10658.965565
150.179786,612.876398,592.164754,10288.862594
150.180094,536.266849,666.185348,10288.862594
150.180402,766.095498,740.205942,9992.780217
150.180710,1072.533697,518.144159,10214.842000
150.181018,229.828649,814.226536,9844.739029
150.181326,229.828649,740.205942,9770.718434
150.181634,612.876398,814.226536,9918.759623
150.181942,76.609550,814.226536,9844.739029
150.182250,0.000000,518.144159,9770.718434
150.182558,-306.438199,296.082377,9622.677246
150.182867,-536.266849,296.082377,9770.718434
150.183175,-689.485948,-0.000000,9992.780217
150.183483,0.000000,-0.000000,9992.780217
150.183791,-536.266849,-296.082377,9474.636058
150.184099,-612.876398,-666.185348,9400.615463
150.184407,-459.657299,-592.164754,9696.697840
150.184715,-306.438199,-740.205942,9622.677246
150.185023,0.000000,-962.267725,9548.656652
150.185331,306.438199,-1110.308913,9622.677246
150.185639,0.000000,-1036.288319,9844.739029
150.185947,0.000000,-1628.453072,9696.697840
150.186255,536.266849,-1110.308913,9918.759623
150.186563,536.266849,-1184.329507,9474.636058
150.186871,689.485948,-740.205942,9400.615463
150.187179,995.924147,-370.102971,9474.636058
150.187488,995.924147,-74.020594,9252.574275
150.187796,1225.752797,74.020594,8882.471304
150.188104,1838.629195,444.123565,8734.430116
150.188412,1991.848295,740.205942,8808.450710
150.188720,1608.800546,666.185348,9030.512492
150.189028,1455.581446,888.247130,9326.594869
150.189336,1378.971896,1036.288319,9178.553681
150.189644,1072.533697,962.267725,9696.697840
150.189952,536.266849,1110.308913,9918.759623
150.190260,842.705048,962.267725,10362.883188
150.190568,612.876398,814.226536,9992.780217
150.190876,1149.143247,814.226536,10066.800811
150.191184,919.314598,1184.329507,10362.883188
150.191492,1378.971896,1184.329507,10066.800811
150.191800,1532.190996,1480.411884,9844.739029
150.192109,1455.581446,1628.453072,9548.656652
150.192417,1762.019645,1850.514855,9326.594869
150.192725,1072.533697,1702.473667,9178.553681
150.193033,1685.410096,1628.453072,9326.594869
150.193341,1378.971896,1480.411884,9622.677246
150.193649,919.314598,888.247130,9474.636058
150.193957,229.828649,370.102971,9696.697840
150.194265,-306.438199,-0.000000,10214.842000
150.194573,-689.485948,-370.102971,10436.903782
150.194881,-1378.971896,-962.267725,10436.903782
150.195189,-1532.190996,-1036.288319,10584.944971
150.195497,-1225.752797,-1332.370696,10436.903782
150.195805,-919.314598,-1406.391290,10214.842000
150.196113,-1149.143247,-1628.453072,10288.862594
150.196421,-612.876398,-1480.411884,10214.842000
150.196730,0.000000,-1480.411884,9770.718434
150.197038,229.828649,-1554.432478,9474.636058
150.197346,229.828649,-1110.308913,9178.553681
150.197654,842.705048,-814.226536,8956.491898
150.197962,1149.143247,-740.205942,8660.409521
150.198270,1762.019645,-592.164754,8734.430116
150.198578,2451.505594,-592.164754,8216.285956
150.198886,1915.238745,-0.000000,8142.265362
150.199194,2145.067394,-74.020594,8142.265362
150.199502,2145.067394,-0.000000,8438.347739
150.199810,2068.457845,296.082377,8438.347739
150.200118,2221.676944,740.205942,8512.368333
150.200426,1991.848295,1036.288319,9030.512492
150.200734,1378.971896,1332.370696,9400.615463
150.201042,2068.457845,1184.329507,9548.656652
150.201351,1302.362347,1036.288319,9844.739029
150.201659,689.485948,1036.288319,9992.780217
150.201967,536.266849,814.226536,10436.903782
150.202275,229.828649,814.226536,10436.903782
150.202583,766.095498,666.185348,10436.903782
150.202891,995.924147,962.267725,10436.903782
150.203199,1149.143247,1110.308913,10140.821405
150.203507,536.266849,1184.329507,10436.903782
150.203815,612.876398,1258.350101,10140.821405
150.204123,766.095498,1406.391290,10214.842000
150.204431,689.485948,962.267725,10140.821405
150.204739,536.266849,1036.288319,10140.821405
150.205047,612.876398,1184.329507,9992.780217
150.205355,536.266849,888.247130,9844.739029
150.205663,306.438199,666.185348,9770.718434
150.205972,0.000000,518.144159,9474.636058
150.206280,-383.047749,444.123565,9474.636058
150.206588,-229.828649,148.041188,9622.677246
150.206896,-536.266849,-0.000000,9548.656652
150.207204,-536.266849,-296.082377,9622.677246
150.207512,-612.876398,-888.247130,9844.739029
150.207820,-459.657299,-1110.308913,9918.759623
150.208128,-383.047749,-1406.391290,10066.800811
150.208436,-689.485948,-1554.432478,9844.739029
150.208744,-383.047749,-1480.411884,9992.780217
150.209052,-383.047749,-1332.370696,10066.800811
150.209360,0.000000,-1480.411884,9918.759623
150.209668,306.438199,-1258.350101,9474.636058
150.209976,306.438199,-1184.329507,9548.656652
150.210284,1608.800546,-1036.288319,9030.512492
150.210593,1072.533697,-814.226536,8956.491898
150.210901,1762.019645,-518.144159,8956.491898
150.211209,1762.019645,-0.000000,8956.491898
150.211517,1838.629195,222.061783,8660.409521
150.211825,1685.410096,518.144159,8660.409521
150.212133,1915.238745,1110.308913,8882.471304
150.212441,2145.067394,1110.308913,9474.636058
150.212749,1608.800546,962.267725,9474.636058
150.213057,1378.971896,888.247130,9474.636058
150.213365,1838.629195,962.267725,9326.594869
150.213673,1378.971896,962.267725,9696.697840
150.213981,1378.971896,962.267725,9844.739029
150.214290,1378.971896,888.247130,9844.739029
150.214598,1225.752797,1184.329507,9548.656652
150.214906,1991.848295,1110.308913,9770.718434
150.215214,1991.848295,1258.350101,9474.636058
150.215522,1762.019645,1036.288319,9622.677246
150.215830,2145.067394,1480.411884,9696.697840
150.216138,1762.019645,1628.453072,9474.636058
150.216446,1378.971896,1480.411884,9474.636058
150.216754,919.314598,1480.411884,9622.677246
150.217062,766.095498,1110.308913,9622.677246
150.217371,383.047749,370.102971,9770.718434
150.217679,229.828649,-0.000000,9992.780217
150.217987,-306.438199,-0.000000,10584.944971
150.218295,-1149.143247,-740.205942,10807.006753
150.218603,-1378.971896,-666.185348,10658.965565
150.218911,-1455.581446,-1184.329507,10584.944971
150.219219,-1225.752797,-1036.288319,10436.903782
150.219527,-1225.752797,-1332.370696,10288.862594
150.219835,-689.485948,-1184.329507,10288.862594
150.220143,0.000000,-1332.370696,9918.759623
150.220451,229.828649,-1184.329507,9622.677246
150.220760,0.000000,-1258.350101,9622.677246
150.221068,459.657299,-1036.288319,9104.533087
150.221376,842.705048,-962.267725,8882.471304
150.221684,1149.143247,-592.164754,8660.409521
150.221992,1302.362347,-444.123565,8364.327145
150.222300,1455.581446,-148.041188,8512.368333
150.222608,2068.457845,-0.000000,8586.388927
150.222916,2145.067394,296.082377,8438.347739
150.223224,2068.457845,592.164754,8660.409521
150.223532,1762.019645,1036.288319,8068.244768
150.223841,1915.238745,1258.350101,8734.430116
150.224149,1685.410096,1406.391290,9030.512492
150.224457,1455.581446,1332.370696,9474.636058
150.224765,995.924147,1110.308913,9770.718434
150.225073,0.000000,1036.288319,10288.862594
150.225381,306.438199,1184.329507,11029.068536
150.225689,76.609550,666.185348,10881.027347
150.225997,-306.438199,888.247130,11103.089130
150.226305,-229.828649,962.267725,11103.089130
150.226613,0.000000,1036.288319,10732.986159
150.226921,76.609550,1258.350101,10881.027347
150.227230,689.485948,1184.329507,10881.027347
150.227538,459.657299,1110.308913,10510.924376
150.227846,919.314598,814.226536,9696.697840
150.228154,766.095498,1036.288319,9992.780217
150.228462,766.095498,1110.308913,9992.780217
150.228770,383.047749,1258.350101,9844.739029
150.229078,383.047749,814.226536,9622.677246
150.229386,76.609550,740.205942,9548.656652
150.229694,153.219100,370.102971,9770.718434
150.230002,-306.438199,-0.000000,9918.759623
150.230311,-383.047749,-296.082377,9548.656652
150.230619,0.000000,-666.185348,9844.739029
150.230927,-536.266849,-814.226536,9548.656652
150.231235,-612.876398,-1036.288319,9696.697840
150.231543,-383.047749,-1110.308913,9696.697840
150.231851,-459.657299,-1036.288319,9622.677246
150.232159,-383.047749,-1480.411884,9622.677246
150.232467,0.000000,-1332.370696,9770.718434
150.232775,229.828649,-1110.308913,9770.718434
150.233083,536.266849,-1110.308913,9474.636058
150.233391,536.266849,-1406.391290,9474.636058
150.233700,919.314598,-1110.308913,9252.574275
150.234008,1149.143247,-1184.329507,9178.553681
150.234316,1455.581446,-962.267725,9326.594869
150.234624,1532.190996,-148.041188,8808.450710
150.234932,2221.676944,-0.000000,8882.471304
150.235240,1762.019645,222.061783,8808.450710
150.235548,2221.676944,518.144159,8660.409521
150.235856,2145.067394,962.267725,8512.368333
150.236164,2298.286494,1332.370696,8660.409521
150.236472,1915.238745,1258.350101,8808.450710
150.236780,1685.410096,1554.432478,9030.512492
150.237089,1991.848295,962.267725,9326.594869
150.237397,1455.581446,1258.350101,9770.718434
150.237705,1455.581446,1036.288319,9474.636058
150.238013,766.095498,1406.391290,10140.821405
150.238321,1608.800546,1258.350101,9622.677246
150.238629,1378.971896,1258.350101,9918.759623
150.238937,1225.752797,1480.411884,9474.636058
150.239245,1302.362347,1406.391290,9770.718434
150.239553,1608.800546,1480.411884,9696.697840
150.239861,1302.362347,1554.432478,9770.718434
150.240170,842.705048,1406.391290,10066.800811
150.240478,689.485948,1036.288319,9844.739029
150.240786,229.828649,666.185348,10214.842000
150.241094,-153.219100,148.041188,10288.862594
150.241402,-689.485948,-148.041188,10584.944971
150.241710,-1378.971896,-814.226536,10584.944971
150.242018,-1302.362347,-1184.329507,10510.924376
150.242326,-919.314598,-962.267725,10732.986159
150.242634,-995.924147,-1110.308913,10584.944971
150.242942,-1072.533697,-1184.329507,9992.780217
150.243250,-766.095498,-1110.308913,9992.780217
150.243559,-459.657299,-1184.329507,9844.739029
150.243867,-306.438199,-1110.308913,9696.697840
150.244175,766.095498,-1110.308913,9400.615463
150.244483,383.047749,-888.247130,9400.615463
150.244791,383.047749,-666.185348,8882.471304
150.245099,1225.752797,-814.226536,8956.491898
150.245407,1225.752797,-814.226536,8586.388927
150.245715,1532.190996,-370.102971,8512.368333
150.246023,1685.410096,-0.000000,8512.368333
150.246331,1838.629195,222.061783,8586.388927
150.246640,1608.800546,296.082377,8290.306550
150.246948,1915.238745,962.267725,8438.347739
150.247256,2298.286494,1184.329507,9104.533087
150.247564,1762.019645,1184.329507,9178.553681
150.247872,1378.971896,1332.370696,9474.636058
150.248180,1149.143247,1258.350101,9622.677246
150.248488,689.485948,1258.350101,9918.759623
150.248796,459.657299,1036.288319,10436.903782
150.249104,153.219100,1184.329507,11177.109724
150.249412,-229.828649,666.185348,11251.130318
150.249720,0.000000,740.205942,10955.047942
150.250029,306.438199,666.185348,10658.965565
150.250337,76.609550,740.205942,10584.944971
150.250645,459.657299,888.247130,10584.944971
150.250953,1072.533697,888.247130,10362.883188
150.251261,766.095498,962.267725,9918.759623
150.251569,689.485948,1184.329507,10066.800811
150.251877,1072.533697,1406.391290,9770.718434
150.252185,153.219100,1258.350101,9548.656652
150.252493,842.705048,814.226536,9326.594869
150.252801,766.095498,1110.308913,9030.512492
150.253109,229.828649,740.205942,9104.533087
150.253418,0.000000,444.123565,9252.574275
150.253726,76.609550,-0.000000,9474.636058
150.254034,-766.095498,-444.123565,9696.697840
150.254342,-536.266849,-666.185348,9474.636058
150.254650,-842.705048,-1036.288319,9918.759623
150.254958,-1225.752797,-1036.288319,10066.800811
150.255266,-612.876398,-1332.370696,10066.800811
150.255574,-612.876398,-1554.432478,10066.800811
150.255882,-306.438199,-1554.432478,9844.739029
150.256190,-306.438199,-1554.432478,9918.759623
150.256499,459.657299,-1924.535449,9770.718434
150.256807,1072.533697,-1702.473667,9548.656652
150.257115,919.314598,-1628.453072,9326.594869
150.257423,919.314598,-1480.411884,9104.533087
150.257731,1302.362347,-814.226536,8956.491898
150.258039,1608.800546,-370.102971,8882.471304
150.258347,1455.581446,296.082377,8882.471304
150.258655,1762.019645,518.144159,8660.409521
150.258963,2068.457845,814.226536,8660.409521
150.259271,2298.286494,814.226536,8512.368333
150.259579,2068.457845,1332.370696,9030.512492
150.259888,2451.505594,1258.350101,8734.430116
150.260196,2145.067394,1776.494261,9030.512492
150.260504,1685.410096,1554.432478,9326.594869
150.260812,1225.752797,1258.350101,9622.677246
150.261120,1225.752797,1184.329507,9844.739029
150.261428,1149.143247,1184.329507,9992.780217
150.261736,1455.581446,1258.350101,9918.759623
150.262044,995.924147,962.267725,10140.821405
150.262352,919.314598,814.226536,9918.759623
150.262660,1302.362347,1258.350101,9992.780217
150.262969,1225.752797,1258.350101,9918.759623
150.263277,1149.143247,1480.411884,9844.739029
150.263585,842.705048,1184.329507,10066.800811
150.263893,536.266849,962.267725,10140.821405
150.264201,306.438199,518.144159,9992.780217
150.264509,0.000000,370.102971,10066.800811
150.264817,-153.219100,-0.000000,10214.842000
150.265125,-1072.533697,-296.082377,10436.903782
150.265433,-1302.362347,-592.164754,10214.842000
150.265741,-1302.362347,-962.267725,10362.883188
150.266049,-1378.971896,-1036.288319,10288.862594
150.266358,-1302.362347,-962.267725,10066.800811
150.266666,-612.876398,-1258.350101,10140.821405
150.266974,-306.438199,-888.247130,9474.636058
150.267282,-459.657299,-1554.432478,9474.636058
150.267590,0.000000,-1184.329507,9326.594869
150.267898,76.609550,-1258.350101,9326.594869
150.268206,459.657299,-1258.350101,9030.512492
150.268514,229.828649,-888.247130,8586.388927
150.268822,1149.143247,-740.205942,8808.450710
150.269130,1378.971896,-740.205942,8142.265362
150.269439,1915.238745,-222.061783,8660.409521
150.269747,1455.581446,-222.061783,8586.388927
150.270055,1685.410096,-0.000000,8364.327145
150.270363,1838.629195,592.164754,8734.430116
150.270671,1762.019645,740.205942,8808.450710
150.270979,1608.800546,962.267725,8956.491898
150.271287,1149.143247,962.267725,8882.471304
150.271595,1838.629195,888.247130,9696.697840
150.271903,766.095498,814.226536,10362.883188
150.272211,536.266849,740.205942,10436.903782
150.272519,76.609550,518.144159,10584.944971
150.272828,153.219100,592.164754,10881.027347
150.273136,383.047749,740.205942,10732.986159
150.273444,536.266849,1036.288319,10584.944971
150.273752,766.095498,666.185348,10732.986159
150.274060,459.657299,1258.350101,10436.903782
150.274368,1072.533697,1628.453072,10214.842000
150.274676,1378.971896,1258.350101,9918.759623
150.274984,1072.533697,1406.391290,9622.677246
150.275292,995.924147,1554.432478,9474.636058
150.275600,919.314598,1406.391290,9474.636058
150.275908,612.876398,1258.350101,9474.636058
150.276217,153.219100,962.267725,9548.656652
150.276525,306.438199,740.205942,9696.697840
150.276833,-229.828649,-0.000000,9918.759623
150.277141,-459.657299,370.102971,9918.759623
150.277449,-842.705048,-296.082377,9844.739029
150.277757,-919.314598,-444.123565,9918.759623
150.278065,-766.095498,-814.226536,9844.739029
150.278373,-459.657299,-814.226536,10066.800811
150.278681,-612.876398,-1110.308913,10362.883188
150.278989,-306.438199,-1258.350101,9844.739029
150.279298,-536.266849,-1332.370696,10066.800811
150.279606,0.000000,-1850.514855,10066.800811
150.279914,0.000000,-1554.432478,9844.739029
150.280222,229.828649,-1406.391290,9622.677246
150.280530,842.705048,-1406.391290,9474.636058
150.280838,919.314598,-962.267725,8808.450710
150.281146,1532.190996,-666.185348,9030.512492
150.281454,2068.457845,-222.061783,8586.388927
150.281762,1991.848295,518.144159,8660.409521
150.282070,2451.505594,888.247130,8364.327145
150.282378,2451.505594,1258.350101,8142.265362
150.282687,2221.676944,1332.370696,8438.347739
150.282995,2298.286494,1628.453072,8586.388927
150.283303,2145.067394,1776.494261,8734.430116
150.283611,1072.533697,962.267725,9252.574275
150.283919,1378.971896,666.185348,9474.636058
150.284227,919.314598,592.164754,10066.800811
150.284535,536.266849,518.144159,10288.862594
150.284843,229.828649,962.267725,10510.924376
150.285151,229.828649,740.205942,10288.862594
150.285459,689.485948,888.247130,10584.944971
150.285768,536.266849,1036.288319,10066.800811
150.286076,1608.800546,1036.288319,10510.924376
150.286384,1225.752797,1776.494261,10066.800811
150.286692,1149.143247,1554.432478,9770.718434
150.287000,1378.971896,1184.329507,9844.739029
150.287308,919.314598,1702.473667,9400.615463
150.287616,536.266849,1258.350101,9770.718434
150.287924,153.219100,1036.288319,9474.636058
150.288232,0.000000,592.164754,10066.800811
150.288540,-612.876398,-370.102971,10140.821405
150.288848,-536.266849,-592.164754,10140.821405
150.289157,-1072.533697,-962.267725,10436.903782
150.289465,-1378.971896,-1184.329507,10140.821405
150.289773,-1149.143247,-1036.288319,9992.780217
150.290081,-766.095498,-1110.308913,9918.759623
150.290389,-842.705048,-1406.391290,9992.780217
150.290697,153.219100,-1332.370696,9696.697840
150.291005,0.000000,-962.267725,9696.697840
150.291313,459.657299,-1628.453072,9400.615463
150.291621,689.485948,-1332.370696,9326.594869
150.291929,766.095498,-1036.288319,9474.636058
150.292238,919.314598,-888.247130,8956.491898
150.292546,1302.362347,-1036.288319,8586.388927
150.292854,1532.190996,-518.144159,8660.409521
150.293162,2068.457845,-666.185348,8364.327145
150.293470,1915.238745,-148.041188,8660.409521
150.293778,2221.676944,444.123565,8586.388927
150.294086,2528.115143,740.205942,8216.285956
150.294394,2145.067394,962.267725,8512.368333
150.294702,2145.067394,1332.370696,8882.471304
150.295010,1762.019645,1332.370696,8956.491898
150.295318,1455.581446,1258.350101,9474.636058
150.295627,1455.581446,1628.453072,10066.800811
150.295935,1072.533697,814.226536,10214.842000
150.296243,766.095498,1110.308913,10807.006753
150.296551,842.705048,962.267725,10658.965565
150.296859,689.485948,1036.288319,10288.862594
150.297167,919.314598,888.247130,10214.842000
150.297475,689.485948,1184.329507,10436.903782
150.297783,995.924147,1110.308913,10288.862594
150.298091,1455.581446,1332.370696,9844.739029
150.298399,1225.752797,1258.350101,10066.800811
150.298707,1608.800546,1184.329507,9770.718434
150.299016,1532.190996,1258.350101,9696.697840
150.299324,842.705048,1332.370696,9548.656652
150.299632,306.438199,1110.308913,9474.636058
150.299940,0.000000,814.226536,9770.718434
150.300248,-383.047749,518.144159,9918.759623
150.300556,76.609550,-0.000000,10288.862594
150.300864,-306.438199,-74.020594,10288.862594
150.301172,-842.705048,-962.267725,9992.780217
150.301480,-766.095498,-814.226536,10140.821405
150.301788,-1072.533697,-962.267725,9992.780217
150.302097,-766.095498,-1184.329507,10140.821405
150.302405,-689.485948,-1036.288319,9918.759623
150.302713,-383.047749,-1332.370696,9992.780217
150.303021,76.609550,-1332.370696,10214.842000
150.303329,0.000000,-1406.391290,10214.842000
150.303637,153.219100,-1332.370696,9844.739029
150.303945,536.266849,-740.205942,9548.656652
150.304253,612.876398,-814.226536,9326.594869
150.304561,1149.143247,-666.185348,9030.512492
150.304869,1378.971896,-296.082377,8808.450710
150.305177,1915.238745,296.082377,8586.388927
150.305486,1608.800546,592.164754,8660.409521
150.305794,2604.724693,444.123565,8438.347739
150.306102,2374.896044,814.226536,8734.430116
150.306410,1915.238745,1184.329507,8882.471304
150.306718,1762.019645,1480.411884,9400.615463
150.307026,1302.362347,1406.391290,9548.656652
150.307334,919.314598,1184.329507,9992.780217
150.307642,842.705048,962.267725,10214.842000
150.307950,766.095498,888.247130,10362.883188
150.308258,995.924147,740.205942,10658.965565
150.308567,689.485948,740.205942,10288.862594
150.308875,995.924147,1036.288319,10362.883188
150.309183,1225.752797,1184.329507,9844.739029
150.309491,1455.581446,1332.370696,9696.697840
150.309799,1685.410096,1332.370696,9696.697840
150.310107,1685.410096,1480.411884,9400.615463
150.310415,1762.019645,1184.329507,9326.594869
150.310723,1225.752797,1480.411884,9622.677246
150.311031,1149.143247,1184.329507,9326.594869
150.311339,76.609550,740.205942,9548.656652
150.311647,76.609550,518.144159,9474.636058
150.311956,-383.047749,296.082377,9918.759623
150.312264,-383.047749,-444.123565,10140.821405
150.312572,-995.924147,-962.267725,10140.821405
150.312880,-1149.143247,-962.267725,10140.821405
150.313188,-995.924147,-1258.350101,10066.800811
150.313496,-766.095498,-1628.453072,10214.842000
150.313804,-612.876398,-1776.494261,10140.821405
150.314112,-306.438199,-1480.411884,9622.677246
150.314420,0.000000,-1628.453072,9252.574275
150.314728,383.047749,-1628.453072,9326.594869
150.315036,383.047749,-1850.514855,9326.594869
150.315345,229.828649,-1406.391290,9252.574275
150.315653,612.876398,-1406.391290,8882.471304
150.315961,1532.190996,-814.226536,8438.347739
150.316269,1838.629195,-222.061783,8142.265362
150.316577,2145.067394,-148.041188,8068.244768
150.316885,2145.067394,296.082377,8290.306550
150.317193,2298.286494,518.144159,8290.306550
150.317501,2374.896044,888.247130,8512.368333
150.317809,1685.410096,1036.288319,8734.430116
150.318117,1685.410096,1184.329507,9104.533087
150.318425,1302.362347,1184.329507,9178.553681
150.318733,1072.533697,814.226536,10140.821405
150.319042,229.828649,962.267725,9992.780217
150.319350,0.000000,740.205942,10732.986159
150.319658,0.000000,888.247130,11029.068536
150.319966,0.000000,592.164754,10955.047942
150.320274,153.219100,740.205942,10955.047942
150.320582,459.657299,592.164754,10436.903782
150.320890,689.485948,1036.288319,10362.883188
150.321198,689.485948,1480.411884,10510.924376
150.321506,1225.752797,1628.453072,10214.842000
150.321814,1072.533697,1628.453072,9696.697840
150.322122,1225.752797,1776.494261,9770.718434
150.322430,1532.190996,1924.535449,9474.636058
150.322739,766.095498,1628.453072,9696.697840
150.323047,536.266849,1184.329507,9474.636058
150.323355,306.438199,1258.350101,9918.759623
150.323663,76.609550,592.164754,9696.697840
150.323971,-459.657299,370.102971,9918.759623
150.324279,-536.266849,-74.020594,10066.800811
150.324587,-995.924147,-444.123565,10288.862594
150.324895,-1149.143247,-888.247130,9770.718434
150.325203,-1225.752797,-1406.391290,10510.924376
150.325511,-1608.800546,-1554.432478,10881.027347
150.325819,-919.314598,-1924.535449,10214.842000
150.326127,-842.705048,-1480.411884,10140.821405
150.326436,-612.876398,-1554.432478,10362.883188
150.326744,-383.047749,-1628.453072,9992.780217
150.327052,76.609550,-1480.411884,9622.677246
150.327360,306.438199,-1258.350101,9326.594869
150.327668,995.924147,-1406.391290,8882.471304
150.327976,1685.410096,-1110.308913,8734.430116
150.328284,1762.019645,-148.041188,8808.450710
150.328592,1991.848295,-0.000000,8290.306550
150.328900,2145.067394,444.123565,8290.306550
150.329208,2145.067394,666.185348,8290.306550
150.329516,2374.896044,962.267725,8216.285956
150.329824,2451.505594,1258.350101,8364.327145
150.330133,2221.676944,1036.288319,8586.388927
150.330441,2298.286494,1036.288319,9104.533087
150.330749,1991.848295,296.082377,9104.533087
150.331057,1072.533697,962.267725,9696.697840
150.331365,766.095498,740.205942,9992.780217
150.331673,1072.533697,888.247130,10066.800811
150.331981,689.485948,814.226536,10214.842000
150.332289,1685.410096,814.226536,10214.842000
150.332597,1302.362347,962.267725,10066.800811
150.332905,1455.581446,740.205942,10140.821405
150.333213,1608.800546,962.267725,9622.677246
150.333521,1378.971896,1258.350101,9622.677246
150.333830,1149.143247,1480.411884,9696.697840
150.334138,1072.533697,1480.411884,9622.677246
150.334446,842.705048,1406.391290,9770.718434
150.334754,306.438199,740.205942,9548.656652
150.335062,306.438199,518.144159,9770.718434
150.335370,0.000000,296.082377,10288.862594
150.335678,-612.876398,-74.020594,9770.718434
150.335986,-1149.143247,-592.164754,10066.800811
150.336294,-1302.362347,-888.247130,10288.862594
150.336602,-1225.752797,-962.267725,10288.862594
150.336910,-1149.143247,-1406.391290,10436.903782
150.337218,-919.314598,-1258.350101,10214.842000
150.337527,-612.876398,-1628.453072,9770.718434
150.337835,-153.219100,-1332.370696,9548.656652
150.338143,229.828649,-1406.391290,9326.594869
150.338451,306.438199,-1184.329507,9178.553681
150.338759,536.266849,-592.164754,9178.553681
150.339067,995.924147,-814.226536,8734.430116
150.339375,1225.752797,-518.144159,8512.368333
150.339683,1762.019645,-222.061783,8808.450710
150.339991,1532.190996,-296.082377,8660.409521
150.340299,1685.410096,-148.041188,8660.409521
150.340607,1685.410096,370.102971,8882.471304
150.340915,1608.800546,592.164754,8734.430116
150.341224,1378.971896,740.205942,9104.533087
150.341532,1378.971896,888.247130,9326.594869
150.341840,1378.971896,1036.288319,9474.636058
150.342148,1149.143247,666.185348,9918.759623
150.342456,459.657299,814.226536,10066.800811
150.342764,1149.143247,518.144159,10510.924376
150.343072,536.266849,518.144159,10732.986159
150.343380,459.657299,888.247130,10732.986159
150.343688,229.828649,1184.329507,10510.924376
150.343996,689.485948,1184.329507,10436.903782
150.344304,766.095498,1184.329507,10140.821405
150.344612,766.095498,1184.329507,9992.780217
150.344921,766.095498,1258.350101,9918.759623
150.345229,1378.971896,1554.432478,9622.677246
150.345537,1072.533697,1480.411884,9548.656652
150.345845,1225.752797,1406.391290,9474.636058
150.346153,919.314598,1184.329507,9474.636058
150.346461,612.876398,1184.329507,9622.677246
150.346769,229.828649,666.185348,9696.697840
150.347077,0.000000,370.102971,10066.800811
150.347385,-689.485948,-370.102971,10140.821405
150.347693,-766.095498,74.020594,10436.903782
150.348001,-842.705048,-814.226536,10140.821405
150.348309,-842.705048,-888.247130,9992.780217
150.348618,-766.095498,-740.205942,9844.739029
150.348926,-766.095498,-962.267725,9992.780217
150.349234,-536.266849,-1258.350101,9918.759623
150.349542,0.000000,-1332.370696,9992.780217
150.349850,-229.828649,-1332.370696,9474.636058
150.350158,383.047749,-1554.432478,9474.636058
150.350466,459.657299,-1554.432478,9474.636058
150.350774,383.047749,-1184.329507,9400.615463
150.351082,612.876398,-1332.370696,9326.594869
150.351390,919.314598,-1110.308913,8808.450710
150.351698,1455.581446,-814.226536,8808.450710
150.352006,1608.800546,-592.164754,8882.471304
150.352315,2221.676944,-518.144159,8290.306550
150.352623,2374.896044,370.102971,8364.327145
150.352931,2451.505594,962.267725,8364.327145
150.353239,2451.505594,962.267725,8068.244768
150.353547,2221.676944,1480.411884,8364.327145
150.353855,2068.457845,1258.350101,8586.388927
150.354163,2451.505594,1480.411884,8956.491898
150.354471,1302.362347,1036.288319,9474.636058
150.354779,919.314598,888.247130,9918.759623
150.355087,842.705048,962.267725,10214.842000
150.355395,766.095498,592.164754,10140.821405
150.355703,766.095498,1332.370696,10362.883188
150.356012,766.095498,1258.350101,10288.862594
150.356320,919.314598,1332.370696,10362.883188
150.356628,919.314598,1406.391290,10214.842000
150.356936,1149.143247,1258.350101,9918.759623
150.357244,919.314598,1702.473667,9770.718434
150.357552,1455.581446,1628.453072,10362.883188
150.357860,689.485948,1184.329507,9696.697840
150.358168,459.657299,1184.329507,9918.759623
150.358476,306.438199,962.267725,9918.759623
150.358784,-229.828649,518.144159,10140.821405
150.359092,0.000000,-148.041188,10066.800811
150.359400,-536.266849,-222.061783,10807.006753
150.359709,-766.095498,-1184.329507,10584.944971
150.360017,-1302.362347,-1184.329507,10214.842000
150.360325,-1225.752797,-740.205942,10066.800811
150.360633,-612.876398,-1110.308913,9918.759623
150.360941,-229.828649,-1036.288319,9992.780217
150.361249,0.000000,-1110.308913,9696.697840
150.361557,0.000000,-1258.350101,9474.636058
150.361865,0.000000,-1110.308913,9326.594869
150.362173,0.000000,-1184.329507,9326.594869
150.362481,766.095498,-1184.329507,9326.594869
150.362789,689.485948,-1184.329507,9030.512492
150.363098,995.924147,-740.205942,8882.471304
150.363406,1302.362347,-666.185348,8882.471304
150.363714,1302.362347,-148.041188,8808.450710
150.364022,2145.067394,-0.000000,8882.471304
150.364330,2145.067394,444.123565,8734.430116
150.364638,2068.457845,444.123565,8808.450710
150.364946,1762.019645,814.226536,8586.388927
150.365254,1685.410096,962.267725,9104.533087
150.365562,1532.190996,1184.329507,9400.615463
150.365870,1532.190996,1258.350101,9474.636058
150.366178,766.095498,1184.329507,9770.718434
150.366486,536.266849,888.247130,10066.800811
150.366795,612.876398,444.123565,10584.944971
150.367103,306.438199,666.185348,10658.965565
150.367411,766.095498,888.247130,10362.883188
150.367719,766.095498,888.247130,9992.780217
150.368027,766.095498,1184.329507,10066.800811
150.368335,1072.533697,1110.308913,10288.862594
150.368643,1225.752797,1258.350101,9992.780217
150.368951,1455.581446,1036.288319,9918.759623
150.369259,612.876398,1332.370696,9696.697840
150.369567,1149.143247,1406.391290,9770.718434
150.369875,766.095498,1184.329507,9918.759623
150.370183,459.657299,1036.288319,9474.636058
150.370492,153.219100,814.226536,9770.718434
150.370800,0.000000,592.164754,9770.718434
150.371108,-459.657299,-0.000000,9844.739029
150.371416,-995.924147,-518.144159,9992.780217
150.371724,-689.485948,-666.185348,10140.821405
150.372032,-1225.752797,-1110.308913,9992.780217
150.372340,-1072.533697,-1776.494261,10140.821405
150.372648,-842.705048,-1184.329507,10510.924376
150.372956,-919.314598,-1406.391290,9992.780217
150.373264,-612.876398,-1628.453072,9844.739029
150.373572,-536.266849,-1554.432478,9696.697840
150.373880,-153.219100,-1332.370696,9474.636058
150.374189,229.828649,-1184.329507,9474.636058
150.374497,842.705048,-1258.350101,9178.553681
150.374805,1915.238745,-1184.329507,8956.491898
150.375113,1378.971896,-962.267725,8586.388927
150.375421,1455.581446,-370.102971,8882.471304
150.375729,1378.971896,-222.061783,8660.409521
150.376037,2068.457845,148.041188,8586.388927
150.376345,2374.896044,592.164754,8290.306550
150.376653,2374.896044,1036.288319,8438.347739
150.376961,1838.629195,1406.391290,8512.368333
150.377269,2451.505594,1702.473667,8660.409521
150.377577,2145.067394,1554.432478,8808.450710
150.377886,1762.019645,1258.350101,9178.553681
150.378194,1225.752797,1110.308913,9474.636058
150.378502,1072.533697,962.267725,9918.759623
150.378810,766.095498,666.185348,9844.739029
150.379118,689.485948,1110.308913,10066.800811
150.379426,919.314598,1036.288319,10140.821405
150.379734,612.876398,962.267725,10362.883188
150.380042,383.047749,1110.308913,10584.944971
150.380350,766.095498,1110.308913,10436.903782
150.380658,766.095498,1332.370696,10362.883188
150.380966,766.095498,1406.391290,10066.800811
150.381274,995.924147,1110.308913,10288.862594
150.381583,76.609550,740.205942,9770.718434
150.381891,306.438199,740.205942,9770.718434
150.382199,612.876398,740.205942,9770.718434
150.382507,-383.047749,518.144159,9474.636058
150.382815,-229.828649,148.041188,9770.718434
150.383123,-612.876398,-148.041188,9696.697840
150.383431,-612.876398,-666.185348,9696.697840
150.383739,-995.924147,-814.226536,9770.718434
150.384047,-1072.533697,-1332.370696,9918.759623
150.384355,-612.876398,-1258.350101,9918.759623
150.384663,-229.828649,-1776.494261,10140.821405
150.384971,-306.438199,-1554.432478,9696.697840
150.385280,0.000000,-1406.391290,9696.697840
150.385588,0.000000,-1628.453072,9474.636058
150.385896,459.657299,-1332.370696,9474.636058
150.386204,766.095498,-1554.432478,9326.594869
150.386512,1149.143247,-888.247130,9178.553681
150.386820,1149.143247,-148.041188,8808.450710
150.387128,995.924147,-444.123565,8586.388927
150.387436,1608.800546,-0.000000,8512.368333
150.387744,1685.410096,-0.000000,8438.347739
150.388052,1838.629195,296.082377,8438.347739
150.388360,1532.190996,518.144159,8808.450710
150.388668,1762.019645,962.267725,8808.450710
150.388977,1762.019645,814.226536,9252.574275
150.389285,2068.457845,814.226536,9474.636058
150.389593,1302.362347,962.267725,9548.656652
150.389901,995.924147,1036.288319,9770.718434
150.390209,536.266849,1036.288319,10140.821405
150.390517,689.485948,1110.308913,10584.944971
150.390825,536.266849,1258.350101,10436.903782
150.391133,536.266849,1110.308913,10510.924376
150.391441,766.095498,1184.329507,10214.842000
150.391749,995.924147,1258.350101,10362.883188
150.392057,459.657299,1702.473667,10214.842000
150.392365,1378.971896,1480.411884,9770.718434
150.392674,1149.143247,1628.453072,9844.739029
150.392982,995.924147,1702.473667,9696.697840
150.393290,842.705048,1406.391290,9770.718434
150.393598,459.657299,1332.370696,9992.780217
150.393906,0.000000,962.267725,10140.821405
150.394214,0.000000,814.226536,9992.780217
150.394522,0.000000,370.102971,9918.759623
150.394830,-995.924147,-0.000000,10362.883188
150.395138,-1072.533697,-370.102971,10140.821405
150.395446,-1225.752797,-592.164754,10140.821405
150.395754,-1149.143247,-962.267725,10288.862594
150.396062,-995.924147,-1776.494261,10510.924376
150.396371,-536.266849,-1480.411884,10362.883188
150.396679,-306.438199,-2146.597232,10066.800811
150.396987,-842.705048,-1702.473667,9474.636058
150.397295,0.000000,-1628.453072,9918.759623
150.397603,0.000000,-1554.432478,9548.656652
150.397911,383.047749,-1184.329507,9400.615463
150.398219,1532.190996,-1110.308913,8956.491898
150.398527,1225.752797,-740.205942,8660.409521
150.398835,1532.190996,-1036.288319,8512.368333
150.399143,2068.457845,-222.061783,8512.368333
150.399451,2374.896044,222.061783,8142.265362
150.399759,2451.505594,740.205942,7846.182985
150.400068,2528.115143,888.247130,7920.203579
150.400376,2374.896044,1184.329507,7846.182985
150.400684,2374.896044,1258.350101,8586.388927
150.400992,1762.019645,814.226536,8660.409521
150.401300,1915.238745,1332.370696,9400.615463
150.401608,1225.752797,888.247130,9474.636058
150.401916,689.485948,1036.288319,10066.800811
150.402224,229.828649,962.267725,10362.883188
150.402532,229.828649,1036.288319,10584.944971
150.402840,153.219100,592.164754,10584.944971
150.403148,612.876398,444.123565,10955.047942
150.403456,306.438199,740.205942,11103.089130
150.403765,459.657299,962.267725,10955.047942
150.404073,612.876398,740.205942,10510.924376
150.404381,536.266849,1110.308913,10214.842000
150.404689,689.485948,1332.370696,9770.718434
150.404997,766.095498,1406.391290,9548.656652
150.405305,1072.533697,1554.432478,9474.636058
150.405613,995.924147,1332.370696,9400.615463
150.405921,1378.971896,740.205942,9252.574275
150.406229,842.705048,814.226536,9696.697840
150.406537,0.000000,-0.000000,9696.697840
150.406845,-459.657299,-148.041188,9474.636058
150.407153,-612.876398,-592.164754,9992.780217
150.407462,-995.924147,-888.247130,9622.677246
150.407770,-766.095498,-1036.288319,10214.842000
150.408078,-459.657299,-1554.432478,9918.759623
150.408386,-689.485948,-1628.453072,9844.739029
150.408694,0.000000,-1554.432478,9770.718434
150.409002,153.219100,-1406.391290,9844.739029
150.409310,229.828649,-1480.411884,9474.636058
150.409618,689.485948,-1184.329507,9326.594869
150.409926,919.314598,-1184.329507,9030.512492
150.410234,1225.752797,-814.226536,8808.450710
150.410542,842.705048,-1110.308913,8882.471304
150.410850,1455.581446,-814.226536,8734.430116
150.411159,1685.410096,-0.000000,8734.430116
150.411467,1762.019645,-0.000000,8586.388927
150.411775,1915.238745,592.164754,8660.409521
150.412083,2145.067394,1036.288319,8512.368333
150.412391,1991.848295,1406.391290,8808.450710
150.412699,1838.629195,1332.370696,8956.491898
150.413007,1455.581446,1480.411884,9178.553681
150.413315,1762.019645,1554.432478,9696.697840
150.413623,995.924147,1036.288319,9844.739029
150.413931,689.485948,1554.432478,10510.924376
150.414239,612.876398,1110.308913,10214.842000
150.414548,689.485948,962.267725,10362.883188
150.414856,536.266849,1036.288319,10510.924376
150.415164,766.095498,962.267725,10658.965565
150.415472,1532.190996,1110.308913,10510.924376
150.415780,1072.533697,888.247130,10436.903782
150.416088,1302.362347,888.247130,10066.800811
150.416396,1072.533697,1036.288319,9770.718434
150.416704,612.876398,1332.370696,9770.718434
150.417012,612.876398,1110.308913,9770.718434
150.417320,306.438199,1110.308913,9696.697840
150.417628,0.000000,962.267725,9770.718434
150.417936,0.000000,518.144159,10066.800811
150.418244,-459.657299,296.082377,10362.883188
150.418552,-1225.752797,-296.082377,10288.862594
150.418860,-1225.752797,-370.102971,9918.759623
150.419168,-919.314598,-814.226536,10288.862594
150.419477,-1225.752797,-1332.370696,10066.800811
150.419785,-995.924147,-1702.473667,10214.842000
150.420093,-1149.143247,-1776.494261,9992.780217
150.420401,-766.095498,-1998.556043,10288.862594
150.420709,-306.438199,-1776.494261,10066.800811
150.421017,0.000000,-1332.370696,9770.718434
150.421325,536.266849,-1850.514855,9474.636058
150.421633,1149.143247,-1258.350101,9030.512492
150.421941,1532.190996,-962.267725,8438.347739
150.422249,1838.629195,-592.164754,8364.327145
150.422557,1685.410096,-222.061783,8216.285956
150.422865,2068.457845,-0.000000,8364.327145
150.423173,2451.505594,370.102971,8364.327145
150.423481,2451.505594,518.144159,8142.265362
150.423789,2451.505594,814.226536,8586.388927
150.424097,1838.629195,1332.370696,8808.450710
150.424406,1991.848295,1258.350101,8882.471304
150.424714,1915.238745,1036.288319,9104.533087
150.425022,842.705048,1184.329507,9326.594869
150.425330,1378.971896,962.267725,10362.883188
150.425638,766.095498,740.205942,10140.821405
150.425946,459.657299,740.205942,10584.944971
150.426254,919.314598,444.123565,10288.862594
150.426562,1072.533697,1110.308913,10288.862594
150.426870,1072.533697,1110.308913,10510.924376
150.427178,995.924147,1184.329507,10214.842000
150.427486,1225.752797,1332.370696,10214.842000
150.427794,842.705048,1184.329507,9918.759623
150.428102,1455.581446,1480.411884,9918.759623
150.428410,1072.533697,1628.453072,9474.636058
150.428718,1225.752797,1258.350101,9474.636058
150.429027,689.485948,1480.411884,9326.594869
150.429335,459.657299,1036.288319,9474.636058
150.429643,153.219100,592.164754,9770.718434
150.429951,-689.485948,222.061783,9696.697840
150.430259,-536.266849,-444.123565,10066.800811
150.430567,-919.314598,-1110.308913,10362.883188
150.430875,-1378.971896,-1554.432478,9844.739029
150.431183,-995.924147,-1406.391290,10584.944971
150.431491,-1149.143247,-1554.432478,10066.800811
150.431799,-766.095498,-1702.473667,9992.780217
150.432107,-536.266849,-1554.432478,9918.759623
150.432415,76.609550,-1554.432478,9548.656652
150.432723,383.047749,-1554.432478,9474.636058
150.433031,306.438199,-1332.370696,9104.533087
150.433339,995.924147,-888.247130,8882.471304
150.433647,995.924147,-962.267725,8512.368333
150.433956,1302.362347,-518.144159,8586.388927
150.434264,1378.971896,-222.061783,8512.368333
150.434572,1532.190996,-0.000000,8512.368333
150.434880,1532.190996,370.102971,8512.368333
150.435188,1762.019645,518.144159,8364.327145
150.435496,1762.019645,740.205942,8438.347739
150.435804,1608.800546,814.226536,8586.388927
150.436112,1532.190996,740.205942,8882.471304
150.436420,1225.752797,1110.308913,9400.615463
150.436728,842.705048,962.267725,9474.636058
150.437036,383.047749,814.226536,9918.759623
150.437344,383.047749,888.247130,10362.883188
150.437652,459.657299,814.226536,10807.006753
150.437960,383.047749,1184.329507,10658.965565
150.438268,459.657299,888.247130,10807.006753
150.438576,919.314598,888.247130,10140.821405
150.438885,689.485948,962.267725,10140.821405
150.439193,689.485948,1258.350101,10066.800811
150.439501,995.924147,1258.350101,9918.759623
150.439809,1149.143247,1554.432478,9770.718434
150.440117,1225.752797,1480.411884,9770.718434
150.440425,1072.533697,1332.370696,9844.739029
150.440733,383.047749,1036.288319,9548.656652
150.441041,-76.609550,592.164754,9770.718434
150.441349,-306.438199,444.123565,9770.718434
150.441657,-766.095498,-0.000000,9918.759623
150.441965,-995.924147,-222.061783,10140.821405
150.442273,-995.924147,-444.123565,10066.800811
150.442581,-995.924147,-740.205942,10288.862594
150.442889,-1225.752797,-1628.453072,10732.986159
150.443197,-1685.410096,-1628.453072,10362.883188
150.443505,-536.266849,-1628.453072,10214.842000
150.443814,-612.876398,-1554.432478,10140.821405
150.444122,-306.438199,-1628.453072,9770.718434
150.444430,76.609550,-1406.391290,9326.594869
150.444738,459.657299,-1110.308913,9400.615463
150.445046,1225.752797,-1036.288319,9030.512492
150.445354,1378.971896,-518.144159,8956.491898
150.445662,1915.238745,-444.123565,8364.327145
150.445970,1762.019645,-222.061783,8290.306550
150.446278,1991.848295,222.061783,8364.327145
150.446586,2451.505594,444.123565,8142.265362
150.446894,2528.115143,888.247130,8068.244768
150.447202,2451.505594,888.247130,7994.224174
150.447510,2757.943793,962.267725,8068.244768
150.447818,2528.115143,1332.370696,8882.471304
150.448126,2145.067394,1184.329507,9326.594869
150.448435,1608.800546,1036.288319,9474.636058
150.448743,1149.143247,740.205942,10214.842000
150.449051,919.314598,888.247130,10362.883188
150.449359,689.485948,740.205942,10510.924376
150.449667,689.485948,444.123565,10584.944971
150.449975,689.485948,740.205942,10584.944971
150.450283,1378.971896,666.185348,10436.903782
150.450591,766.095498,1110.308913,10288.862594
150.450899,1302.362347,1258.350101,10140.821405
150.451207,1378.971896,1258.350101,9844.739029
150.451515,1378.971896,1628.453072,9548.656652
150.451823,1225.752797,1776.494261,9400.615463
150.452131,1225.752797,1776.494261,9474.636058
150.452439,842.705048,1776.494261,9474.636058
150.452747,383.047749,1258.350101,9548.656652
150.453055,229.828649,518.144159,9696.697840
150.453364,-153.219100,-0.000000,9474.636058
150.453672,-689.485948,-222.061783,10066.800811
150.453980,-995.924147,-592.164754,10214.842000
150.454288,-1225.752797,-962.267725,9992.780217
150.454596,-1378.971896,-1184.329507,9992.780217
150.454904,-1149.143247,-1850.514855,9918.759623
150.455212,-919.314598,-1628.453072,10510.924376
150.455520,-766.095498,-1480.411884,10362.883188
150.455828,-153.219100,-1554.432478,9622.677246
150.456136,-306.438199,-1480.411884,9474.636058
150.456444,153.219100,-1184.329507,9474.636058
150.456752,229.828649,-888.247130,9178.553681
150.457060,612.876398,-1258.350101,8808.450710
150.457368,1149.143247,-888.247130,8808.450710
150.457676,1378.971896,-444.123565,8660.409521
150.457984,1455.581446,-222.061783,8808.450710
150.458293,1225.752797,-0.000000,8660.409521
150.458601,1532.190996,518.144159,8438.347739
150.458909,1685.410096,666.185348,8586.388927
150.459217,1532.190996,740.205942,8882.471304
150.459525,1532.190996,814.226536,9178.553681
150.459833,1302.362347,740.205942,9400.615463
150.460141,1072.533697,888.247130,9474.636058
150.460449,842.705048,592.164754,9844.739029
150.460757,459.657299,1036.288319,10288.862594
150.461065,383.047749,888.247130,10362.883188
150.461373,459.657299,1258.350101,10436.903782
150.461681,766.095498,1184.329507,10140.821405
150.461989,689.485948,1036.288319,10214.842000
150.462297,1302.362347,1332.370696,10436.903782
150.462605,1302.362347,1776.494261,9918.759623
150.462914,1378.971896,1850.514855,9992.780217
150.463222,1225.752797,1554.432478,9770.718434
150.463530,766.095498,1480.411884,9844.739029
150.463838,766.095498,1406.391290,9992.780217
150.464146,306.438199,1184.329507,10066.800811
150.464454,153.219100,1110.308913,9992.780217
