#time,accel_x,accel_y,accel_z
278.344739,536.266849,370.102971,9770.718434
278.345047,766.095498,296.082377,9696.697840
278.345355,1225.752797,222.061783,9474.636058
278.345663,919.314598,-0.000000,9622.677246
278.345971,0.000000,-0.000000,9474.636058
278.346279,919.314598,296.082377,9844.739029
278.346587,612.876398,296.082377,9696.697840
278.346895,536.266849,296.082377,9696.697840
278.347203,536.266849,148.041188,9622.677246
278.347511,842.705048,296.082377,9548.656652
278.347819,536.266849,148.041188,9548.656652
278.348127,995.924147,222.061783,9474.636058
278.348435,1072.533697,-0.000000,9548.656652
278.348743,1149.143247,296.082377,9622.677246
278.349051,766.095498,148.041188,9326.594869
278.349359,689.485948,222.061783,9474.636058
278.349667,612.876398,222.061783,9400.615463
278.349975,766.095498,222.061783,9548.656652
278.350283,612.876398,-0.000000,9696.697840
278.350592,536.266849,-74.020594,9548.656652
278.350900,689.485948,-0.000000,9178.553681
278.351208,766.095498,-74.020594,9622.677246
278.351516,689.485948,222.061783,9770.718434
278.351824,536.266849,296.082377,9548.656652
278.352132,766.095498,296.082377,9622.677246
278.352440,689.485948,370.102971,9474.636058
278.352748,229.828649,-296.082377,9548.656652
278.353056,1072.533697,-0.000000,9622.677246
278.353364,459.657299,-0.000000,9844.739029
278.353672,689.485948,-0.000000,9992.780217
278.353980,306.438199,-0.000000,9548.656652
278.354288,459.657299,222.061783,9622.677246
278.354596,766.095498,222.061783,9474.636058
278.354904,536.266849,296.082377,9548.656652
278.355212,995.924147,-0.000000,9844.739029
278.355520,995.924147,-74.020594,9770.718434
278.355828,995.924147,-296.082377,9844.739029
278.356136,612.876398,-592.164754,9918.759623
278.356444,612.876398,-296.082377,9992.780217
278.356752,689.485948,-370.102971,10288.862594
278.357060,995.924147,-222.061783,10140.821405
278.357368,1378.971896,-0.000000,9474.636058
278.357676,1685.410096,592.164754,9030.512492
278.357984,2068.457845,518.144159,8956.491898
278.358292,2604.724693,444.123565,8882.471304
278.358600,2145.067394,592.164754,8734.430116
278.358908,1838.629195,370.102971,9400.615463
278.359216,1608.800546,296.082377,9474.636058
278.359524,1455.581446,-0.000000,9622.677246
278.359832,1685.410096,-0.000000,9844.739029
278.360140,1685.410096,-296.082377,9918.759623
278.360448,1915.238745,-0.000000,9918.759623
278.360756,1455.581446,-370.102971,10066.800811
278.361064,2145.067394,-0.000000,10140.821405
278.361372,2221.676944,-0.000000,9696.697840
278.361680,2298.286494,-0.000000,9474.636058
278.361988,2604.724693,444.123565,9400.615463
278.362297,2681.334243,370.102971,9474.636058
278.362605,2451.505594,222.061783,9474.636058
278.362913,2681.334243,444.123565,9474.636058
278.363221,2834.553343,592.164754,9622.677246
278.363529,2298.286494,-0.000000,9770.718434
278.363837,2451.505594,-0.000000,9844.739029
278.364145,2604.724693,296.082377,9770.718434
278.364453,2604.724693,148.041188,9770.718434
278.364761,2604.724693,148.041188,9696.697840
278.365069,2987.772442,-370.102971,9992.780217
278.365377,2834.553343,-222.061783,10214.842000
278.365685,2681.334243,-222.061783,10140.821405
278.365993,3217.601092,-0.000000,10214.842000
278.366301,3370.820191,-0.000000,9696.697840
278.366609,3600.648841,-0.000000,9622.677246
278.366917,3830.477490,222.061783,9474.636058
278.367225,4136.915689,592.164754,9252.574275
278.367533,4136.915689,592.164754,9104.533087
278.367841,4596.572988,296.082377,9252.574275
278.368149,4749.792088,148.041188,9400.615463
278.368457,4596.572988,-0.000000,9474.636058
278.368765,4366.744339,148.041188,9474.636058
278.369073,4443.353888,148.041188,9474.636058
278.369381,4213.525239,-0.000000,9622.677246
278.369689,4290.134789,296.082377,9474.636058
278.369997,4366.744339,592.164754,9400.615463
278.370305,4673.182538,666.185348,8956.491898
278.370613,4903.011187,962.267725,9104.533087
278.370921,4596.572988,1036.288319,9178.553681
278.371229,4826.401637,1554.432478,9104.533087
278.371537,4443.353888,1184.329507,8586.388927
278.371845,4213.525239,962.267725,9622.677246
278.372153,3983.696590,1036.288319,9696.697840
278.372461,2604.724693,-0.000000,9548.656652
278.372769,3140.991542,444.123565,10140.821405
278.373077,3447.429741,296.082377,9918.759623
278.373385,2834.553343,-0.000000,10214.842000
278.373693,2987.772442,518.144159,10584.944971
278.374001,2834.553343,814.226536,9770.718434
278.374310,2604.724693,740.205942,9622.677246
278.374618,2604.724693,740.205942,9474.636058
278.374926,2604.724693,962.267725,9992.780217
278.375234,2221.676944,222.061783,9844.739029
278.375542,1915.238745,-0.000000,9696.697840
278.375850,1532.190996,-296.082377,9844.739029
278.376158,1225.752797,-888.247130,10584.944971
278.376466,1225.752797,-1332.370696,10510.924376
278.376774,1608.800546,-1628.453072,10362.883188
278.377082,1991.848295,-1776.494261,10510.924376
278.377390,1991.848295,-1998.556043,10510.924376
278.377698,2681.334243,-2072.576638,10436.903782
278.378006,2911.162892,-1850.514855,10288.862594
278.378314,3753.867940,-1332.370696,9548.656652
278.378622,3907.087040,-592.164754,9104.533087
278.378930,4749.792088,-148.041188,9178.553681
278.379238,4903.011187,296.082377,8808.450710
278.379546,4826.401637,666.185348,8290.306550
278.379854,5286.058936,518.144159,8734.430116
278.380162,4903.011187,370.102971,8290.306550
278.380470,4443.353888,148.041188,8882.471304
278.380778,4060.306139,-0.000000,9030.512492
278.381086,3294.210641,-148.041188,9474.636058
278.381394,2987.772442,-296.082377,9918.759623
278.381702,2834.553343,-0.000000,9844.739029
278.382010,3600.648841,370.102971,9770.718434
278.382318,3677.258390,1184.329507,9474.636058
278.382626,3370.820191,2072.576638,8882.471304
278.382934,4136.915689,3034.844362,8438.347739
278.383242,4749.792088,3256.906145,8364.327145
278.383550,4519.963438,3256.906145,8290.306550
278.383858,4213.525239,2664.741391,9030.512492
278.384166,3217.601092,1036.288319,9992.780217
278.384474,2451.505594,-296.082377,10658.965565
278.384782,1378.971896,-1850.514855,12435.459826
278.385090,383.047749,-3256.906145,13249.686362
278.385398,383.047749,-3701.029710,13545.768739
278.385706,995.924147,-3552.988522,13101.645173
278.386015,2604.724693,-2812.782580,11917.315666
278.386323,3447.429741,-1554.432478,10066.800811
278.386631,5822.325785,-148.041188,9696.697840
278.386939,7048.078582,1184.329507,7550.100608
278.387247,6741.640382,2664.741391,5847.626942
278.387555,8580.269578,3849.070898,6513.812290
278.387863,8120.612279,4145.153275,5107.421000
278.388171,6894.859482,5181.441594,5329.482782
278.388479,6052.154434,4441.235652,5699.585753
278.388787,4596.572988,3034.844362,7105.977043
278.389095,2528.115143,1924.535449,8512.368333
278.389403,1838.629195,370.102971,10140.821405
278.389711,1149.143247,-1332.370696,11991.336260
278.390019,153.219100,-2960.823768,12435.459826
278.390327,-229.828649,-3923.091493,13693.809927
278.390635,76.609550,-3775.050304,13841.851115
278.390943,842.705048,-3923.091493,13619.789333
278.391251,1762.019645,-2812.782580,12583.501014
278.391559,3217.601092,-1776.494261,11251.130318
278.391867,4749.792088,-1184.329507,10140.821405
278.392175,5209.449386,814.226536,7920.203579
278.392483,6205.373534,1776.494261,6957.935855
278.392791,6052.154434,2516.700203,6661.853478
278.393099,5515.887586,3849.070898,5921.647536
278.393407,4903.011187,3997.112087,6069.688724
278.393715,4136.915689,3256.906145,6365.771101
278.394023,3064.381992,1702.473667,7328.038826
278.394331,1685.410096,222.061783,8586.388927
278.394639,919.314598,-1702.473667,10881.027347
278.394947,0.000000,-3108.864956,12213.398043
278.395255,-1225.752797,-4071.132681,13619.789333
278.395563,-1072.533697,-3849.070898,13545.768739
278.395871,306.438199,-3256.906145,12879.583391
278.396179,1838.629195,-1184.329507,11473.192101
278.396487,3753.867940,444.123565,9104.533087
278.396795,4673.182538,2590.720797,7031.956449
278.397103,5975.544884,4737.318029,5181.441594
278.397411,5975.544884,5255.462188,4885.359217
278.397719,6205.373534,5625.565159,4959.379811
278.398028,4903.011187,4589.276840,6069.688724
278.398336,2987.772442,1850.514855,8290.306550
278.398644,0.000000,-444.123565,9918.759623
278.398952,-1838.629195,-2368.659014,12657.521608
278.399260,-3294.210641,-5403.503377,15618.345376
278.399568,-4749.792088,-6661.853478,17024.736666
278.399876,-4903.011187,-5995.668130,16580.613101
278.400184,-1762.019645,-5329.482782,15470.304188
278.400492,-229.828649,-2960.823768,12361.439231
278.400800,2757.943793,592.164754,8290.306550
278.401108,5209.449386,3256.906145,5921.647536
278.401416,6588.421283,4367.215058,5107.421000
278.401724,7201.297681,6291.750507,3552.988522
278.402032,7201.297681,6439.791695,2516.700203
278.402340,6511.811733,5033.400406,4145.153275
278.402648,3294.210641,1702.473667,7105.977043
278.402956,229.828649,-1628.453072,10807.006753
278.403264,-2681.334243,-4589.276840,13027.624579
278.403572,-4749.792088,-5921.647536,14582.057057
278.403880,-3830.477490,-5995.668130,14952.160028
278.404188,-1915.238745,-4071.132681,13767.830521
278.404496,306.438199,-814.226536,11547.212695
278.404804,3907.087040,1628.453072,8660.409521
278.405112,5132.839837,4515.256246,6143.709319
278.405420,6435.202183,6883.915261,4663.297435
278.405728,6894.859482,7105.977043,4737.318029
278.406036,5745.716235,6439.791695,5477.523971
278.406344,4749.792088,4811.338623,6365.771101
278.406652,383.047749,1110.308913,9474.636058
278.406960,-2374.896044,-2812.782580,13545.768739
278.407268,-5132.839837,-5181.441594,16580.613101
278.407576,-7507.735880,-7328.038826,17246.798449
278.407884,-6971.469032,-8142.265362,17468.860231
278.408192,-4519.963438,-6513.812290,15914.427753
278.408500,-1072.533697,-2516.700203,12435.459826
278.408808,2374.896044,222.061783,8142.265362
278.409116,4826.401637,2812.782580,5107.421000
278.409424,7354.516781,5847.626942,4145.153275
278.409732,8656.879127,6661.853478,3034.844362
278.410040,7048.078582,6957.935855,2812.782580
278.410348,5592.497135,5255.462188,4885.359217
278.410656,2911.162892,2220.617826,7772.162391
278.410964,153.219100,-1184.329507,10214.842000
278.411272,-2757.943793,-3256.906145,11843.295072
278.411580,-3600.648841,-4145.153275,13101.645173
278.411888,-2757.943793,-4219.173869,13249.686362
278.412196,-306.438199,-2664.741391,12361.439231
278.412504,1762.019645,222.061783,9696.697840
278.412812,3140.991542,1258.350101,7105.977043
278.413120,3907.087040,2146.597232,6587.832884
278.413428,3983.696590,3627.009116,6957.935855
278.413736,3217.601092,2738.761985,7550.100608
278.414044,919.314598,1628.453072,9030.512492
278.414352,-689.485948,-370.102971,11325.150913
278.414660,-3217.601092,-1332.370696,11177.109724
278.414968,-3524.039291,-2368.659014,13397.727550
278.415276,-4596.572988,-2590.720797,13101.645173
278.415584,-4060.306139,-2368.659014,13101.645173
278.415892,-2451.505594,-1998.556043,12657.521608
278.416200,-229.828649,-296.082377,9474.636058
278.416507,1608.800546,518.144159,7846.182985
278.416815,3064.381992,1702.473667,6143.709319
278.417123,3677.258390,1480.411884,6661.853478
278.417431,2987.772442,1554.432478,7254.018232
278.417739,1991.848295,962.267725,8068.244768
278.418047,766.095498,740.205942,9400.615463
278.418355,306.438199,444.123565,9252.574275
278.418663,0.000000,962.267725,9178.553681
278.418971,306.438199,1036.288319,9030.512492
278.419279,1762.019645,1184.329507,9548.656652
278.419587,1149.143247,1776.494261,8586.388927
278.419895,1302.362347,1406.391290,9178.553681
278.420203,612.876398,-0.000000,9548.656652
278.420511,-919.314598,-1184.329507,10584.944971
278.420819,-1378.971896,-2960.823768,12657.521608
278.421127,-2987.772442,-3330.926739,13471.748144
278.421435,-3907.087040,-4589.276840,14137.933492
278.421743,-3677.258390,-4071.132681,13101.645173
278.422051,-2757.943793,-2146.597232,12361.439231
278.422359,-1149.143247,-370.102971,10510.924376
278.422667,842.705048,2072.576638,7994.224174
278.422975,2911.162892,4145.153275,6291.750507
278.423283,4366.744339,5181.441594,5403.503377
278.423591,5515.887586,4663.297435,5107.421000
278.423899,4979.620737,3256.906145,5107.421000
278.424207,3830.477490,1702.473667,7550.100608
278.424515,1455.581446,-666.185348,10140.821405
278.424822,-536.266849,-2738.761985,12213.398043
278.425130,-1762.019645,-3404.947333,12583.501014
278.425438,-1915.238745,-2738.761985,11621.233289
278.425746,-766.095498,-1406.391290,11399.171507
278.426054,995.924147,296.082377,10436.903782
278.426362,2528.115143,2516.700203,8142.265362
278.426670,4749.792088,4219.173869,6291.750507
278.426978,5592.497135,4885.359217,5255.462188
278.427286,4213.525239,3923.091493,6957.935855
278.427594,2681.334243,2146.597232,9400.615463
278.427902,459.657299,-0.000000,11621.233289
278.428210,-2221.676944,-2590.720797,13841.851115
278.428518,-4443.353888,-4959.379811,15100.201217
278.428826,-5209.449386,-5033.400406,15248.242405
278.429134,-4826.401637,-3997.112087,14359.995275
278.429442,-2451.505594,-2812.782580,13249.686362
278.429750,76.609550,-148.041188,9844.739029
278.430058,2604.724693,3034.844362,6291.750507
278.430366,5975.544884,3849.070898,5995.668130
278.430674,6894.859482,5403.503377,3404.947333
278.430982,7507.735880,5329.482782,3256.906145
278.431290,6052.154434,3997.112087,4589.276840
278.431598,3600.648841,1332.370696,7698.141797
278.431906,1302.362347,-1110.308913,11473.192101
278.432214,-995.924147,-2442.679609,11843.295072
278.432522,-2451.505594,-3256.906145,12065.356855
278.432830,-2451.505594,-2590.720797,11473.192101
278.433137,-1149.143247,-814.226536,11547.212695
278.433445,766.095498,814.226536,10732.986159
278.433753,2528.115143,1554.432478,8216.285956
278.434061,2145.067394,2516.700203,7105.977043
278.434369,3600.648841,2738.761985,6439.791695
278.434677,2757.943793,1702.473667,7994.224174
278.434985,689.485948,592.164754,9992.780217
278.435293,-536.266849,-962.267725,11473.192101
278.435601,-3217.601092,-2738.761985,12953.603985
278.435909,-3907.087040,-3775.050304,13841.851115
278.436217,-4826.401637,-3330.926739,13619.789333
278.436525,-4290.134789,-2294.638420,12361.439231
278.436833,-1991.848295,-444.123565,11251.130318
278.437141,536.266849,1258.350101,9104.533087
278.437449,2987.772442,2738.761985,6439.791695
278.437757,4136.915689,3404.947333,4959.379811
278.438065,3983.696590,2368.659014,5625.565159
278.438373,3294.210641,2220.617826,6957.935855
278.438681,2145.067394,740.205942,8956.491898
278.438989,0.000000,-740.205942,9918.759623
278.439297,-842.705048,-1332.370696,10436.903782
278.439605,-1532.190996,-814.226536,10436.903782
278.439913,-1225.752797,-296.082377,10288.862594
278.440221,0.000000,444.123565,10436.903782
278.440529,995.924147,1480.411884,9474.636058
278.440837,1838.629195,2146.597232,7994.224174
278.441145,2528.115143,1702.473667,8290.306550
278.441452,1762.019645,666.185348,8734.430116
278.441760,306.438199,-592.164754,9992.780217
278.442068,-919.314598,-2220.617826,11695.253884
278.442376,-2757.943793,-3404.947333,13397.727550
278.442684,-3907.087040,-3775.050304,13767.830521
278.442992,-4136.915689,-2960.823768,12879.583391
278.443300,-3140.991542,-1480.411884,12287.418637
278.443608,-1762.019645,-296.082377,11325.150913
278.443916,76.609550,2146.597232,8586.388927
278.444224,2987.772442,3552.988522,6735.874072
278.444532,4443.353888,4071.132681,5403.503377
278.444840,4596.572988,3478.967927,5847.626942
278.445148,3830.477490,2368.659014,6957.935855
278.445456,2451.505594,962.267725,8290.306550
278.445764,995.924147,-962.267725,10066.800811
278.446072,76.609550,-1924.535449,11621.233289
278.446380,-1378.971896,-2368.659014,11251.130318
278.446688,-1225.752797,-1406.391290,10881.027347
278.446996,0.000000,-518.144159,10436.903782
278.447304,1378.971896,962.267725,9252.574275
278.447612,2681.334243,2294.638420,7920.203579
278.447920,4596.572988,3404.947333,6883.915261
278.448228,4213.525239,3182.885551,7254.018232
278.448536,3370.820191,1850.514855,8290.306550
278.448844,1762.019645,518.144159,9770.718434
278.449152,-306.438199,-1554.432478,11991.336260
278.449460,-2451.505594,-3182.885551,13545.768739
278.449767,-3907.087040,-4145.153275,13915.871710
278.450075,-3677.258390,-3627.009116,13397.727550
278.450383,-3064.381992,-2294.638420,11843.295072
278.450691,-612.876398,-74.020594,10362.883188
278.450999,2604.724693,1480.411884,8586.388927
278.451307,4366.744339,3923.091493,5847.626942
278.451615,5209.449386,4145.153275,4959.379811
278.451923,5669.106685,3849.070898,5255.462188
278.452231,4979.620737,3256.906145,6069.688724
278.452539,3140.991542,1406.391290,8290.306550
278.452847,1762.019645,-296.082377,10732.986159
278.453155,-1225.752797,-1776.494261,10214.842000
278.453463,0.000000,-3330.926739,13619.789333
278.453771,-2221.676944,-1258.350101,9770.718434
278.454079,-1532.190996,-518.144159,11103.089130
278.454387,1072.533697,-222.061783,11547.212695
278.454695,1685.410096,2664.741391,6957.935855
278.455003,3140.991542,1998.556043,8216.285956
278.455311,2987.772442,3256.906145,5699.585753
278.455619,2911.162892,1184.329507,8512.368333
278.455927,383.047749,-0.000000,9844.739029
278.456235,-919.314598,-1110.308913,11769.274478
278.456543,-2298.286494,-2812.782580,13989.892304
278.456851,-4519.963438,-4071.132681,13323.706956
278.457159,-3983.696590,-3552.988522,13989.892304
278.457467,-3753.867940,-1702.473667,11177.109724
278.457775,-1225.752797,-296.082377,11029.068536
278.458082,1302.362347,1406.391290,8142.265362
278.458390,3140.991542,3552.988522,6291.750507
278.458698,4136.915689,3552.988522,5403.503377
278.459006,4136.915689,3034.844362,4589.276840
278.459314,3830.477490,2220.617826,7254.018232
278.459622,1838.629195,1184.329507,8512.368333
278.459930,842.705048,-888.247130,10140.821405
278.460238,-1072.533697,-1554.432478,10881.027347
278.460546,-1838.629195,-2072.576638,11621.233289
278.460854,-1915.238745,-1258.350101,11399.171507
278.461162,-995.924147,-222.061783,10881.027347
278.461470,536.266849,518.144159,10584.944971
278.461778,842.705048,1480.411884,7920.203579
278.462086,2068.457845,2368.659014,8068.244768
278.462394,2298.286494,1258.350101,8290.306550
278.462702,1991.848295,740.205942,9030.512492
278.463010,306.438199,-370.102971,10732.986159
278.463318,-842.705048,-2590.720797,12657.521608
278.463626,-2604.724693,-3034.844362,12879.583391
278.463934,-4060.306139,-2886.803174,12879.583391
278.464242,-2834.553343,-2442.679609,13027.624579
278.464550,-2298.286494,-1110.308913,10584.944971
278.464858,-306.438199,1332.370696,9474.636058
278.465166,2757.943793,1850.514855,7920.203579
278.465474,3524.039291,3552.988522,5181.441594
278.465782,4519.963438,3404.947333,5477.523971
278.466090,5132.839837,2442.679609,5699.585753
278.466397,3370.820191,1480.411884,7254.018232
278.466705,1915.238745,-0.000000,9326.594869
278.467013,766.095498,-1406.391290,10288.862594
278.467321,-612.876398,-1850.514855,11251.130318
278.467629,-1072.533697,-1554.432478,11621.233289
278.467937,-383.047749,-1184.329507,11029.068536
278.468245,536.266849,296.082377,10436.903782
278.468553,1455.581446,1332.370696,9400.615463
278.468861,2604.724693,2590.720797,7476.080014
278.469169,3447.429741,2812.782580,7179.997637
278.469477,3294.210641,1776.494261,7550.100608
278.469785,2068.457845,740.205942,9474.636058
278.470093,842.705048,-888.247130,11325.150913
278.470401,-1838.629195,-2664.741391,12361.439231
278.470709,-3677.258390,-3182.885551,13767.830521
278.471017,-3064.381992,-3849.070898,14434.015869
278.471325,-3217.601092,-1850.514855,12509.480420
278.471633,-1532.190996,-74.020594,10510.924376
278.471941,842.705048,1184.329507,9252.574275
278.472249,2681.334243,2738.761985,6735.874072
278.472557,4290.134789,3330.926739,5329.482782
278.472865,5132.839837,3330.926739,5255.462188
278.473173,4749.792088,2294.638420,5773.606348
278.473481,3370.820191,1628.453072,7772.162391
278.473789,1532.190996,370.102971,9252.574275
278.474097,306.438199,-1110.308913,10881.027347
278.474405,-1302.362347,-1628.453072,11029.068536
278.474712,-1455.581446,-1036.288319,10881.027347
278.475020,-995.924147,-888.247130,11325.150913
278.475328,-229.828649,-0.000000,10510.924376
278.475636,1532.190996,962.267725,9548.656652
278.475944,2757.943793,2368.659014,7846.182985
278.476252,2604.724693,2072.576638,7179.997637
278.476560,2298.286494,888.247130,8660.409521
278.476868,689.485948,-0.000000,9918.759623
278.477176,-919.314598,-1924.535449,11843.295072
278.477484,-2834.553343,-3034.844362,13545.768739
278.477792,-3677.258390,-3701.029710,13767.830521
278.478100,-4596.572988,-3627.009116,13249.686362
278.478408,-2528.115143,-1702.473667,13175.665768
278.478716,-1608.800546,-222.061783,10807.006753
278.479024,459.657299,1554.432478,8660.409521
278.479332,2681.334243,2886.803174,6439.791695
278.479640,3907.087040,3849.070898,4811.338623
278.479948,4136.915689,3182.885551,5699.585753
278.480256,4519.963438,2886.803174,6809.894666
278.480564,2681.334243,1554.432478,7179.997637
278.480872,1378.971896,-222.061783,9326.594869
278.481180,-612.876398,-1258.350101,10881.027347
278.481488,-1302.362347,-1776.494261,11473.192101
278.481796,-1915.238745,-1554.432478,11547.212695
278.482104,-1455.581446,-962.267725,11325.150913
278.482412,153.219100,666.185348,10214.842000
278.482720,1302.362347,1480.411884,8882.471304
278.483027,2451.505594,2516.700203,8512.368333
278.483335,2451.505594,1332.370696,7698.141797
278.483643,1838.629195,740.205942,8956.491898
278.483951,383.047749,-666.185348,10362.883188
278.484259,-1225.752797,-2072.576638,11917.315666
278.484567,-2451.505594,-3182.885551,13545.768739
278.484875,-3830.477490,-3404.947333,13101.645173
278.485183,-2911.162892,-2442.679609,13027.624579
278.485491,-1608.800546,-1184.329507,11843.295072
278.485799,0.000000,1258.350101,9696.697840
278.486107,2374.896044,2368.659014,7031.956449
278.486415,4366.744339,3701.029710,5625.565159
278.486723,5209.449386,3701.029710,5107.421000
278.487031,5286.058936,3701.029710,4959.379811
278.487339,4136.915689,2368.659014,5921.647536
278.487647,2987.772442,888.247130,8734.430116
278.487955,1072.533697,-814.226536,9992.780217
278.488263,-306.438199,-1850.514855,11547.212695
278.488571,-1532.190996,-2146.597232,11547.212695
278.488879,-1532.190996,-1702.473667,11843.295072
278.489187,-995.924147,-740.205942,11621.233289
278.489495,459.657299,222.061783,10362.883188
278.489803,1685.410096,1850.514855,8734.430116
278.490111,2451.505594,2516.700203,7994.224174
278.490419,2987.772442,2220.617826,8438.347739
278.490727,2374.896044,740.205942,8438.347739
278.491035,842.705048,-296.082377,10658.965565
278.491342,-766.095498,-1776.494261,12213.398043
278.491650,-2451.505594,-2664.741391,13471.748144
278.491958,-3370.820191,-3256.906145,13397.727550
278.492266,-2911.162892,-2442.679609,12361.439231
278.492574,-1685.410096,-444.123565,11029.068536
278.492882,0.000000,1036.288319,9474.636058
278.493190,2757.943793,2812.782580,6957.935855
278.493498,4673.182538,4293.194464,5403.503377
278.493806,5439.278036,4737.318029,4737.318029
278.494114,5056.230287,3849.070898,4737.318029
278.494422,5286.058936,2664.741391,6809.894666
278.494730,2528.115143,740.205942,8586.388927
278.495038,153.219100,-1036.288319,10288.862594
278.495346,-919.314598,-1776.494261,11695.253884
278.495654,-2451.505594,-2516.700203,12065.356855
278.495962,-2757.943793,-1850.514855,12065.356855
278.496270,-1838.629195,-888.247130,12065.356855
278.496578,-306.438199,-0.000000,11029.068536
278.496886,842.705048,1258.350101,9326.594869
278.497194,2298.286494,2220.617826,7994.224174
278.497502,2221.676944,814.226536,8142.265362
278.497810,1532.190996,222.061783,9474.636058
278.498118,229.828649,-666.185348,10955.047942
278.498426,-1608.800546,-2072.576638,12213.398043
278.498734,-2757.943793,-3404.947333,13323.706956
278.499042,-3600.648841,-2738.761985,12509.480420
278.499350,-2451.505594,-1998.556043,11695.253884
278.499657,-1149.143247,-0.000000,10140.821405
278.499965,842.705048,1776.494261,8364.327145
278.500273,2834.553343,2368.659014,6735.874072
278.500581,3600.648841,3923.091493,4589.276840
278.500889,4903.011187,3330.926739,5107.421000
278.501197,3907.087040,2886.803174,5847.626942
278.501505,2987.772442,1628.453072,7698.141797
278.501813,1225.752797,-0.000000,9770.718434
278.502121,-229.828649,-1258.350101,10732.986159
278.502429,-1685.410096,-2664.741391,11991.336260
278.502737,-2374.896044,-1776.494261,11769.274478
278.503045,-2298.286494,-1480.411884,11991.336260
278.503353,-1378.971896,-222.061783,10955.047942
278.503661,459.657299,666.185348,9548.656652
278.503969,1915.238745,1776.494261,8290.306550
278.504277,2834.553343,1480.411884,7328.038826
278.504585,2374.896044,1110.308913,8068.244768
278.504893,1608.800546,-0.000000,9844.739029
278.505201,229.828649,-1702.473667,11917.315666
278.505509,-1991.848295,-2738.761985,12879.583391
278.505817,-2451.505594,-3256.906145,13545.768739
278.506125,-3447.429741,-2516.700203,12731.542202
278.506433,-1915.238745,-1406.391290,11621.233289
278.506741,0.000000,518.144159,9622.677246
278.507049,2068.457845,1998.556043,7476.080014
278.507357,4673.182538,3330.926739,6143.709319
278.507665,4673.182538,4293.194464,4811.338623
278.507972,5286.058936,3330.926739,5329.482782
278.508280,4290.134789,2664.741391,6217.729913
278.508588,3524.039291,1480.411884,8142.265362
278.508896,1072.533697,-222.061783,9918.759623
278.509204,-689.485948,-1480.411884,11251.130318
278.509512,-1608.800546,-1924.535449,11917.315666
278.509820,-1915.238745,-1776.494261,12287.418637
278.510128,-1685.410096,-1554.432478,12139.377449
278.510436,0.000000,-0.000000,10732.986159
278.510744,1378.971896,1258.350101,9400.615463
278.511052,2298.286494,2072.576638,7994.224174
278.511360,2987.772442,1776.494261,7772.162391
278.511668,2451.505594,1110.308913,9326.594869
278.511976,1532.190996,-296.082377,10140.821405
278.512284,0.000000,-1036.288319,11325.150913
278.512592,-2221.676944,-2590.720797,13101.645173
278.512900,-2681.334243,-3404.947333,13397.727550
278.513208,-3447.429741,-2072.576638,11991.336260
278.513516,-1762.019645,-1110.308913,11843.295072
278.513824,536.266849,-0.000000,9918.759623
278.514132,2068.457845,2516.700203,6217.729913
278.514440,4136.915689,3478.967927,6069.688724
278.514747,6205.373534,3997.112087,4959.379811
278.515055,5515.887586,3997.112087,4293.194464
278.515363,4826.401637,2738.761985,6365.771101
278.515671,3524.039291,1924.535449,8068.244768
278.515979,689.485948,-370.102971,10066.800811
278.516287,-1608.800546,-1628.453072,11251.130318
278.516595,-2681.334243,-2368.659014,12065.356855
278.516903,-3140.991542,-3034.844362,11991.336260
278.517211,-2145.067394,-1776.494261,11991.336260
278.517519,-229.828649,-296.082377,11325.150913
278.517827,766.095498,666.185348,9400.615463
278.518135,2068.457845,1110.308913,8364.327145
278.518443,2221.676944,1332.370696,7772.162391
278.518751,2374.896044,666.185348,8660.409521
278.519059,612.876398,-0.000000,10436.903782
278.519367,-842.705048,-1628.453072,11769.274478
278.519675,-2834.553343,-2738.761985,13027.624579
278.519983,-2987.772442,-3404.947333,12953.603985
278.520291,-3064.381992,-2220.617826,11769.274478
278.520599,-1685.410096,-962.267725,10436.903782
278.520907,459.657299,518.144159,8808.450710
278.521214,2681.334243,2294.638420,6883.915261
278.521522,4443.353888,3701.029710,5329.482782
278.521830,5439.278036,3701.029710,4515.256246
278.522138,5132.839837,3330.926739,5107.421000
278.522446,4673.182538,2368.659014,6661.853478
278.522754,2451.505594,962.267725,8142.265362
278.523062,229.828649,-888.247130,10732.986159
278.523370,-1302.362347,-2294.638420,11843.295072
278.523678,-2451.505594,-2294.638420,11991.336260
278.523986,-2681.334243,-2368.659014,12139.377449
278.524294,-1762.019645,-666.185348,11695.253884
278.524602,76.609550,222.061783,10881.027347
278.524910,1532.190996,1406.391290,9030.512492
278.525218,2221.676944,1480.411884,8512.368333
278.525526,1608.800546,1110.308913,8290.306550
278.525834,919.314598,-0.000000,9548.656652
278.526142,0.000000,-1332.370696,11769.274478
278.526450,-1225.752797,-2516.700203,12953.603985
278.526758,-2374.896044,-2960.823768,13397.727550
278.527066,-3140.991542,-2664.741391,12065.356855
278.527373,-2451.505594,-1258.350101,11843.295072
278.527681,-536.266849,222.061783,10362.883188
278.527989,1225.752797,2146.597232,8512.368333
278.528297,3600.648841,2886.803174,6217.729913
278.528605,4979.620737,4367.215058,4663.297435
278.528913,5439.278036,4293.194464,4959.379811
278.529221,5209.449386,3108.864956,5847.626942
278.529529,3907.087040,2294.638420,7476.080014
278.529837,1991.848295,518.144159,9474.636058
278.530145,0.000000,-1258.350101,11769.274478
278.530453,-2068.457845,-1776.494261,11843.295072
278.530761,-2528.115143,-1850.514855,12287.418637
278.531069,-1991.848295,-888.247130,11695.253884
278.531377,-1225.752797,-222.061783,11251.130318
278.531685,153.219100,1110.308913,10288.862594
278.531993,2221.676944,1776.494261,8808.450710
278.532301,2068.457845,1702.473667,8290.306550
278.532609,1762.019645,1036.288319,8808.450710
278.532917,919.314598,-222.061783,10362.883188
278.533225,-612.876398,-1258.350101,11769.274478
278.533532,-1378.971896,-2294.638420,13249.686362
278.533840,-3217.601092,-3330.926739,13693.809927
278.534148,-3753.867940,-2590.720797,12657.521608
278.534456,-2068.457845,-1776.494261,12139.377449
278.534764,-459.657299,-0.000000,9992.780217
278.535072,1838.629195,1924.535449,7772.162391
278.535380,3907.087040,3478.967927,5773.606348
278.535688,5056.230287,3923.091493,4663.297435
278.535996,5286.058936,3627.009116,5181.441594
278.536304,5132.839837,2664.741391,5255.462188
278.536612,3983.696590,2442.679609,6439.791695
278.536920,2451.505594,444.123565,8660.409521
278.537228,0.000000,-1110.308913,10584.944971
278.537536,-1608.800546,-1554.432478,11547.212695
278.537844,-2451.505594,-1850.514855,11621.233289
278.538152,-1991.848295,-1110.308913,11547.212695
278.538460,-612.876398,-296.082377,11103.089130
278.538768,1225.752797,444.123565,10214.842000
278.539076,2068.457845,962.267725,8586.388927
278.539384,2374.896044,740.205942,8660.409521
278.539692,1685.410096,444.123565,9474.636058
278.539999,229.828649,-444.123565,10288.862594
278.540307,-1225.752797,-1554.432478,11991.336260
278.540615,-2068.457845,-3182.885551,13175.665768
278.540923,-3217.601092,-2590.720797,12361.439231
278.541231,-3370.820191,-2442.679609,13323.706956
278.541539,-612.876398,-1924.535449,11843.295072
278.541847,-1608.800546,-0.000000,7846.182985
278.542155,2451.505594,1258.350101,7476.080014
278.542463,4136.915689,2960.823768,5699.585753
278.542771,4749.792088,3997.112087,4293.194464
278.543079,5745.716235,3256.906145,5625.565159
278.543387,5056.230287,3182.885551,4293.194464
278.543695,2987.772442,2072.576638,7550.100608
278.544003,1072.533697,-888.247130,9474.636058
278.544311,-383.047749,-518.144159,10955.047942
278.544619,-2145.067394,-1924.535449,12435.459826
278.544927,-2451.505594,-1258.350101,11621.233289
278.545235,-1302.362347,-592.164754,11843.295072
278.545543,0.000000,296.082377,10732.986159
278.545851,1532.190996,1184.329507,9474.636058
278.546158,2068.457845,1702.473667,8586.388927
278.546466,2068.457845,666.185348,8808.450710
278.546774,1532.190996,-666.185348,10140.821405
278.547082,-612.876398,-814.226536,10510.924376
278.547390,-2145.067394,-2368.659014,13027.624579
278.547698,-2987.772442,-3108.864956,13841.851115
278.548006,-3677.258390,-2812.782580,13767.830521
278.548314,-2987.772442,-2442.679609,13323.706956
278.548622,-1685.410096,-1036.288319,10362.883188
278.548930,766.095498,518.144159,9252.574275
278.549238,2757.943793,2738.761985,7402.059420
278.549546,4826.401637,3923.091493,5699.585753
278.549854,5822.325785,4589.276840,4737.318029
278.550162,5745.716235,4367.215058,4737.318029
278.550470,5132.839837,3404.947333,5995.668130
278.550778,2834.553343,2072.576638,7550.100608
278.551086,1225.752797,-74.020594,10214.842000
278.551394,-1225.752797,-1184.329507,11325.150913
278.551702,-2221.676944,-1628.453072,11843.295072
278.552010,-2298.286494,-1332.370696,11843.295072
278.552318,-995.924147,-518.144159,11103.089130
278.552625,306.438199,-0.000000,10362.883188
278.552933,1378.971896,962.267725,9400.615463
278.553241,1838.629195,1184.329507,8808.450710
278.553549,1532.190996,444.123565,9474.636058
278.553857,689.485948,-0.000000,10362.883188
278.554165,-306.438199,-1110.308913,11251.130318
278.554473,-2145.067394,-2220.617826,12583.501014
278.554781,-2911.162892,-2812.782580,13101.645173
278.555089,-3447.429741,-2960.823768,13027.624579
278.555397,-2604.724693,-2146.597232,12065.356855
278.555705,-1302.362347,-962.267725,11177.109724
278.556013,229.828649,370.102971,8734.430116
278.556321,2757.943793,2368.659014,6809.894666
278.556629,5056.230287,3330.926739,5107.421000
278.556937,5898.935335,3849.070898,4589.276840
278.557245,5592.497135,3627.009116,4589.276840
278.557553,4749.792088,2442.679609,5921.647536
278.557861,2451.505594,962.267725,7624.121203
278.558169,1225.752797,-1036.288319,10140.821405
278.558477,-1302.362347,-2072.576638,11621.233289
278.558784,-2604.724693,-2368.659014,11843.295072
278.559092,-2374.896044,-1998.556043,12065.356855
278.559400,-1302.362347,-740.205942,11251.130318
278.559708,229.828649,-0.000000,10214.842000
278.560016,1378.971896,1554.432478,8660.409521
278.560324,2451.505594,1258.350101,8586.388927
278.560632,1532.190996,888.247130,8512.368333
278.560940,766.095498,296.082377,10214.842000
278.561248,-153.219100,-1184.329507,11399.171507
278.561556,-2681.334243,-1850.514855,11843.295072
278.561864,-2681.334243,-3034.844362,14211.954086
278.562172,-3064.381992,-2738.761985,12805.562797
278.562480,-3217.601092,-2442.679609,12731.542202
278.562788,-1072.533697,-1036.288319,10732.986159
278.563096,995.924147,888.247130,8512.368333
278.563404,3217.601092,2146.597232,6957.935855
278.563712,5209.449386,3478.967927,4959.379811
278.564020,5592.497135,4219.173869,4663.297435
278.564328,5592.497135,3701.029710,4811.338623
278.564636,4903.011187,2960.823768,6143.709319
278.564944,2911.162892,1776.494261,7846.182985
278.565251,842.705048,-296.082377,10288.862594
278.565559,-689.485948,-1036.288319,11769.274478
278.565867,-1838.629195,-888.247130,11473.192101
278.566175,-1685.410096,-1110.308913,11991.336260
278.566483,-153.219100,-0.000000,10955.047942
278.566791,689.485948,1110.308913,9770.718434
278.567099,1532.190996,1628.453072,9030.512492
278.567407,1608.800546,1184.329507,8956.491898
278.567715,1762.019645,518.144159,10066.800811
278.568023,-229.828649,-518.144159,11621.233289
278.568331,-1532.190996,-2072.576638,12213.398043
278.568639,-2298.286494,-1924.535449,13175.665768
278.568947,-2987.772442,-3256.906145,14063.912898
278.569255,-3064.381992,-2886.803174,12731.542202
278.569563,-2528.115143,-1406.391290,11991.336260
278.569871,-536.266849,-444.123565,10955.047942
278.570179,1608.800546,1702.473667,7698.141797
278.570487,3524.039291,3182.885551,6069.688724
278.570795,5515.887586,3849.070898,5255.462188
278.571103,6052.154434,4441.235652,5033.400406
278.571410,5362.668486,3849.070898,5107.421000
278.571718,4060.306139,2368.659014,6735.874072
278.572026,2451.505594,666.185348,8808.450710
278.572334,0.000000,-666.185348,9918.759623
278.572642,-1072.533697,-1776.494261,11399.171507
278.572950,-1685.410096,-1776.494261,11103.089130
278.573258,-1225.752797,-1036.288319,11251.130318
278.573566,-1149.143247,-444.123565,10510.924376
278.573874,536.266849,814.226536,9400.615463
278.574182,1608.800546,888.247130,9474.636058
278.574490,1225.752797,1332.370696,8586.388927
278.574798,995.924147,444.123565,9474.636058
278.575106,-306.438199,-444.123565,10362.883188
278.575414,-995.924147,-2146.597232,11843.295072
278.575722,-2757.943793,-3108.864956,13249.686362
278.576030,-3753.867940,-3256.906145,13471.748144
278.576338,-3677.258390,-3108.864956,14137.933492
278.576646,-2757.943793,-2220.617826,11917.315666
278.576954,-842.705048,-370.102971,10288.862594
278.577262,1225.752797,1184.329507,7920.203579
278.577570,3983.696590,2886.803174,5699.585753
278.577877,5592.497135,3923.091493,4663.297435
278.578185,5592.497135,3849.070898,4367.215058
278.578493,5898.935335,3034.844362,4959.379811
278.578801,3830.477490,2146.597232,6957.935855
278.579109,1762.019645,444.123565,9252.574275
278.579417,-306.438199,-888.247130,10584.944971
278.579725,-1378.971896,-1554.432478,11251.130318
278.580033,-1991.848295,-1036.288319,10732.986159
278.580341,-612.876398,-740.205942,11103.089130
278.580649,536.266849,370.102971,10732.986159
278.580957,1302.362347,1332.370696,8956.491898
278.581265,2451.505594,1628.453072,8586.388927
278.581573,1991.848295,1110.308913,8808.450710
278.581881,612.876398,518.144159,9918.759623
278.582189,0.000000,-962.267725,11473.192101
278.582497,-1608.800546,-2146.597232,12731.542202
278.582805,-3294.210641,-3404.947333,14285.974681
278.583113,-3677.258390,-3701.029710,14434.015869
278.583421,-3294.210641,-2664.741391,13989.892304
278.583729,-2604.724693,-1554.432478,12509.480420
278.584036,0.000000,-0.000000,10066.800811
278.584344,2374.896044,2368.659014,7179.997637
278.584652,4136.915689,3552.988522,5625.565159
278.584960,5515.887586,4071.132681,5107.421000
278.585268,6358.592633,4145.153275,4515.256246
278.585576,4826.401637,3849.070898,5625.565159
278.585884,3447.429741,1406.391290,7328.038826
278.586192,1685.410096,296.082377,9474.636058
278.586500,-536.266849,-962.267725,11251.130318
278.586808,-1991.848295,-1628.453072,11769.274478
278.587116,-1608.800546,-1332.370696,11399.171507
278.587424,-612.876398,-666.185348,10881.027347
278.587732,536.266849,518.144159,10140.821405
278.588040,2757.943793,1850.514855,8808.450710
278.588348,2834.553343,1850.514855,7920.203579
278.588656,1915.238745,1332.370696,8660.409521
278.588964,1149.143247,296.082377,9696.697840
278.589272,-306.438199,-666.185348,11177.109724
278.589580,-2145.067394,-2294.638420,12953.603985
278.589888,-2834.553343,-3330.926739,13027.624579
278.590195,-4060.306139,-3997.112087,13989.892304
278.590503,-3907.087040,-3256.906145,14137.933492
278.590811,-2911.162892,-1702.473667,11843.295072
278.591119,0.000000,-0.000000,9474.636058
278.591427,2221.676944,1924.535449,7105.977043
278.591735,4519.963438,3404.947333,4737.318029
278.592043,6205.373534,3701.029710,5107.421000
278.592351,5975.544884,3849.070898,4589.276840
278.592659,5132.839837,2590.720797,5403.503377
278.592967,3753.867940,1406.391290,7105.977043
278.593275,1455.581446,-444.123565,9548.656652
278.593583,-383.047749,-962.267725,10510.924376
278.593891,-1532.190996,-1332.370696,10658.965565
278.594199,-1302.362347,-1480.411884,11695.253884
278.594507,-766.095498,-444.123565,10362.883188
278.594815,689.485948,444.123565,9992.780217
278.595123,1991.848295,1628.453072,8882.471304
278.595431,2145.067394,888.247130,8512.368333
278.595739,1915.238745,814.226536,9326.594869
278.596047,0.000000,-148.041188,10066.800811
278.596355,-1378.971896,-1184.329507,11695.253884
278.596662,-2681.334243,-2368.659014,12731.542202
278.596970,-3677.258390,-2738.761985,14137.933492
278.597278,-4213.525239,-3478.967927,13767.830521
278.597586,-2911.162892,-2590.720797,13027.624579
278.597894,-2145.067394,-814.226536,11251.130318
278.598202,383.047749,888.247130,9030.512492
278.598510,2987.772442,2516.700203,6809.894666
278.598818,4749.792088,3849.070898,5255.462188
278.599126,6052.154434,3775.050304,4737.318029
278.599434,5132.839837,3701.029710,4811.338623
278.599742,4519.963438,2442.679609,6513.812290
278.600050,2451.505594,148.041188,8512.368333
278.600358,383.047749,-740.205942,10288.862594
278.600666,-306.438199,-1184.329507,11547.212695
278.600974,-995.924147,-962.267725,11029.068536
278.601282,-1072.533697,-370.102971,10732.986159
278.601590,153.219100,-74.020594,10881.027347
278.601898,1762.019645,1702.473667,9474.636058
278.602206,2221.676944,2220.617826,8216.285956
278.602514,1455.581446,1850.514855,8882.471304
278.602821,919.314598,518.144159,9326.594869
278.603129,-306.438199,-518.144159,11325.150913
278.603437,-1762.019645,-2072.576638,12509.480420
278.603745,-3217.601092,-2812.782580,13323.706956
278.604053,-4213.525239,-3478.967927,13915.871710
278.604361,-3830.477490,-3330.926739,14137.933492
278.604669,-2987.772442,-2072.576638,12213.398043
278.604977,-1302.362347,-444.123565,10807.006753
278.605285,2068.457845,1628.453072,8142.265362
278.605593,3907.087040,3330.926739,6439.791695
278.605901,5362.668486,3849.070898,4885.359217
278.606209,6128.763984,3849.070898,4811.338623
278.606517,5362.668486,3849.070898,4811.338623
278.606825,3753.867940,2294.638420,6735.874072
278.607133,2145.067394,-0.000000,8956.491898
278.607441,229.828649,-1110.308913,10362.883188
278.607749,-1225.752797,-1702.473667,11103.089130
278.608057,-1225.752797,-1258.350101,10510.924376
278.608365,0.000000,-740.205942,10732.986159
278.608673,689.485948,222.061783,9696.697840
278.608981,1915.238745,1406.391290,8586.388927
278.609288,2757.943793,2220.617826,7994.224174
278.609596,2757.943793,1258.350101,7920.203579
278.609904,1149.143247,370.102971,8882.471304
278.610212,-536.266849,-222.061783,10807.006753
278.610520,-1378.971896,-1998.556043,12583.501014
278.610828,-3830.477490,-2960.823768,13471.748144
278.611136,-4749.792088,-3627.009116,14211.954086
278.611444,-4290.134789,-3552.988522,13989.892304
278.611752,-3447.429741,-2294.638420,12509.480420
278.612060,-1302.362347,-444.123565,10881.027347
278.612368,1532.190996,1184.329507,7402.059420
278.612676,4290.134789,2812.782580,5699.585753
278.612984,5362.668486,3404.947333,5033.400406
278.613292,5592.497135,3330.926739,4737.318029
278.613600,4596.572988,3034.844362,5329.482782
278.613908,3600.648841,2072.576638,7105.977043
278.614216,2068.457845,296.082377,8808.450710
278.614524,0.000000,-814.226536,9992.780217
278.614832,-229.828649,-1036.288319,10955.047942
278.615140,-1378.971896,-1332.370696,10362.883188
278.615448,-919.314598,-444.123565,11695.253884
278.615756,536.266849,370.102971,9992.780217
278.616064,1685.410096,1998.556043,8956.491898
278.616372,2145.067394,1480.411884,8956.491898
278.616680,1838.629195,1480.411884,8512.368333
278.616988,612.876398,148.041188,10288.862594
278.617296,-1302.362347,-888.247130,11843.295072
278.617604,-2757.943793,-2442.679609,12731.542202
278.617912,-3907.087040,-2886.803174,14582.057057
278.618221,-4213.525239,-3182.885551,14137.933492
278.618529,-3983.696590,-2368.659014,13545.768739
278.618837,-1915.238745,-1184.329507,11917.315666
278.619145,0.000000,666.185348,9622.677246
278.619453,2528.115143,2368.659014,7698.141797
278.619761,5286.058936,3478.967927,5847.626942
278.620069,6052.154434,4071.132681,5181.441594
278.620377,5822.325785,3627.009116,5033.400406
278.620685,4673.182538,2442.679609,5699.585753
278.620993,2987.772442,1776.494261,7698.141797
278.621301,1608.800546,-74.020594,10140.821405
278.621609,0.000000,-592.164754,10436.903782
278.621917,-1072.533697,-1332.370696,10732.986159
278.622225,-1225.752797,-1110.308913,11029.068536
278.622533,459.657299,-444.123565,10881.027347
278.622841,995.924147,814.226536,9400.615463
278.623149,2834.553343,1480.411884,8216.285956
278.623457,2681.334243,1776.494261,7772.162391
278.623765,2298.286494,888.247130,8734.430116
278.624073,995.924147,-0.000000,9844.739029
278.624381,0.000000,-888.247130,11103.089130
278.624689,-2298.286494,-3034.844362,13175.665768
278.624997,-3217.601092,-3701.029710,13619.789333
278.625305,-3830.477490,-3404.947333,13841.851115
278.625613,-3140.991542,-2738.761985,12953.603985
278.625921,-1685.410096,-1258.350101,10807.006753
278.626229,919.314598,888.247130,8734.430116
278.626537,3677.258390,2294.638420,6957.935855
278.626845,4903.011187,3552.988522,4811.338623
278.627153,6281.983084,3627.009116,4293.194464
278.627461,5592.497135,3701.029710,4811.338623
278.627769,4136.915689,2590.720797,5921.647536
278.628077,2528.115143,1036.288319,8142.265362
278.628385,612.876398,-518.144159,9844.739029
278.628693,-1072.533697,-1480.411884,10955.047942
278.629001,-1378.971896,-1480.411884,11695.253884
278.629309,-1378.971896,-1628.453072,11251.130318
278.629617,-766.095498,-518.144159,11103.089130
278.629925,1225.752797,-0.000000,10066.800811
278.630233,2298.286494,1480.411884,8882.471304
278.630542,2145.067394,1406.391290,8290.306550
278.630850,1608.800546,666.185348,9030.512492
278.631158,0.000000,-0.000000,9918.759623
278.631466,-995.924147,-1184.329507,11547.212695
278.631774,-2911.162892,-2664.741391,12805.562797
278.632082,-4290.134789,-2960.823768,13249.686362
278.632390,-3294.210641,-2886.803174,14211.954086
278.632698,-3217.601092,-1776.494261,12509.480420
278.633006,-1532.190996,-222.061783,10510.924376
278.633314,1225.752797,962.267725,8586.388927
278.633622,3217.601092,3404.947333,6217.729913
278.633930,5056.230287,3627.009116,5625.565159
278.634238,5592.497135,3701.029710,4737.318029
278.634546,4749.792088,3330.926739,5403.503377
278.634854,3524.039291,2072.576638,7179.997637
278.635162,1762.019645,592.164754,9030.512492
278.635470,-76.609550,-888.247130,11103.089130
278.635778,-1762.019645,-1776.494261,11399.171507
278.636086,-2221.676944,-1406.391290,11621.233289
278.636394,-1149.143247,-1184.329507,11991.336260
278.636702,-229.828649,148.041188,11103.089130
278.637010,536.266849,1184.329507,9474.636058
278.637318,2221.676944,1332.370696,8956.491898
278.637626,2604.724693,1776.494261,8068.244768
278.637934,1302.362347,888.247130,9252.574275
278.638242,459.657299,-0.000000,10436.903782
278.638550,-1378.971896,-1332.370696,11621.233289
278.638858,-3064.381992,-2664.741391,13767.830521
278.639166,-3677.258390,-3182.885551,13841.851115
278.639474,-4060.306139,-2812.782580,13027.624579
278.639782,-2374.896044,-1998.556043,12509.480420
278.640090,-536.266849,-0.000000,9696.697840
278.640398,1838.629195,2220.617826,7624.121203
278.640706,4443.353888,3256.906145,6143.709319
278.641014,5975.544884,3849.070898,4663.297435
278.641322,5822.325785,3182.885551,4663.297435
278.641630,4673.182538,2590.720797,5551.544565
278.641938,2911.162892,1702.473667,6809.894666
278.642246,1685.410096,370.102971,9548.656652
278.642554,-536.266849,-1110.308913,10732.986159
278.642863,-1225.752797,-1406.391290,10807.006753
278.643171,-1302.362347,-1480.411884,11399.171507
278.643479,-536.266849,-814.226536,11029.068536
278.643787,153.219100,-0.000000,10140.821405
278.644095,2145.067394,1406.391290,9696.697840
278.644403,1991.848295,1702.473667,7846.182985
278.644711,2298.286494,1036.288319,8142.265362
278.645019,1838.629195,666.185348,9030.512492
278.645327,153.219100,-592.164754,10288.862594
278.645635,-1685.410096,-2072.576638,12065.356855
278.645943,-2987.772442,-3182.885551,13249.686362
278.646251,-3753.867940,-3627.009116,14063.912898
278.646559,-3753.867940,-2960.823768,13619.789333
278.646867,-2451.505594,-1702.473667,11547.212695
278.647175,-689.485948,592.164754,9178.553681
278.647483,2604.724693,2220.617826,7402.059420
278.647791,4596.572988,3330.926739,5329.482782
278.648099,5362.668486,3701.029710,4959.379811
278.648407,5132.839837,3478.967927,5033.400406
278.648715,3907.087040,2516.700203,6439.791695
278.649023,2528.115143,1924.535449,7624.121203
278.649331,612.876398,-444.123565,10140.821405
278.649639,-536.266849,-1406.391290,11621.233289
278.649947,-1838.629195,-1776.494261,11547.212695
278.650255,-2298.286494,-1702.473667,11547.212695
278.650563,-1072.533697,-814.226536,11547.212695
278.650871,612.876398,-0.000000,10510.924376
278.651179,1532.190996,1406.391290,8660.409521
278.651487,2604.724693,1850.514855,8068.244768
278.651795,1991.848295,1850.514855,7994.224174
278.652103,1378.971896,444.123565,9474.636058
278.652411,229.828649,-370.102971,10658.965565
278.652719,-1915.238745,-1850.514855,12361.439231
278.653027,-3524.039291,-3108.864956,13989.892304
278.653335,-4136.915689,-2960.823768,13841.851115
278.653643,-3294.210641,-2220.617826,13175.665768
278.653951,-1915.238745,-1628.453072,11251.130318
278.654259,459.657299,666.185348,9178.553681
278.654567,2604.724693,2590.720797,7402.059420
278.654875,4903.011187,3478.967927,6069.688724
278.655183,5898.935335,3923.091493,4737.318029
278.655492,5056.230287,3701.029710,4589.276840
278.655800,3983.696590,2886.803174,5995.668130
278.656108,2451.505594,1110.308913,7994.224174
278.656416,689.485948,-444.123565,10510.924376
278.656724,-842.705048,-1702.473667,11251.130318
278.657032,-2374.896044,-2072.576638,11991.336260
278.657340,-2298.286494,-1702.473667,12213.398043
278.657648,-1455.581446,-814.226536,11695.253884
278.657956,153.219100,296.082377,10807.006753
278.658264,1762.019645,1332.370696,9104.533087
278.658572,2221.676944,1406.391290,8438.347739
278.658880,1915.238745,666.185348,8956.491898
278.659188,842.705048,-74.020594,9622.677246
278.659496,-229.828649,-1036.288319,10807.006753
278.659804,-1762.019645,-1850.514855,12065.356855
278.660112,-2911.162892,-2516.700203,13323.706956
278.660420,-2987.772442,-2812.782580,13249.686362
278.660728,-2451.505594,-1924.535449,11917.315666
278.661036,-919.314598,-592.164754,10807.006753
278.661344,1608.800546,888.247130,8512.368333
278.661652,3600.648841,3034.844362,6217.729913
278.661960,5209.449386,3701.029710,4885.359217
278.662268,6052.154434,3923.091493,4515.256246
278.662576,5362.668486,3552.988522,4811.338623
278.662884,3907.087040,2516.700203,5625.565159
278.663192,2298.286494,518.144159,8364.327145
278.663500,383.047749,-814.226536,10140.821405
278.663808,-1455.581446,-1850.514855,11695.253884
278.664116,-2221.676944,-2072.576638,12139.377449
278.664424,-2145.067394,-1554.432478,11843.295072
278.664732,-1225.752797,-666.185348,11695.253884
278.665040,383.047749,592.164754,10288.862594
278.665348,1838.629195,962.267725,9030.512492
278.665656,1762.019645,1480.411884,8364.327145
278.665964,1762.019645,74.020594,8956.491898
278.666272,-153.219100,-666.185348,10436.903782
278.666580,-1378.971896,-2072.576638,11843.295072
278.666888,-3064.381992,-2664.741391,12953.603985
278.667196,-3677.258390,-3256.906145,13989.892304
278.667504,-3677.258390,-2886.803174,13175.665768
278.667813,-2451.505594,-1998.556043,11843.295072
278.668121,-842.705048,-148.041188,10140.821405
278.668429,1838.629195,1554.432478,7476.080014
278.668737,4673.182538,3701.029710,5773.606348
278.669045,6128.763984,4737.318029,4589.276840
278.669353,6052.154434,4071.132681,4367.215058
278.669661,5439.278036,3997.112087,4737.318029
278.669969,3907.087040,2812.782580,6365.771101
278.670277,1762.019645,666.185348,9030.512492
278.670585,-153.219100,-1184.329507,10807.006753
278.670893,-1991.848295,-1554.432478,11991.336260
278.671201,-2374.896044,-2072.576638,12879.583391
278.671509,-2451.505594,-1702.473667,12583.501014
278.671817,-919.314598,-518.144159,11399.171507
278.672125,689.485948,888.247130,10140.821405
278.672433,2068.457845,1628.453072,8660.409521
278.672741,2221.676944,1702.473667,8660.409521
278.673049,1762.019645,814.226536,9622.677246
278.673357,612.876398,-444.123565,10066.800811
278.673665,-1685.410096,-1480.411884,11843.295072
278.673973,-2834.553343,-3034.844362,13545.768739
278.674281,-3983.696590,-3478.967927,13767.830521
278.674589,-3753.867940,-2738.761985,13471.748144
278.674897,-2528.115143,-1776.494261,12139.377449
278.675205,-306.438199,518.144159,9252.574275
278.675513,2374.896044,1850.514855,7624.121203
278.675821,4903.011187,3478.967927,5551.544565
278.676129,7124.688131,4293.194464,4145.153275
278.676437,6588.421283,4145.153275,4219.173869
278.676745,5669.106685,3330.926739,4885.359217
278.677053,4136.915689,2368.659014,6513.812290
278.677361,1762.019645,518.144159,8808.450710
278.677669,-383.047749,-1258.350101,10807.006753
278.677977,-1915.238745,-1554.432478,12065.356855
278.678285,-2374.896044,-2294.638420,11991.336260
278.678593,-2298.286494,-1332.370696,11843.295072
278.678901,-306.438199,-296.082377,11103.089130
278.679209,1149.143247,1110.308913,9844.739029
278.679517,1915.238745,1702.473667,8660.409521
278.679825,2068.457845,962.267725,8734.430116
278.680134,1072.533697,222.061783,9474.636058
278.680442,-306.438199,-592.164754,11473.192101
278.680750,-1838.629195,-2072.576638,12287.418637
278.681058,-3140.991542,-2664.741391,13989.892304
278.681366,-3983.696590,-3256.906145,13915.871710
278.681674,-3140.991542,-2812.782580,13027.624579
278.681982,-2145.067394,-1258.350101,11103.089130
278.682290,76.609550,148.041188,9178.553681
278.682598,3524.039291,2294.638420,7105.977043
278.682906,5362.668486,3923.091493,5033.400406
278.683214,6435.202183,4145.153275,4071.132681
278.683522,5898.935335,4071.132681,4367.215058
278.683830,5209.449386,3478.967927,5551.544565
278.684138,2757.943793,2146.597232,7328.038826
278.684446,1225.752797,-0.000000,9326.594869
278.684754,-842.705048,-888.247130,11399.171507
278.685062,-2145.067394,-2072.576638,12065.356855
278.685370,-2528.115143,-1702.473667,12509.480420
278.685678,-1838.629195,-1406.391290,12139.377449
278.685986,-459.657299,-0.000000,10658.965565
278.686294,1455.581446,1406.391290,8956.491898
278.686602,2068.457845,1628.453072,8660.409521
278.686910,1762.019645,666.185348,9178.553681
278.687218,459.657299,370.102971,9696.697840
278.687526,-459.657299,-1628.453072,11991.336260
278.687834,-2298.286494,-2664.741391,13027.624579
278.688142,-3294.210641,-2442.679609,13841.851115
278.688450,-3370.820191,-2590.720797,13693.809927
278.688758,-2528.115143,-2146.597232,12583.501014
278.689066,-1149.143247,-74.020594,10584.944971
278.689374,1378.971896,1480.411884,8734.430116
278.689682,4136.915689,3330.926739,6069.688724
278.689990,4979.620737,4589.276840,5033.400406
278.690298,5822.325785,3923.091493,4737.318029
278.690606,5745.716235,3775.050304,5551.544565
278.690914,3677.258390,2442.679609,5847.626942
278.691222,1532.190996,592.164754,8438.347739
278.691530,0.000000,-1332.370696,11621.233289
278.691838,-1991.848295,-2146.597232,12287.418637
278.692146,-2911.162892,-2294.638420,12287.418637
278.692454,-1991.848295,-1850.514855,12213.398043
278.692763,-689.485948,-1036.288319,11325.150913
278.693071,383.047749,444.123565,9770.718434
278.693379,2451.505594,1850.514855,8290.306550
278.693687,2604.724693,1850.514855,7920.203579
278.693995,2451.505594,1184.329507,8216.285956
278.694303,1302.362347,-74.020594,9548.656652
278.694611,-689.485948,-1184.329507,11251.130318
278.694919,-2221.676944,-2368.659014,12953.603985
278.695227,-2681.334243,-3701.029710,13249.686362
278.695535,-3830.477490,-3478.967927,13101.645173
278.695843,-2374.896044,-2368.659014,12287.418637
278.696151,-229.828649,-370.102971,9548.656652
278.696459,1838.629195,1702.473667,7772.162391
278.696767,4903.011187,3034.844362,6291.750507
278.697075,5898.935335,4441.235652,3997.112087
278.697383,6205.373534,4515.256246,3849.070898
278.697691,5745.716235,3404.947333,4737.318029
278.697999,4366.744339,2738.761985,6365.771101
278.698307,1532.190996,888.247130,8586.388927
278.698615,-306.438199,-1110.308913,10881.027347
278.698923,-1685.410096,-2220.617826,12213.398043
278.699231,-2987.772442,-2368.659014,12213.398043
278.699539,-2298.286494,-1702.473667,12361.439231
278.699847,-1302.362347,-814.226536,11547.212695
278.700155,842.705048,740.205942,10140.821405
278.700463,1915.238745,1628.453072,8290.306550
278.700771,2604.724693,1332.370696,8216.285956
278.701079,1991.848295,518.144159,9030.512492
278.701387,76.609550,-148.041188,9918.759623
278.701695,-1455.581446,-1628.453072,11843.295072
278.702003,-2987.772442,-2886.803174,12879.583391
278.702311,-3370.820191,-3256.906145,13397.727550
278.702619,-3677.258390,-3034.844362,13693.809927
278.702927,-2834.553343,-2220.617826,11843.295072
278.703235,-919.314598,-0.000000,10288.862594
278.703543,2374.896044,1406.391290,8068.244768
278.703851,4443.353888,3552.988522,5551.544565
278.704159,5822.325785,4293.194464,4663.297435
278.704467,5975.544884,4219.173869,3923.091493
278.704775,5362.668486,3923.091493,5033.400406
278.705084,3600.648841,2146.597232,7105.977043
278.705392,1762.019645,666.185348,9474.636058
278.705700,0.000000,-888.247130,10807.006753
278.706008,-1915.238745,-1406.391290,11399.171507
278.706316,-2757.943793,-1924.535449,12361.439231
278.706624,-2068.457845,-1258.350101,12139.377449
278.706932,-536.266849,-0.000000,11103.089130
278.707240,1378.971896,1258.350101,9696.697840
278.707548,2298.286494,1036.288319,8364.327145
278.707856,1915.238745,1332.370696,9104.533087
278.708164,536.266849,-444.123565,10214.842000
278.708472,-919.314598,-1110.308913,11399.171507
278.708780,-2451.505594,-2294.638420,12731.542202
278.709088,-3524.039291,-3182.885551,13915.871710
278.709396,-3753.867940,-3108.864956,13693.809927
278.709704,-3447.429741,-2442.679609,12953.603985
278.710012,-2451.505594,-1480.411884,11547.212695
278.710320,383.047749,666.185348,9474.636058
278.710628,2528.115143,2220.617826,7624.121203
278.710936,5286.058936,3923.091493,5551.544565
278.711244,5975.544884,4737.318029,3627.009116
278.711552,6052.154434,4367.215058,4367.215058
278.711860,5286.058936,3478.967927,5107.421000
278.712168,3907.087040,1998.556043,6513.812290
278.712476,1762.019645,-0.000000,9474.636058
278.712784,-459.657299,-1406.391290,10584.944971
278.713092,-766.095498,-1406.391290,11029.068536
278.713400,-1608.800546,-1406.391290,11473.192101
278.713708,-1378.971896,-888.247130,11399.171507
278.714016,1149.143247,-0.000000,11547.212695
278.714324,1608.800546,1480.411884,8290.306550
278.714632,2911.162892,1406.391290,8142.265362
278.714940,2145.067394,666.185348,9400.615463
278.715248,383.047749,148.041188,9400.615463
278.715556,-995.924147,-1554.432478,12065.356855
278.715864,-1838.629195,-2590.720797,12583.501014
278.716172,-4213.525239,-3108.864956,13545.768739
278.716480,-3447.429741,-3627.009116,14211.954086
278.716788,-3140.991542,-1998.556043,12435.459826
278.717096,-1685.410096,-1406.391290,12361.439231
278.717404,689.485948,370.102971,9030.512492
278.717712,3294.210641,2664.741391,7179.997637
278.718020,5975.544884,3478.967927,5477.523971
278.718328,6052.154434,4219.173869,3775.050304
278.718636,6052.154434,4219.173869,4515.256246
278.718944,4979.620737,3182.885551,5403.503377
278.719252,3600.648841,1776.494261,7328.038826
278.719560,842.705048,296.082377,9178.553681
278.719868,0.000000,-1406.391290,11325.150913
278.720176,-1608.800546,-1332.370696,11251.130318
278.720484,-2068.457845,-1702.473667,11769.274478
278.720792,-1072.533697,-592.164754,11695.253884
278.721100,306.438199,370.102971,9770.718434
278.721408,1685.410096,1702.473667,9104.533087
278.721716,1915.238745,1850.514855,8512.368333
278.722023,1532.190996,1110.308913,9474.636058
278.722331,0.000000,-592.164754,9992.780217
278.722639,-995.924147,-1258.350101,11547.212695
278.722947,-2528.115143,-2590.720797,13027.624579
278.723255,-4136.915689,-3034.844362,13989.892304
278.723563,-3753.867940,-2960.823768,13841.851115
278.723871,-2911.162892,-2220.617826,12139.377449
278.724179,-1915.238745,-592.164754,11103.089130
278.724487,842.705048,222.061783,9326.594869
278.724795,2834.553343,2294.638420,5995.668130
278.725103,4826.401637,3849.070898,5625.565159
278.725411,5669.106685,3775.050304,4145.153275
278.725719,5592.497135,3997.112087,4663.297435
278.726027,4673.182538,2960.823768,6217.729913
278.726335,2604.724693,1406.391290,7772.162391
278.726643,459.657299,-0.000000,9696.697840
278.726951,-1072.533697,-1554.432478,11103.089130
278.727259,-2221.676944,-1628.453072,12879.583391
278.727567,-1762.019645,-1480.411884,12435.459826
278.727875,-1378.971896,-740.205942,11251.130318
278.728183,0.000000,518.144159,10288.862594
278.728491,1378.971896,814.226536,9030.512492
278.728799,1302.362347,1184.329507,8734.430116
278.729107,306.438199,-0.000000,9622.677246
278.729415,-689.485948,-1036.288319,10288.862594
278.729723,-1378.971896,-1406.391290,11843.295072
278.730031,-2681.334243,-2516.700203,13471.748144
278.730339,-3294.210641,-3404.947333,12953.603985
278.730647,-3217.601092,-2220.617826,12731.542202
278.730955,-2068.457845,-1850.514855,11251.130318
278.731263,-536.266849,-148.041188,9696.697840
278.731571,2374.896044,1702.473667,7846.182985
278.731879,4136.915689,3182.885551,5329.482782
278.732187,6205.373534,3775.050304,4737.318029
278.732495,6971.469032,3627.009116,4663.297435
278.732803,5592.497135,3627.009116,4367.215058
278.733111,4596.572988,2072.576638,5995.668130
278.733419,2145.067394,518.144159,8142.265362
278.733727,76.609550,-1036.288319,10955.047942
278.734035,-919.314598,-2146.597232,12065.356855
278.734343,-1685.410096,-2072.576638,12139.377449
278.734651,-1455.581446,-814.226536,11547.212695
278.734959,-459.657299,-444.123565,10807.006753
278.735267,995.924147,1110.308913,9844.739029
278.735575,1991.848295,1554.432478,8956.491898
278.735883,2145.067394,1480.411884,8808.450710
278.736191,766.095498,740.205942,9548.656652
278.736499,-306.438199,-666.185348,10881.027347
278.736807,-1608.800546,-2220.617826,12509.480420
278.737115,-2757.943793,-2812.782580,12879.583391
278.737423,-2911.162892,-3256.906145,13249.686362
278.737731,-3064.381992,-2590.720797,13027.624579
278.738039,-1915.238745,-2072.576638,11621.233289
278.738347,0.000000,-148.041188,10140.821405
278.738655,2374.896044,1924.535449,7550.100608
278.738963,4443.353888,3256.906145,5995.668130
278.739271,5669.106685,4441.235652,4959.379811
278.739579,6435.202183,4663.297435,4145.153275
278.739887,5975.544884,3849.070898,5403.503377
278.740195,3677.258390,2664.741391,6809.894666
278.740503,1915.238745,962.267725,8956.491898
278.740811,-383.047749,-222.061783,11103.089130
278.741119,-1685.410096,-1184.329507,12139.377449
278.741427,-2451.505594,-1406.391290,11917.315666
278.741735,-1302.362347,-1258.350101,12065.356855
278.742043,0.000000,-518.144159,11547.212695
278.742351,995.924147,518.144159,9622.677246
278.742659,1685.410096,1554.432478,9178.553681
278.742967,1455.581446,370.102971,9400.615463
278.743275,306.438199,-0.000000,10362.883188
278.743583,-995.924147,-666.185348,11251.130318
278.743891,-2145.067394,-1776.494261,12213.398043
278.744199,-2834.553343,-2442.679609,12805.562797
278.744507,-3140.991542,-2812.782580,13841.851115
278.744815,-3140.991542,-2368.659014,13101.645173
278.745123,-2451.505594,-1406.391290,11325.150913
278.745431,0.000000,-0.000000,9622.677246
278.745739,2451.505594,1850.514855,7105.977043
278.746047,4443.353888,3404.947333,5773.606348
278.746354,6052.154434,3923.091493,4515.256246
278.746662,5745.716235,3923.091493,3775.050304
278.746970,4749.792088,2516.700203,5551.544565
278.747278,2757.943793,1332.370696,7254.018232
278.747586,1149.143247,-148.041188,9252.574275
278.747894,-1149.143247,-2072.576638,10732.986159
278.748202,-2068.457845,-2220.617826,11473.192101
278.748510,-2451.505594,-2368.659014,11917.315666
278.748818,-2145.067394,-1406.391290,11473.192101
278.749126,383.047749,-0.000000,10362.883188
278.749434,1532.190996,1110.308913,8586.388927
278.749742,2145.067394,1554.432478,8364.327145
278.750050,2145.067394,1480.411884,8290.306550
278.750358,842.705048,444.123565,9104.533087
278.750666,-153.219100,-370.102971,10436.903782
278.750974,-1608.800546,-1480.411884,11547.212695
278.751282,-2757.943793,-2812.782580,13471.748144
278.751590,-3753.867940,-3330.926739,13841.851115
278.751898,-3677.258390,-2590.720797,13027.624579
278.752206,-2528.115143,-1924.535449,11621.233289
278.752514,-536.266849,-296.082377,9474.636058
278.752822,2374.896044,2072.576638,8068.244768
278.753130,4596.572988,3330.926739,5625.565159
278.753438,6128.763984,4071.132681,4589.276840
278.753746,6128.763984,3849.070898,4219.173869
278.754054,5515.887586,2738.761985,5255.462188
278.754362,3907.087040,1628.453072,7476.080014
278.754670,1302.362347,-74.020594,9696.697840
278.754978,-383.047749,-962.267725,11177.109724
278.755286,-1608.800546,-1480.411884,11769.274478
278.755594,-1532.190996,-1480.411884,12139.377449
278.755902,-766.095498,-592.164754,11621.233289
278.756210,766.095498,740.205942,10436.903782
278.756518,2298.286494,1628.453072,9178.553681
278.756826,2987.772442,1554.432478,8216.285956
278.757134,2221.676944,1406.391290,8808.450710
278.757442,766.095498,148.041188,9400.615463
278.757750,-459.657299,-1110.308913,11547.212695
278.758058,-1838.629195,-1776.494261,12731.542202
278.758366,-3447.429741,-2886.803174,13323.706956
278.758674,-3907.087040,-2738.761985,13767.830521
278.758982,-3370.820191,-2220.617826,13323.706956
278.759290,-2221.676944,-1110.308913,11399.171507
278.759598,76.609550,888.247130,9918.759623
278.759906,2834.553343,2590.720797,7105.977043
278.760214,4366.744339,4071.132681,5699.585753
278.760522,5439.278036,3923.091493,4959.379811
278.760830,5132.839837,3775.050304,5033.400406
278.761138,3753.867940,2812.782580,6439.791695
278.761446,2068.457845,814.226536,8142.265362
278.761754,0.000000,-592.164754,10288.862594
278.762062,-1608.800546,-1554.432478,10881.027347
278.762370,-1991.848295,-1184.329507,11473.192101
278.762678,-1608.800546,-962.267725,11547.212695
278.762986,-689.485948,-148.041188,11029.068536
278.763294,1072.533697,1036.288319,9474.636058
278.763602,2068.457845,1702.473667,8290.306550
278.763910,2374.896044,1850.514855,8734.430116
278.764218,1608.800546,1110.308913,9104.533087
278.764526,0.000000,-148.041188,9918.759623
278.764834,-1455.581446,-1554.432478,11769.274478
278.765142,-2757.943793,-3034.844362,12657.521608
278.765450,-3830.477490,-3478.967927,13397.727550
278.765758,-3830.477490,-3478.967927,13767.830521
278.766066,-3217.601092,-2738.761985,12435.459826
278.766374,-1762.019645,-1332.370696,10214.842000
278.766682,766.095498,814.226536,9104.533087
278.766990,3907.087040,2442.679609,6513.812290
278.767298,5286.058936,4071.132681,4737.318029
278.767606,6205.373534,3775.050304,4515.256246
278.767914,5439.278036,3256.906145,4515.256246
278.768222,4060.306139,1998.556043,6069.688724
278.768530,1915.238745,-148.041188,8586.388927
278.768838,153.219100,-1110.308913,10362.883188
278.769146,-1608.800546,-2220.617826,11695.253884
278.769454,-1685.410096,-1776.494261,11547.212695
278.769762,-766.095498,-1036.288319,10881.027347
278.770070,0.000000,148.041188,10214.842000
278.770378,1532.190996,1480.411884,9326.594869
278.770685,2681.334243,2072.576638,8068.244768
278.770993,2298.286494,2220.617826,7920.203579
278.771301,1149.143247,740.205942,9474.636058
278.771609,0.000000,-0.000000,10658.965565
278.771917,-1838.629195,-1628.453072,11917.315666
278.772225,-2834.553343,-2738.761985,13693.809927
278.772533,-3524.039291,-3256.906145,13915.871710
278.772841,-3907.087040,-2960.823768,13323.706956
278.773149,-2298.286494,-2368.659014,12509.480420
278.773457,-612.876398,-444.123565,10362.883188
278.773765,1608.800546,1776.494261,8142.265362
278.774073,4979.620737,3330.926739,6809.894666
278.774381,6128.763984,3923.091493,4959.379811
278.774689,6205.373534,3775.050304,4737.318029
278.774997,5669.106685,3775.050304,4811.338623
278.775305,4060.306139,2368.659014,6957.935855
278.775613,2374.896044,740.205942,9104.533087
278.775921,0.000000,-740.205942,10214.842000
278.776229,-1455.581446,-1628.453072,11547.212695
278.776537,-1532.190996,-1332.370696,11843.295072
278.776845,-1225.752797,-444.123565,11769.274478
278.777153,76.609550,370.102971,11177.109724
278.777461,1915.238745,1332.370696,9696.697840
278.777769,2068.457845,2294.638420,8512.368333
278.778077,1532.190996,1258.350101,8586.388927
278.778385,1302.362347,296.082377,9844.739029
278.778693,-383.047749,-1110.308913,11695.253884
278.779001,-2681.334243,-1850.514855,12731.542202
278.779309,-3677.258390,-3182.885551,13249.686362
278.779617,-3907.087040,-3849.070898,14211.954086
278.779925,-4060.306139,-3108.864956,13175.665768
278.780233,-2604.724693,-1850.514855,11547.212695
278.780541,-383.047749,148.041188,9548.656652
278.780849,2604.724693,2220.617826,7550.100608
278.781157,4749.792088,3997.112087,5551.544565
278.781465,5592.497135,4145.153275,4071.132681
278.781773,5898.935335,3849.070898,4219.173869
278.782081,4903.011187,3330.926739,5181.441594
278.782389,3064.381992,1554.432478,7476.080014
278.782697,536.266849,-148.041188,10066.800811
278.783005,-1378.971896,-1924.535449,11325.150913
278.783313,-2221.676944,-1998.556043,11917.315666
278.783621,-1762.019645,-1776.494261,12287.418637
278.783929,-1532.190996,-1332.370696,11547.212695
278.784237,229.828649,592.164754,9992.780217
278.784545,1915.238745,1258.350101,8956.491898
278.784853,2145.067394,1850.514855,7994.224174
278.785161,1838.629195,1628.453072,7846.182985
278.785469,842.705048,370.102971,9622.677246
278.785777,0.000000,-1332.370696,11177.109724
278.786085,-2451.505594,-2072.576638,12139.377449
278.786393,-3830.477490,-3552.988522,13101.645173
278.786701,-4596.572988,-3256.906145,13693.809927
278.787009,-3983.696590,-3034.844362,13545.768739
278.787317,-2451.505594,-1406.391290,11399.171507
278.787625,229.828649,888.247130,9400.615463
278.787933,2987.772442,2442.679609,6957.935855
278.788241,5286.058936,4515.256246,5551.544565
278.788549,6435.202183,4293.194464,4293.194464
278.788857,5975.544884,3182.885551,4885.359217
278.789165,4213.525239,2516.700203,5847.626942
278.789473,2221.676944,814.226536,7624.121203
278.789781,0.000000,-1110.308913,10436.903782
278.790089,-1608.800546,-1924.535449,11695.253884
278.790397,-2221.676944,-2294.638420,11769.274478
278.790705,-1532.190996,-1554.432478,11843.295072
278.791013,-383.047749,-962.267725,11103.089130
278.791321,766.095498,1110.308913,9844.739029
278.791629,2604.724693,1776.494261,8512.368333
278.791937,2451.505594,2146.597232,7994.224174
278.792245,2068.457845,1036.288319,8882.471304
278.792553,1532.190996,-0.000000,9548.656652
278.792861,-459.657299,-814.226536,10658.965565
278.793169,-1838.629195,-2146.597232,12657.521608
278.793477,-3294.210641,-2812.782580,13471.748144
278.793785,-3447.429741,-2960.823768,13175.665768
278.794093,-3064.381992,-2072.576638,12287.418637
278.794401,-1302.362347,-444.123565,10955.047942
278.794709,1149.143247,1554.432478,9030.512492
278.795016,3294.210641,2960.823768,6809.894666
278.795324,5286.058936,4145.153275,5181.441594
278.795632,4596.572988,3997.112087,4737.318029
278.795940,4596.572988,3034.844362,5847.626942
278.796248,2987.772442,2294.638420,7105.977043
278.796556,1455.581446,222.061783,9474.636058
278.796864,-536.266849,-1036.288319,11325.150913
278.797172,-2221.676944,-1850.514855,11843.295072
278.797480,-2221.676944,-2072.576638,12879.583391
278.797788,-1532.190996,-1924.535449,11843.295072
278.798096,0.000000,148.041188,11177.109724
278.798404,1455.581446,888.247130,9030.512492
278.798712,3064.381992,2368.659014,8438.347739
278.799020,3140.991542,2220.617826,7698.141797
278.799328,2298.286494,1702.473667,8364.327145
278.799636,1378.971896,444.123565,9326.594869
278.799944,-383.047749,-888.247130,10658.965565
278.800252,-2451.505594,-2146.597232,12435.459826
278.800560,-2911.162892,-3182.885551,13841.851115
278.800868,-3753.867940,-3034.844362,13471.748144
278.801176,-2911.162892,-1924.535449,12509.480420
278.801484,-919.314598,-962.267725,10584.944971
278.801792,1302.362347,1702.473667,8438.347739
278.802100,3983.696590,2812.782580,6661.853478
278.802408,4979.620737,4441.235652,5033.400406
278.802716,5745.716235,3330.926739,5033.400406
278.803024,4213.525239,2590.720797,5551.544565
278.803332,3064.381992,1258.350101,7624.121203
278.803640,1149.143247,296.082377,9622.677246
278.803948,-306.438199,-1184.329507,11251.130318
278.804256,-2221.676944,-1628.453072,11251.130318
278.804564,-1455.581446,-1480.411884,12435.459826
278.804872,-536.266849,-2368.659014,11029.068536
278.805180,-1149.143247,592.164754,9030.512492
278.805488,2451.505594,-0.000000,9400.615463
278.805796,2451.505594,2368.659014,7328.038826
278.806104,2068.457845,1406.391290,9770.718434
278.806412,2145.067394,1406.391290,8068.244768
278.806720,306.438199,-148.041188,10066.800811
278.807028,-1302.362347,-1702.473667,11843.295072
278.807336,-3217.601092,-2368.659014,12065.356855
278.807644,-2451.505594,-3627.009116,14434.015869
278.807952,-4443.353888,-2738.761985,11621.233289
278.808260,-2451.505594,-2146.597232,11843.295072
278.808568,-383.047749,-0.000000,10288.862594
278.808876,1532.190996,1406.391290,7624.121203
278.809184,4290.134789,3849.070898,5403.503377
278.809492,5592.497135,4293.194464,4663.297435
278.809800,6205.373534,3701.029710,4811.338623
278.810108,3907.087040,3034.844362,4959.379811
278.810416,3600.648841,1406.391290,8216.285956
278.810724,153.219100,-370.102971,9918.759623
278.811032,-919.314598,-1480.411884,11103.089130
278.811340,-1838.629195,-2146.597232,12287.418637
278.811648,-2298.286494,-2368.659014,12139.377449
278.811956,-1072.533697,-1332.370696,11843.295072
278.812264,-459.657299,222.061783,10807.006753
278.812572,1378.971896,740.205942,9696.697840
278.812880,1915.238745,1258.350101,7698.141797
278.813188,2451.505594,1998.556043,8512.368333
278.813496,2221.676944,740.205942,9104.533087
278.813804,689.485948,-0.000000,9770.718434
278.814112,-1072.533697,-1110.308913,11251.130318
278.814420,-2145.067394,-2368.659014,12805.562797
278.814728,-2757.943793,-2960.823768,12953.603985
278.815036,-3064.381992,-2220.617826,12805.562797
278.815344,-1762.019645,-1258.350101,11547.212695
278.815652,-229.828649,222.061783,9178.553681
278.815960,2451.505594,2294.638420,7772.162391
278.816268,3524.039291,3701.029710,5625.565159
278.816576,4903.011187,3701.029710,5477.523971
278.816884,4903.011187,3478.967927,5847.626942
278.817192,3600.648841,2664.741391,6439.791695
278.817500,1532.190996,740.205942,8438.347739
278.817808,689.485948,-222.061783,10584.944971
278.818116,-842.705048,-1702.473667,11177.109724
278.818424,-1685.410096,-1628.453072,11547.212695
278.818732,-1149.143247,-1702.473667,11769.274478
278.819040,-689.485948,-1036.288319,10584.944971
278.819348,995.924147,-0.000000,9992.780217
278.819656,2298.286494,1628.453072,8438.347739
278.819964,3064.381992,1850.514855,7698.141797
278.820272,2987.772442,814.226536,8438.347739
278.820580,1838.629195,518.144159,9178.553681
278.820888,0.000000,-888.247130,10140.821405
278.821196,-1838.629195,-2368.659014,11917.315666
278.821504,-2528.115143,-2886.803174,13175.665768
278.821812,-3983.696590,-3108.864956,13767.830521
278.822120,-3294.210641,-2368.659014,12657.521608
278.822428,-1838.629195,-740.205942,10732.986159
278.822736,0.000000,1554.432478,9400.615463
278.823044,2987.772442,2368.659014,7476.080014
278.823352,4290.134789,3775.050304,4959.379811
278.823660,4826.401637,3552.988522,5551.544565
278.823968,4060.306139,2960.823768,5625.565159
278.824277,2528.115143,2146.597232,7105.977043
278.824585,1149.143247,296.082377,9326.594869
278.824893,-153.219100,-1258.350101,10288.862594
278.825201,-1302.362347,-1924.535449,11473.192101
278.825509,-1838.629195,-2442.679609,11843.295072
278.825817,-1455.581446,-1628.453072,11473.192101
278.826125,-383.047749,-296.082377,11029.068536
278.826433,1378.971896,1036.288319,9252.574275
278.826741,2911.162892,1998.556043,8290.306550
278.827049,2757.943793,2294.638420,8068.244768
278.827357,2834.553343,962.267725,8438.347739
278.827665,1302.362347,370.102971,9918.759623
278.827973,-306.438199,-1480.411884,11029.068536
278.828281,-2451.505594,-2442.679609,12509.480420
278.828589,-3294.210641,-3552.988522,13693.809927
278.828897,-3294.210641,-2738.761985,13101.645173
278.829205,-2451.505594,-1702.473667,11621.233289
278.829513,0.000000,-0.000000,10362.883188
278.829821,1915.238745,1628.453072,7698.141797
278.830129,3677.258390,4293.194464,5995.668130
278.830437,5439.278036,4515.256246,5551.544565
278.830745,5286.058936,3627.009116,4885.359217
278.831053,4136.915689,2886.803174,5477.523971
278.831361,2374.896044,1480.411884,8068.244768
278.831669,689.485948,-74.020594,9548.656652
278.831977,-1608.800546,-1406.391290,11843.295072
278.832285,-2681.334243,-2368.659014,12805.562797
278.832593,-2451.505594,-2072.576638,12805.562797
278.832901,-1225.752797,-1776.494261,11991.336260
278.833209,76.609550,-0.000000,10732.986159
278.833517,1685.410096,1776.494261,9104.533087
278.833825,3140.991542,2368.659014,8290.306550
278.834133,3524.039291,2590.720797,7328.038826
278.834442,2681.334243,1776.494261,8290.306550
278.834750,1378.971896,-0.000000,9474.636058
278.835058,0.000000,-1554.432478,10658.965565
278.835366,-2451.505594,-2442.679609,12657.521608
278.835674,-2911.162892,-3997.112087,14063.912898
278.835982,-3217.601092,-2812.782580,12731.542202
278.836290,-2298.286494,-1776.494261,11251.130318
278.836598,-153.219100,222.061783,9622.677246
278.836906,2757.943793,2072.576638,7698.141797
278.837214,4903.011187,3775.050304,5995.668130
278.837522,5439.278036,4515.256246,4663.297435
278.837830,4903.011187,4293.194464,4589.276840
278.838138,4290.134789,2886.803174,5773.606348
278.838446,2221.676944,1924.535449,7772.162391
278.838754,459.657299,-0.000000,9844.739029
278.839062,-1532.190996,-1776.494261,11991.336260
278.839370,-2834.553343,-2442.679609,12657.521608
278.839678,-3064.381992,-2886.803174,12953.603985
278.839986,-2145.067394,-2294.638420,12435.459826
278.840294,-842.705048,-592.164754,11695.253884
278.840602,1149.143247,888.247130,9696.697840
278.840910,2528.115143,1776.494261,8364.327145
278.841218,2757.943793,1776.494261,7846.182985
278.841526,1915.238745,814.226536,8142.265362
278.841834,1378.971896,-518.144159,9548.656652
278.842142,-459.657299,-1628.453072,10584.944971
278.842450,-2221.676944,-2368.659014,11843.295072
278.842758,-2757.943793,-3256.906145,13027.624579
278.843066,-2681.334243,-2442.679609,11991.336260
278.843374,-2374.896044,-1628.453072,11177.109724
278.843682,-229.828649,592.164754,9400.615463
278.843990,2451.505594,1924.535449,7624.121203
278.844298,4366.744339,4219.173869,5921.647536
278.844606,4673.182538,3552.988522,5329.482782
278.844915,4903.011187,3627.009116,5181.441594
278.845223,3140.991542,2590.720797,6217.729913
278.845531,1685.410096,1184.329507,8808.450710
278.845839,-153.219100,-74.020594,10436.903782
278.846147,-1532.190996,-1480.411884,12065.356855
278.846455,-2834.553343,-1924.535449,12509.480420
278.846763,-1608.800546,-2072.576638,12731.542202
278.847071,-1302.362347,-962.267725,11991.336260
278.847379,0.000000,592.164754,11177.109724
278.847687,1915.238745,1628.453072,8882.471304
278.847995,2911.162892,2072.576638,7698.141797
278.848303,2681.334243,1480.411884,8216.285956
278.848611,2145.067394,222.061783,9252.574275
278.848919,153.219100,-518.144159,10510.924376
278.849227,-1762.019645,-2220.617826,11843.295072
278.849535,-2528.115143,-3256.906145,13249.686362
278.849843,-3907.087040,-3108.864956,13767.830521
278.850151,-2451.505594,-2294.638420,12361.439231
278.850459,-919.314598,-444.123565,10436.903782
278.850767,995.924147,1702.473667,8438.347739
278.851075,3447.429741,3478.967927,6809.894666
278.851383,5439.278036,4367.215058,5107.421000
278.851691,5439.278036,4293.194464,4441.235652
278.851999,5056.230287,3701.029710,5255.462188
278.852307,3830.477490,2368.659014,6513.812290
278.852615,1685.410096,518.144159,8734.430116
278.852923,-536.266849,-1036.288319,10807.006753
278.853231,-1532.190996,-2368.659014,12065.356855
278.853539,-2374.896044,-2294.638420,12361.439231
278.853847,-2451.505594,-2072.576638,11695.253884
278.854155,612.876398,-1406.391290,12065.356855
278.854463,766.095498,814.226536,8882.471304
278.854771,2911.162892,1480.411884,8808.450710
278.855080,3830.477490,1850.514855,8216.285956
278.855388,2757.943793,1554.432478,7254.018232
278.855696,1225.752797,-0.000000,9178.553681
278.856004,383.047749,-814.226536,10288.862594
278.856312,-2298.286494,-2442.679609,12731.542202
278.856620,-3524.039291,-3182.885551,14137.933492
278.856928,-3447.429741,-2960.823768,13619.789333
278.857236,-3064.381992,-1924.535449,12509.480420
278.857544,-842.705048,-814.226536,10658.965565
278.857852,1225.752797,1924.535449,7105.977043
278.858160,3830.477490,3552.988522,6143.709319
278.858468,5515.887586,4293.194464,4737.318029
278.858776,5439.278036,4663.297435,3923.091493
278.859084,4903.011187,3182.885551,6143.709319
278.859392,3524.039291,1924.535449,7254.018232
278.859700,1455.581446,666.185348,9030.512492
278.860008,-995.924147,-2072.576638,11991.336260
278.860316,-2221.676944,-2516.700203,12213.398043
278.860624,-2451.505594,-2220.617826,12213.398043
278.860932,-2145.067394,-1924.535449,11991.336260
278.861240,-383.047749,-814.226536,10807.006753
278.861548,1608.800546,1184.329507,9326.594869
278.861856,2911.162892,2220.617826,8512.368333
278.862164,3524.039291,1480.411884,8290.306550
278.862472,2681.334243,740.205942,8512.368333
278.862780,842.705048,-370.102971,9918.759623
278.863088,-1225.752797,-1776.494261,11325.150913
278.863396,-2681.334243,-2886.803174,12879.583391
278.863704,-3907.087040,-3627.009116,13841.851115
278.864012,-2911.162892,-3627.009116,13471.748144
278.864320,-2451.505594,-1924.535449,11251.130318
278.864628,-383.047749,-222.061783,10066.800811
278.864936,2451.505594,1776.494261,7031.956449
278.865244,4060.306139,3627.009116,5625.565159
278.865553,5362.668486,4293.194464,5255.462188
278.865861,5132.839837,3997.112087,4589.276840
278.866169,4060.306139,3404.947333,5699.585753
278.866477,2528.115143,1702.473667,7698.141797
278.866785,919.314598,-0.000000,10510.924376
278.867093,-1378.971896,-1702.473667,12731.542202
278.867401,-2451.505594,-2146.597232,12805.562797
278.867709,-2834.553343,-1998.556043,12509.480420
278.868017,-1991.848295,-1184.329507,11695.253884
278.868325,153.219100,444.123565,10584.944971
278.868633,2068.457845,1850.514855,8882.471304
278.868941,3294.210641,2886.803174,7920.203579
278.869249,3677.258390,1776.494261,7698.141797
278.869557,2221.676944,1258.350101,8734.430116
278.869865,766.095498,-370.102971,10214.842000
278.870173,-1072.533697,-1850.514855,12065.356855
278.870481,-2834.553343,-3034.844362,13249.686362
278.870789,-4060.306139,-3552.988522,13915.871710
278.871097,-3064.381992,-2960.823768,13175.665768
278.871405,-1685.410096,-1554.432478,11695.253884
278.871713,153.219100,888.247130,9548.656652
278.872021,2681.334243,2442.679609,7624.121203
278.872329,5286.058936,4441.235652,5625.565159
278.872637,5822.325785,5033.400406,4293.194464
278.872945,5822.325785,4663.297435,4589.276840
278.873253,4596.572988,3404.947333,5625.565159
278.873561,2834.553343,1924.535449,8142.265362
278.873869,229.828649,-592.164754,9992.780217
278.874177,-1072.533697,-1702.473667,11843.295072
278.874485,-2451.505594,-2516.700203,12805.562797
278.874793,-2681.334243,-2812.782580,12731.542202
278.875101,-1991.848295,-1702.473667,11695.253884
278.875409,0.000000,-370.102971,10510.924376
278.875717,1838.629195,1036.288319,9178.553681
278.876026,3217.601092,1554.432478,8290.306550
278.876334,2374.896044,1258.350101,8882.471304
278.876642,1532.190996,-518.144159,9844.739029
278.876950,-306.438199,-1554.432478,11251.130318
278.877258,-1915.238745,-2368.659014,12139.377449
278.877566,-2911.162892,-3182.885551,12953.603985
278.877874,-3140.991542,-3256.906145,13027.624579
278.878182,-2221.676944,-2294.638420,11547.212695
278.878490,-1225.752797,-962.267725,10288.862594
278.878798,995.924147,888.247130,8586.388927
278.879106,3064.381992,2590.720797,6365.771101
278.879414,5132.839837,4515.256246,5255.462188
278.879722,5745.716235,4589.276840,4663.297435
278.880030,5362.668486,4367.215058,4663.297435
278.880338,3983.696590,2886.803174,5995.668130
278.880646,1838.629195,1184.329507,7698.141797
278.880954,153.219100,-518.144159,10584.944971
278.881262,-1838.629195,-2220.617826,12361.439231
278.881570,-2681.334243,-2590.720797,12657.521608
278.881878,-2604.724693,-2220.617826,11991.336260
278.882186,-1072.533697,-1184.329507,11917.315666
278.882494,229.828649,666.185348,9918.759623
278.882802,1685.410096,1850.514855,8882.471304
278.883110,2911.162892,2146.597232,8734.430116
278.883418,1455.581446,1554.432478,8216.285956
278.883726,995.924147,-296.082377,10732.986159
278.884034,-1149.143247,-1628.453072,11399.171507
278.884342,-2757.943793,-2516.700203,13027.624579
278.884650,-3753.867940,-3256.906145,13989.892304
278.884958,-4060.306139,-3182.885551,13471.748144
278.885266,-2374.896044,-1924.535449,12731.542202
278.885574,-842.705048,-148.041188,9770.718434
278.885882,2068.457845,1406.391290,7994.224174
278.886191,3753.867940,3108.864956,6587.832884
278.886499,5898.935335,4145.153275,4811.338623
278.886807,6818.249932,4293.194464,4441.235652
278.887115,5822.325785,3997.112087,4885.359217
278.887423,4213.525239,3034.844362,6365.771101
278.887731,1915.238745,1110.308913,8216.285956
278.888039,76.609550,-814.226536,10658.965565
278.888347,-1762.019645,-2072.576638,11843.295072
278.888655,-1915.238745,-1998.556043,11843.295072
278.888963,-1149.143247,-1850.514855,11695.253884
278.889271,0.000000,-148.041188,10955.047942
278.889579,919.314598,740.205942,10066.800811
278.889887,2451.505594,1998.556043,8808.450710
278.890195,2681.334243,2220.617826,8364.327145
278.890503,1838.629195,1332.370696,8808.450710
278.890811,459.657299,-444.123565,10807.006753
278.891119,-1532.190996,-2220.617826,12065.356855
278.891427,-3447.429741,-3182.885551,13323.706956
278.891735,-3524.039291,-4145.153275,14211.954086
278.892043,-3907.087040,-3627.009116,13249.686362
278.892351,-2987.772442,-2072.576638,11991.336260
278.892659,-306.438199,-666.185348,10732.986159
278.892967,1455.581446,1924.535449,7624.121203
278.893275,3830.477490,3108.864956,6143.709319
278.893583,5822.325785,3849.070898,5329.482782
278.893891,5669.106685,4219.173869,4441.235652
278.894199,4826.401637,3627.009116,5477.523971
278.894507,3294.210641,2368.659014,6735.874072
278.894815,1532.190996,592.164754,8882.471304
278.895123,-689.485948,-1258.350101,10436.903782
278.895431,-1532.190996,-1480.411884,11177.109724
278.895739,-1302.362347,-1628.453072,11547.212695
278.896047,-1225.752797,-1628.453072,10955.047942
278.896355,842.705048,-74.020594,10214.842000
278.896664,1838.629195,1332.370696,8734.430116
278.896972,2834.553343,1702.473667,8734.430116
278.897280,2681.334243,1480.411884,8216.285956
278.897588,1378.971896,518.144159,8882.471304
278.897896,-229.828649,-888.247130,10732.986159
278.898204,-1915.238745,-2368.659014,12583.501014
278.898512,-3753.867940,-3256.906145,14063.912898
278.898820,-3983.696590,-3627.009116,14359.995275
278.899128,-4519.963438,-2960.823768,13619.789333
278.899436,-2374.896044,-1554.432478,12139.377449
278.899744,-459.657299,-148.041188,10584.944971
278.900052,1762.019645,2072.576638,8142.265362
278.900360,3677.258390,3034.844362,6587.832884
278.900668,4979.620737,3701.029710,5773.606348
278.900976,5592.497135,4367.215058,4737.318029
278.901284,4673.182538,3330.926739,5773.606348
278.901592,2757.943793,1850.514855,7624.121203
278.901900,1149.143247,592.164754,8956.491898
278.902208,-306.438199,-962.267725,10807.006753
278.902516,-1455.581446,-1184.329507,11473.192101
278.902824,-1378.971896,-814.226536,10955.047942
278.903132,-612.876398,-222.061783,11029.068536
278.903440,1225.752797,1036.288319,10066.800811
278.903748,2681.334243,1850.514855,8216.285956
278.904056,2987.772442,2516.700203,7846.182985
278.904364,2528.115143,1332.370696,8216.285956
278.904672,842.705048,296.082377,9400.615463
278.904980,-919.314598,-1332.370696,11843.295072
278.905288,-2528.115143,-2812.782580,13249.686362
278.905596,-3753.867940,-3627.009116,13841.851115
278.905904,-4213.525239,-4145.153275,14285.974681
278.906212,-3370.820191,-3256.906145,13323.706956
278.906520,-1838.629195,-2072.576638,11547.212695
278.906829,0.000000,-74.020594,9474.636058
278.907137,2757.943793,2146.597232,7179.997637
278.907445,4749.792088,3256.906145,5477.523971
278.907753,5669.106685,3997.112087,5107.421000
278.908061,6205.373534,3627.009116,4811.338623
278.908369,4979.620737,3182.885551,5477.523971
278.908677,3217.601092,1776.494261,7624.121203
278.908985,842.705048,-0.000000,9474.636058
278.909293,-689.485948,-888.247130,10881.027347
278.909601,-1532.190996,-1702.473667,11843.295072
278.909909,-1302.362347,-962.267725,10955.047942
278.910217,-306.438199,-148.041188,10362.883188
278.910525,1072.533697,740.205942,10214.842000
278.910833,2451.505594,2220.617826,8068.244768
278.911141,3064.381992,2442.679609,7698.141797
278.911449,2374.896044,1406.391290,8882.471304
278.911757,612.876398,-0.000000,9548.656652
278.912065,-1455.581446,-1332.370696,11695.253884
278.912373,-2757.943793,-2664.741391,13471.748144
278.912681,-3907.087040,-4071.132681,13915.871710
278.912989,-3983.696590,-3775.050304,13989.892304
278.913297,-3753.867940,-3256.906145,13323.706956
278.913605,-1915.238745,-2590.720797,11621.233289
278.913913,153.219100,-0.000000,9548.656652
278.914221,2757.943793,2072.576638,7550.100608
278.914529,4443.353888,3701.029710,5773.606348
278.914837,5669.106685,4219.173869,5033.400406
278.915145,5898.935335,4145.153275,4811.338623
278.915453,4366.744339,3330.926739,5477.523971
278.915761,3140.991542,1628.453072,7920.203579
278.916070,995.924147,-222.061783,9918.759623
278.916378,-536.266849,-592.164754,11251.130318
278.916686,-1378.971896,-962.267725,10881.027347
278.916994,-919.314598,-814.226536,11547.212695
278.917302,0.000000,370.102971,10436.903782
278.917610,1915.238745,1480.411884,9104.533087
278.917918,2834.553343,2368.659014,7994.224174
278.918226,3140.991542,2220.617826,7402.059420
278.918534,2374.896044,1184.329507,8290.306550
278.918842,306.438199,-592.164754,10066.800811
278.919150,-995.924147,-2220.617826,13249.686362
278.919458,-3064.381992,-3034.844362,13471.748144
278.919766,-4213.525239,-3330.926739,13767.830521
278.920074,-4060.306139,-3775.050304,14359.995275
278.920382,-2911.162892,-3034.844362,13471.748144
278.920690,-2068.457845,-1406.391290,11843.295072
278.920998,76.609550,296.082377,9770.718434
278.921306,3064.381992,2590.720797,7402.059420
278.921614,4596.572988,3775.050304,5625.565159
278.921922,5669.106685,4293.194464,4737.318029
278.922231,5362.668486,3849.070898,4663.297435
278.922539,3830.477490,2664.741391,6217.729913
278.922847,2681.334243,814.226536,8142.265362
278.923155,842.705048,-296.082377,9770.718434
278.923463,-383.047749,-814.226536,10436.903782
278.923771,-612.876398,-1110.308913,11177.109724
278.924079,-612.876398,-518.144159,10510.924376
278.924387,459.657299,-0.000000,9918.759623
278.924695,2221.676944,1702.473667,8364.327145
278.925003,3370.820191,2590.720797,7179.997637
278.925311,3217.601092,2220.617826,7476.080014
278.925619,1225.752797,962.267725,8734.430116
278.925927,153.219100,-1184.329507,10658.965565
278.926235,-2374.896044,-2146.597232,12509.480420
278.926543,-4290.134789,-3701.029710,14211.954086
278.926851,-4979.620737,-4219.173869,15026.180623
278.927159,-4979.620737,-3997.112087,14952.160028
278.927467,-4366.744339,-2812.782580,13471.748144
278.927775,-2298.286494,-1702.473667,11695.253884
278.928083,0.000000,518.144159,9104.533087
278.928391,1685.410096,2516.700203,7254.018232
278.928700,4673.182538,4293.194464,5995.668130
278.929008,5592.497135,4367.215058,4589.276840
278.929316,5056.230287,3404.947333,4737.318029
278.929624,3447.429741,2368.659014,6143.709319
278.929932,1762.019645,962.267725,8216.285956
278.930240,0.000000,-518.144159,10288.862594
278.930548,-612.876398,-1628.453072,11251.130318
278.930856,-536.266849,-888.247130,10140.821405
278.931164,-459.657299,-370.102971,10214.842000
278.931472,919.314598,518.144159,9622.677246
278.931780,2451.505594,2220.617826,8438.347739
278.932088,3217.601092,3034.844362,7698.141797
278.932396,2834.553343,2072.576638,7994.224174
278.932704,1762.019645,740.205942,8882.471304
278.933012,-766.095498,-1110.308913,11621.233289
278.933320,-2757.943793,-2590.720797,13175.665768
278.933628,-3983.696590,-4293.194464,14285.974681
278.933936,-4903.011187,-3849.070898,14434.015869
278.934244,-4673.182538,-3775.050304,14434.015869
278.934552,-2987.772442,-2886.803174,13027.624579
278.934860,-919.314598,-740.205942,11177.109724
278.935169,1455.581446,1406.391290,8364.327145
278.935477,4749.792088,2886.803174,6439.791695
278.935785,5745.716235,4515.256246,5255.462188
278.936093,6281.983084,3923.091493,4737.318029
278.936401,5286.058936,3627.009116,5033.400406
278.936709,3983.696590,2516.700203,7031.956449
278.937017,1991.848295,592.164754,9252.574275
278.937325,-383.047749,-1110.308913,10955.047942
278.937633,-1149.143247,-1332.370696,11547.212695
278.937941,-1915.238745,-1258.350101,11843.295072
278.938249,-536.266849,-444.123565,11917.315666
278.938557,842.705048,1036.288319,10140.821405
278.938865,2451.505594,2516.700203,8512.368333
278.939173,3140.991542,3330.926739,7031.956449
278.939481,2911.162892,2442.679609,7920.203579
278.939789,1685.410096,1110.308913,9622.677246
278.940097,-229.828649,-666.185348,11399.171507
278.940405,-1991.848295,-2072.576638,13175.665768
278.940713,-3447.429741,-3997.112087,13545.768739
278.941021,-4443.353888,-3627.009116,14063.912898
278.941330,-3983.696590,-3552.988522,13767.830521
278.941638,-2221.676944,-2294.638420,12731.542202
278.941946,-689.485948,-296.082377,10362.883188
278.942254,2374.896044,1776.494261,7994.224174
278.942562,4903.011187,3478.967927,5847.626942
278.942870,5745.716235,4663.297435,4737.318029
278.943178,6665.030833,4071.132681,4811.338623
278.943486,5286.058936,3478.967927,5329.482782
278.943794,3370.820191,1998.556043,6365.771101
278.944102,1608.800546,148.041188,8808.450710
278.944410,383.047749,-888.247130,10362.883188
278.944718,-1149.143247,-1480.411884,10584.944971
278.945026,-1225.752797,-2072.576638,10807.006753
278.945334,-612.876398,-1702.473667,10807.006753
278.945642,536.266849,-74.020594,9326.594869
278.945950,2681.334243,814.226536,7994.224174
278.946258,2911.162892,1480.411884,7105.977043
278.946566,2298.286494,1110.308913,7624.121203
278.946874,766.095498,-592.164754,9474.636058
278.947182,-1072.533697,-1850.514855,11325.150913
278.947490,-2757.943793,-3108.864956,12435.459826
278.947799,-4060.306139,-4441.235652,13767.830521
278.948107,-4596.572988,-4293.194464,13545.768739
278.948415,-4673.182538,-3627.009116,13397.727550
278.948723,-2987.772442,-2146.597232,11843.295072
278.949031,-995.924147,-74.020594,9844.739029
278.949339,1991.848295,2072.576638,7328.038826
278.949647,4443.353888,3997.112087,5847.626942
278.949955,5745.716235,4367.215058,4441.235652
278.950263,5132.839837,4145.153275,4663.297435
278.950571,5132.839837,3108.864956,5773.606348
278.950879,2834.553343,1998.556043,7031.956449
278.951187,919.314598,592.164754,9030.512492
278.951495,-76.609550,-444.123565,10807.006753
278.951803,-842.705048,-592.164754,10881.027347
278.952111,-919.314598,-592.164754,11103.089130
278.952419,76.609550,-74.020594,10881.027347
278.952727,1991.848295,1110.308913,9548.656652
278.953035,2145.067394,2146.597232,8068.244768
278.953343,2298.286494,2072.576638,8512.368333
278.953651,1302.362347,888.247130,9548.656652
278.953960,-383.047749,-370.102971,11399.171507
278.954268,-2374.896044,-2220.617826,13471.748144
278.954576,-3217.601092,-3478.967927,14359.995275
278.954884,-4596.572988,-3701.029710,14878.139434
278.955192,-4596.572988,-3923.091493,14656.077652
278.955500,-3294.210641,-2442.679609,13101.645173
278.955808,-1608.800546,-592.164754,11621.233289
278.956116,689.485948,1480.411884,9326.594869
278.956424,3524.039291,3330.926739,6661.853478
278.956732,5439.278036,4515.256246,5107.421000
278.957040,5898.935335,4737.318029,4515.256246
278.957348,5745.716235,3701.029710,4959.379811
278.957656,3830.477490,2664.741391,6587.832884
278.957964,2374.896044,814.226536,8364.327145
278.958272,919.314598,-222.061783,9770.718434
278.958580,0.000000,-1036.288319,10436.903782
278.958888,0.000000,-1406.391290,11177.109724
278.959196,0.000000,-1184.329507,10732.986159
278.959504,1149.143247,370.102971,10140.821405
278.959812,2298.286494,1406.391290,8512.368333
278.960120,3294.210641,2146.597232,7624.121203
278.960429,2298.286494,1702.473667,7772.162391
278.960737,1455.581446,740.205942,9178.553681
278.961045,-229.828649,-1036.288319,11177.109724
278.961353,-2298.286494,-2368.659014,12583.501014
278.961661,-3830.477490,-3701.029710,13693.809927
278.961969,-5056.230287,-3997.112087,14508.036463
278.962277,-4519.963438,-3997.112087,14656.077652
278.962585,-3447.429741,-2664.741391,13101.645173
278.962893,-995.924147,-592.164754,10955.047942
278.963201,1608.800546,1258.350101,8586.388927
278.963509,3753.867940,2886.803174,6069.688724
278.963817,5132.839837,4515.256246,4663.297435
278.964125,6052.154434,4071.132681,4293.194464
278.964433,5439.278036,3775.050304,4737.318029
278.964741,3447.429741,2072.576638,6735.874072
278.965049,2145.067394,222.061783,8882.471304
278.965357,76.609550,-962.267725,10140.821405
278.965665,-1685.410096,-1554.432478,11177.109724
278.965973,-1072.533697,-1702.473667,11621.233289
278.966281,-842.705048,-1036.288319,10807.006753
278.966589,153.219100,-222.061783,9918.759623
278.966898,2221.676944,1258.350101,9178.553681
278.967206,3140.991542,2220.617826,7254.018232
278.967514,2604.724693,1554.432478,7846.182985
278.967822,1072.533697,518.144159,8882.471304
278.968130,-383.047749,-444.123565,10732.986159
278.968438,-2451.505594,-2146.597232,12805.562797
278.968746,-4366.744339,-3108.864956,13693.809927
278.969054,-4673.182538,-3330.926739,14211.954086
278.969362,-4213.525239,-3552.988522,13397.727550
278.969670,-2757.943793,-2516.700203,12287.418637
278.969978,-1149.143247,-148.041188,10881.027347
278.970286,1302.362347,1480.411884,9030.512492
278.970594,3753.867940,3552.988522,5921.647536
278.970902,5132.839837,4219.173869,5181.441594
278.971210,4903.011187,3552.988522,5181.441594
278.971518,4060.306139,2812.782580,6069.688724
278.971826,3217.601092,1036.288319,7698.141797
278.972134,1455.581446,-74.020594,9474.636058
278.972442,-919.314598,-740.205942,10584.944971
278.972750,-842.705048,-1332.370696,11177.109724
278.973059,-995.924147,-1258.350101,11325.150913
278.973367,-306.438199,296.082377,10362.883188
278.973675,1685.410096,1110.308913,9696.697840
278.973983,2987.772442,2590.720797,8068.244768
278.974291,3294.210641,2590.720797,7698.141797
278.974599,2528.115143,1924.535449,8142.265362
278.974907,995.924147,666.185348,9696.697840
278.975215,-919.314598,-1628.453072,11325.150913
278.975523,-2451.505594,-2368.659014,13397.727550
278.975831,-3983.696590,-3182.885551,14211.954086
278.976139,-4136.915689,-3849.070898,14137.933492
278.976447,-2757.943793,-2738.761985,13397.727550
278.976755,-1991.848295,-1850.514855,11695.253884
278.977063,383.047749,222.061783,9622.677246
278.977371,2987.772442,2368.659014,7920.203579
278.977679,5515.887586,3627.009116,5625.565159
278.977987,6128.763984,4293.194464,3997.112087
278.978295,5975.544884,3997.112087,4293.194464
278.978603,4826.401637,2812.782580,6513.812290
278.978911,2987.772442,1628.453072,7550.100608
278.979219,1302.362347,518.144159,9622.677246
278.979528,1149.143247,-1776.494261,11177.109724
278.979836,-2298.286494,-1332.370696,10066.800811
278.980144,-153.219100,-2146.597232,12213.398043
278.980452,-766.095498,-148.041188,10584.944971
278.980760,1072.533697,666.185348,9622.677246
278.981068,2145.067394,1332.370696,8290.306550
278.981376,2298.286494,2368.659014,7846.182985
278.981684,2145.067394,740.205942,9622.677246
278.981992,0.000000,-74.020594,8808.450710
278.982300,-919.314598,-1332.370696,12287.418637
278.982608,-3064.381992,-3034.844362,12435.459826
278.982916,-3983.696590,-3849.070898,13397.727550
278.983224,-4366.744339,-3330.926739,13767.830521
278.983532,-3140.991542,-3034.844362,12435.459826
278.983840,-842.705048,-518.144159,10955.047942
278.984148,612.876398,888.247130,8734.430116
278.984456,4290.134789,2368.659014,6735.874072
278.984764,4749.792088,3997.112087,4145.153275
278.985072,5898.935335,4515.256246,4441.235652
278.985380,5056.230287,3404.947333,4885.359217
278.985689,3600.648841,2368.659014,5921.647536
278.985997,1608.800546,814.226536,8808.450710
278.986305,-306.438199,-740.205942,10214.842000
278.986613,-1455.581446,-1702.473667,11251.130318
278.986921,-1991.848295,-2442.679609,12213.398043
278.987229,-1762.019645,-1554.432478,12509.480420
278.987537,0.000000,-1036.288319,11473.192101
278.987845,842.705048,962.267725,9844.739029
278.988153,2145.067394,1628.453072,8290.306550
278.988461,2451.505594,1480.411884,7846.182985
278.988769,1991.848295,1184.329507,8512.368333
278.989077,536.266849,-148.041188,10214.842000
278.989385,-1378.971896,-1628.453072,11399.171507
278.989693,-2757.943793,-2812.782580,13175.665768
278.990001,-4213.525239,-3404.947333,13249.686362
278.990309,-4519.963438,-3256.906145,13545.768739
278.990617,-3370.820191,-2368.659014,12879.583391
278.990925,-1532.190996,-592.164754,10955.047942
278.991233,1072.533697,1702.473667,8438.347739
278.991541,3907.087040,3330.926739,6809.894666
278.991849,5286.058936,4663.297435,4959.379811
278.992158,6052.154434,3997.112087,4663.297435
278.992466,4749.792088,3256.906145,5181.441594
278.992774,3294.210641,2368.659014,6957.935855
278.993082,1762.019645,962.267725,8586.388927
278.993390,0.000000,-370.102971,10214.842000
278.993698,0.000000,-1554.432478,12583.501014
278.994006,-1149.143247,-1184.329507,10066.800811
278.994314,-842.705048,-1258.350101,11547.212695
278.994622,919.314598,-592.164754,11473.192101
278.994930,1455.581446,1702.473667,8438.347739
278.995238,2374.896044,1776.494261,9326.594869
278.995546,2987.772442,1998.556043,7624.121203
278.995854,1915.238745,814.226536,8882.471304
278.996162,0.000000,-0.000000,10066.800811
278.996470,-766.095498,-2368.659014,12065.356855
278.996778,-2987.772442,-3034.844362,12805.562797
278.997086,-3830.477490,-3701.029710,13767.830521
278.997394,-3447.429741,-2812.782580,13619.789333
278.997702,-2757.943793,-1850.514855,12065.356855
278.998010,-536.266849,-888.247130,11399.171507
278.998318,1455.581446,1776.494261,7476.080014
278.998627,4366.744339,3034.844362,6217.729913
278.998935,5056.230287,3404.947333,5551.544565
278.999243,5286.058936,3849.070898,4589.276840
278.999551,4903.011187,2368.659014,6365.771101
278.999859,2987.772442,1702.473667,6883.915261
279.000167,1378.971896,-0.000000,9030.512492
279.000475,153.219100,-1184.329507,10436.903782
279.000783,-612.876398,-1258.350101,11251.130318
279.001091,-612.876398,-1702.473667,10881.027347
279.001399,-536.266849,-666.185348,11325.150913
279.001707,689.485948,-444.123565,9992.780217
279.002015,1685.410096,1554.432478,8882.471304
279.002323,2681.334243,2294.638420,8216.285956
279.002631,2604.724693,2146.597232,7402.059420
279.002939,1685.410096,888.247130,9104.533087
279.003247,-153.219100,-370.102971,10881.027347
279.003555,-1532.190996,-1702.473667,12287.418637
279.003863,-3217.601092,-2590.720797,13323.706956
279.004171,-3983.696590,-3701.029710,13767.830521
279.004479,-3370.820191,-3034.844362,13767.830521
279.004788,-2145.067394,-1702.473667,11547.212695
279.005096,-459.657299,-0.000000,9622.677246
279.005404,2374.896044,1702.473667,7994.224174
279.005712,4136.915689,3256.906145,5921.647536
279.006020,4979.620737,4293.194464,5107.421000
279.006328,4749.792088,3849.070898,5403.503377
279.006636,3983.696590,2516.700203,6735.874072
279.006944,2451.505594,1702.473667,7476.080014
279.007252,689.485948,-222.061783,9770.718434
279.007560,-842.705048,-1628.453072,11325.150913
279.007868,-2068.457845,-1480.411884,11621.233289
279.008176,-1915.238745,-1924.535449,11843.295072
279.008484,-1302.362347,-1184.329507,11547.212695
279.008792,76.609550,-296.082377,11029.068536
279.009100,1915.238745,1406.391290,8586.388927
279.009408,2451.505594,2146.597232,7105.977043
279.009716,2604.724693,1628.453072,7624.121203
279.010024,1149.143247,444.123565,9474.636058
279.010332,-612.876398,-740.205942,11029.068536
279.010640,-2221.676944,-2294.638420,12139.377449
279.010948,-3983.696590,-3701.029710,13249.686362
279.011257,-3753.867940,-3404.947333,13249.686362
279.011565,-3677.258390,-3256.906145,12879.583391
279.011873,-1991.848295,-1406.391290,11029.068536
279.012181,76.609550,740.205942,9474.636058
279.012489,2834.553343,2368.659014,7328.038826
279.012797,4673.182538,4219.173869,4589.276840
279.013105,5515.887586,4663.297435,4441.235652
279.013413,5975.544884,3701.029710,4737.318029
279.013721,4673.182538,3034.844362,5625.565159
279.014029,2221.676944,1258.350101,7698.141797
279.014337,842.705048,-666.185348,9696.697840
279.014645,-1149.143247,-1850.514855,11251.130318
279.014953,-1762.019645,-1998.556043,11843.295072
279.015261,-1838.629195,-2442.679609,12139.377449
279.015569,-1302.362347,-1406.391290,11843.295072
279.015875,306.438199,-0.000000,11103.089130
279.016183,1302.362347,1036.288319,8808.450710
279.016491,1838.629195,1850.514855,8142.265362
279.016799,2145.067394,1110.308913,8808.450710
279.017108,842.705048,-0.000000,10288.862594
279.017416,-766.095498,-1628.453072,11695.253884
279.017724,-2528.115143,-2590.720797,12361.439231
279.018032,-3753.867940,-3034.844362,12953.603985
279.018340,-3677.258390,-3330.926739,13249.686362
279.018648,-2757.943793,-2146.597232,12213.398043
279.018956,-612.876398,-666.185348,10955.047942
279.019264,919.314598,1406.391290,7772.162391
279.019572,4060.306139,3256.906145,5847.626942
279.019881,6281.983084,4367.215058,4441.235652
279.020189,6358.592633,5033.400406,3404.947333
279.020497,6052.154434,3701.029710,4885.359217
279.020805,4519.963438,2442.679609,5921.647536
279.021113,1838.629195,148.041188,8660.409521
279.021421,0.000000,-1332.370696,11325.150913
279.021729,-1685.410096,-1850.514855,12731.542202
279.022037,-2834.553343,-2220.617826,12435.459826
279.022346,-2834.553343,-2072.576638,12657.521608
279.022654,-919.314598,-888.247130,12065.356855
279.022962,229.828649,1110.308913,10288.862594
279.023270,2298.286494,1480.411884,8808.450710
279.023578,2374.896044,2294.638420,7920.203579
279.023886,2451.505594,1258.350101,9696.697840
279.024194,459.657299,-1036.288319,10066.800811
279.024502,-1378.971896,-1406.391290,11843.295072
279.024810,-2528.115143,-2516.700203,13027.624579
279.025119,-3600.648841,-3330.926739,13397.727550
279.025427,-3677.258390,-2960.823768,13101.645173
279.025735,-1991.848295,-1628.453072,11917.315666
279.026043,-689.485948,-592.164754,10214.842000
279.026351,2298.286494,2368.659014,7994.224174
279.026659,4903.011187,3923.091493,5773.606348
279.026967,5822.325785,5181.441594,4145.153275
279.027275,6818.249932,4959.379811,4219.173869
279.027584,5822.325785,4441.235652,4811.338623
279.027892,3524.039291,2664.741391,6513.812290
279.028200,1838.629195,-0.000000,8956.491898
279.028508,-689.485948,-1036.288319,11251.130318
279.028816,-1762.019645,-2220.617826,12139.377449
279.029124,-3294.210641,-2738.761985,12731.542202
279.029432,-2221.676944,-1924.535449,12879.583391
279.029740,-766.095498,-1184.329507,11917.315666
279.030048,536.266849,518.144159,9918.759623
279.030357,2451.505594,1702.473667,8512.368333
279.030665,2451.505594,1628.453072,8142.265362
279.030973,2681.334243,-0.000000,8882.471304
279.031281,995.924147,-1036.288319,9548.656652
279.031589,-1149.143247,-1924.535449,11695.253884
279.031897,-2757.943793,-3108.864956,12583.501014
279.032205,-3217.601092,-3330.926739,12731.542202
279.032513,-3294.210641,-2368.659014,12583.501014
279.032822,-1762.019645,-1406.391290,11547.212695
279.033130,153.219100,222.061783,9474.636058
279.033438,2528.115143,2220.617826,6957.935855
279.033746,4443.353888,3849.070898,5181.441594
279.034054,5822.325785,4367.215058,4515.256246
279.034362,5898.935335,3701.029710,4589.276840
279.034670,4366.744339,2960.823768,5403.503377
279.034978,2834.553343,1480.411884,7698.141797
279.035286,689.485948,-222.061783,9400.615463
279.035595,-2068.457845,-1628.453072,11695.253884
279.035903,-2451.505594,-2294.638420,13027.624579
279.036211,-2298.286494,-2220.617826,12213.398043
279.036519,-2528.115143,-1184.329507,12065.356855
279.036827,-383.047749,-222.061783,11103.089130
279.037135,1685.410096,1480.411884,9104.533087
279.037443,2068.457845,1998.556043,7920.203579
279.037751,2987.772442,1776.494261,8142.265362
279.038060,2374.896044,814.226536,9400.615463
279.038368,306.438199,-740.205942,10288.862594
279.038676,-1532.190996,-2442.679609,12065.356855
279.038984,-3217.601092,-3330.926739,12731.542202
279.039292,-3524.039291,-3627.009116,14211.954086
279.039600,-3064.381992,-2516.700203,12731.542202
279.039908,-1072.533697,-518.144159,10288.862594
279.040216,995.924147,888.247130,9104.533087
279.040524,3294.210641,2664.741391,6587.832884
279.040833,5209.449386,4293.194464,5403.503377
279.041141,5822.325785,4367.215058,4589.276840
279.041449,5515.887586,3849.070898,4663.297435
279.041757,4366.744339,3108.864956,6069.688724
279.042065,1915.238745,1036.288319,9104.533087
279.042373,-229.828649,-962.267725,10807.006753
279.042681,-2374.896044,-1998.556043,11917.315666
279.042989,-2911.162892,-2294.638420,12879.583391
279.043298,-2757.943793,-2072.576638,12361.439231
279.043606,-1378.971896,-888.247130,12139.377449
279.043914,842.705048,-0.000000,10140.821405
279.044222,1762.019645,1776.494261,8364.327145
279.044530,2911.162892,1998.556043,8142.265362
279.044838,2604.724693,1480.411884,8216.285956
279.045146,1532.190996,666.185348,9548.656652
279.045454,-383.047749,-962.267725,10955.047942
279.045762,-1991.848295,-2220.617826,12287.418637
279.046071,-2987.772442,-3256.906145,13323.706956
279.046379,-3217.601092,-2738.761985,12805.562797
279.046687,-2298.286494,-2146.597232,11843.295072
279.046995,-995.924147,-666.185348,10584.944971
279.047303,1532.190996,666.185348,9030.512492
279.047611,3370.820191,2886.803174,6291.750507
279.047919,5669.106685,3849.070898,4811.338623
279.048227,7277.907231,4589.276840,4737.318029
279.048536,6281.983084,3923.091493,3923.091493
279.048844,4673.182538,2664.741391,6365.771101
279.049152,2604.724693,1184.329507,8142.265362
279.049460,689.485948,-222.061783,9770.718434
279.049768,-1762.019645,-2072.576638,12065.356855
279.050076,-2911.162892,-2368.659014,12583.501014
279.050384,-3064.381992,-2220.617826,13471.748144
279.050692,-2298.286494,-1036.288319,12731.542202
279.051000,-766.095498,-74.020594,10955.047942
279.051309,1455.581446,814.226536,9104.533087
279.051617,2145.067394,1850.514855,8808.450710
279.051925,1838.629195,1110.308913,9030.512492
279.052233,459.657299,148.041188,10066.800811
279.052541,-766.095498,-1258.350101,11399.171507
279.052849,-2298.286494,-2590.720797,11843.295072
279.053157,-3217.601092,-2442.679609,12657.521608
279.053465,-3064.381992,-2886.803174,12731.542202
279.053774,-2451.505594,-1702.473667,11547.212695
279.054082,0.000000,-518.144159,9844.739029
279.054390,1532.190996,1258.350101,8068.244768
279.054698,3983.696590,2812.782580,6365.771101
279.055006,5515.887586,3997.112087,5033.400406
279.055314,6435.202183,4589.276840,4293.194464
279.055622,5669.106685,3701.029710,5181.441594
279.055930,4060.306139,1850.514855,6291.750507
279.056238,1838.629195,740.205942,8734.430116
279.056547,0.000000,-592.164754,10362.883188
279.056855,-1455.581446,-1258.350101,11251.130318
279.057163,-2451.505594,-1628.453072,11769.274478
279.057471,-1225.752797,-1258.350101,11917.315666
279.057779,-766.095498,-370.102971,11325.150913
279.058087,383.047749,888.247130,9474.636058
279.058395,1532.190996,1184.329507,8734.430116
279.058703,1685.410096,888.247130,9326.594869
279.059012,919.314598,-370.102971,10140.821405
279.059320,-459.657299,-1332.370696,11177.109724
279.059628,-2374.896044,-2442.679609,12361.439231
279.059936,-3064.381992,-3923.091493,13249.686362
279.060244,-3370.820191,-3627.009116,13693.809927
279.060552,-2757.943793,-3182.885551,12435.459826
279.060860,-1532.190996,-1480.411884,11177.109724
279.061168,612.876398,-0.000000,9474.636058
279.061476,2834.553343,2220.617826,7031.956449
279.061785,5056.230287,3849.070898,5181.441594
279.062093,6435.202183,4663.297435,3775.050304
279.062401,6281.983084,4367.215058,3701.029710
279.062709,5286.058936,2960.823768,4737.318029
279.063017,4060.306139,2072.576638,7328.038826
279.063325,1378.971896,-444.123565,9178.553681
279.063633,-1302.362347,-1406.391290,11399.171507
279.063941,-1762.019645,-2146.597232,12287.418637
279.064250,-2298.286494,-1776.494261,12065.356855
279.064558,-2068.457845,-1184.329507,11991.336260
279.064866,1225.752797,-0.000000,10658.965565
279.065174,2068.457845,962.267725,8956.491898
279.065482,2298.286494,1850.514855,8438.347739
279.065790,2528.115143,1776.494261,8734.430116
279.066098,1149.143247,814.226536,10214.842000
279.066406,-306.438199,-888.247130,11695.253884
279.066714,-2221.676944,-1776.494261,12065.356855
279.067023,-3524.039291,-2886.803174,13619.789333
279.067331,-4060.306139,-3330.926739,14137.933492
279.067639,-3294.210641,-3034.844362,12953.603985
279.067947,-1915.238745,-1406.391290,12287.418637
279.068255,536.266849,-148.041188,9770.718434
279.068563,2757.943793,2590.720797,6587.832884
279.068871,5209.449386,3849.070898,5699.585753
279.069179,6358.592633,4737.318029,4663.297435
279.069488,6435.202183,4663.297435,4145.153275
279.069796,5132.839837,3478.967927,5329.482782
279.070104,3064.381992,1554.432478,7179.997637
279.070412,1149.143247,666.185348,9030.512492
279.070720,-459.657299,-962.267725,11695.253884
279.071028,-1685.410096,-1628.453072,11843.295072
279.071336,-2221.676944,-1628.453072,12361.439231
279.071644,-1915.238745,-1480.411884,12509.480420
279.071952,-612.876398,-444.123565,10955.047942
279.072261,919.314598,962.267725,9178.553681
279.072569,1838.629195,1776.494261,9178.553681
279.072877,1532.190996,518.144159,9326.594869
279.073185,689.485948,-296.082377,10066.800811
279.073493,-1149.143247,-1110.308913,11547.212695
279.073801,-2374.896044,-2220.617826,12139.377449
279.074109,-3294.210641,-2590.720797,12509.480420
279.074417,-3524.039291,-2664.741391,12805.562797
279.074726,-2451.505594,-2146.597232,12361.439231
279.075034,-1532.190996,-1036.288319,10658.965565
279.075342,689.485948,370.102971,8734.430116
279.075650,2987.772442,2442.679609,6809.894666
279.075958,4826.401637,3849.070898,5329.482782
279.076266,5439.278036,4219.173869,4663.297435
279.076574,4979.620737,3997.112087,4737.318029
279.076882,4366.744339,2664.741391,5699.585753
279.077190,2145.067394,1332.370696,7402.059420
279.077499,0.000000,-518.144159,9622.677246
279.077807,-1991.848295,-1480.411884,11769.274478
279.078115,-2911.162892,-2220.617826,12435.459826
279.078423,-2681.334243,-1480.411884,12139.377449
279.078731,-1225.752797,-1036.288319,11843.295072
279.079039,0.000000,296.082377,10214.842000
279.079347,1149.143247,1332.370696,8734.430116
279.079655,2221.676944,1406.391290,8216.285956
279.079964,1838.629195,-0.000000,8956.491898
279.080272,229.828649,-592.164754,9992.780217
279.080580,-1532.190996,-1850.514855,11547.212695
279.080888,-2681.334243,-2960.823768,12509.480420
279.081196,-3600.648841,-3552.988522,12953.603985
279.081504,-3217.601092,-3330.926739,13249.686362
279.081812,-1838.629195,-2294.638420,11843.295072
279.082120,-306.438199,-814.226536,10436.903782
279.082428,2068.457845,1628.453072,7920.203579
279.082737,4673.182538,3330.926739,5995.668130
279.083045,6741.640382,4293.194464,4293.194464
279.083353,6435.202183,4959.379811,3478.967927
279.083661,6741.640382,3997.112087,4737.318029
279.083969,4903.011187,2738.761985,5403.503377
279.084277,1838.629195,444.123565,8512.368333
279.084585,0.000000,-1184.329507,10658.965565
279.084893,-2374.896044,-2072.576638,11917.315666
279.085202,-2451.505594,-2368.659014,12731.542202
279.085510,-1991.848295,-2220.617826,12361.439231
279.085818,-766.095498,-814.226536,11843.295072
279.086126,383.047749,444.123565,9844.739029
279.086434,2374.896044,1850.514855,8660.409521
279.086742,2834.553343,2072.576638,8364.327145
279.087050,2298.286494,1036.288319,9178.553681
279.087358,689.485948,-0.000000,10584.944971
279.087666,-229.828649,-888.247130,11325.150913
279.087975,-2221.676944,-2442.679609,12657.521608
279.088283,-3140.991542,-2812.782580,13323.706956
279.088591,-3064.381992,-2442.679609,12879.583391
279.088899,-2221.676944,-1850.514855,12361.439231
279.089207,-383.047749,-370.102971,10140.821405
279.089515,2068.457845,1110.308913,8290.306550
279.089823,4519.963438,2886.803174,6513.812290
279.090131,5439.278036,4071.132681,4663.297435
279.090440,6818.249932,4441.235652,4441.235652
279.090748,5745.716235,3849.070898,4663.297435
279.091056,3753.867940,2516.700203,6661.853478
279.091364,1685.410096,740.205942,8734.430116
279.091672,153.219100,-222.061783,10732.986159
279.091980,-2068.457845,-1924.535449,11843.295072
279.092288,-2757.943793,-1776.494261,12509.480420
279.092596,-2145.067394,-1702.473667,12657.521608
279.092904,-1685.410096,-370.102971,11843.295072
279.093213,536.266849,370.102971,10288.862594
279.093521,1302.362347,1480.411884,8956.491898
279.093829,1302.362347,962.267725,8882.471304
279.094137,689.485948,-148.041188,9548.656652
279.094445,-459.657299,-1184.329507,11399.171507
279.094753,-1915.238745,-2072.576638,11991.336260
279.095061,-3294.210641,-3034.844362,12805.562797
279.095369,-3600.648841,-3256.906145,12731.542202
279.095678,-3294.210641,-2960.823768,12435.459826
279.095986,-1915.238745,-1332.370696,10955.047942
279.096294,153.219100,222.061783,9178.553681
279.096602,2604.724693,1702.473667,7254.018232
279.096910,4596.572988,3627.009116,5329.482782
279.097218,5975.544884,4515.256246,5181.441594
279.097526,5132.839837,3997.112087,4885.359217
279.097834,4596.572988,2812.782580,5181.441594
279.098142,2451.505594,1480.411884,7105.977043
279.098451,153.219100,-814.226536,10362.883188
279.098759,-1532.190996,-1924.535449,11399.171507
279.099067,-1685.410096,-2516.700203,12139.377449
279.099375,-1991.848295,-2294.638420,12139.377449
279.099683,-919.314598,-1406.391290,11029.068536
279.099991,76.609550,-74.020594,10288.862594
279.100299,1685.410096,1332.370696,8882.471304
279.100607,2834.553343,2294.638420,7698.141797
279.100916,2834.553343,2146.597232,8438.347739
279.101224,1608.800546,1036.288319,9326.594869
279.101532,153.219100,-148.041188,10510.924376
279.101840,-1608.800546,-2072.576638,12657.521608
279.102148,-2451.505594,-3034.844362,13027.624579
279.102456,-3753.867940,-3330.926739,12805.562797
279.102764,-2834.553343,-2960.823768,13545.768739
279.103072,-1378.971896,-1776.494261,11547.212695
279.103380,-153.219100,518.144159,9252.574275
279.103689,2987.772442,1998.556043,7698.141797
279.103997,4903.011187,3701.029710,5033.400406
279.104305,6588.421283,4589.276840,4737.318029
279.104613,6511.811733,4293.194464,4589.276840
279.104921,5515.887586,3256.906145,5033.400406
279.105229,3064.381992,1628.453072,7994.224174
279.105537,766.095498,-666.185348,9992.780217
279.105845,-1149.143247,-1850.514855,11843.295072
279.106154,-2221.676944,-2738.761985,12361.439231
279.106462,-2374.896044,-2590.720797,12953.603985
279.106770,-1149.143247,-1406.391290,12731.542202
279.107078,459.657299,-370.102971,10955.047942
279.107386,1838.629195,1332.370696,8956.491898
279.107694,2757.943793,2368.659014,8290.306550
279.108002,2834.553343,2516.700203,8142.265362
279.108310,1762.019645,1480.411884,9030.512492
279.108618,536.266849,518.144159,9992.780217
279.108927,-919.314598,-1036.288319,11547.212695
279.109235,-2834.553343,-2294.638420,12435.459826
279.109543,-3677.258390,-3108.864956,13027.624579
279.109851,-3064.381992,-2886.803174,13101.645173
279.110159,-2451.505594,-1998.556043,11843.295072
279.110467,-612.876398,-0.000000,9992.780217
279.110775,2221.676944,1554.432478,7846.182985
279.111083,3830.477490,3552.988522,5403.503377
279.111392,5669.106685,3997.112087,5403.503377
279.111700,5439.278036,3775.050304,4885.359217
279.112008,4290.134789,2812.782580,5921.647536
279.112316,2604.724693,1110.308913,8290.306550
279.112624,536.266849,-74.020594,9844.739029
279.112932,-1685.410096,-1110.308913,11325.150913
279.113240,-2298.286494,-1924.535449,12065.356855
279.113548,-2221.676944,-1702.473667,12361.439231
279.113856,-1915.238745,-1406.391290,11843.295072
279.114165,383.047749,-0.000000,10658.965565
279.114473,1072.533697,1332.370696,8734.430116
279.114781,1838.629195,1480.411884,8290.306550
279.115089,1762.019645,962.267725,8660.409521
279.115397,766.095498,370.102971,9548.656652
279.115705,-383.047749,-1184.329507,10807.006753
279.116013,-1991.848295,-2146.597232,11325.150913
279.116321,-2681.334243,-2590.720797,12731.542202
279.116629,-3370.820191,-3108.864956,13249.686362
279.116937,-2987.772442,-2368.659014,12139.377449
279.117245,-1302.362347,-888.247130,10807.006753
279.117553,612.876398,1036.288319,8364.327145
279.117861,3524.039291,2812.782580,6587.832884
279.118169,5362.668486,3997.112087,4959.379811
279.118477,5439.278036,4589.276840,4293.194464
