#time,accel_x,accel_y,accel_z
137.715210,2834.553343,-0.000000,9474.636058
137.715518,2451.505594,-0.000000,9696.697840
137.715826,2834.553343,-148.041188,9992.780217
137.716134,2528.115143,-444.123565,9918.759623
137.716442,2911.162892,-518.144159,10066.800811
137.716750,3064.381992,-222.061783,9474.636058
137.717058,2911.162892,296.082377,9252.574275
137.717366,3140.991542,518.144159,9252.574275
137.717674,3294.210641,740.205942,9252.574275
137.717982,3140.991542,888.247130,9178.553681
137.718290,2911.162892,592.164754,8882.471304
137.718598,3140.991542,592.164754,9252.574275
137.718906,2451.505594,-0.000000,9696.697840
137.719214,1838.629195,-222.061783,10362.883188
137.719522,1072.533697,-296.082377,10584.944971
137.719830,1072.533697,-296.082377,10658.965565
137.720138,1149.143247,-0.000000,10584.944971
137.720446,1685.410096,370.102971,10436.903782
137.720754,2145.067394,222.061783,9696.697840
137.721062,2451.505594,296.082377,9252.574275
137.721370,2528.115143,-0.000000,9548.656652
137.721678,1991.848295,-370.102971,10214.842000
137.721986,1225.752797,-222.061783,10288.862594
137.722294,1225.752797,-518.144159,10066.800811
137.722602,1455.581446,-444.123565,10288.862594
137.722910,1225.752797,-592.164754,9844.739029
137.723218,1762.019645,-0.000000,9918.759623
137.723526,1762.019645,-74.020594,9548.656652
137.723834,1838.629195,-0.000000,9622.677246
137.724142,1991.848295,-0.000000,8956.491898
137.724450,2604.724693,148.041188,8956.491898
137.724758,2834.553343,222.061783,8438.347739
137.725066,3064.381992,296.082377,8364.327145
137.725374,2987.772442,518.144159,8882.471304
137.725682,2451.505594,-0.000000,8956.491898
137.725990,2757.943793,-222.061783,9474.636058
137.726298,2451.505594,-222.061783,9474.636058
137.726606,2528.115143,-370.102971,9326.594869
137.726914,2757.943793,-296.082377,9474.636058
137.727222,3140.991542,-296.082377,9400.615463
137.727530,2911.162892,-148.041188,9400.615463
137.727838,2911.162892,-444.123565,9400.615463
137.728146,3600.648841,74.020594,10066.800811
137.728454,3064.381992,-0.000000,9400.615463
137.728762,3064.381992,296.082377,9326.594869
137.729070,3294.210641,888.247130,8882.471304
137.729379,3447.429741,1258.350101,9178.553681
137.729687,3600.648841,1258.350101,9104.533087
137.729995,3217.601092,1480.411884,8882.471304
137.730303,3370.820191,1332.370696,9326.594869
137.730611,3370.820191,1110.308913,9474.636058
137.730919,2681.334243,1406.391290,9696.697840
137.731227,2374.896044,1036.288319,10288.862594
137.731535,1762.019645,814.226536,10140.821405
137.731843,1378.971896,592.164754,10362.883188
137.732151,995.924147,444.123565,10881.027347
137.732459,995.924147,592.164754,10881.027347
137.732767,842.705048,518.144159,10584.944971
137.733075,229.828649,592.164754,10732.986159
137.733383,536.266849,518.144159,10658.965565
137.733691,919.314598,666.185348,10362.883188
137.733999,459.657299,666.185348,10140.821405
137.734307,383.047749,370.102971,9844.739029
137.734615,306.438199,222.061783,9844.739029
137.734923,383.047749,222.061783,9844.739029
137.735231,0.000000,-296.082377,9696.697840
137.735539,612.876398,-148.041188,9918.759623
137.735847,76.609550,-370.102971,9696.697840
137.736155,-842.705048,-296.082377,9696.697840
137.736463,153.219100,-518.144159,9474.636058
137.736771,536.266849,-370.102971,9326.594869
137.737079,383.047749,-296.082377,9178.553681
137.737387,536.266849,-666.185348,9104.533087
137.737695,612.876398,-518.144159,9104.533087
137.738003,536.266849,-518.144159,9326.594869
137.738311,383.047749,-888.247130,9252.574275
137.738619,689.485948,-592.164754,9326.594869
137.738927,995.924147,-592.164754,9400.615463
137.739235,995.924147,-814.226536,9474.636058
137.739543,766.095498,-592.164754,9622.677246
137.739851,919.314598,-814.226536,9548.656652
137.740159,842.705048,-814.226536,9622.677246
137.740467,766.095498,-296.082377,9844.739029
137.740775,995.924147,-518.144159,9770.718434
137.741083,919.314598,222.061783,9844.739029
137.741391,1072.533697,444.123565,9400.615463
137.741699,1225.752797,666.185348,9252.574275
137.742007,1149.143247,814.226536,9252.574275
137.742315,1608.800546,888.247130,9548.656652
137.742623,995.924147,814.226536,9474.636058
137.742931,919.314598,518.144159,9400.615463
137.743239,1149.143247,296.082377,9918.759623
137.743547,459.657299,370.102971,9622.677246
137.743855,612.876398,518.144159,9548.656652
137.744163,842.705048,666.185348,9474.636058
137.744471,536.266849,592.164754,9548.656652
137.744779,995.924147,814.226536,9474.636058
137.745087,1225.752797,814.226536,9548.656652
137.745395,842.705048,1480.411884,9030.512492
137.745703,1532.190996,1184.329507,8734.430116
137.746011,1455.581446,1850.514855,9178.553681
137.746319,1302.362347,1702.473667,8808.450710
137.746627,1378.971896,1628.453072,8734.430116
137.746935,1149.143247,1258.350101,8882.471304
137.747243,689.485948,1110.308913,9474.636058
137.747551,153.219100,592.164754,9474.636058
137.747859,-306.438199,-296.082377,9918.759623
137.748167,-612.876398,-740.205942,10140.821405
137.748475,-766.095498,-962.267725,10510.924376
137.748783,-995.924147,-1036.288319,10732.986159
137.749091,-1302.362347,-1110.308913,10362.883188
137.749399,-995.924147,-1110.308913,10510.924376
137.749707,-842.705048,-1258.350101,10510.924376
137.750015,-1378.971896,-1036.288319,10214.842000
137.750323,-689.485948,-1036.288319,9918.759623
137.750631,-612.876398,-370.102971,10066.800811
137.750939,-383.047749,-296.082377,9844.739029
137.751246,0.000000,-222.061783,9548.656652
137.751554,0.000000,-148.041188,9474.636058
137.751862,0.000000,-296.082377,9548.656652
137.752170,306.438199,-296.082377,9474.636058
137.752478,383.047749,-222.061783,9474.636058
137.752785,0.000000,-222.061783,9400.615463
137.753093,153.219100,-0.000000,9252.574275
137.753401,842.705048,296.082377,9104.533087
137.753709,766.095498,814.226536,8882.471304
137.754017,1072.533697,962.267725,8882.471304
137.754324,1302.362347,1258.350101,8734.430116
137.754632,1302.362347,962.267725,8956.491898
137.754940,1302.362347,1036.288319,9178.553681
137.755248,919.314598,814.226536,9622.677246
137.755556,1608.800546,518.144159,9622.677246
137.755863,306.438199,1036.288319,10140.821405
137.756171,459.657299,296.082377,10066.800811
137.756479,383.047749,296.082377,10214.842000
137.756787,76.609550,-0.000000,10510.924376
137.757095,-229.828649,-370.102971,10584.944971
137.757402,536.266849,-444.123565,11029.068536
137.757710,76.609550,-444.123565,10362.883188
137.758018,612.876398,-370.102971,10362.883188
137.758326,995.924147,-0.000000,10066.800811
137.758633,1302.362347,148.041188,9770.718434
137.758941,1532.190996,444.123565,9474.636058
137.759249,1915.238745,740.205942,9104.533087
137.759557,2145.067394,814.226536,8882.471304
137.759865,2451.505594,1036.288319,8882.471304
137.760172,2221.676944,1110.308913,8734.430116
137.760480,2221.676944,962.267725,8660.409521
137.760788,2298.286494,1036.288319,8882.471304
137.761096,1762.019645,962.267725,9104.533087
137.761404,1225.752797,814.226536,9178.553681
137.761711,842.705048,592.164754,9400.615463
137.762019,689.485948,-222.061783,9622.677246
137.762327,459.657299,148.041188,9696.697840
137.762635,459.657299,-148.041188,9770.718434
137.762943,153.219100,-222.061783,10436.903782
137.763250,153.219100,-0.000000,9918.759623
137.763558,0.000000,-0.000000,10214.842000
137.763866,-229.828649,-148.041188,10066.800811
137.764174,0.000000,-222.061783,10140.821405
137.764481,0.000000,-370.102971,9918.759623
137.764789,-612.876398,-740.205942,10214.842000
137.765097,-229.828649,-740.205942,10214.842000
137.765405,0.000000,-592.164754,9992.780217
137.765713,0.000000,-222.061783,10362.883188
137.766020,229.828649,-370.102971,9918.759623
137.766328,229.828649,-74.020594,9770.718434
137.766636,842.705048,-0.000000,9474.636058
137.766944,766.095498,518.144159,9548.656652
137.767252,1072.533697,370.102971,8882.471304
137.767559,1532.190996,592.164754,9104.533087
137.767867,1762.019645,518.144159,8882.471304
137.768175,1915.238745,814.226536,8956.491898
137.768483,1838.629195,740.205942,8734.430116
137.768791,1762.019645,666.185348,8956.491898
137.769098,1915.238745,296.082377,9104.533087
137.769406,1532.190996,740.205942,9770.718434
137.769714,1378.971896,444.123565,9548.656652
137.770022,1455.581446,-0.000000,9992.780217
137.770330,1072.533697,-222.061783,9770.718434
137.770637,689.485948,296.082377,9844.739029
137.770945,995.924147,222.061783,9992.780217
137.771253,842.705048,-148.041188,10214.842000
137.771561,306.438199,-370.102971,10066.800811
137.771868,306.438199,-296.082377,10658.965565
137.772176,229.828649,-444.123565,9992.780217
137.772484,306.438199,148.041188,10214.842000
137.772792,689.485948,222.061783,9844.739029
137.773100,995.924147,370.102971,9474.636058
137.773407,995.924147,666.185348,9400.615463
137.773715,1149.143247,1110.308913,8956.491898
137.774023,1455.581446,1258.350101,8956.491898
137.774331,1378.971896,1258.350101,8660.409521
137.774639,1762.019645,1258.350101,8808.450710
137.774946,919.314598,1480.411884,8734.430116
137.775254,1302.362347,1184.329507,8660.409521
137.775562,766.095498,1110.308913,9104.533087
137.775870,383.047749,666.185348,9326.594869
137.776178,229.828649,370.102971,9474.636058
137.776485,153.219100,296.082377,9548.656652
137.776793,76.609550,-0.000000,10066.800811
137.777101,-383.047749,-74.020594,9992.780217
137.777409,-459.657299,-518.144159,9918.759623
137.777716,-766.095498,-888.247130,10510.924376
137.778024,-995.924147,-666.185348,10288.862594
137.778332,-1378.971896,-888.247130,10510.924376
137.778640,-1532.190996,-1110.308913,10584.944971
137.778948,-1608.800546,-1406.391290,10510.924376
137.779255,-1225.752797,-1702.473667,10362.883188
137.779563,-1072.533697,-1332.370696,10510.924376
137.779871,-842.705048,-1184.329507,10288.862594
137.780179,-919.314598,-962.267725,9992.780217
137.780487,-153.219100,-518.144159,9400.615463
137.780794,-153.219100,-148.041188,8956.491898
137.781102,306.438199,-0.000000,8956.491898
137.781410,459.657299,-0.000000,8660.409521
137.781718,612.876398,222.061783,8512.368333
137.782026,1149.143247,444.123565,8808.450710
137.782333,1072.533697,592.164754,8512.368333
137.782641,1302.362347,444.123565,8512.368333
137.782949,1455.581446,888.247130,8586.388927
137.783257,1378.971896,1184.329507,8734.430116
137.783564,1072.533697,814.226536,9104.533087
137.783872,1149.143247,518.144159,9400.615463
137.784180,766.095498,222.061783,9696.697840
137.784488,1225.752797,-0.000000,9696.697840
137.784796,919.314598,296.082377,10288.862594
137.785103,306.438199,296.082377,10436.903782
137.785411,229.828649,-74.020594,10732.986159
137.785719,76.609550,-444.123565,10955.047942
137.786027,0.000000,-592.164754,10955.047942
137.786335,76.609550,-370.102971,11251.130318
137.786642,842.705048,-296.082377,11177.109724
137.786950,536.266849,-444.123565,10807.006753
137.787258,995.924147,296.082377,10288.862594
137.787566,1455.581446,518.144159,9474.636058
137.787874,1838.629195,888.247130,9326.594869
137.788181,2298.286494,1184.329507,8956.491898
137.788489,2221.676944,1406.391290,8660.409521
137.788797,2451.505594,1850.514855,8660.409521
137.789105,2451.505594,1776.494261,8956.491898
137.789413,2451.505594,1776.494261,8586.388927
137.789720,2528.115143,1406.391290,8512.368333
137.790028,1838.629195,1850.514855,9030.512492
137.790336,1455.581446,1258.350101,9104.533087
137.790644,1302.362347,962.267725,9474.636058
137.790951,766.095498,518.144159,9696.697840
137.791259,689.485948,222.061783,9992.780217
137.791567,76.609550,222.061783,10288.862594
137.791875,153.219100,-296.082377,10436.903782
137.792183,-229.828649,-518.144159,10436.903782
137.792490,-153.219100,-666.185348,10362.883188
137.792798,-612.876398,-444.123565,10658.965565
137.793106,-689.485948,-592.164754,10732.986159
137.793414,-689.485948,-814.226536,10658.965565
137.793722,-766.095498,-1036.288319,10584.944971
137.794029,-229.828649,-962.267725,10584.944971
137.794337,-536.266849,-962.267725,10362.883188
137.794645,76.609550,-814.226536,10214.842000
137.794953,0.000000,-962.267725,9622.677246
137.795261,383.047749,-296.082377,9696.697840
137.795568,995.924147,-0.000000,9104.533087
137.795876,1455.581446,444.123565,8882.471304
137.796184,1685.410096,592.164754,8586.388927
137.796492,2068.457845,740.205942,8216.285956
137.796799,1915.238745,666.185348,8142.265362
137.797107,2221.676944,666.185348,7994.224174
137.797415,2068.457845,888.247130,8290.306550
137.797723,2068.457845,888.247130,8512.368333
137.798031,1915.238745,666.185348,8586.388927
137.798338,1532.190996,370.102971,8882.471304
137.798646,1149.143247,296.082377,9474.636058
137.798954,1225.752797,-0.000000,9844.739029
137.799262,766.095498,148.041188,9918.759623
137.799570,842.705048,-444.123565,10214.842000
137.799877,0.000000,-370.102971,10140.821405
137.800185,459.657299,-444.123565,10510.924376
137.800493,0.000000,-370.102971,10658.965565
137.800801,0.000000,-518.144159,10510.924376
137.801109,0.000000,-444.123565,10288.862594
137.801416,536.266849,-370.102971,9992.780217
137.801724,76.609550,-74.020594,10288.862594
137.802032,842.705048,-0.000000,9326.594869
137.802340,995.924147,888.247130,9178.553681
137.802648,1455.581446,1184.329507,9030.512492
137.802955,1991.848295,1406.391290,8734.430116
137.803263,2068.457845,1702.473667,8512.368333
137.803571,1991.848295,1554.432478,8216.285956
137.803879,2068.457845,1628.453072,8216.285956
137.804186,1532.190996,1406.391290,8882.471304
137.804494,1302.362347,666.185348,8956.491898
137.804802,612.876398,962.267725,9252.574275
137.805110,383.047749,518.144159,9326.594869
137.805418,0.000000,370.102971,9474.636058
137.805725,76.609550,222.061783,9770.718434
137.806033,-306.438199,296.082377,10510.924376
137.806341,-612.876398,-592.164754,10288.862594
137.806649,-842.705048,-1110.308913,10732.986159
137.806957,-995.924147,-1110.308913,11251.130318
137.807264,-1455.581446,-962.267725,11399.171507
137.807572,-1608.800546,-1258.350101,11029.068536
137.807880,-1685.410096,-1332.370696,10881.027347
137.808188,-1532.190996,-1258.350101,10807.006753
137.808496,-1225.752797,-1036.288319,10584.944971
137.808803,-459.657299,-666.185348,10288.862594
137.809111,0.000000,-666.185348,9474.636058
137.809419,229.828649,-444.123565,9474.636058
137.809727,383.047749,370.102971,9178.553681
137.810034,689.485948,592.164754,8808.450710
137.810342,995.924147,592.164754,8438.347739
137.810650,1149.143247,888.247130,8438.347739
137.810958,1302.362347,1480.411884,8512.368333
137.811266,1455.581446,1036.288319,8512.368333
137.811573,1302.362347,1184.329507,8734.430116
137.811881,2221.676944,1036.288319,8438.347739
137.812189,1608.800546,1036.288319,8586.388927
137.812497,1302.362347,962.267725,9030.512492
137.812805,1225.752797,740.205942,9326.594869
137.813112,995.924147,296.082377,9548.656652
137.813420,612.876398,148.041188,9844.739029
137.813728,766.095498,-740.205942,10214.842000
137.814036,0.000000,-592.164754,10732.986159
137.814344,153.219100,-592.164754,11029.068536
137.814651,76.609550,-740.205942,11103.089130
137.814959,0.000000,-592.164754,11177.109724
137.815267,0.000000,-444.123565,10881.027347
137.815575,536.266849,-370.102971,10584.944971
137.815882,612.876398,-0.000000,10362.883188
137.816190,1532.190996,296.082377,9992.780217
137.816498,1915.238745,740.205942,9474.636058
137.816806,1915.238745,1184.329507,9400.615463
137.817114,2145.067394,1480.411884,8586.388927
137.817421,2298.286494,1480.411884,8364.327145
137.817729,2374.896044,1702.473667,8216.285956
137.818037,2221.676944,1998.556043,8216.285956
137.818345,2145.067394,1702.473667,8290.306550
137.818653,2145.067394,1332.370696,8586.388927
137.818960,1608.800546,1406.391290,8808.450710
137.819268,1225.752797,962.267725,9178.553681
137.819576,842.705048,666.185348,9548.656652
137.819884,153.219100,148.041188,9696.697840
137.820192,383.047749,-0.000000,9770.718434
137.820499,0.000000,-222.061783,10288.862594
137.820807,-306.438199,-296.082377,10436.903782
137.821115,-536.266849,-444.123565,10584.944971
137.821423,-612.876398,-888.247130,10881.027347
137.821731,-766.095498,-1036.288319,11029.068536
137.822038,-995.924147,-1036.288319,11103.089130
137.822346,-1072.533697,-1036.288319,11251.130318
137.822654,-995.924147,-1258.350101,10881.027347
137.822962,-689.485948,-1110.308913,10732.986159
137.823269,-536.266849,-1332.370696,10510.924376
137.823577,-153.219100,-740.205942,10214.842000
137.823885,76.609550,-740.205942,9326.594869
137.824193,459.657299,148.041188,9548.656652
137.824501,1149.143247,296.082377,8660.409521
137.824808,1608.800546,962.267725,8438.347739
137.825116,1915.238745,1184.329507,8290.306550
137.825424,2145.067394,1406.391290,7920.203579
137.825732,2451.505594,1332.370696,8364.327145
137.826040,2221.676944,1184.329507,8142.265362
137.826347,2145.067394,666.185348,8290.306550
137.826655,1762.019645,888.247130,8512.368333
137.826963,1225.752797,1036.288319,8956.491898
137.827271,1378.971896,666.185348,9400.615463
137.827579,1072.533697,296.082377,9474.636058
137.827886,766.095498,222.061783,9918.759623
137.828194,383.047749,-296.082377,10436.903782
137.828502,383.047749,-370.102971,10288.862594
137.828810,76.609550,-444.123565,10362.883188
137.829117,0.000000,-444.123565,10807.006753
137.829425,0.000000,-370.102971,10881.027347
137.829733,-153.219100,-296.082377,10732.986159
137.830041,229.828649,-222.061783,10732.986159
137.830349,0.000000,-0.000000,10066.800811
137.830656,842.705048,-0.000000,9918.759623
137.830964,1302.362347,592.164754,9474.636058
137.831272,1532.190996,592.164754,9104.533087
137.831580,1762.019645,888.247130,9178.553681
137.831888,1991.848295,1332.370696,8660.409521
137.832195,2374.896044,1850.514855,8142.265362
137.832503,2068.457845,1258.350101,8068.244768
137.832811,1685.410096,1702.473667,8512.368333
137.833119,1608.800546,888.247130,8438.347739
137.833427,1685.410096,1258.350101,9104.533087
137.833734,1225.752797,740.205942,8882.471304
137.834042,689.485948,592.164754,9104.533087
137.834350,153.219100,148.041188,9252.574275
137.834658,-229.828649,222.061783,9474.636058
137.834965,-612.876398,-74.020594,10066.800811
137.835273,-459.657299,-962.267725,10510.924376
137.835581,-1608.800546,-1110.308913,11325.150913
137.835889,-2068.457845,-1702.473667,11103.089130
137.836197,-1915.238745,-1924.535449,11251.130318
137.836504,-1915.238745,-1554.432478,11251.130318
137.836812,-1991.848295,-1480.411884,11177.109724
137.837120,-1455.581446,-1480.411884,11103.089130
137.837428,-1225.752797,-1110.308913,10510.924376
137.837736,-1072.533697,-1406.391290,9844.739029
137.838043,153.219100,-666.185348,9696.697840
137.838351,229.828649,-370.102971,9030.512492
137.838659,766.095498,592.164754,9178.553681
137.838967,1225.752797,592.164754,8438.347739
137.839275,1532.190996,888.247130,8216.285956
137.839582,1532.190996,1110.308913,8142.265362
137.839890,1915.238745,1406.391290,8068.244768
137.840198,1915.238745,1258.350101,7698.141797
137.840506,1991.848295,1406.391290,8216.285956
137.840814,1762.019645,1184.329507,8364.327145
137.841121,1762.019645,666.185348,8808.450710
137.841429,1149.143247,740.205942,9326.594869
137.841737,1378.971896,444.123565,9474.636058
137.842045,612.876398,444.123565,9992.780217
137.842352,306.438199,-0.000000,10362.883188
137.842660,383.047749,-518.144159,10584.944971
137.842968,-306.438199,-962.267725,11103.089130
137.843276,-383.047749,-888.247130,11177.109724
137.843584,-383.047749,-1332.370696,11473.192101
137.843891,0.000000,-962.267725,11399.171507
137.844199,-229.828649,-666.185348,11103.089130
137.844507,383.047749,-296.082377,10584.944971
137.844815,459.657299,-0.000000,10288.862594
137.845123,1378.971896,666.185348,9474.636058
137.845430,2145.067394,592.164754,9030.512492
137.845738,2068.457845,1406.391290,8512.368333
137.846046,2374.896044,1850.514855,8142.265362
137.846354,2681.334243,2294.638420,7772.162391
137.846662,2681.334243,2442.679609,7772.162391
137.846969,2528.115143,2146.597232,7846.182985
137.847277,2068.457845,2072.576638,8142.265362
137.847585,1685.410096,1702.473667,8734.430116
137.847893,1685.410096,740.205942,9104.533087
137.848200,229.828649,592.164754,9548.656652
137.848508,306.438199,-0.000000,10066.800811
137.848816,-306.438199,-148.041188,10140.821405
137.849124,-536.266849,-592.164754,10288.862594
137.849432,-842.705048,-740.205942,10881.027347
137.849739,-1225.752797,-740.205942,11103.089130
137.850047,-1225.752797,-962.267725,11251.130318
137.850355,-919.314598,-1110.308913,11103.089130
137.850663,-1608.800546,-1258.350101,11103.089130
137.850971,-612.876398,-962.267725,10955.047942
137.851278,-919.314598,-962.267725,10807.006753
137.851586,-536.266849,-1036.288319,10584.944971
137.851885,-383.047749,-888.247130,10362.883188
137.852193,76.609550,-296.082377,10066.800811
137.852501,76.609550,-370.102971,9696.697840
137.852809,459.657299,-0.000000,9030.512492
137.853116,1608.800546,148.041188,8586.388927
137.853424,2374.896044,518.144159,8512.368333
137.853732,2221.676944,1332.370696,8364.327145
137.854040,2374.896044,1110.308913,7698.141797
137.854348,2451.505594,1480.411884,7846.182985
137.854655,2145.067394,1406.391290,7920.203579
137.854963,2145.067394,1332.370696,8068.244768
137.855271,1991.848295,1258.350101,8734.430116
137.855579,1532.190996,814.226536,8512.368333
137.855887,1762.019645,518.144159,9030.512492
137.856194,995.924147,518.144159,9918.759623
137.856502,612.876398,-0.000000,10214.842000
137.856810,306.438199,-0.000000,10584.944971
137.857118,76.609550,-592.164754,11103.089130
137.857426,-306.438199,-888.247130,11177.109724
137.857733,-536.266849,-1332.370696,11547.212695
137.858041,229.828649,-1110.308913,11251.130318
137.858349,459.657299,-666.185348,11473.192101
137.858657,383.047749,-444.123565,10955.047942
137.858965,766.095498,-222.061783,10362.883188
137.859272,1225.752797,-0.000000,9622.677246
137.859580,2068.457845,1110.308913,9474.636058
137.859888,2757.943793,1480.411884,8660.409521
137.860196,3064.381992,1702.473667,8364.327145
137.860504,3370.820191,1702.473667,7920.203579
137.860811,2834.553343,2146.597232,8142.265362
137.861119,2451.505594,2220.617826,7846.182985
137.861427,2451.505594,2072.576638,7994.224174
137.861735,1838.629195,1554.432478,8216.285956
137.862043,1302.362347,1258.350101,8734.430116
137.862350,689.485948,888.247130,9474.636058
137.862658,383.047749,-74.020594,9252.574275
137.862966,0.000000,148.041188,9770.718434
137.863274,-766.095498,-370.102971,10214.842000
137.863582,-1072.533697,-666.185348,10584.944971
137.863889,-1225.752797,-1110.308913,10807.006753
137.864197,-1838.629195,-1554.432478,11251.130318
137.864505,-1762.019645,-1702.473667,11399.171507
137.864813,-1991.848295,-1850.514855,11843.295072
137.865121,-1915.238745,-1628.453072,11621.233289
137.865428,-1378.971896,-1924.535449,11251.130318
137.865736,-995.924147,-1406.391290,10658.965565
137.866044,-1225.752797,-1110.308913,10214.842000
137.866352,-536.266849,-740.205942,9770.718434
137.866660,-153.219100,-444.123565,9326.594869
137.866967,229.828649,148.041188,8956.491898
137.867275,1225.752797,962.267725,8660.409521
137.867583,1225.752797,518.144159,8290.306550
137.867891,1685.410096,666.185348,7920.203579
137.868198,1991.848295,1480.411884,8142.265362
137.868506,1608.800546,1258.350101,7846.182985
137.868814,1915.238745,1258.350101,7772.162391
137.869122,1762.019645,1332.370696,8290.306550
137.869430,1685.410096,1110.308913,8808.450710
137.869737,1302.362347,888.247130,9326.594869
137.870045,995.924147,518.144159,9622.677246
137.870353,383.047749,370.102971,9992.780217
137.870661,689.485948,-0.000000,10362.883188
137.870969,153.219100,-444.123565,10288.862594
137.871276,0.000000,-444.123565,11103.089130
137.871584,-306.438199,-814.226536,11103.089130
137.871892,-383.047749,-1036.288319,11399.171507
137.872200,-383.047749,-1184.329507,11325.150913
137.872508,-229.828649,-1184.329507,11399.171507
137.872815,0.000000,-888.247130,11103.089130
137.873123,383.047749,-222.061783,10510.924376
137.873431,995.924147,518.144159,9696.697840
137.873739,1532.190996,592.164754,9548.656652
137.874047,1915.238745,1332.370696,8956.491898
137.874354,2145.067394,1702.473667,8586.388927
137.874662,2145.067394,2368.659014,8586.388927
137.874970,2987.772442,2220.617826,7624.121203
137.875278,2451.505594,1924.535449,7846.182985
137.875586,2221.676944,2220.617826,8438.347739
137.875893,2221.676944,1998.556043,7772.162391
137.876201,1685.410096,1554.432478,8586.388927
137.876509,919.314598,1110.308913,9030.512492
137.876817,536.266849,370.102971,9622.677246
137.877125,-153.219100,-222.061783,9918.759623
137.877432,-306.438199,-296.082377,10362.883188
137.877740,-612.876398,-370.102971,10955.047942
137.878048,-1532.190996,-962.267725,10807.006753
137.878356,-1302.362347,-888.247130,11103.089130
137.878664,-1685.410096,-1110.308913,11325.150913
137.878971,-1608.800546,-1110.308913,11177.109724
137.879279,-1532.190996,-1332.370696,11029.068536
137.879587,-1302.362347,-1036.288319,11325.150913
137.879895,-229.828649,-1036.288319,10732.986159
137.880203,-766.095498,-1110.308913,10288.862594
137.880510,-459.657299,-888.247130,9770.718434
137.880818,229.828649,-296.082377,9326.594869
137.881126,766.095498,-0.000000,8882.471304
137.881434,1302.362347,370.102971,8808.450710
137.881742,1532.190996,444.123565,8512.368333
137.882049,1685.410096,814.226536,8512.368333
137.882357,2221.676944,1406.391290,8512.368333
137.882665,2528.115143,1184.329507,7920.203579
137.882973,2681.334243,1332.370696,7846.182985
137.883281,2528.115143,1332.370696,8142.265362
137.883588,2451.505594,1184.329507,8068.244768
137.883896,1991.848295,814.226536,8438.347739
137.884204,1225.752797,592.164754,9400.615463
137.884512,1149.143247,222.061783,9992.780217
137.884820,995.924147,-0.000000,9992.780217
137.885127,0.000000,-222.061783,10510.924376
137.885435,383.047749,-444.123565,10658.965565
137.885743,0.000000,-518.144159,10955.047942
137.886051,0.000000,-740.205942,11029.068536
137.886359,0.000000,-814.226536,10955.047942
137.886666,153.219100,-666.185348,10732.986159
137.886974,459.657299,-814.226536,10955.047942
137.887282,919.314598,-518.144159,10658.965565
137.887590,1225.752797,-0.000000,9918.759623
137.887898,1072.533697,370.102971,9326.594869
137.888205,1838.629195,1110.308913,9030.512492
137.888513,2298.286494,1554.432478,8512.368333
137.888821,2528.115143,1850.514855,8142.265362
137.889129,3064.381992,1924.535449,7698.141797
137.889437,2911.162892,2368.659014,7846.182985
137.889744,2834.553343,1924.535449,7920.203579
137.890052,2221.676944,1776.494261,7846.182985
137.890360,1838.629195,1480.411884,8438.347739
137.890668,1378.971896,1184.329507,9104.533087
137.890975,612.876398,296.082377,9474.636058
137.891283,229.828649,-0.000000,9696.697840
137.891591,76.609550,-296.082377,10140.821405
137.891899,-383.047749,-740.205942,10288.862594
137.892207,-383.047749,-740.205942,11251.130318
137.892514,-1149.143247,-1628.453072,10807.006753
137.892822,-1685.410096,-1554.432478,11547.212695
137.893130,-1838.629195,-1776.494261,11103.089130
137.893438,-1608.800546,-1702.473667,11399.171507
137.893746,-1608.800546,-1480.411884,11103.089130
137.894053,-1608.800546,-1554.432478,10955.047942
137.894361,-1302.362347,-1184.329507,10584.944971
137.894669,-612.876398,-666.185348,10066.800811
137.894977,153.219100,-518.144159,9548.656652
137.895285,306.438199,-0.000000,9104.533087
137.895592,459.657299,148.041188,8956.491898
137.895900,919.314598,592.164754,8512.368333
137.896208,1149.143247,962.267725,8216.285956
137.896516,1915.238745,962.267725,8216.285956
137.896824,1608.800546,1332.370696,8142.265362
137.897131,1608.800546,1332.370696,8290.306550
137.897439,2221.676944,1332.370696,8290.306550
137.897747,1762.019645,1332.370696,8438.347739
137.898055,1302.362347,1184.329507,8734.430116
137.898363,1225.752797,888.247130,9178.553681
137.898670,995.924147,592.164754,9696.697840
137.898978,536.266849,222.061783,9918.759623
137.899286,0.000000,-370.102971,10362.883188
137.899594,0.000000,-518.144159,10584.944971
137.899902,229.828649,-814.226536,11103.089130
137.900209,-689.485948,-814.226536,11177.109724
137.900517,-612.876398,-888.247130,11473.192101
137.900825,-383.047749,-1110.308913,11251.130318
137.901133,0.000000,-888.247130,11251.130318
137.901441,306.438199,-370.102971,11029.068536
137.901748,229.828649,-0.000000,10436.903782
137.902056,1149.143247,-0.000000,9474.636058
137.902364,1991.848295,814.226536,9030.512492
137.902672,2145.067394,1184.329507,8586.388927
137.902980,2451.505594,1850.514855,7994.224174
137.903287,2451.505594,2072.576638,7698.141797
137.903595,2374.896044,2146.597232,7994.224174
137.903903,2298.286494,1776.494261,7698.141797
137.904211,1915.238745,1776.494261,8142.265362
137.904519,1991.848295,1184.329507,8216.285956
137.904826,1225.752797,1184.329507,9030.512492
137.905134,153.219100,740.205942,9474.636058
137.905442,-153.219100,222.061783,9844.739029
137.905750,-383.047749,-222.061783,10214.842000
137.906058,-842.705048,-666.185348,10436.903782
137.906365,-612.876398,-962.267725,10955.047942
137.906673,-1302.362347,-888.247130,10955.047942
137.906981,-1225.752797,-962.267725,11029.068536
137.907289,-2221.676944,-740.205942,11325.150913
137.907597,-1225.752797,-1036.288319,10881.027347
137.907904,-1225.752797,-962.267725,10732.986159
137.908212,-1225.752797,-1036.288319,10807.006753
137.908520,-995.924147,-962.267725,10584.944971
137.908828,-229.828649,-1406.391290,10362.883188
137.909136,0.000000,-740.205942,9918.759623
137.909443,766.095498,-518.144159,9400.615463
137.909751,995.924147,-444.123565,9104.533087
137.910059,1378.971896,444.123565,8882.471304
137.910367,1762.019645,740.205942,8512.368333
137.910675,2298.286494,1332.370696,8068.244768
137.910982,2451.505594,1184.329507,7994.224174
137.911290,2221.676944,1110.308913,7772.162391
137.911598,2757.943793,1480.411884,7994.224174
137.911906,2451.505594,1480.411884,8734.430116
137.912214,2068.457845,962.267725,8734.430116
137.912521,1838.629195,888.247130,9030.512492
137.912829,1302.362347,444.123565,9474.636058
137.913137,1225.752797,-0.000000,9844.739029
137.913445,919.314598,-0.000000,10140.821405
137.913752,766.095498,-592.164754,10362.883188
137.914060,306.438199,-518.144159,10732.986159
137.914368,229.828649,-888.247130,10732.986159
137.914676,383.047749,-666.185348,10881.027347
137.914984,76.609550,-592.164754,10807.006753
137.915291,306.438199,-296.082377,10584.944971
137.915599,842.705048,-0.000000,10436.903782
137.915907,1532.190996,370.102971,9696.697840
137.916215,1762.019645,370.102971,9326.594869
137.916523,1762.019645,814.226536,9326.594869
137.916830,1991.848295,888.247130,8660.409521
137.917138,2374.896044,1628.453072,8586.388927
137.917446,2221.676944,1702.473667,8216.285956
137.917754,2451.505594,1776.494261,7846.182985
137.918062,2451.505594,1480.411884,8068.244768
137.918369,2221.676944,1702.473667,8216.285956
137.918677,1608.800546,1332.370696,8882.471304
137.918985,1915.238745,1036.288319,8956.491898
137.919293,766.095498,962.267725,9030.512492
137.919601,612.876398,518.144159,9400.615463
137.919908,76.609550,148.041188,9696.697840
137.920216,-383.047749,-296.082377,10214.842000
137.920524,-995.924147,-666.185348,10584.944971
137.920832,-995.924147,-962.267725,10807.006753
137.921140,-1302.362347,-1406.391290,11325.150913
137.921447,-1762.019645,-1702.473667,11621.233289
137.921755,-2451.505594,-1998.556043,10881.027347
137.922063,-1455.581446,-1554.432478,11251.130318
137.922371,-1532.190996,-1406.391290,10732.986159
137.922679,-1149.143247,-1258.350101,10658.965565
137.922986,-689.485948,-962.267725,10066.800811
137.923294,-689.485948,-666.185348,9918.759623
137.923602,0.000000,-592.164754,9474.636058
137.923910,153.219100,-0.000000,9030.512492
137.924218,536.266849,370.102971,8512.368333
137.924525,1149.143247,666.185348,8882.471304
137.924833,995.924147,1036.288319,8068.244768
137.925141,1685.410096,1184.329507,7994.224174
137.925449,1685.410096,1406.391290,7846.182985
137.925757,1608.800546,1036.288319,8290.306550
137.926064,1991.848295,814.226536,8660.409521
137.926372,1838.629195,1036.288319,8808.450710
137.926680,1302.362347,444.123565,8882.471304
137.926988,995.924147,148.041188,9326.594869
137.927296,766.095498,370.102971,9844.739029
137.927603,306.438199,148.041188,9992.780217
137.927911,76.609550,-148.041188,10288.862594
137.928219,229.828649,-296.082377,10881.027347
137.928527,-536.266849,-1110.308913,11251.130318
137.928835,0.000000,-814.226536,11695.253884
137.929142,0.000000,-518.144159,11473.192101
137.929450,76.609550,-666.185348,11029.068536
137.929758,383.047749,-296.082377,10807.006753
137.930066,995.924147,-0.000000,10140.821405
137.930374,1532.190996,592.164754,9770.718434
137.930681,1915.238745,962.267725,9400.615463
137.930989,2221.676944,1258.350101,8882.471304
137.931297,2221.676944,1406.391290,8216.285956
137.931605,2298.286494,1776.494261,8586.388927
137.931913,2298.286494,1998.556043,8290.306550
137.932220,2221.676944,2072.576638,8364.327145
137.932528,1838.629195,1850.514855,8364.327145
137.932836,1455.581446,1554.432478,8808.450710
137.933144,1149.143247,814.226536,9178.553681
137.933452,459.657299,962.267725,9474.636058
137.933759,383.047749,148.041188,10214.842000
137.934067,-459.657299,-0.000000,9992.780217
137.934375,-459.657299,-148.041188,10066.800811
137.934683,-383.047749,-148.041188,10288.862594
137.934990,-995.924147,-370.102971,10732.986159
137.935298,-1225.752797,-444.123565,10881.027347
137.935606,-1455.581446,-888.247130,10732.986159
137.935914,-1532.190996,-814.226536,10807.006753
137.936222,-1455.581446,-1036.288319,11177.109724
137.936529,-995.924147,-1554.432478,11029.068536
137.936837,-1302.362347,-1036.288319,10881.027347
137.937145,-995.924147,-1184.329507,10584.944971
137.937453,-536.266849,-666.185348,10288.862594
137.937761,-306.438199,-518.144159,9474.636058
137.938068,76.609550,-0.000000,9326.594869
137.938376,766.095498,-222.061783,9104.533087
137.938684,1532.190996,-0.000000,8438.347739
137.938992,1762.019645,666.185348,8142.265362
137.939300,1838.629195,962.267725,7846.182985
137.939607,2068.457845,740.205942,8142.265362
137.939915,2374.896044,814.226536,8142.265362
137.940223,2451.505594,888.247130,8438.347739
137.940531,1915.238745,444.123565,8734.430116
137.940839,1991.848295,666.185348,9030.512492
137.941146,459.657299,666.185348,9178.553681
137.941454,1685.410096,-0.000000,9400.615463
137.941762,1302.362347,-0.000000,9400.615463
137.942070,1225.752797,222.061783,9696.697840
137.942378,766.095498,-0.000000,9918.759623
137.942685,612.876398,-148.041188,10362.883188
137.942993,229.828649,-370.102971,10510.924376
137.943301,536.266849,-740.205942,10584.944971
137.943609,0.000000,-444.123565,10436.903782
137.943917,-153.219100,296.082377,10807.006753
137.944224,536.266849,-148.041188,10436.903782
137.944532,919.314598,-0.000000,9844.739029
137.944840,1072.533697,444.123565,9548.656652
137.945148,1225.752797,666.185348,9326.594869
137.945456,1608.800546,814.226536,9178.553681
137.945763,2068.457845,1184.329507,8956.491898
137.946071,2298.286494,1480.411884,8142.265362
137.946379,2451.505594,1554.432478,7772.162391
137.946687,2221.676944,1702.473667,8290.306550
137.946995,2145.067394,1924.535449,8438.347739
137.947302,1685.410096,1776.494261,8586.388927
137.947610,1149.143247,1406.391290,8660.409521
137.947918,842.705048,444.123565,9622.677246
137.948226,229.828649,296.082377,9770.718434
137.948534,-306.438199,-0.000000,10214.842000
137.948841,-995.924147,-0.000000,10362.883188
137.949149,-766.095498,-666.185348,10362.883188
137.949457,-1302.362347,-888.247130,10881.027347
137.949765,-1072.533697,-1036.288319,11103.089130
137.950073,-1685.410096,-1110.308913,11251.130318
137.950381,-1532.190996,-1258.350101,11399.171507
137.950689,-1302.362347,-1184.329507,10955.047942
137.950997,-689.485948,-962.267725,10955.047942
137.951305,-1455.581446,-1332.370696,10658.965565
137.951613,-766.095498,-666.185348,10214.842000
137.951921,-229.828649,-444.123565,9696.697840
137.952229,153.219100,-0.000000,9474.636058
137.952537,229.828649,148.041188,9400.615463
137.952845,1072.533697,370.102971,8882.471304
137.953153,1072.533697,740.205942,8438.347739
137.953461,1149.143247,888.247130,8364.327145
137.953769,1608.800546,1036.288319,8734.430116
137.954077,1532.190996,962.267725,8290.306550
137.954385,1685.410096,888.247130,8512.368333
137.954693,1455.581446,888.247130,8882.471304
137.955001,1532.190996,962.267725,9104.533087
137.955309,1225.752797,518.144159,9770.718434
137.955617,459.657299,148.041188,9770.718434
137.955925,1302.362347,-148.041188,10066.800811
137.956233,612.876398,444.123565,10362.883188
137.956541,229.828649,-222.061783,10288.862594
137.956849,76.609550,-370.102971,10140.821405
137.957157,229.828649,-222.061783,10510.924376
137.957465,459.657299,-370.102971,10510.924376
137.957773,153.219100,-592.164754,10584.944971
137.958081,229.828649,-0.000000,10807.006753
137.958389,689.485948,-296.082377,10140.821405
137.958697,842.705048,-296.082377,9918.759623
137.959005,1302.362347,444.123565,9474.636058
137.959313,1762.019645,962.267725,9178.553681
137.959621,1915.238745,962.267725,8956.491898
137.959929,1838.629195,1258.350101,8808.450710
137.960237,1991.848295,1480.411884,8364.327145
137.960545,1991.848295,1702.473667,8586.388927
137.960853,2298.286494,1258.350101,8586.388927
137.961161,1685.410096,1332.370696,8142.265362
137.961469,1225.752797,1184.329507,8882.471304
137.961777,766.095498,814.226536,9252.574275
137.962085,383.047749,592.164754,9252.574275
137.962393,-229.828649,-74.020594,9918.759623
137.962701,-689.485948,-518.144159,10362.883188
137.963009,-919.314598,-888.247130,10584.944971
137.963317,-766.095498,-814.226536,10436.903782
137.963625,-995.924147,-888.247130,10658.965565
137.963933,-995.924147,-592.164754,10732.986159
137.964241,-1149.143247,-814.226536,10732.986159
137.964549,-842.705048,-740.205942,10658.965565
137.964857,-1302.362347,-1036.288319,10510.924376
137.965165,-842.705048,-1036.288319,10214.842000
137.965473,-153.219100,-370.102971,10140.821405
137.965781,-536.266849,-666.185348,10288.862594
137.966089,0.000000,-296.082377,9696.697840
137.966397,229.828649,-74.020594,9548.656652
137.966705,459.657299,-0.000000,9326.594869
137.967013,995.924147,-0.000000,8956.491898
137.967321,1915.238745,148.041188,9030.512492
137.967629,1455.581446,518.144159,8660.409521
137.967937,2221.676944,296.082377,8660.409521
137.968245,2451.505594,296.082377,8290.306550
137.968553,2298.286494,740.205942,8734.430116
137.968861,2298.286494,888.247130,8808.450710
137.969169,2298.286494,1110.308913,9104.533087
137.969477,1915.238745,1036.288319,9030.512492
137.969785,1685.410096,518.144159,9400.615463
137.970093,1608.800546,444.123565,9548.656652
137.970401,1455.581446,148.041188,9474.636058
137.970709,1378.971896,148.041188,9992.780217
137.971017,1302.362347,-0.000000,9992.780217
137.971325,612.876398,-0.000000,10436.903782
137.971633,229.828649,-222.061783,10807.006753
137.971941,383.047749,-444.123565,10732.986159
137.972249,459.657299,-222.061783,10955.047942
137.972557,536.266849,-518.144159,10807.006753
137.972865,459.657299,222.061783,10436.903782
137.973173,1762.019645,518.144159,9770.718434
137.973481,1762.019645,666.185348,9474.636058
137.973789,2221.676944,1036.288319,9104.533087
137.974097,2221.676944,1480.411884,8734.430116
137.974405,2451.505594,1332.370696,8808.450710
137.974713,2451.505594,1406.391290,8438.347739
137.975021,1915.238745,1480.411884,8734.430116
137.975329,2374.896044,1184.329507,8956.491898
137.975637,1532.190996,888.247130,8808.450710
137.975945,1225.752797,1036.288319,8882.471304
137.976253,919.314598,666.185348,9178.553681
137.976561,459.657299,592.164754,9252.574275
137.976869,383.047749,518.144159,9474.636058
137.977177,383.047749,-74.020594,9548.656652
137.977485,0.000000,-0.000000,9992.780217
137.977793,-842.705048,-296.082377,10362.883188
137.978101,-1302.362347,-518.144159,10584.944971
137.978409,-1149.143247,-814.226536,10881.027347
137.978717,-1685.410096,-1036.288319,11029.068536
137.979025,-1685.410096,-1406.391290,10955.047942
137.979333,-1455.581446,-1258.350101,11029.068536
137.979641,-1532.190996,-1480.411884,10881.027347
137.979949,-1225.752797,-1258.350101,10214.842000
137.980257,0.000000,-814.226536,10510.924376
137.980565,-612.876398,-740.205942,9844.739029
137.980873,76.609550,-0.000000,9548.656652
137.981181,229.828649,-0.000000,9252.574275
137.981489,536.266849,-0.000000,9030.512492
137.981797,919.314598,444.123565,8734.430116
137.982105,995.924147,518.144159,8586.388927
137.982413,1378.971896,814.226536,8364.327145
137.982721,1225.752797,666.185348,8364.327145
137.983029,1455.581446,814.226536,8660.409521
137.983337,1302.362347,740.205942,8808.450710
137.983645,1149.143247,370.102971,9104.533087
137.983953,919.314598,296.082377,9252.574275
137.984261,612.876398,-0.000000,9474.636058
137.984569,919.314598,-0.000000,9548.656652
137.984877,612.876398,370.102971,9696.697840
137.985185,383.047749,148.041188,9844.739029
137.985493,766.095498,-0.000000,10214.842000
137.985801,306.438199,-148.041188,10436.903782
137.986109,306.438199,-222.061783,10510.924376
137.986417,229.828649,-148.041188,10288.862594
137.986725,383.047749,-0.000000,10436.903782
137.987033,229.828649,-0.000000,10288.862594
137.987341,1455.581446,-0.000000,9770.718434
137.987649,1532.190996,666.185348,9770.718434
137.987957,1608.800546,740.205942,9770.718434
137.988265,1378.971896,1110.308913,9326.594869
137.988573,1608.800546,1480.411884,9178.553681
137.988881,1838.629195,1480.411884,8808.450710
137.989189,2374.896044,1702.473667,8512.368333
137.989497,1762.019645,2294.638420,9104.533087
137.989805,1455.581446,1554.432478,8734.430116
137.990113,1532.190996,1110.308913,9326.594869
137.990421,995.924147,666.185348,9474.636058
137.990729,229.828649,444.123565,9992.780217
137.991037,-153.219100,-0.000000,9844.739029
137.991345,-689.485948,-370.102971,10288.862594
137.991653,-689.485948,-888.247130,10584.944971
137.991961,-689.485948,-444.123565,10362.883188
137.992269,-1378.971896,-296.082377,10732.986159
137.992577,-689.485948,-296.082377,10066.800811
137.992885,-995.924147,-370.102971,10288.862594
137.993193,-919.314598,-444.123565,10510.924376
137.993501,-766.095498,-666.185348,10288.862594
137.993809,-612.876398,-518.144159,9992.780217
137.994117,-766.095498,-296.082377,10288.862594
137.994425,-536.266849,-1036.288319,9918.759623
137.994733,0.000000,-592.164754,9918.759623
137.995041,459.657299,-592.164754,9474.636058
137.995349,153.219100,-370.102971,9252.574275
137.995657,689.485948,-0.000000,8734.430116
137.995965,1378.971896,-0.000000,8956.491898
137.996273,1608.800546,296.082377,8660.409521
137.996581,2068.457845,666.185348,8438.347739
137.996889,2298.286494,370.102971,8586.388927
137.997197,1915.238745,666.185348,8364.327145
137.997505,2145.067394,814.226536,8734.430116
137.997813,1991.848295,592.164754,8882.471304
137.998121,1455.581446,592.164754,9030.512492
137.998429,1685.410096,370.102971,9474.636058
137.998737,1378.971896,370.102971,9400.615463
137.999045,842.705048,296.082377,9770.718434
137.999353,1072.533697,444.123565,10140.821405
137.999661,1149.143247,-0.000000,10140.821405
137.999969,1302.362347,-0.000000,10436.903782
138.000277,612.876398,-74.020594,10584.944971
138.000585,842.705048,-74.020594,10362.883188
138.000893,536.266849,-148.041188,10362.883188
138.001201,612.876398,-148.041188,10658.965565
138.001510,842.705048,-148.041188,10066.800811
138.001818,995.924147,-0.000000,9696.697840
138.002126,1225.752797,296.082377,9622.677246
138.002434,2451.505594,666.185348,9104.533087
138.002742,2145.067394,1332.370696,8808.450710
138.003050,2451.505594,1406.391290,8586.388927
138.003358,2528.115143,1406.391290,8512.368333
138.003666,1991.848295,1850.514855,7920.203579
138.003974,2604.724693,1258.350101,9104.533087
138.004282,1915.238745,1036.288319,8364.327145
138.004590,995.924147,1332.370696,8882.471304
138.004898,536.266849,814.226536,9400.615463
138.005206,306.438199,592.164754,9474.636058
138.005514,-306.438199,-0.000000,9770.718434
138.005822,-536.266849,-370.102971,10066.800811
138.006130,-689.485948,-296.082377,10510.924376
138.006438,-995.924147,-666.185348,10584.944971
138.006746,-1225.752797,-1036.288319,10955.047942
138.007054,-842.705048,-888.247130,10807.006753
138.007362,-1072.533697,-1258.350101,10658.965565
138.007670,-1378.971896,-888.247130,11177.109724
138.007978,-1149.143247,-962.267725,10807.006753
138.008286,-1149.143247,-962.267725,10510.924376
138.008594,-919.314598,-814.226536,10214.842000
138.008902,0.000000,-518.144159,10362.883188
138.009210,-383.047749,-592.164754,9992.780217
138.009518,-459.657299,-370.102971,9548.656652
138.009826,459.657299,-444.123565,9030.512492
138.010134,612.876398,-0.000000,9252.574275
138.010442,919.314598,518.144159,9030.512492
138.010750,1149.143247,444.123565,8734.430116
138.011058,1532.190996,666.185348,8438.347739
138.011366,1685.410096,740.205942,8734.430116
138.011674,1838.629195,1110.308913,8512.368333
138.011982,1685.410096,1184.329507,8734.430116
138.012290,1302.362347,1184.329507,8882.471304
138.012598,1455.581446,962.267725,8956.491898
138.012906,1149.143247,740.205942,9178.553681
138.013214,766.095498,592.164754,9474.636058
138.013522,536.266849,370.102971,9622.677246
138.013830,612.876398,-370.102971,10362.883188
138.014138,76.609550,-666.185348,10584.944971
138.014446,306.438199,-888.247130,10732.986159
138.014754,-612.876398,-888.247130,10881.027347
138.015062,0.000000,-592.164754,10658.965565
138.015370,383.047749,-296.082377,10584.944971
138.015678,459.657299,-0.000000,10436.903782
138.015986,919.314598,148.041188,9844.739029
138.016294,995.924147,518.144159,9770.718434
138.016602,1762.019645,1184.329507,9548.656652
138.016910,2068.457845,1258.350101,8882.471304
138.017218,2145.067394,1110.308913,8956.491898
138.017526,2145.067394,1850.514855,8586.388927
138.017834,1915.238745,1480.411884,8364.327145
138.018142,1762.019645,1554.432478,8586.388927
138.018450,1455.581446,1110.308913,9030.512492
138.018758,919.314598,444.123565,9178.553681
138.019066,995.924147,518.144159,9622.677246
138.019374,306.438199,-0.000000,9844.739029
138.019682,153.219100,222.061783,9770.718434
138.019990,-459.657299,-444.123565,9844.739029
138.020298,-766.095498,-222.061783,9918.759623
138.020606,-459.657299,-370.102971,10066.800811
138.020914,-995.924147,-296.082377,10140.821405
138.021222,-1302.362347,-444.123565,10214.842000
138.021530,-919.314598,-222.061783,10732.986159
138.021838,-612.876398,-1036.288319,10436.903782
138.022146,-1225.752797,-888.247130,10955.047942
138.022454,-1149.143247,-814.226536,10584.944971
138.022762,-995.924147,-666.185348,10658.965565
138.023070,-842.705048,-962.267725,10140.821405
138.023378,-306.438199,-518.144159,10066.800811
138.023686,0.000000,-518.144159,10140.821405
138.023994,536.266849,-518.144159,9400.615463
138.024302,536.266849,222.061783,9474.636058
138.024610,1378.971896,148.041188,8660.409521
138.024918,1608.800546,666.185348,8438.347739
138.025226,2298.286494,962.267725,8216.285956
138.025534,2604.724693,1258.350101,8068.244768
138.025842,2757.943793,1406.391290,8364.327145
138.026150,2451.505594,1480.411884,8586.388927
138.026458,2528.115143,962.267725,8660.409521
138.026766,1762.019645,962.267725,9252.574275
138.027074,1685.410096,666.185348,9104.533087
138.027382,1302.362347,518.144159,9474.636058
138.027690,1149.143247,296.082377,9844.739029
138.027998,612.876398,148.041188,10066.800811
138.028306,919.314598,-222.061783,10584.944971
138.028614,383.047749,-296.082377,10807.006753
138.028922,306.438199,-888.247130,10955.047942
138.029230,229.828649,-814.226536,11103.089130
138.029538,229.828649,-518.144159,11029.068536
138.029846,229.828649,-370.102971,10732.986159
138.030154,612.876398,-148.041188,10214.842000
138.030462,1072.533697,444.123565,9696.697840
138.030770,1838.629195,592.164754,9400.615463
138.031078,2221.676944,888.247130,8956.491898
138.031386,2528.115143,1110.308913,8438.347739
138.031694,2757.943793,1480.411884,7994.224174
138.032002,2834.553343,2072.576638,7846.182985
138.032310,2528.115143,1628.453072,7772.162391
138.032618,2298.286494,1702.473667,8290.306550
138.032926,1991.848295,1480.411884,8216.285956
138.033234,1762.019645,1406.391290,8290.306550
138.033542,1455.581446,962.267725,8882.471304
138.033850,383.047749,592.164754,9030.512492
138.034158,383.047749,518.144159,9918.759623
138.034466,-306.438199,-222.061783,9696.697840
138.034774,-459.657299,-222.061783,10288.862594
138.035082,-995.924147,-592.164754,10436.903782
138.035390,-1378.971896,-1110.308913,11029.068536
138.035698,-2145.067394,-1406.391290,11473.192101
138.036006,-1991.848295,-1554.432478,11769.274478
138.036314,-2221.676944,-1850.514855,11473.192101
138.036622,-1685.410096,-1628.453072,11325.150913
138.036930,-1838.629195,-1406.391290,11399.171507
138.037238,-1225.752797,-962.267725,10881.027347
138.037546,-612.876398,-814.226536,10066.800811
138.037854,0.000000,-518.144159,9696.697840
138.038162,612.876398,-370.102971,9474.636058
138.038470,612.876398,148.041188,9104.533087
138.038778,1532.190996,666.185348,8512.368333
138.039086,1532.190996,740.205942,8586.388927
138.039394,1915.238745,962.267725,7920.203579
138.039702,1991.848295,1480.411884,7772.162391
138.040010,2374.896044,1850.514855,7698.141797
138.040318,2451.505594,1776.494261,7846.182985
138.040626,2068.457845,1480.411884,8068.244768
138.040934,2068.457845,1036.288319,8660.409521
138.041242,1685.410096,888.247130,9326.594869
138.041550,919.314598,-0.000000,9622.677246
138.041858,536.266849,296.082377,9770.718434
138.042166,229.828649,-74.020594,9992.780217
138.042474,0.000000,-370.102971,10510.924376
138.042782,-229.828649,-666.185348,10881.027347
138.043090,0.000000,-814.226536,11177.109724
138.043398,-229.828649,-962.267725,11473.192101
138.043706,-536.266849,-1036.288319,11325.150913
138.044014,0.000000,-740.205942,10732.986159
138.044322,0.000000,-444.123565,10510.924376
138.044630,842.705048,222.061783,10288.862594
138.044938,1378.971896,740.205942,9474.636058
138.045246,1685.410096,1110.308913,9252.574275
138.045554,2068.457845,1480.411884,8734.430116
138.045862,2145.067394,1554.432478,8734.430116
138.046170,1991.848295,1924.535449,8364.327145
138.046478,1685.410096,1924.535449,8438.347739
138.046786,1915.238745,1776.494261,8512.368333
138.047094,1455.581446,1480.411884,8660.409521
138.047402,842.705048,1258.350101,9030.512492
138.047710,536.266849,962.267725,9178.553681
138.048018,0.000000,518.144159,9844.739029
138.048326,0.000000,518.144159,10214.842000
138.048634,-766.095498,-370.102971,10362.883188
138.048942,-1225.752797,-148.041188,10584.944971
138.049250,-1302.362347,-518.144159,10584.944971
138.049558,-1532.190996,-592.164754,10732.986159
138.049866,-1762.019645,-814.226536,10881.027347
138.050174,-1685.410096,-814.226536,11103.089130
138.050482,-1455.581446,-1258.350101,11177.109724
138.050790,-995.924147,-1332.370696,11029.068536
138.051098,-842.705048,-1036.288319,10658.965565
138.051406,-919.314598,-1184.329507,10066.800811
138.051714,0.000000,-888.247130,9548.656652
138.052022,612.876398,-592.164754,9326.594869
138.052330,1072.533697,-222.061783,8882.471304
138.052638,1762.019645,-0.000000,8734.430116
138.052946,2451.505594,592.164754,8216.285956
138.053254,2757.943793,370.102971,7920.203579
138.053562,2757.943793,1036.288319,8142.265362
138.053870,2911.162892,1110.308913,8142.265362
138.054178,2911.162892,962.267725,8068.244768
138.054486,2451.505594,814.226536,8734.430116
138.054794,2145.067394,740.205942,8808.450710
138.055102,1762.019645,592.164754,9474.636058
138.055410,1225.752797,518.144159,9918.759623
138.055718,1302.362347,-0.000000,9696.697840
138.056026,1072.533697,-444.123565,9770.718434
138.056334,229.828649,-222.061783,10362.883188
138.056642,536.266849,-74.020594,10584.944971
138.056950,459.657299,-296.082377,10510.924376
138.057258,306.438199,-296.082377,10732.986159
138.057565,459.657299,-222.061783,10510.924376
138.057873,229.828649,296.082377,10658.965565
138.058181,766.095498,296.082377,10436.903782
138.058489,1532.190996,148.041188,9770.718434
138.058797,2068.457845,814.226536,9548.656652
138.059105,2068.457845,814.226536,9252.574275
138.059413,2221.676944,1036.288319,8882.471304
138.059721,2681.334243,1258.350101,8512.368333
138.060029,2757.943793,1332.370696,8142.265362
138.060337,2451.505594,1776.494261,8660.409521
138.060645,2987.772442,1110.308913,7994.224174
138.060953,2451.505594,1332.370696,8216.285956
138.061261,2145.067394,1480.411884,8512.368333
138.061569,1302.362347,1184.329507,9104.533087
138.061877,1072.533697,888.247130,9252.574275
138.062185,383.047749,666.185348,9622.677246
138.062493,76.609550,-0.000000,10066.800811
138.062801,-766.095498,-444.123565,10658.965565
138.063109,-1608.800546,-1406.391290,10584.944971
138.063417,-1838.629195,-1258.350101,10584.944971
138.063725,-1838.629195,-1332.370696,11547.212695
138.064032,-2145.067394,-1258.350101,11621.233289
138.064340,-2221.676944,-1258.350101,11547.212695
138.064648,-1991.848295,-1110.308913,11325.150913
138.064956,-1685.410096,-1036.288319,10955.047942
138.065264,-766.095498,-592.164754,10436.903782
138.065572,-995.924147,-592.164754,9548.656652
138.065880,-536.266849,-0.000000,9622.677246
138.066188,0.000000,-0.000000,8956.491898
138.066496,306.438199,518.144159,8734.430116
138.066804,689.485948,666.185348,8438.347739
138.067112,995.924147,814.226536,8364.327145
138.067420,1608.800546,740.205942,8216.285956
138.067728,1915.238745,666.185348,8068.244768
138.068036,1149.143247,1036.288319,7772.162391
138.068344,1378.971896,740.205942,8364.327145
138.068652,1455.581446,740.205942,8882.471304
138.068960,919.314598,370.102971,9104.533087
138.069268,536.266849,74.020594,9474.636058
138.069576,383.047749,-0.000000,9918.759623
138.069884,76.609550,-74.020594,10288.862594
138.070191,689.485948,-666.185348,10436.903782
138.070499,0.000000,-592.164754,10288.862594
138.070807,306.438199,-814.226536,10436.903782
138.071115,229.828649,-370.102971,10214.842000
138.071423,76.609550,-666.185348,10436.903782
138.071731,229.828649,-444.123565,10214.842000
138.072039,383.047749,-148.041188,10066.800811
138.072347,1608.800546,-0.000000,9844.739029
138.072655,1378.971896,518.144159,9622.677246
138.072963,1762.019645,444.123565,9474.636058
138.073271,1991.848295,888.247130,8808.450710
138.073579,2145.067394,1258.350101,8586.388927
138.073887,2451.505594,1480.411884,8290.306550
138.074195,2451.505594,1776.494261,8512.368333
138.074503,2221.676944,1554.432478,8438.347739
138.074811,2374.896044,1924.535449,8734.430116
138.075119,1455.581446,1702.473667,9178.553681
138.075427,1455.581446,814.226536,9474.636058
138.075735,459.657299,888.247130,9326.594869
138.076043,153.219100,370.102971,9770.718434
138.076351,-383.047749,296.082377,10214.842000
138.076658,-766.095498,-0.000000,10436.903782
138.076966,-1302.362347,-296.082377,10807.006753
138.077274,-1378.971896,-518.144159,10584.944971
138.077582,-1149.143247,-740.205942,10881.027347
138.077890,-1455.581446,-740.205942,10732.986159
138.078198,-1225.752797,-222.061783,10584.944971
138.078506,-1225.752797,-518.144159,10436.903782
138.078814,-1072.533697,-444.123565,10362.883188
138.079122,-536.266849,-444.123565,9992.780217
138.079430,-306.438199,-296.082377,9770.718434
138.079738,0.000000,-222.061783,9770.718434
138.080046,229.828649,-444.123565,9252.574275
138.080354,995.924147,-740.205942,9400.615463
138.080662,919.314598,-296.082377,9252.574275
138.080970,1149.143247,-148.041188,8586.388927
138.081278,1532.190996,-0.000000,8734.430116
138.081586,1532.190996,-0.000000,8660.409521
138.081894,1838.629195,296.082377,8660.409521
138.082202,2451.505594,518.144159,8586.388927
138.082510,2068.457845,518.144159,8734.430116
138.082817,1762.019645,296.082377,9104.533087
138.083125,1608.800546,296.082377,9474.636058
138.083433,1149.143247,-0.000000,9548.656652
138.083741,919.314598,-0.000000,9770.718434
138.084049,842.705048,-0.000000,9992.780217
138.084357,689.485948,-0.000000,10288.862594
138.084665,689.485948,-296.082377,10214.842000
138.084973,459.657299,-74.020594,10510.924376
138.085281,919.314598,-222.061783,10362.883188
138.085589,612.876398,-592.164754,10436.903782
138.085897,612.876398,-0.000000,10066.800811
138.086205,1072.533697,296.082377,10066.800811
138.086513,1149.143247,592.164754,9696.697840
138.086821,1455.581446,740.205942,9400.615463
138.087129,2451.505594,962.267725,9178.553681
138.087437,2374.896044,1110.308913,9030.512492
138.087745,2145.067394,1184.329507,8808.450710
138.088053,2451.505594,888.247130,8438.347739
138.088361,2298.286494,1332.370696,8512.368333
138.088669,2298.286494,1406.391290,8216.285956
138.088976,2145.067394,1332.370696,8512.368333
138.089284,1915.238745,1110.308913,8438.347739
138.089592,1991.848295,962.267725,9326.594869
138.089900,1455.581446,814.226536,9400.615463
138.090208,1072.533697,222.061783,9770.718434
138.090516,76.609550,-0.000000,10140.821405
138.090824,-229.828649,148.041188,10214.842000
138.091132,-383.047749,-222.061783,10584.944971
138.091440,-766.095498,-222.061783,10732.986159
138.091748,-995.924147,-370.102971,10584.944971
138.092056,-1225.752797,-666.185348,10955.047942
138.092364,-1532.190996,-1184.329507,11177.109724
138.092672,-1072.533697,-962.267725,10955.047942
138.092980,-1225.752797,-1036.288319,10807.006753
138.093288,-1378.971896,-814.226536,10584.944971
138.093596,-1149.143247,-740.205942,10140.821405
138.093904,-766.095498,-222.061783,9844.739029
138.094212,0.000000,-148.041188,9548.656652
138.094520,0.000000,-0.000000,9400.615463
138.094828,612.876398,-74.020594,9252.574275
138.095136,1225.752797,-0.000000,8290.306550
138.095443,459.657299,518.144159,8512.368333
138.095751,995.924147,518.144159,8364.327145
138.096059,1225.752797,740.205942,8290.306550
138.096367,1378.971896,592.164754,8660.409521
138.096675,995.924147,592.164754,8660.409521
138.096983,842.705048,296.082377,8882.471304
138.097291,1225.752797,148.041188,9326.594869
138.097599,919.314598,-0.000000,9474.636058
138.097907,612.876398,-518.144159,9622.677246
138.098215,536.266849,-370.102971,9918.759623
138.098523,536.266849,-148.041188,10214.842000
138.098831,536.266849,-370.102971,10140.821405
138.099139,536.266849,-444.123565,10140.821405
138.099447,842.705048,-444.123565,10362.883188
138.099755,76.609550,-592.164754,10362.883188
138.100063,689.485948,-74.020594,10288.862594
138.100371,689.485948,-148.041188,10066.800811
138.100679,995.924147,222.061783,9918.759623
138.100987,1455.581446,592.164754,9474.636058
138.101295,1532.190996,518.144159,9474.636058
138.101602,1685.410096,814.226536,9104.533087
138.101910,1685.410096,666.185348,8956.491898
138.102218,1455.581446,1184.329507,8808.450710
138.102526,2604.724693,1406.391290,9178.553681
138.102834,1685.410096,1258.350101,9030.512492
138.103142,1762.019645,1702.473667,8734.430116
138.103450,1532.190996,1776.494261,8734.430116
138.103758,1455.581446,1406.391290,9252.574275
138.104066,842.705048,1110.308913,9548.656652
138.104374,229.828649,814.226536,9992.780217
138.104682,-383.047749,296.082377,10066.800811
138.104990,-766.095498,-222.061783,10362.883188
138.105298,-1455.581446,-370.102971,11029.068536
138.105606,-1455.581446,-370.102971,10881.027347
138.105914,-1532.190996,-518.144159,10955.047942
138.106222,-1532.190996,-370.102971,11103.089130
138.106530,-1225.752797,-296.082377,10584.944971
138.106838,-689.485948,-444.123565,10436.903782
138.107146,-689.485948,-518.144159,10140.821405
138.107454,-383.047749,-518.144159,9622.677246
138.107762,-1225.752797,-0.000000,9844.739029
138.108069,-306.438199,-296.082377,9622.677246
138.108377,76.609550,-0.000000,9696.697840
138.108685,536.266849,-0.000000,9252.574275
138.108993,383.047749,-148.041188,9178.553681
138.109301,383.047749,-222.061783,9252.574275
138.109609,1455.581446,-592.164754,9030.512492
138.109917,1532.190996,-444.123565,9030.512492
138.110225,1608.800546,-0.000000,8734.430116
138.110533,1455.581446,-0.000000,8586.388927
138.110841,1685.410096,370.102971,8734.430116
138.111149,1685.410096,296.082377,8882.471304
138.111457,1378.971896,370.102971,9252.574275
138.111765,1532.190996,-0.000000,9474.636058
138.112073,689.485948,148.041188,9622.677246
138.112381,1149.143247,-222.061783,10288.862594
138.112689,842.705048,-0.000000,10214.842000
138.112997,383.047749,-0.000000,9992.780217
138.113305,689.485948,-0.000000,10288.862594
138.113613,842.705048,-0.000000,10214.842000
138.113921,842.705048,-0.000000,10066.800811
138.114228,689.485948,-222.061783,10066.800811
138.114536,1378.971896,-0.000000,9992.780217
138.114844,1608.800546,-0.000000,9326.594869
138.115152,1762.019645,296.082377,9474.636058
138.115460,1838.629195,740.205942,9178.553681
138.115768,2221.676944,814.226536,9030.512492
138.116076,2145.067394,962.267725,8882.471304
138.116384,2374.896044,814.226536,8660.409521
138.116692,2451.505594,888.247130,8734.430116
138.117000,2528.115143,962.267725,8734.430116
138.117308,2604.724693,1184.329507,8956.491898
138.117616,2451.505594,888.247130,8882.471304
138.117924,1915.238745,1258.350101,8734.430116
138.118232,1532.190996,1258.350101,9178.553681
138.118540,1225.752797,888.247130,9622.677246
138.118848,842.705048,814.226536,9770.718434
138.119156,383.047749,444.123565,9992.780217
138.119464,0.000000,-0.000000,10140.821405
138.119772,0.000000,-296.082377,10140.821405
138.120080,-689.485948,-444.123565,10881.027347
138.120388,-1072.533697,-444.123565,10732.986159
138.120695,-1225.752797,-518.144159,10658.965565
138.121003,-1532.190996,-518.144159,10807.006753
138.121311,-1302.362347,-592.164754,10881.027347
138.121619,-1072.533697,-814.226536,10658.965565
138.121927,-1608.800546,-296.082377,10658.965565
138.122235,-766.095498,-148.041188,10140.821405
138.122543,-612.876398,-296.082377,9770.718434
138.122851,-383.047749,-0.000000,9622.677246
138.123159,0.000000,222.061783,9474.636058
138.123467,76.609550,222.061783,9178.553681
138.123775,459.657299,-0.000000,8660.409521
138.124083,0.000000,296.082377,8586.388927
138.124391,153.219100,-0.000000,8808.450710
138.124699,766.095498,-0.000000,8586.388927
138.125007,1072.533697,370.102971,9104.533087
138.125315,1072.533697,-0.000000,8808.450710
138.125623,766.095498,148.041188,9178.553681
138.125931,766.095498,-0.000000,9326.594869
138.126239,612.876398,-0.000000,9548.656652
138.126547,919.314598,-0.000000,9992.780217
138.126854,459.657299,-296.082377,9622.677246
138.127162,689.485948,-296.082377,9844.739029
138.127470,459.657299,-148.041188,9844.739029
138.127778,383.047749,-0.000000,9770.718434
138.128086,536.266849,222.061783,9918.759623
138.128394,689.485948,-0.000000,9844.739029
138.128702,612.876398,-0.000000,9918.759623
138.129010,766.095498,-0.000000,10066.800811
138.129318,766.095498,-0.000000,9696.697840
138.129626,766.095498,-0.000000,9770.718434
138.129934,919.314598,518.144159,9918.759623
138.130242,1378.971896,888.247130,9474.636058
138.130550,1762.019645,1036.288319,9326.594869
138.130858,1838.629195,1184.329507,9030.512492
138.131166,1532.190996,1258.350101,8882.471304
138.131474,1838.629195,1332.370696,8808.450710
138.131782,1838.629195,1850.514855,9178.553681
138.132090,1838.629195,1184.329507,8512.368333
138.132398,1225.752797,1184.329507,9178.553681
138.132706,919.314598,814.226536,9474.636058
138.133013,229.828649,666.185348,9696.697840
138.133321,0.000000,296.082377,9992.780217
138.133629,-459.657299,-0.000000,10436.903782
138.133937,-919.314598,-296.082377,10584.944971
138.134245,-1149.143247,-518.144159,10732.986159
138.134553,-1378.971896,-296.082377,10658.965565
138.134861,-995.924147,-666.185348,10584.944971
138.135169,-612.876398,-444.123565,10214.842000
138.135477,-612.876398,-518.144159,10362.883188
138.135785,-689.485948,-370.102971,9918.759623
138.136093,-229.828649,-0.000000,10066.800811
138.136401,-153.219100,-370.102971,9548.656652
138.136709,-689.485948,-740.205942,10140.821405
138.137017,-306.438199,-518.144159,9474.636058
138.137325,229.828649,-148.041188,9770.718434
138.137633,229.828649,-370.102971,9474.636058
138.137941,383.047749,-148.041188,9252.574275
138.138249,842.705048,-296.082377,9178.553681
138.138557,1225.752797,-74.020594,9178.553681
138.138865,1532.190996,222.061783,8734.430116
138.139173,1532.190996,222.061783,8882.471304
138.139480,2145.067394,-0.000000,9178.553681
138.139788,1762.019645,444.123565,8956.491898
138.140096,1225.752797,296.082377,9104.533087
138.140404,1455.581446,370.102971,9400.615463
138.140712,1225.752797,296.082377,9326.594869
138.141020,1149.143247,222.061783,9696.697840
138.141328,1685.410096,148.041188,9548.656652
138.141636,1149.143247,-0.000000,9770.718434
138.141944,919.314598,-0.000000,9548.656652
138.142252,1149.143247,-0.000000,9918.759623
138.142560,842.705048,-0.000000,9770.718434
138.142868,919.314598,-0.000000,10066.800811
138.143176,1072.533697,-0.000000,9992.780217
138.143484,1149.143247,-0.000000,10214.842000
138.143792,1225.752797,-0.000000,9844.739029
138.144100,1762.019645,370.102971,9770.718434
138.144408,1302.362347,296.082377,9326.594869
138.144716,2068.457845,814.226536,9252.574275
138.145024,1608.800546,1036.288319,9326.594869
138.145332,2068.457845,888.247130,9030.512492
138.145639,1915.238745,1258.350101,9252.574275
138.145947,2451.505594,592.164754,8882.471304
138.146255,2451.505594,1258.350101,9104.533087
138.146563,1838.629195,888.247130,8882.471304
138.146871,2298.286494,1184.329507,9252.574275
138.147179,1378.971896,1258.350101,9178.553681
138.147487,1225.752797,888.247130,9326.594869
138.147795,689.485948,666.185348,9474.636058
138.148103,306.438199,518.144159,9622.677246
138.148411,0.000000,148.041188,9844.739029
138.148719,-229.828649,-74.020594,10066.800811
138.149027,-689.485948,-666.185348,10288.862594
138.149335,-1378.971896,-370.102971,10584.944971
138.149643,-1532.190996,-740.205942,10881.027347
138.149951,-1991.848295,-1036.288319,11029.068536
138.150259,-1991.848295,-814.226536,10881.027347
138.150567,-1608.800546,-740.205942,10807.006753
138.150875,-1149.143247,-962.267725,10584.944971
138.151183,-689.485948,-592.164754,10362.883188
138.151491,-612.876398,-222.061783,9696.697840
138.151799,-612.876398,-592.164754,9548.656652
138.152106,0.000000,-296.082377,9400.615463
138.152414,0.000000,-148.041188,9178.553681
138.152722,383.047749,-0.000000,9178.553681
138.153030,689.485948,-0.000000,8956.491898
138.153338,995.924147,-0.000000,8364.327145
138.153646,995.924147,-0.000000,8586.388927
138.153954,1149.143247,518.144159,8956.491898
138.154262,1532.190996,296.082377,8956.491898
138.154570,1608.800546,518.144159,8882.471304
138.154878,1378.971896,518.144159,8956.491898
138.155186,1455.581446,592.164754,8882.471304
138.155494,1532.190996,592.164754,9326.594869
138.155802,1225.752797,518.144159,9474.636058
138.156110,1455.581446,666.185348,9474.636058
138.156418,1072.533697,296.082377,9474.636058
138.156726,689.485948,296.082377,9992.780217
138.157034,306.438199,-74.020594,10066.800811
138.157342,153.219100,-222.061783,10362.883188
138.157651,306.438199,-222.061783,10362.883188
138.157959,306.438199,-74.020594,10214.842000
138.158267,306.438199,-444.123565,10140.821405
138.158575,1149.143247,-0.000000,9696.697840
138.158883,1532.190996,444.123565,9770.718434
138.159191,1685.410096,962.267725,9770.718434
138.159499,1915.238745,1110.308913,9474.636058
138.159807,1532.190996,1258.350101,9178.553681
138.160115,1685.410096,1554.432478,9178.553681
138.160423,1685.410096,1480.411884,8956.491898
138.160731,1455.581446,1554.432478,9326.594869
138.161039,1838.629195,1184.329507,9252.574275
138.161347,919.314598,814.226536,9622.677246
138.161655,919.314598,666.185348,9474.636058
138.161963,306.438199,444.123565,9844.739029
138.162271,0.000000,-0.000000,9844.739029
138.162579,-306.438199,-148.041188,9844.739029
138.162887,-612.876398,-74.020594,9918.759623
138.163195,-919.314598,-666.185348,9548.656652
138.163503,-383.047749,-296.082377,9992.780217
138.163811,-612.876398,-444.123565,10288.862594
138.164119,-995.924147,-666.185348,10214.842000
138.164427,-995.924147,-518.144159,10214.842000
138.164735,-1302.362347,-740.205942,10288.862594
138.165043,-919.314598,-666.185348,10214.842000
138.165351,-919.314598,-814.226536,10066.800811
138.165659,-383.047749,-888.247130,9918.759623
138.165967,-1149.143247,-444.123565,9918.759623
138.166275,229.828649,-370.102971,9770.718434
138.166583,459.657299,-592.164754,9030.512492
138.166891,689.485948,-370.102971,9178.553681
138.167199,1225.752797,-0.000000,8882.471304
138.167507,1072.533697,-0.000000,8660.409521
138.167815,1455.581446,296.082377,8882.471304
138.168123,1149.143247,666.185348,8882.471304
138.168431,1991.848295,518.144159,8882.471304
138.168739,2451.505594,296.082377,9030.512492
138.169047,1302.362347,370.102971,9104.533087
138.169355,1532.190996,296.082377,9252.574275
138.169663,1149.143247,370.102971,9548.656652
138.169971,995.924147,444.123565,9622.677246
138.170279,536.266849,370.102971,9770.718434
138.170587,919.314598,-0.000000,9696.697840
138.170895,919.314598,148.041188,9992.780217
138.171203,1072.533697,-222.061783,9844.739029
138.171511,766.095498,296.082377,10140.821405
138.171819,842.705048,222.061783,9918.759623
138.172127,689.485948,-0.000000,9992.780217
138.172435,919.314598,296.082377,10214.842000
138.172743,1225.752797,-0.000000,9844.739029
138.173051,1532.190996,666.185348,9696.697840
138.173359,2068.457845,518.144159,8956.491898
138.173667,1378.971896,1184.329507,9326.594869
138.173975,2451.505594,666.185348,9474.636058
138.174283,2298.286494,1406.391290,8734.430116
138.174591,2068.457845,1332.370696,8734.430116
138.174900,2528.115143,1406.391290,8660.409521
138.175208,2145.067394,1258.350101,8512.368333
138.175516,2068.457845,1110.308913,9178.553681
138.175824,1532.190996,1184.329507,9400.615463
138.176132,1455.581446,592.164754,9400.615463
138.176440,766.095498,888.247130,9696.697840
138.176748,383.047749,370.102971,9992.780217
138.177056,0.000000,74.020594,9918.759623
138.177364,-766.095498,-0.000000,10288.862594
138.177672,-1072.533697,-74.020594,10510.924376
138.177980,-1225.752797,-592.164754,10881.027347
138.178288,-919.314598,-1036.288319,10955.047942
138.178596,-2145.067394,-1406.391290,10807.006753
138.178904,-1225.752797,-962.267725,10955.047942
138.179212,-1532.190996,-740.205942,10881.027347
138.179520,-1225.752797,-592.164754,10658.965565
138.179828,-842.705048,-518.144159,10066.800811
138.180136,-383.047749,-370.102971,10066.800811
138.180444,-766.095498,-444.123565,9696.697840
138.180752,153.219100,-74.020594,9474.636058
138.181060,536.266849,-148.041188,9548.656652
138.181368,459.657299,-74.020594,8734.430116
138.181676,766.095498,-0.000000,8956.491898
138.181984,1149.143247,370.102971,8438.347739
138.182292,1149.143247,296.082377,8438.347739
138.182600,1608.800546,296.082377,8438.347739
138.182908,1915.238745,222.061783,8364.327145
138.183216,1762.019645,592.164754,8586.388927
138.183524,1302.362347,666.185348,9030.512492
138.183832,1455.581446,592.164754,8808.450710
138.184140,1378.971896,370.102971,9104.533087
138.184448,995.924147,222.061783,9178.553681
138.184756,689.485948,222.061783,9696.697840
138.185064,842.705048,-370.102971,9622.677246
138.185372,842.705048,-444.123565,10214.842000
138.185680,0.000000,-370.102971,9992.780217
138.185988,153.219100,-518.144159,10510.924376
138.186296,229.828649,-222.061783,10362.883188
138.186604,459.657299,-74.020594,10658.965565
138.186912,383.047749,-0.000000,10362.883188
138.187220,766.095498,-0.000000,10214.842000
138.187528,1072.533697,518.144159,9696.697840
138.187836,1302.362347,1110.308913,9918.759623
138.188144,1762.019645,814.226536,9474.636058
138.188452,1762.019645,962.267725,9104.533087
138.188760,1378.971896,1258.350101,9104.533087
138.189068,1455.581446,1406.391290,9030.512492
138.189376,1608.800546,1554.432478,9030.512492
138.189684,1685.410096,1480.411884,9030.512492
138.189992,1838.629195,1110.308913,9104.533087
138.190300,842.705048,1036.288319,9104.533087
138.190608,842.705048,740.205942,9696.697840
138.190916,153.219100,444.123565,9474.636058
138.191224,0.000000,370.102971,9844.739029
138.191532,-459.657299,-0.000000,9844.739029
138.191840,-689.485948,-74.020594,10066.800811
138.192149,-766.095498,-222.061783,10288.862594
138.192457,-1225.752797,-740.205942,10510.924376
138.192765,-1608.800546,-888.247130,10288.862594
138.193073,-919.314598,-444.123565,10510.924376
138.193381,-1532.190996,-1036.288319,10881.027347
138.193689,-1072.533697,-962.267725,10510.924376
138.193997,-842.705048,-814.226536,10436.903782
138.194305,-383.047749,-666.185348,10140.821405
138.194613,-153.219100,-444.123565,9844.739029
138.194921,76.609550,-518.144159,9474.636058
138.195229,1149.143247,-444.123565,9474.636058
138.195537,689.485948,-74.020594,9104.533087
138.195845,1608.800546,148.041188,9178.553681
138.196153,1532.190996,592.164754,8660.409521
138.196461,1838.629195,518.144159,8660.409521
138.196769,2145.067394,740.205942,8438.347739
138.197077,2221.676944,814.226536,8512.368333
138.197385,2298.286494,370.102971,9178.553681
138.197693,1838.629195,222.061783,9178.553681
138.198001,1378.971896,222.061783,9474.636058
138.198309,1532.190996,-0.000000,10140.821405
138.198617,919.314598,-0.000000,9844.739029
138.198925,842.705048,-74.020594,9844.739029
138.199233,842.705048,-0.000000,9992.780217
138.199541,842.705048,-0.000000,10066.800811
138.199849,766.095498,-74.020594,10066.800811
138.200157,842.705048,-0.000000,10140.821405
138.200465,919.314598,-0.000000,10066.800811
138.200773,383.047749,-148.041188,9918.759623
138.201081,1225.752797,74.020594,9844.739029
138.201389,1455.581446,518.144159,9696.697840
138.201697,1838.629195,592.164754,9400.615463
138.202005,1838.629195,814.226536,9104.533087
138.202313,2221.676944,962.267725,9030.512492
138.202621,2145.067394,888.247130,8882.471304
138.202929,2451.505594,1036.288319,8734.430116
138.203237,2528.115143,1332.370696,8364.327145
138.203545,2604.724693,1406.391290,8142.265362
138.203853,2681.334243,1480.411884,8364.327145
138.204161,1991.848295,1406.391290,8512.368333
138.204469,1838.629195,1184.329507,8808.450710
138.204777,995.924147,814.226536,9104.533087
138.205085,536.266849,222.061783,9696.697840
138.205393,76.609550,-74.020594,10214.842000
138.205701,-536.266849,-222.061783,10362.883188
138.206009,-919.314598,-666.185348,10732.986159
138.206317,-1532.190996,-888.247130,10881.027347
138.206625,-1762.019645,-1036.288319,11251.130318
138.206933,-1302.362347,-1258.350101,11473.192101
138.207241,-2068.457845,-1480.411884,11695.253884
138.207549,-1608.800546,-1184.329507,11251.130318
138.207857,-1838.629195,-518.144159,11103.089130
138.208165,-1149.143247,-518.144159,10881.027347
138.208473,-689.485948,-592.164754,10066.800811
138.208781,-459.657299,-0.000000,9548.656652
138.209089,0.000000,-0.000000,9326.594869
138.209398,76.609550,-0.000000,9030.512492
138.209706,842.705048,222.061783,8956.491898
138.210014,229.828649,-0.000000,8438.347739
138.210322,766.095498,222.061783,8808.450710
138.210630,689.485948,148.041188,8142.265362
138.210938,1225.752797,592.164754,8364.327145
138.211246,1608.800546,962.267725,8216.285956
138.211554,1455.581446,1036.288319,8586.388927
138.211862,1608.800546,666.185348,8660.409521
138.212170,1762.019645,592.164754,9178.553681
138.212478,1225.752797,148.041188,9326.594869
138.212786,1685.410096,-0.000000,9474.636058
138.213094,76.609550,74.020594,10214.842000
138.213402,459.657299,-148.041188,10140.821405
138.213710,306.438199,-0.000000,10436.903782
138.214018,76.609550,-148.041188,10510.924376
138.214326,0.000000,-592.164754,10584.944971
138.214634,0.000000,-444.123565,10807.006753
138.214942,459.657299,-148.041188,10658.965565
138.215250,459.657299,-74.020594,10955.047942
138.215558,766.095498,-148.041188,10288.862594
138.215866,995.924147,370.102971,10066.800811
138.216174,1455.581446,888.247130,9770.718434
138.216482,1838.629195,1184.329507,9252.574275
138.216790,1915.238745,814.226536,8808.450710
138.217098,2221.676944,1850.514855,8734.430116
138.217406,2374.896044,1850.514855,8808.450710
138.217714,2145.067394,1776.494261,8290.306550
138.218022,1915.238745,1850.514855,8586.388927
138.218330,1838.629195,1776.494261,8586.388927
138.218638,1225.752797,1332.370696,8734.430116
138.218946,919.314598,1036.288319,9252.574275
138.219254,536.266849,888.247130,9548.656652
138.219562,0.000000,-0.000000,9992.780217
138.219870,-383.047749,-370.102971,10362.883188
138.220178,-1225.752797,-444.123565,10881.027347
138.220486,-1225.752797,-740.205942,10658.965565
138.220794,-1455.581446,-666.185348,10881.027347
138.221102,-1378.971896,-666.185348,10881.027347
138.221410,-1302.362347,-888.247130,10807.006753
138.221718,-536.266849,-740.205942,10807.006753
138.222026,-766.095498,-962.267725,10288.862594
138.222334,-459.657299,-888.247130,9918.759623
138.222642,-306.438199,-1036.288319,9770.718434
138.222950,153.219100,-370.102971,9622.677246
138.223258,383.047749,-444.123565,9326.594869
138.223566,536.266849,-74.020594,8956.491898
138.223874,1225.752797,-0.000000,8808.450710
138.224182,1072.533697,-148.041188,8586.388927
138.224490,1762.019645,148.041188,8956.491898
138.224798,1685.410096,222.061783,8290.306550
138.225106,1915.238745,518.144159,8734.430116
138.225414,2068.457845,592.164754,8586.388927
138.225722,1915.238745,666.185348,8808.450710
138.226030,1762.019645,518.144159,9104.533087
138.226338,1302.362347,370.102971,9326.594869
138.226647,1378.971896,296.082377,9326.594869
138.226955,919.314598,-0.000000,9622.677246
138.227263,842.705048,-444.123565,9770.718434
138.227571,1072.533697,-0.000000,9844.739029
138.227879,536.266849,-0.000000,9992.780217
138.228187,766.095498,-0.000000,9992.780217
138.228495,612.876398,-0.000000,10140.821405
138.228803,536.266849,-0.000000,10066.800811
138.229111,842.705048,-0.000000,10140.821405
138.229419,1455.581446,296.082377,9844.739029
138.229727,1225.752797,222.061783,9918.759623
138.230035,1532.190996,444.123565,9770.718434
138.230343,1608.800546,740.205942,9474.636058
138.230651,2298.286494,962.267725,9400.615463
138.230959,2145.067394,888.247130,8808.450710
138.231267,2604.724693,1258.350101,8586.388927
138.231575,2757.943793,1332.370696,8586.388927
138.231883,2604.724693,1554.432478,8142.265362
138.232191,2298.286494,1258.350101,8364.327145
138.232499,2374.896044,1184.329507,8956.491898
138.232807,1608.800546,1332.370696,8808.450710
138.233115,1455.581446,1184.329507,9400.615463
138.233423,536.266849,1036.288319,9622.677246
138.233731,153.219100,518.144159,9918.759623
138.234039,0.000000,-0.000000,10658.965565
138.234347,-612.876398,-740.205942,10658.965565
138.234655,-1072.533697,-444.123565,11177.109724
138.234963,-1685.410096,-1406.391290,11473.192101
138.235271,-2068.457845,-1036.288319,11769.274478
138.235579,-1915.238745,-1258.350101,11325.150913
138.235887,-1915.238745,-1184.329507,11399.171507
138.236195,-1838.629195,-962.267725,10881.027347
138.236503,-1072.533697,-814.226536,10436.903782
138.236811,-919.314598,-518.144159,10362.883188
138.237119,-766.095498,-518.144159,9844.739029
138.237427,-689.485948,-0.000000,9326.594869
138.237735,229.828649,-0.000000,9030.512492
138.238043,536.266849,370.102971,8660.409521
138.238351,689.485948,444.123565,8512.368333
138.238659,995.924147,518.144159,8364.327145
138.238967,1532.190996,148.041188,8290.306550
138.239275,1072.533697,444.123565,8216.285956
138.239583,1302.362347,592.164754,8734.430116
138.239891,1991.848295,222.061783,8290.306550
138.240199,1532.190996,444.123565,8586.388927
138.240507,1302.362347,296.082377,8882.471304
138.240815,1225.752797,518.144159,9104.533087
138.241123,995.924147,-74.020594,9326.594869
138.241431,995.924147,-0.000000,9400.615463
138.241739,459.657299,-222.061783,9474.636058
138.242047,689.485948,-296.082377,10288.862594
138.242355,229.828649,-814.226536,10510.924376
138.242663,153.219100,-814.226536,10732.986159
138.242971,0.000000,-814.226536,11029.068536
138.243279,0.000000,-740.205942,10807.006753
138.243587,0.000000,-518.144159,10584.944971
138.243896,536.266849,-518.144159,10436.903782
138.244204,1149.143247,222.061783,9992.780217
138.244512,1455.581446,1036.288319,10066.800811
138.244820,2145.067394,1332.370696,9474.636058
138.245128,2145.067394,1480.411884,8512.368333
138.245436,2604.724693,1924.535449,8438.347739
138.245744,2451.505594,1998.556043,8216.285956
138.246052,2681.334243,2220.617826,8216.285956
138.246360,2298.286494,2146.597232,8068.244768
138.246668,2221.676944,1702.473667,8438.347739
138.246976,1302.362347,1258.350101,8956.491898
138.247284,766.095498,1332.370696,9474.636058
138.247592,0.000000,814.226536,9992.780217
138.247900,-612.876398,-74.020594,10288.862594
138.248208,-689.485948,-296.082377,10807.006753
138.248516,-1072.533697,-444.123565,10881.027347
138.248824,-995.924147,-666.185348,11029.068536
138.249132,-1378.971896,-518.144159,10807.006753
138.249440,-1608.800546,-444.123565,11103.089130
138.249748,-1225.752797,-666.185348,10807.006753
138.250056,-842.705048,-518.144159,10807.006753
138.250364,-842.705048,-444.123565,10510.924376
138.250672,-612.876398,-444.123565,10140.821405
138.250980,-153.219100,-296.082377,9992.780217
138.251288,-306.438199,-370.102971,9918.759623
138.251596,689.485948,-222.061783,9622.677246
138.251904,306.438199,-0.000000,9844.739029
138.252212,689.485948,-0.000000,9400.615463
138.252520,1149.143247,-0.000000,8882.471304
138.252828,1302.362347,222.061783,8364.327145
138.253136,1915.238745,518.144159,8586.388927
138.253444,2221.676944,740.205942,8512.368333
138.253752,2298.286494,1036.288319,8216.285956
138.254060,1455.581446,444.123565,8660.409521
138.254368,1838.629195,666.185348,8956.491898
138.254676,1149.143247,518.144159,9326.594869
138.254984,689.485948,222.061783,9474.636058
138.255292,842.705048,-0.000000,9918.759623
138.255600,306.438199,-222.061783,10214.842000
138.255908,153.219100,-296.082377,10658.965565
138.256216,689.485948,-1110.308913,10584.944971
138.256524,612.876398,-296.082377,10732.986159
138.256832,306.438199,-444.123565,10658.965565
138.257140,153.219100,-0.000000,10510.924376
138.257448,689.485948,-0.000000,10214.842000
138.257756,1072.533697,-0.000000,9770.718434
138.258064,1685.410096,444.123565,9326.594869
138.258372,1838.629195,740.205942,9326.594869
138.258680,2068.457845,962.267725,9178.553681
138.258988,2604.724693,1184.329507,8660.409521
138.259296,2987.772442,888.247130,8290.306550
138.259604,2911.162892,962.267725,8068.244768
138.259912,2911.162892,1332.370696,8290.306550
138.260220,2757.943793,1332.370696,8512.368333
138.260528,2374.896044,1332.370696,8364.327145
138.260836,2221.676944,1184.329507,8438.347739
138.261144,2298.286494,1184.329507,8956.491898
138.261452,919.314598,962.267725,8808.450710
138.261760,1072.533697,592.164754,9326.594869
138.262068,306.438199,740.205942,9844.739029
138.262376,-306.438199,-0.000000,10214.842000
138.262684,-842.705048,-222.061783,10807.006753
138.262992,-1302.362347,-666.185348,10955.047942
138.263300,-1608.800546,-888.247130,11251.130318
138.263608,-1762.019645,-1406.391290,11473.192101
138.263916,-1608.800546,-1258.350101,11325.150913
138.264224,-1838.629195,-1480.411884,11621.233289
138.264532,-1685.410096,-888.247130,11029.068536
138.264840,-1608.800546,-814.226536,10658.965565
138.265148,-919.314598,-444.123565,10362.883188
138.265456,-306.438199,-148.041188,9696.697840
138.265764,459.657299,-0.000000,9400.615463
138.266072,612.876398,370.102971,8956.491898
138.266380,919.314598,814.226536,9104.533087
138.266688,1378.971896,370.102971,8068.244768
138.266996,1072.533697,666.185348,8216.285956
138.267304,1149.143247,740.205942,8142.265362
138.267612,1225.752797,518.144159,8438.347739
138.267920,1225.752797,518.144159,8438.347739
138.268228,766.095498,296.082377,8956.491898
138.268536,919.314598,-74.020594,9030.512492
138.268844,1302.362347,-222.061783,9400.615463
138.269152,766.095498,-0.000000,9770.718434
138.269460,536.266849,-148.041188,9770.718434
138.269768,536.266849,-222.061783,10066.800811
138.270076,459.657299,-296.082377,10140.821405
138.270384,536.266849,-148.041188,10140.821405
138.270692,1149.143247,-0.000000,10288.862594
138.271000,689.485948,-148.041188,10288.862594
138.271308,612.876398,-0.000000,10658.965565
138.271616,766.095498,-74.020594,10584.944971
138.271924,383.047749,-0.000000,10140.821405
138.272232,995.924147,370.102971,9918.759623
138.272540,1302.362347,444.123565,9770.718434
138.272847,1455.581446,814.226536,9474.636058
138.273155,1838.629195,1184.329507,9326.594869
138.273463,2145.067394,1110.308913,9030.512492
138.273771,2451.505594,1554.432478,8882.471304
138.274079,2528.115143,1258.350101,8808.450710
138.274387,2221.676944,1850.514855,8660.409521
138.274695,1838.629195,1702.473667,8734.430116
138.275003,1685.410096,1628.453072,8882.471304
138.275311,995.924147,1480.411884,9178.553681
138.275619,919.314598,962.267725,9474.636058
138.275927,153.219100,222.061783,9918.759623
138.276235,-153.219100,-0.000000,10214.842000
138.276543,-459.657299,-444.123565,10362.883188
138.276851,-1225.752797,-666.185348,10584.944971
138.277159,-1149.143247,-740.205942,11103.089130
138.277467,-1225.752797,-814.226536,10658.965565
138.277775,-1225.752797,-592.164754,10510.924376
138.278083,-766.095498,-592.164754,10584.944971
138.278391,-689.485948,-74.020594,10584.944971
138.278699,-689.485948,-592.164754,10140.821405
138.279007,-459.657299,-0.000000,10288.862594
138.279315,-383.047749,-222.061783,9696.697840
138.279623,0.000000,-74.020594,9474.636058
138.279931,0.000000,-296.082377,9400.615463
138.280239,76.609550,-296.082377,9178.553681
138.280547,536.266849,-222.061783,8956.491898
138.280855,229.828649,-370.102971,8808.450710
138.281163,536.266849,-148.041188,9030.512492
138.281471,1072.533697,-148.041188,9178.553681
138.281779,1072.533697,-0.000000,8882.471304
138.282087,1302.362347,-74.020594,8660.409521
138.282395,1225.752797,148.041188,8956.491898
138.282703,1378.971896,444.123565,9326.594869
138.283011,1455.581446,370.102971,9178.553681
138.283319,1532.190996,-0.000000,9400.615463
138.283627,1302.362347,148.041188,9844.739029
138.283935,1072.533697,-148.041188,10288.862594
138.284243,1149.143247,-0.000000,10066.800811
138.284551,689.485948,-74.020594,9992.780217
138.284859,842.705048,-222.061783,9770.718434
138.285167,766.095498,-296.082377,10214.842000
138.285475,689.485948,-370.102971,10658.965565
138.285783,1378.971896,-370.102971,9992.780217
138.286091,842.705048,222.061783,9992.780217
138.286399,1455.581446,444.123565,9696.697840
138.286707,2145.067394,592.164754,9326.594869
138.287015,2221.676944,1184.329507,9178.553681
138.287323,2681.334243,1258.350101,8808.450710
138.287631,2987.772442,1554.432478,8660.409521
138.287939,3600.648841,1628.453072,8586.388927
138.288247,2757.943793,1332.370696,8734.430116
138.288555,2451.505594,1332.370696,8734.430116
138.288863,2374.896044,1406.391290,9178.553681
138.289171,2221.676944,1332.370696,8882.471304
138.289479,1762.019645,1184.329507,9104.533087
138.289787,1302.362347,740.205942,9474.636058
138.290095,842.705048,518.144159,9770.718434
138.290403,229.828649,370.102971,10362.883188
138.290711,229.828649,444.123565,10288.862594
138.291019,-229.828649,-222.061783,10881.027347
138.291327,-689.485948,-148.041188,10732.986159
138.291635,-1149.143247,-370.102971,10658.965565
138.291943,-1225.752797,-370.102971,10807.006753
138.292251,-1378.971896,-592.164754,10881.027347
138.292559,-1302.362347,-592.164754,10732.986159
138.292867,-1762.019645,-666.185348,11325.150913
138.293175,-1302.362347,-592.164754,10584.944971
138.293483,-842.705048,-370.102971,10214.842000
138.293791,-919.314598,-296.082377,9696.697840
138.294099,-383.047749,-222.061783,9548.656652
138.294407,0.000000,-74.020594,9400.615463
138.294715,76.609550,-222.061783,9104.533087
138.295023,0.000000,-0.000000,8882.471304
138.295331,229.828649,222.061783,8808.450710
138.295639,536.266849,-0.000000,8734.430116
138.295947,766.095498,-0.000000,8586.388927
138.296255,1072.533697,-0.000000,8586.388927
138.296563,1072.533697,-0.000000,8734.430116
138.296871,766.095498,-74.020594,8734.430116
138.297179,919.314598,-74.020594,9326.594869
138.297487,689.485948,-296.082377,9326.594869
138.297795,766.095498,-444.123565,9548.656652
138.298103,919.314598,-0.000000,9696.697840
138.298411,612.876398,-0.000000,9770.718434
138.298719,383.047749,148.041188,10066.800811
138.299027,766.095498,222.061783,9770.718434
138.299335,766.095498,222.061783,9992.780217
138.299643,612.876398,296.082377,9844.739029
138.299950,842.705048,-0.000000,9992.780217
138.300258,1072.533697,222.061783,10140.821405
138.300566,995.924147,-0.000000,9918.759623
138.300874,1225.752797,-0.000000,9918.759623
138.301182,766.095498,-0.000000,9548.656652
138.301490,1455.581446,592.164754,9770.718434
138.301798,1225.752797,740.205942,9252.574275
138.302106,1685.410096,962.267725,9104.533087
138.302414,1991.848295,1184.329507,9030.512492
138.302722,2145.067394,1702.473667,8808.450710
138.303030,1608.800546,1628.453072,9030.512492
138.303338,1532.190996,1480.411884,8956.491898
138.303646,1608.800546,1554.432478,9178.553681
138.303954,1149.143247,1110.308913,9178.553681
138.304262,689.485948,962.267725,9474.636058
138.304570,0.000000,518.144159,9918.759623
138.304878,0.000000,148.041188,9918.759623
138.305186,-842.705048,-296.082377,10584.944971
138.305494,-1149.143247,-740.205942,10807.006753
138.305802,-1072.533697,-370.102971,10955.047942
138.306110,-1302.362347,-518.144159,10214.842000
138.306418,-612.876398,-222.061783,10362.883188
138.306726,-919.314598,-222.061783,10362.883188
138.307034,-612.876398,-148.041188,10140.821405
138.307342,-536.266849,-296.082377,9992.780217
138.307650,-229.828649,-444.123565,9622.677246
138.307958,0.000000,-0.000000,9770.718434
138.308266,383.047749,-370.102971,9474.636058
138.308574,0.000000,-0.000000,9770.718434
138.308882,0.000000,-74.020594,9474.636058
138.309190,229.828649,-222.061783,9474.636058
138.309498,612.876398,-74.020594,9400.615463
138.309806,612.876398,-222.061783,9252.574275
138.310114,1225.752797,-0.000000,9400.615463
138.310422,1302.362347,-0.000000,8882.471304
138.310730,1149.143247,370.102971,9400.615463
138.311038,1225.752797,148.041188,8956.491898
138.311346,1302.362347,592.164754,9178.553681
138.311654,1149.143247,444.123565,9474.636058
138.311962,1072.533697,222.061783,9400.615463
138.312270,919.314598,370.102971,9474.636058
138.312578,919.314598,296.082377,10140.821405
138.312886,1455.581446,296.082377,10140.821405
138.313194,919.314598,-0.000000,9696.697840
138.313502,1072.533697,-0.000000,9622.677246
138.313810,1072.533697,-0.000000,9622.677246
138.314118,1149.143247,-74.020594,10066.800811
138.314426,1149.143247,-0.000000,9622.677246
138.314734,995.924147,370.102971,9622.677246
138.315042,1149.143247,-0.000000,10140.821405
138.315350,1838.629195,-0.000000,9400.615463
138.315658,1991.848295,740.205942,9326.594869
138.315966,2451.505594,888.247130,9030.512492
138.316274,2298.286494,1110.308913,8586.388927
138.316582,2298.286494,1480.411884,8512.368333
138.316890,2374.896044,1480.411884,8586.388927
138.317198,2451.505594,888.247130,8586.388927
138.317506,2221.676944,1332.370696,8808.450710
138.317814,1991.848295,962.267725,8660.409521
138.318122,2145.067394,1110.308913,8882.471304
138.318430,1378.971896,666.185348,9474.636058
138.318738,612.876398,148.041188,9844.739029
138.319046,0.000000,222.061783,10066.800811
138.319354,-229.828649,-74.020594,10510.924376
138.319662,-919.314598,-0.000000,9770.718434
138.319970,-689.485948,-444.123565,10732.986159
138.320278,-842.705048,-518.144159,10658.965565
138.320586,-1532.190996,-370.102971,10732.986159
138.320894,-1225.752797,-740.205942,10436.903782
138.321202,-1225.752797,-518.144159,10881.027347
138.321510,-1378.971896,-740.205942,10510.924376
138.321818,-1378.971896,-592.164754,10436.903782
138.322126,-689.485948,-666.185348,10362.883188
138.322434,-995.924147,-518.144159,9548.656652
138.322742,0.000000,-444.123565,9770.718434
138.323050,-459.657299,-518.144159,9400.615463
138.323358,0.000000,-0.000000,9178.553681
138.323666,153.219100,222.061783,9104.533087
138.323974,536.266849,-0.000000,9252.574275
138.324282,766.095498,-0.000000,8586.388927
138.324590,995.924147,370.102971,8808.450710
138.324898,1455.581446,444.123565,8512.368333
138.325206,1532.190996,222.061783,8956.491898
138.325514,1532.190996,-0.000000,8956.491898
138.325822,1225.752797,-0.000000,9104.533087
138.326130,1149.143247,296.082377,9252.574275
138.326438,1302.362347,222.061783,9474.636058
138.326746,995.924147,-0.000000,9770.718434
138.327053,919.314598,-0.000000,10066.800811
138.327361,766.095498,-0.000000,9844.739029
138.327669,536.266849,296.082377,10362.883188
138.327977,995.924147,444.123565,10362.883188
138.328285,842.705048,148.041188,10066.800811
138.328593,689.485948,-0.000000,10140.821405
138.328901,689.485948,148.041188,10214.842000
138.329209,689.485948,370.102971,10362.883188
138.329517,766.095498,-0.000000,10510.924376
138.329825,536.266849,296.082377,9992.780217
138.330133,1532.190996,444.123565,9844.739029
138.330441,1455.581446,592.164754,9770.718434
138.330749,1608.800546,962.267725,9474.636058
138.331057,1685.410096,962.267725,9474.636058
138.331365,1608.800546,1406.391290,9326.594869
138.331673,1608.800546,1480.411884,8956.491898
138.331981,1915.238745,1406.391290,9030.512492
138.332289,1608.800546,1184.329507,8956.491898
138.332597,1532.190996,1036.288319,8808.450710
138.332905,995.924147,1258.350101,9252.574275
138.333213,536.266849,888.247130,9400.615463
138.333521,0.000000,370.102971,9770.718434
138.333829,0.000000,-0.000000,9770.718434
138.334137,-689.485948,-222.061783,9992.780217
138.334445,-612.876398,-370.102971,10362.883188
138.334753,-536.266849,-666.185348,10214.842000
138.335061,-1532.190996,-592.164754,10436.903782
138.335369,-1378.971896,-740.205942,10510.924376
138.335677,-1302.362347,-740.205942,10510.924376
138.335985,-1225.752797,-592.164754,10288.862594
138.336293,-842.705048,-740.205942,9992.780217
138.336601,-383.047749,-518.144159,9696.697840
138.336909,-306.438199,-444.123565,9918.759623
138.337217,0.000000,-296.082377,9622.677246
138.337525,0.000000,-666.185348,9252.574275
138.337833,76.609550,-444.123565,9400.615463
138.338141,383.047749,-74.020594,9252.574275
138.338449,306.438199,-296.082377,9252.574275
138.338757,842.705048,-0.000000,9030.512492
138.339065,842.705048,444.123565,8808.450710
138.339373,1378.971896,296.082377,9030.512492
138.339681,1378.971896,148.041188,8956.491898
138.339989,1685.410096,222.061783,9178.553681
138.340297,1455.581446,370.102971,9474.636058
138.340605,1225.752797,222.061783,9326.594869
138.340913,1378.971896,518.144159,9326.594869
138.341221,1072.533697,370.102971,9474.636058
138.341529,1608.800546,444.123565,9548.656652
138.341837,1455.581446,518.144159,9548.656652
138.342145,842.705048,592.164754,9992.780217
138.342453,459.657299,518.144159,9992.780217
138.342761,1149.143247,-0.000000,10214.842000
138.343069,919.314598,370.102971,9770.718434
138.343377,1072.533697,-0.000000,9992.780217
138.343685,1302.362347,148.041188,10066.800811
138.343993,1532.190996,666.185348,9918.759623
138.344301,1378.971896,518.144159,10066.800811
138.344609,1991.848295,592.164754,9622.677246
138.344917,1991.848295,962.267725,9400.615463
138.345225,1991.848295,1406.391290,9252.574275
138.345533,2451.505594,1406.391290,8882.471304
138.345841,2451.505594,1628.453072,8882.471304
138.346149,2221.676944,1554.432478,8660.409521
138.346457,2221.676944,1480.411884,9104.533087
138.346765,1608.800546,962.267725,9400.615463
138.347073,1378.971896,444.123565,9474.636058
138.347381,229.828649,740.205942,9696.697840
138.347689,536.266849,444.123565,10140.821405
138.347997,-229.828649,-74.020594,10214.842000
138.348305,-306.438199,-74.020594,10436.903782
138.348613,-766.095498,-222.061783,10658.965565
138.348921,-1072.533697,-296.082377,10510.924376
138.349229,-995.924147,-592.164754,10732.986159
138.349537,-1225.752797,-518.144159,10955.047942
138.349845,-1608.800546,-518.144159,10955.047942
138.350153,-1685.410096,-592.164754,10436.903782
138.350461,-1378.971896,-740.205942,10510.924376
138.350769,-1455.581446,-666.185348,10214.842000
138.351077,-1302.362347,-518.144159,10140.821405
138.351385,-306.438199,-666.185348,10066.800811
138.351693,-459.657299,-518.144159,9400.615463
138.352001,459.657299,-444.123565,9178.553681
138.352309,612.876398,-148.041188,9178.553681
138.352617,612.876398,-148.041188,8882.471304
138.352925,766.095498,-0.000000,8660.409521
138.353233,1072.533697,222.061783,8512.368333
138.353541,1608.800546,370.102971,8586.388927
138.353848,1838.629195,444.123565,8586.388927
138.354156,1685.410096,148.041188,8586.388927
138.354464,1762.019645,296.082377,8660.409521
138.354772,1685.410096,-74.020594,9252.574275
138.355080,1378.971896,-0.000000,8882.471304
138.355388,1455.581446,-0.000000,9326.594869
138.355696,1072.533697,222.061783,9696.697840
138.356004,919.314598,148.041188,9770.718434
138.356312,842.705048,-0.000000,9770.718434
138.356620,919.314598,-222.061783,9918.759623
138.356928,306.438199,-148.041188,10362.883188
138.357236,153.219100,-0.000000,10436.903782
138.357544,612.876398,-74.020594,10510.924376
138.357852,766.095498,-0.000000,10214.842000
138.358160,689.485948,-0.000000,10362.883188
138.358468,995.924147,296.082377,10066.800811
138.358776,1302.362347,296.082377,9918.759623
138.359084,1685.410096,888.247130,9770.718434
138.359392,1608.800546,962.267725,9252.574275
138.359700,2374.896044,962.267725,9104.533087
138.360008,2145.067394,1480.411884,8660.409521
138.360316,2145.067394,1702.473667,8734.430116
138.360624,1991.848295,1924.535449,8512.368333
138.360932,1762.019645,1554.432478,8734.430116
138.361239,1378.971896,1480.411884,9252.574275
138.361547,1302.362347,1036.288319,8882.471304
138.361855,689.485948,740.205942,9474.636058
138.362163,-229.828649,888.247130,9918.759623
138.362471,-306.438199,148.041188,10288.862594
138.362779,-612.876398,-0.000000,10214.842000
138.363087,-1149.143247,-222.061783,10584.944971
138.363395,-1225.752797,-370.102971,10732.986159
138.363703,-995.924147,-666.185348,10732.986159
138.364011,-1225.752797,-592.164754,10955.047942
138.364319,-1378.971896,-740.205942,10658.965565
138.364627,-1225.752797,-888.247130,10807.006753
138.364935,-1225.752797,-666.185348,10140.821405
138.365243,-766.095498,-518.144159,9918.759623
138.365551,-612.876398,-592.164754,10066.800811
138.365859,-306.438199,-666.185348,9770.718434
138.366167,153.219100,-518.144159,9474.636058
138.366475,0.000000,-666.185348,9474.636058
138.366783,229.828649,-444.123565,9474.636058
138.367091,766.095498,-222.061783,9252.574275
138.367399,919.314598,-74.020594,8956.491898
138.367707,1302.362347,296.082377,8808.450710
138.368015,1378.971896,370.102971,8512.368333
138.368323,1685.410096,444.123565,8586.388927
138.368630,1532.190996,222.061783,9178.553681
138.368938,1378.971896,444.123565,8882.471304
138.369246,1608.800546,592.164754,9104.533087
138.369554,995.924147,592.164754,9104.533087
138.369862,1378.971896,518.144159,9326.594869
138.370170,1072.533697,592.164754,9474.636058
138.370478,919.314598,148.041188,9622.677246
138.370786,1225.752797,-0.000000,9770.718434
138.371094,612.876398,-296.082377,9844.739029
138.371402,-306.438199,-0.000000,10881.027347
138.371710,306.438199,-296.082377,10436.903782
138.372018,919.314598,-0.000000,10362.883188
138.372326,1378.971896,222.061783,9844.739029
138.372634,1302.362347,666.185348,9770.718434
138.372942,1608.800546,740.205942,9548.656652
138.373250,2604.724693,888.247130,9326.594869
138.373558,2145.067394,1036.288319,9178.553681
138.373866,2374.896044,888.247130,9326.594869
138.374174,1608.800546,1332.370696,8734.430116
138.374482,2221.676944,1036.288319,8808.450710
138.374790,2221.676944,1554.432478,8438.347739
138.375098,2221.676944,1480.411884,8586.388927
138.375406,1838.629195,1258.350101,8956.491898
138.375714,1455.581446,1036.288319,9474.636058
138.376021,766.095498,666.185348,9548.656652
138.376329,459.657299,740.205942,9474.636058
138.376637,612.876398,-0.000000,10436.903782
138.376945,-459.657299,-370.102971,10807.006753
138.377253,-995.924147,-222.061783,10584.944971
138.377561,-1302.362347,-444.123565,10584.944971
138.377869,-1455.581446,-666.185348,10658.965565
138.378177,-1302.362347,-666.185348,10807.006753
138.378485,-2068.457845,-1036.288319,10658.965565
138.378793,-919.314598,-666.185348,10436.903782
138.379101,-1072.533697,-666.185348,10362.883188
138.379409,-689.485948,-444.123565,10066.800811
138.379717,-612.876398,-518.144159,9918.759623
138.380025,-383.047749,-444.123565,9548.656652
138.380333,153.219100,-444.123565,9178.553681
138.380641,459.657299,-74.020594,8808.450710
138.380949,842.705048,-518.144159,8660.409521
138.381257,1378.971896,-0.000000,8808.450710
138.381565,1149.143247,-296.082377,8438.347739
138.381873,1225.752797,-0.000000,8364.327145
138.382181,1532.190996,222.061783,8290.306550
138.382489,1455.581446,222.061783,8438.347739
138.382797,1762.019645,-0.000000,8734.430116
138.383105,1838.629195,148.041188,8734.430116
138.383412,1302.362347,-0.000000,9252.574275
138.383720,1378.971896,-0.000000,9030.512492
138.384028,1378.971896,296.082377,9622.677246
138.384336,919.314598,-0.000000,9992.780217
138.384644,842.705048,-0.000000,9770.718434
138.384952,766.095498,-0.000000,10066.800811
138.385260,536.266849,148.041188,10362.883188
138.385568,842.705048,-444.123565,10214.842000
138.385876,612.876398,-74.020594,10214.842000
138.386184,689.485948,296.082377,9696.697840
138.386492,1072.533697,666.185348,10140.821405
138.386800,995.924147,370.102971,9844.739029
138.387108,1302.362347,888.247130,9622.677246
138.387416,1532.190996,962.267725,9474.636058
138.387724,1838.629195,1110.308913,9474.636058
138.388032,1532.190996,1184.329507,9104.533087
138.388340,2068.457845,1406.391290,9104.533087
138.388648,1838.629195,1554.432478,9178.553681
138.388956,2145.067394,1110.308913,9104.533087
138.389264,1532.190996,1480.411884,8660.409521
138.389572,1072.533697,1480.411884,9030.512492
138.389880,919.314598,1258.350101,9400.615463
138.390188,766.095498,1036.288319,9474.636058
138.390496,306.438199,592.164754,9992.780217
138.390804,76.609550,-0.000000,9844.739029
138.391111,-459.657299,-222.061783,10362.883188
138.391419,-766.095498,-444.123565,10658.965565
138.391727,-1532.190996,-666.185348,10584.944971
138.392035,-1302.362347,-666.185348,10807.006753
138.392343,-1532.190996,-518.144159,10584.944971
138.392651,-1225.752797,-740.205942,10584.944971
138.392959,-842.705048,-592.164754,10807.006753
138.393267,-459.657299,-444.123565,10510.924376
138.393575,-842.705048,-740.205942,9844.739029
138.393883,-229.828649,-222.061783,9770.718434
138.394191,-306.438199,-74.020594,9622.677246
138.394499,0.000000,-222.061783,9474.636058
138.394807,459.657299,-0.000000,9400.615463
138.395115,459.657299,-222.061783,8882.471304
138.395423,612.876398,-222.061783,8808.450710
138.395731,1225.752797,-370.102971,8734.430116
138.396039,1455.581446,-296.082377,8734.430116
138.396347,1455.581446,148.041188,9104.533087
138.396655,1302.362347,-0.000000,8808.450710
138.396963,1685.410096,-0.000000,8734.430116
138.397271,1302.362347,148.041188,8956.491898
138.397579,1302.362347,222.061783,9252.574275
138.397887,995.924147,296.082377,9770.718434
138.398195,689.485948,-222.061783,9474.636058
138.398502,536.266849,-74.020594,9918.759623
138.398810,1225.752797,-148.041188,9770.718434
138.399118,766.095498,-74.020594,9622.677246
138.399426,919.314598,-0.000000,9696.697840
138.399734,689.485948,-0.000000,9696.697840
138.400042,919.314598,-148.041188,9696.697840
138.400350,1532.190996,-0.000000,9992.780217
138.400658,1302.362347,-74.020594,9918.759623
138.400966,1608.800546,148.041188,9548.656652
138.401274,2068.457845,-0.000000,9252.574275
138.401582,1991.848295,666.185348,9326.594869
138.401890,2068.457845,1036.288319,9104.533087
138.402198,2451.505594,1184.329507,8586.388927
138.402506,2451.505594,1406.391290,8290.306550
138.402814,2757.943793,1110.308913,8438.347739
138.403122,3140.991542,1406.391290,8808.450710
138.403430,2298.286494,1406.391290,8290.306550
138.403738,1991.848295,962.267725,8660.409521
138.404046,1455.581446,962.267725,9326.594869
138.404354,766.095498,740.205942,9992.780217
138.404662,0.000000,370.102971,10214.842000
138.404970,-383.047749,-0.000000,10288.862594
138.405278,-153.219100,-370.102971,10807.006753
138.405586,-919.314598,-518.144159,10881.027347
138.405893,-1302.362347,-74.020594,11177.109724
138.406201,-1378.971896,-592.164754,10807.006753
138.406509,-1455.581446,-666.185348,10584.944971
138.406817,-1455.581446,-592.164754,10881.027347
138.407125,-1455.581446,-518.144159,10732.986159
138.407433,-1532.190996,-518.144159,10732.986159
138.407741,-1225.752797,-444.123565,9918.759623
138.408049,-1685.410096,-222.061783,10214.842000
138.408357,-1149.143247,-0.000000,9992.780217
138.408665,153.219100,-222.061783,9770.718434
138.408973,306.438199,-0.000000,9104.533087
138.409281,459.657299,-0.000000,8956.491898
138.409589,766.095498,-74.020594,8882.471304
138.409897,1225.752797,-0.000000,8882.471304
138.410205,1532.190996,148.041188,8438.347739
138.410513,919.314598,518.144159,8512.368333
138.410821,1762.019645,222.061783,8660.409521
138.411129,1378.971896,-0.000000,8586.388927
138.411437,1532.190996,444.123565,8882.471304
138.411745,1378.971896,444.123565,9178.553681
138.412053,1225.752797,-0.000000,9326.594869
138.412361,1072.533697,296.082377,9622.677246
138.412669,1302.362347,-0.000000,9548.656652
138.412977,766.095498,-0.000000,9992.780217
138.413284,612.876398,-296.082377,9326.594869
138.413592,306.438199,-222.061783,10362.883188
138.413900,306.438199,-296.082377,10214.842000
138.414208,459.657299,-370.102971,10140.821405
138.414516,383.047749,-296.082377,10510.924376
138.414824,612.876398,-0.000000,10288.862594
138.415132,919.314598,-0.000000,10214.842000
138.415440,1225.752797,370.102971,10066.800811
138.415748,1378.971896,444.123565,9474.636058
138.416056,1915.238745,888.247130,9178.553681
138.416364,2145.067394,1258.350101,8882.471304
138.416672,2374.896044,1406.391290,8512.368333
138.416980,2298.286494,1776.494261,8364.327145
138.417288,2298.286494,1702.473667,8512.368333
138.417596,2145.067394,1702.473667,8216.285956
138.417904,1149.143247,1480.411884,8808.450710
138.418212,1532.190996,1332.370696,9252.574275
138.418520,766.095498,962.267725,9400.615463
138.418828,383.047749,592.164754,9844.739029
138.419136,0.000000,-0.000000,10362.883188
138.419444,-459.657299,-148.041188,10584.944971
138.419752,-459.657299,-888.247130,10510.924376
138.420060,-1302.362347,-592.164754,10955.047942
138.420368,-1302.362347,-592.164754,10584.944971
138.420675,-766.095498,-740.205942,10732.986159
138.420983,-995.924147,-370.102971,10881.027347
138.421291,-842.705048,-592.164754,10288.862594
138.421599,-612.876398,-296.082377,10140.821405
138.421907,-842.705048,-370.102971,10214.842000
138.422215,0.000000,-222.061783,9844.739029
138.422523,-229.828649,-444.123565,9770.718434
138.422831,536.266849,-0.000000,9622.677246
138.423139,689.485948,-148.041188,9252.574275
138.423447,766.095498,-148.041188,9178.553681
138.423755,766.095498,-0.000000,9030.512492
138.424063,919.314598,370.102971,8956.491898
138.424371,1149.143247,444.123565,8808.450710
138.424679,1149.143247,148.041188,8734.430116
138.424987,1455.581446,444.123565,9104.533087
138.425295,1225.752797,592.164754,8734.430116
138.425603,995.924147,296.082377,9178.553681
138.425911,919.314598,-0.000000,9252.574275
138.426219,536.266849,-0.000000,9844.739029
138.426527,612.876398,-0.000000,9992.780217
138.426835,612.876398,-296.082377,10140.821405
138.427143,919.314598,-296.082377,10066.800811
138.427451,842.705048,-74.020594,10066.800811
138.427759,689.485948,-370.102971,9844.739029
138.428066,1378.971896,-0.000000,10066.800811
138.428374,1149.143247,222.061783,9770.718434
138.428682,1302.362347,444.123565,9770.718434
138.428990,1762.019645,444.123565,9400.615463
138.429298,1915.238745,740.205942,9400.615463
138.429606,2145.067394,962.267725,9474.636058
138.429914,2528.115143,1110.308913,9178.553681
138.430222,2068.457845,740.205942,9104.533087
138.430530,2374.896044,888.247130,8956.491898
138.430838,2374.896044,1110.308913,8808.450710
138.431146,2374.896044,1184.329507,8882.471304
138.431454,2298.286494,1480.411884,8882.471304
138.431762,2221.676944,1110.308913,8882.471304
138.432070,2068.457845,1184.329507,9400.615463
138.432378,1302.362347,1036.288319,9400.615463
138.432686,536.266849,444.123565,9696.697840
138.432994,919.314598,370.102971,10066.800811
138.433302,0.000000,296.082377,10140.821405
138.433610,0.000000,-0.000000,10288.862594
138.433918,-842.705048,-222.061783,10510.924376
138.434226,-1072.533697,-444.123565,10584.944971
138.434534,-766.095498,-444.123565,10658.965565
138.434842,-1072.533697,-444.123565,10807.006753
138.435150,-1762.019645,-1110.308913,10881.027347
138.435457,-766.095498,-1110.308913,10584.944971
138.435765,-1455.581446,-814.226536,10510.924376
138.436073,-995.924147,-444.123565,9992.780217
138.436381,-766.095498,-370.102971,9696.697840
138.436689,-229.828649,-296.082377,9474.636058
138.436997,76.609550,-222.061783,9548.656652
138.437305,536.266849,222.061783,9326.594869
138.437613,766.095498,-0.000000,8660.409521
138.437921,536.266849,-74.020594,8364.327145
138.438229,842.705048,-0.000000,8438.347739
138.438537,919.314598,-74.020594,8586.388927
138.438845,1072.533697,296.082377,8512.368333
138.439153,919.314598,296.082377,8586.388927
138.439461,1608.800546,-0.000000,8882.471304
138.439769,1149.143247,-74.020594,9178.553681
138.440077,842.705048,-0.000000,9844.739029
138.440385,842.705048,-74.020594,10140.821405
138.440693,689.485948,-296.082377,10140.821405
138.441001,383.047749,-74.020594,10140.821405
138.441309,459.657299,-0.000000,10584.944971
138.441617,459.657299,-0.000000,10288.862594
138.441925,1072.533697,-148.041188,10066.800811
138.442233,842.705048,-74.020594,9992.780217
138.442541,842.705048,148.041188,9770.718434
138.442848,1225.752797,222.061783,10140.821405
138.443156,1225.752797,444.123565,9844.739029
138.443464,1378.971896,592.164754,9622.677246
138.443772,1455.581446,814.226536,9474.636058
138.444080,1532.190996,962.267725,9474.636058
138.444388,2451.505594,1110.308913,9178.553681
138.444696,2145.067394,1406.391290,9178.553681
138.445004,1838.629195,1110.308913,9104.533087
138.445312,2145.067394,1406.391290,9252.574275
138.445620,1762.019645,1480.411884,9104.533087
138.445928,1991.848295,1628.453072,9030.512492
138.446236,1685.410096,1554.432478,8808.450710
138.446544,1608.800546,1332.370696,9178.553681
138.446852,1302.362347,1184.329507,9696.697840
138.447160,1072.533697,222.061783,9474.636058
138.447468,306.438199,222.061783,10066.800811
138.447776,153.219100,-148.041188,10140.821405
138.448084,-612.876398,-444.123565,10510.924376
138.448392,-689.485948,-444.123565,10955.047942
138.448700,-995.924147,-518.144159,10807.006753
138.449008,-919.314598,-518.144159,10584.944971
138.449316,-842.705048,-222.061783,10140.821405
138.449624,-536.266849,-370.102971,10584.944971
138.449932,-995.924147,-74.020594,10510.924376
138.450240,0.000000,-444.123565,9622.677246
138.450547,-383.047749,-444.123565,9696.697840
138.450855,-153.219100,-74.020594,9474.636058
138.451163,0.000000,-74.020594,9252.574275
138.451471,-153.219100,-222.061783,9326.594869
138.451779,0.000000,-296.082377,9400.615463
138.452087,76.609550,-666.185348,9104.533087
138.452395,306.438199,-296.082377,9326.594869
138.452703,536.266849,-0.000000,9252.574275
138.453011,842.705048,-222.061783,9104.533087
138.453319,689.485948,-0.000000,8956.491898
138.453627,919.314598,-74.020594,9252.574275
138.453935,842.705048,-0.000000,9252.574275
138.454243,919.314598,-0.000000,9696.697840
138.454551,842.705048,-0.000000,9622.677246
138.454859,1149.143247,-74.020594,9844.739029
138.455167,995.924147,-74.020594,9474.636058
138.455475,919.314598,-0.000000,9474.636058
138.455783,1225.752797,-74.020594,9918.759623
138.456091,919.314598,-296.082377,9622.677246
138.456399,995.924147,-222.061783,9844.739029
138.456707,1302.362347,-148.041188,9918.759623
138.457015,1378.971896,-0.000000,9844.739029
138.457323,1149.143247,296.082377,9918.759623
138.457631,1532.190996,222.061783,9178.553681
138.457939,1532.190996,666.185348,8734.430116
138.458247,2145.067394,1036.288319,9252.574275
138.458555,2221.676944,1110.308913,9030.512492
138.458863,1991.848295,1110.308913,8882.471304
138.459171,1991.848295,1184.329507,8956.491898
138.459479,1838.629195,1036.288319,9030.512492
138.459787,1838.629195,1332.370696,9474.636058
138.460095,2145.067394,962.267725,9474.636058
138.460403,1455.581446,1184.329507,9474.636058
138.460711,1302.362347,962.267725,9400.615463
138.461019,995.924147,740.205942,9622.677246
138.461327,842.705048,592.164754,9770.718434
138.461635,229.828649,592.164754,10140.821405
138.461943,229.828649,222.061783,10140.821405
138.462251,-766.095498,-148.041188,10214.842000
138.462559,-229.828649,-444.123565,10362.883188
138.462867,-995.924147,-222.061783,10510.924376
138.463175,-1225.752797,-296.082377,10584.944971
138.463483,-995.924147,-518.144159,10510.924376
138.463791,-1072.533697,-518.144159,10584.944971
138.464099,-689.485948,-666.185348,10732.986159
138.464407,-842.705048,-1110.308913,10436.903782
138.464715,-1225.752797,-296.082377,9992.780217
138.465023,-383.047749,-0.000000,9622.677246
138.465331,0.000000,-0.000000,9400.615463
138.465639,0.000000,-0.000000,9326.594869
138.465947,459.657299,-0.000000,9104.533087
138.466255,612.876398,-0.000000,8808.450710
138.466563,612.876398,-222.061783,9252.574275
138.466871,459.657299,-222.061783,9178.553681
138.467179,919.314598,-74.020594,9326.594869
138.467487,689.485948,-370.102971,9326.594869
138.467795,612.876398,-148.041188,9104.533087
138.468103,919.314598,-0.000000,9400.615463
138.468411,995.924147,-0.000000,9548.656652
138.468719,1149.143247,-148.041188,9474.636058
138.469027,1149.143247,-74.020594,9696.697840
138.469335,1302.362347,-0.000000,9474.636058
138.469643,1072.533697,-0.000000,9622.677246
138.469951,995.924147,296.082377,9548.656652
138.470259,766.095498,296.082377,9474.636058
138.470567,995.924147,370.102971,9474.636058
138.470875,995.924147,592.164754,9770.718434
138.471183,1149.143247,518.144159,9844.739029
138.471491,1149.143247,148.041188,9844.739029
138.471799,842.705048,-0.000000,9992.780217
138.472107,689.485948,-0.000000,9918.759623
138.472415,1455.581446,222.061783,9696.697840
138.472723,1149.143247,296.082377,9770.718434
138.473031,1455.581446,888.247130,9548.656652
138.473339,1838.629195,666.185348,9474.636058
138.473647,1532.190996,962.267725,9326.594869
138.473955,1762.019645,518.144159,9548.656652
138.474263,2298.286494,1184.329507,9178.553681
138.474571,1455.581446,1184.329507,8808.450710
138.474879,1455.581446,1480.411884,8956.491898
138.475187,1302.362347,1036.288319,9178.553681
138.475495,842.705048,1258.350101,9400.615463
138.475803,612.876398,740.205942,9622.677246
138.476111,0.000000,370.102971,9548.656652
138.476419,-306.438199,296.082377,9992.780217
138.476727,-689.485948,-518.144159,10066.800811
138.477035,-536.266849,-296.082377,10288.862594
138.477343,-612.876398,-222.061783,10436.903782
138.477651,-1072.533697,-370.102971,10214.842000
138.477959,-766.095498,-296.082377,10214.842000
138.478267,-1149.143247,-370.102971,10362.883188
138.478575,-1149.143247,-444.123565,10214.842000
138.478883,-689.485948,-370.102971,10140.821405
138.479191,-383.047749,74.020594,10288.862594
138.479499,-459.657299,-296.082377,10066.800811
138.479807,-229.828649,-148.041188,9918.759623
138.480115,0.000000,-222.061783,9770.718434
138.480422,0.000000,-148.041188,9474.636058
138.480730,0.000000,-370.102971,9400.615463
138.481038,0.000000,-370.102971,9474.636058
138.481346,689.485948,-148.041188,9696.697840
138.481654,536.266849,-0.000000,9400.615463
138.481962,842.705048,296.082377,9400.615463
138.482270,995.924147,-0.000000,9252.574275
138.482578,919.314598,296.082377,9030.512492
138.482886,1072.533697,-0.000000,9326.594869
138.483194,1072.533697,222.061783,9474.636058
138.483502,995.924147,296.082377,9474.636058
138.483810,1378.971896,-74.020594,9770.718434
138.484118,1608.800546,-0.000000,9696.697840
138.484426,1685.410096,-74.020594,9326.594869
138.484734,1455.581446,-0.000000,9548.656652
138.485042,1532.190996,222.061783,9696.697840
138.485350,1455.581446,370.102971,9696.697840
138.485658,1378.971896,444.123565,9548.656652
138.485966,1149.143247,518.144159,9696.697840
138.486274,1685.410096,-0.000000,9696.697840
138.486582,1455.581446,296.082377,9400.615463
138.486890,1378.971896,666.185348,9622.677246
138.487198,2145.067394,592.164754,9178.553681
138.487506,1915.238745,888.247130,9474.636058
138.487814,1991.848295,1110.308913,9326.594869
138.488122,2221.676944,1184.329507,9252.574275
138.488430,1915.238745,1332.370696,9030.512492
138.488738,2221.676944,1406.391290,8808.450710
138.489046,2298.286494,1480.411884,8956.491898
138.489354,2068.457845,1036.288319,8956.491898
138.489662,1378.971896,1184.329507,9400.615463
138.489970,1072.533697,1110.308913,9474.636058
138.490278,995.924147,592.164754,9918.759623
138.490586,383.047749,370.102971,9844.739029
138.490894,306.438199,370.102971,10510.924376
138.491202,0.000000,-222.061783,10362.883188
138.491510,-459.657299,-518.144159,10288.862594
138.491818,-689.485948,-814.226536,10436.903782
138.492126,-919.314598,-370.102971,10288.862594
138.492434,-919.314598,-740.205942,10362.883188
138.492742,-1149.143247,-740.205942,10510.924376
138.493050,-1149.143247,-740.205942,10362.883188
138.493358,-536.266849,-814.226536,9918.759623
138.493666,-995.924147,-592.164754,10288.862594
138.493974,-995.924147,-666.185348,9918.759623
138.494282,-459.657299,-814.226536,9844.739029
138.494590,-536.266849,-592.164754,9548.656652
138.494898,76.609550,-222.061783,9104.533087
138.495206,229.828649,-370.102971,9030.512492
138.495514,459.657299,-222.061783,9104.533087
138.495822,842.705048,-74.020594,8882.471304
138.496130,766.095498,-74.020594,8364.327145
138.496438,1149.143247,-0.000000,9178.553681
138.496746,1225.752797,296.082377,8882.471304
138.497054,995.924147,-0.000000,8882.471304
138.497362,1149.143247,444.123565,9104.533087
138.497670,1225.752797,370.102971,9474.636058
138.497978,919.314598,370.102971,9474.636058
138.498286,1149.143247,666.185348,9548.656652
138.498594,1225.752797,518.144159,9622.677246
138.498902,919.314598,296.082377,9622.677246
138.499210,842.705048,-222.061783,9844.739029
138.499518,612.876398,-0.000000,10140.821405
138.499826,689.485948,-148.041188,9918.759623
138.500134,459.657299,-0.000000,10140.821405
138.500442,459.657299,-0.000000,10214.842000
138.500750,612.876398,-148.041188,9844.739029
138.501058,1225.752797,296.082377,9622.677246
138.501366,1915.238745,518.144159,9696.697840
138.501674,1608.800546,740.205942,9696.697840
138.501982,1991.848295,1036.288319,9474.636058
138.502290,1991.848295,1184.329507,9104.533087
138.502598,1838.629195,1258.350101,9178.553681
138.502906,1762.019645,1554.432478,9178.553681
138.503214,1378.971896,1184.329507,9400.615463
138.503522,1378.971896,1332.370696,9326.594869
138.503830,1455.581446,962.267725,9400.615463
138.504138,995.924147,814.226536,9696.697840
138.504446,919.314598,740.205942,9918.759623
138.504754,76.609550,666.185348,9622.677246
138.505062,229.828649,296.082377,10066.800811
138.505370,0.000000,222.061783,9844.739029
138.505678,-383.047749,-222.061783,10214.842000
138.505986,-383.047749,-370.102971,10214.842000
138.506294,-919.314598,-222.061783,10288.862594
138.506602,-995.924147,-518.144159,10510.924376
138.506910,-1072.533697,-444.123565,9918.759623
138.507218,-842.705048,-222.061783,10436.903782
138.507526,-1225.752797,-592.164754,10140.821405
138.507834,-1225.752797,-444.123565,10066.800811
138.508142,-995.924147,-518.144159,10288.862594
138.508450,-1455.581446,-296.082377,10881.027347
138.508758,-842.705048,-814.226536,9992.780217
138.509066,-306.438199,-962.267725,9622.677246
138.509374,229.828649,-592.164754,9622.677246
138.509682,306.438199,-296.082377,9400.615463
138.509990,766.095498,-74.020594,9326.594869
138.510298,1149.143247,148.041188,8882.471304
