#time,accel_x,accel_y,accel_z
401.909685,536.266849,444.123565,9474.636058
401.909993,689.485948,-0.000000,9696.697840
401.910300,919.314598,370.102971,9696.697840
401.910608,536.266849,444.123565,9548.656652
401.910916,689.485948,-0.000000,9696.697840
401.911224,766.095498,-0.000000,9696.697840
401.911532,612.876398,-74.020594,9548.656652
401.911839,766.095498,-74.020594,9474.636058
401.912147,536.266849,-74.020594,8956.491898
401.912455,612.876398,-0.000000,9548.656652
401.912763,766.095498,74.020594,9622.677246
401.913070,766.095498,222.061783,9474.636058
401.913378,459.657299,296.082377,9474.636058
401.913686,919.314598,222.061783,9400.615463
401.913994,536.266849,148.041188,9474.636058
401.914302,919.314598,-0.000000,9548.656652
401.914609,306.438199,-0.000000,9622.677246
401.914917,766.095498,-0.000000,9474.636058
401.915225,689.485948,148.041188,9770.718434
401.915533,766.095498,-0.000000,9622.677246
401.915840,536.266849,296.082377,9474.636058
401.916148,383.047749,222.061783,9548.656652
401.916456,919.314598,-0.000000,9326.594869
401.916764,1455.581446,148.041188,9474.636058
401.917072,995.924147,222.061783,9474.636058
401.917379,766.095498,-0.000000,9474.636058
401.917687,536.266849,222.061783,9622.677246
401.917995,536.266849,-0.000000,9622.677246
401.918303,766.095498,-0.000000,9696.697840
401.918610,612.876398,222.061783,9548.656652
401.918918,306.438199,-0.000000,9696.697840
401.919226,459.657299,-296.082377,9622.677246
401.919534,689.485948,-0.000000,9474.636058
401.919842,306.438199,296.082377,9696.697840
401.920149,689.485948,-0.000000,9474.636058
401.920457,766.095498,148.041188,9770.718434
401.920765,536.266849,148.041188,9622.677246
401.921073,459.657299,-0.000000,9548.656652
401.921380,459.657299,-296.082377,9474.636058
401.921688,689.485948,-0.000000,9622.677246
401.921996,383.047749,-0.000000,9918.759623
401.922304,1149.143247,-444.123565,9918.759623
401.922612,1072.533697,-518.144159,9992.780217
401.922919,689.485948,-518.144159,10066.800811
401.923227,612.876398,-444.123565,9992.780217
401.923535,1072.533697,-222.061783,9992.780217
401.923843,1455.581446,-0.000000,10066.800811
401.924150,1915.238745,-0.000000,9622.677246
401.924458,1991.848295,518.144159,8882.471304
401.924766,2451.505594,814.226536,9030.512492
401.925074,2374.896044,592.164754,9178.553681
401.925382,1915.238745,518.144159,9252.574275
401.925689,1685.410096,222.061783,9474.636058
401.925997,1455.581446,148.041188,9474.636058
401.926305,1991.848295,-74.020594,9918.759623
401.926613,1838.629195,-296.082377,9918.759623
401.926920,1915.238745,-74.020594,9548.656652
401.927228,1762.019645,-74.020594,9844.739029
401.927536,1915.238745,-148.041188,9992.780217
401.927844,2068.457845,148.041188,9918.759623
401.928152,2221.676944,148.041188,9696.697840
401.928459,2528.115143,296.082377,9474.636058
401.928767,2528.115143,444.123565,9474.636058
401.929075,2374.896044,518.144159,9770.718434
401.929383,2757.943793,222.061783,9622.677246
401.929690,2757.943793,-0.000000,9474.636058
401.929998,2528.115143,296.082377,9474.636058
401.930306,2374.896044,-0.000000,9770.718434
401.930614,2604.724693,296.082377,9770.718434
401.930922,2604.724693,-0.000000,9844.739029
401.931229,2451.505594,-74.020594,9918.759623
401.931537,2451.505594,-518.144159,9770.718434
401.931845,2757.943793,-222.061783,10140.821405
401.932153,2834.553343,-74.020594,10214.842000
401.932460,3140.991542,-74.020594,9770.718434
401.932768,3447.429741,148.041188,9622.677246
401.933076,3447.429741,-0.000000,9548.656652
401.933384,3600.648841,148.041188,9622.677246
401.933692,4060.306139,518.144159,9252.574275
401.933999,4596.572988,444.123565,9178.553681
401.934307,4213.525239,370.102971,9030.512492
401.934615,4443.353888,444.123565,9030.512492
401.934923,4519.963438,296.082377,9252.574275
401.935230,4290.134789,296.082377,9252.574275
401.935538,3983.696590,222.061783,9474.636058
401.935846,4060.306139,-0.000000,9474.636058
401.936154,4366.744339,518.144159,9622.677246
401.936462,4749.792088,-0.000000,9474.636058
401.936769,4366.744339,666.185348,9326.594869
401.937077,4213.525239,1110.308913,9178.553681
401.937385,4749.792088,962.267725,9030.512492
401.937693,4519.963438,1036.288319,8808.450710
401.938000,4596.572988,1184.329507,9030.512492
401.938308,4290.134789,1036.288319,9030.512492
401.938616,3983.696590,740.205942,8882.471304
401.938924,4060.306139,814.226536,9622.677246
401.939232,3064.381992,740.205942,10140.821405
401.939539,3140.991542,222.061783,9918.759623
401.939847,3447.429741,666.185348,10214.842000
401.940155,2681.334243,518.144159,10214.842000
401.940463,2681.334243,592.164754,9548.656652
401.940770,2298.286494,222.061783,9770.718434
401.941078,2451.505594,444.123565,9622.677246
401.941386,2528.115143,592.164754,9696.697840
401.941694,2451.505594,148.041188,9992.780217
401.942002,2374.896044,-0.000000,10066.800811
401.942309,1532.190996,-222.061783,10140.821405
401.942617,1302.362347,-740.205942,10436.903782
401.942925,1455.581446,-740.205942,10362.883188
401.943233,1838.629195,-666.185348,10510.924376
401.943540,2145.067394,-1258.350101,10881.027347
401.943848,1762.019645,-2368.659014,10584.944971
401.944156,2221.676944,-1998.556043,10510.924376
401.944464,3064.381992,-1776.494261,9992.780217
401.944772,3370.820191,-1480.411884,9918.759623
401.945079,3830.477490,-1036.288319,9178.553681
401.945387,4366.744339,-444.123565,9400.615463
401.945695,4826.401637,-222.061783,9178.553681
401.946003,4673.182538,-0.000000,8512.368333
401.946310,4826.401637,666.185348,8512.368333
401.946618,4749.792088,666.185348,8290.306550
401.946926,4903.011187,518.144159,8364.327145
401.947234,4749.792088,592.164754,8364.327145
401.947542,4213.525239,222.061783,8734.430116
401.947849,3447.429741,-0.000000,9400.615463
401.948157,2987.772442,-370.102971,9474.636058
401.948465,3447.429741,296.082377,10140.821405
401.948773,3370.820191,740.205942,9696.697840
401.949080,3524.039291,1554.432478,8956.491898
401.949388,3753.867940,2442.679609,8734.430116
401.949696,4213.525239,2812.782580,8512.368333
401.950004,4596.572988,3034.844362,8734.430116
401.950312,4213.525239,2738.761985,8734.430116
401.950619,3753.867940,1184.329507,9622.677246
401.950927,3140.991542,-0.000000,11029.068536
401.951235,1302.362347,-1480.411884,11843.295072
401.951543,153.219100,-2812.782580,13397.727550
401.951850,536.266849,-3404.947333,13693.809927
401.952158,842.705048,-3627.009116,13471.748144
401.952466,2068.457845,-3182.885551,12509.480420
401.952774,3370.820191,-2146.597232,10732.986159
401.953082,4979.620737,-666.185348,9178.553681
401.953389,6971.469032,444.123565,8438.347739
401.953697,7124.688131,2664.741391,6439.791695
401.954005,7814.174080,3552.988522,5921.647536
401.954313,8273.831378,4219.173869,5625.565159
401.954620,7048.078582,5107.421000,5181.441594
401.954928,6128.763984,4663.297435,5847.626942
401.955236,4903.011187,3627.009116,6809.894666
401.955544,3524.039291,2220.617826,8438.347739
401.955852,2145.067394,444.123565,9474.636058
401.956159,1302.362347,-1184.329507,11325.150913
401.956467,229.828649,-2590.720797,12805.562797
401.956775,-536.266849,-3701.029710,13397.727550
401.957083,-229.828649,-4145.153275,14063.912898
401.957390,459.657299,-4071.132681,13693.809927
401.957698,1455.581446,-3552.988522,12879.583391
401.958006,3294.210641,-2886.803174,11917.315666
401.958314,4290.134789,-1924.535449,11103.089130
401.958622,5439.278036,-740.205942,8882.471304
401.958929,5822.325785,1184.329507,7994.224174
401.959237,6052.154434,1850.514855,7105.977043
401.959545,6052.154434,2886.803174,6513.812290
401.959853,6128.763984,3775.050304,6069.688724
401.960160,5515.887586,3627.009116,6217.729913
401.960468,4749.792088,2368.659014,6883.915261
401.960776,4673.182538,1036.288319,7772.162391
401.961084,2987.772442,-370.102971,9474.636058
401.961392,2068.457845,-2516.700203,11621.233289
401.961699,383.047749,-3627.009116,12657.521608
401.962007,689.485948,-3849.070898,13397.727550
401.962315,1455.581446,-3256.906145,12583.501014
401.962623,2757.943793,-1554.432478,11399.171507
401.962930,4519.963438,296.082377,9474.636058
401.963238,6588.421283,3108.864956,7179.997637
401.963546,8044.002729,4663.297435,5403.503377
401.963854,8044.002729,6069.688724,4515.256246
401.964162,7814.174080,6291.750507,4589.276840
401.964469,6818.249932,5107.421000,5921.647536
401.964777,4290.134789,1850.514855,8956.491898
401.965085,1532.190996,-1776.494261,11769.274478
401.965393,-1072.533697,-2368.659014,12805.562797
401.965700,-3217.601092,-5255.462188,15766.386565
401.966008,-3064.381992,-6661.853478,18061.024985
401.966316,-2911.162892,-6809.894666,17542.880825
401.966624,0.000000,-4219.173869,15248.242405
401.966932,2298.286494,-1702.473667,10510.924376
401.967239,5286.058936,1036.288319,7624.121203
401.967547,8120.612279,4441.235652,5625.565159
401.967855,9806.022374,5847.626942,5033.400406
401.968163,9959.241474,5773.606348,3404.947333
401.968470,9193.145976,5625.565159,3108.864956
401.968778,7354.516781,3034.844362,5921.647536
401.969086,4213.525239,-74.020594,8290.306550
401.969394,995.924147,-2812.782580,11695.253884
401.969702,-1149.143247,-4959.379811,13619.789333
401.970009,-1762.019645,-5255.462188,13989.892304
401.970317,-306.438199,-3923.091493,13175.665768
401.970625,1838.629195,-814.226536,11325.150913
401.970933,5975.544884,1184.329507,9252.574275
401.971240,7431.126331,3108.864956,6661.853478
401.971548,8044.002729,4515.256246,6143.709319
401.971856,8197.221829,4885.359217,5995.668130
401.972164,6741.640382,3478.967927,7328.038826
401.972472,4290.134789,1628.453072,9030.512492
401.972779,1378.971896,-148.041188,10584.944971
401.973087,536.266849,-2220.617826,13619.789333
401.973395,-1991.848295,-3478.967927,12731.542202
401.973703,-2604.724693,-4071.132681,13989.892304
401.974010,-383.047749,-3701.029710,14582.057057
401.974318,842.705048,-2368.659014,11769.274478
401.974626,3294.210641,-1924.535449,10362.883188
401.974934,5592.497135,-888.247130,8882.471304
401.975242,6205.373534,-0.000000,7994.224174
401.975550,6741.640382,518.144159,7846.182985
401.975858,5822.325785,2516.700203,6513.812290
401.976166,6971.469032,3108.864956,6735.874072
401.976473,5745.716235,5329.482782,5921.647536
401.976781,6128.763984,5921.647536,5625.565159
401.977089,6281.983084,5107.421000,5181.441594
401.977397,6894.859482,3701.029710,7698.141797
401.977705,4826.401637,296.082377,8512.368333
401.978013,1532.190996,-1702.473667,10362.883188
401.978321,536.266849,-5995.668130,15988.448347
401.978629,-2068.457845,-6069.688724,13915.871710
401.978937,-2451.505594,-5921.647536,14656.077652
401.979245,-612.876398,-3923.091493,13323.706956
401.979553,1378.971896,-1554.432478,10288.862594
401.979861,3217.601092,518.144159,10140.821405
401.980169,5439.278036,1554.432478,8438.347739
401.980477,6052.154434,1924.535449,6513.812290
401.980785,5822.325785,2368.659014,5477.523971
401.981093,6281.983084,3182.885551,6365.771101
401.981401,5975.544884,3997.112087,6513.812290
401.981709,5515.887586,3701.029710,7772.162391
401.982017,4903.011187,3478.967927,7846.182985
401.982324,4290.134789,2368.659014,7994.224174
401.982632,3677.258390,-0.000000,10140.821405
401.982940,2298.286494,-1998.556043,11325.150913
401.983248,1915.238745,-3552.988522,13249.686362
401.983556,536.266849,-5329.482782,13841.851115
401.983864,-459.657299,-4811.338623,12139.377449
401.984172,229.828649,-3701.029710,11843.295072
401.984480,2221.676944,-888.247130,10584.944971
401.984788,4290.134789,1776.494261,9178.553681
401.985096,6435.202183,2368.659014,7254.018232
401.985404,6052.154434,2960.823768,6587.832884
401.985712,5132.839837,1554.432478,7550.100608
401.986020,3830.477490,2072.576638,8142.265362
401.986328,2911.162892,2886.803174,9252.574275
401.986636,2451.505594,2664.741391,8808.450710
401.986944,2681.334243,3627.009116,8216.285956
401.987252,3370.820191,3478.967927,9104.533087
401.987560,3830.477490,1850.514855,10510.924376
401.987868,2528.115143,-814.226536,10881.027347
401.988175,612.876398,-2516.700203,12435.459826
401.988483,-1225.752797,-5329.482782,13619.789333
401.988791,-2068.457845,-3701.029710,12287.418637
401.989099,-1072.533697,-2590.720797,12435.459826
401.989407,1608.800546,-370.102971,10510.924376
401.989715,3064.381992,1702.473667,7105.977043
401.990023,4519.963438,1702.473667,7920.203579
401.990331,4519.963438,1110.308913,7179.997637
401.990639,2757.943793,962.267725,8660.409521
401.990947,1762.019645,296.082377,9326.594869
401.991255,1072.533697,-74.020594,9696.697840
401.991563,919.314598,1406.391290,9548.656652
401.991871,2834.553343,1406.391290,9252.574275
401.992179,3907.087040,1554.432478,8438.347739
401.992487,3140.991542,592.164754,8660.409521
401.992795,3447.429741,-1628.453072,9992.780217
401.993103,383.047749,-2442.679609,9844.739029
401.993411,-306.438199,-3923.091493,12435.459826
401.993719,536.266849,-2812.782580,10362.883188
401.994026,1685.410096,-1258.350101,8216.285956
401.994334,3294.210641,-444.123565,7624.121203
401.994642,4519.963438,444.123565,6439.791695
401.994950,3294.210641,962.267725,7476.080014
401.995258,2681.334243,1554.432478,9030.512492
401.995566,2757.943793,1776.494261,9474.636058
401.995874,1685.410096,3330.926739,9104.533087
401.996182,2068.457845,3108.864956,9844.739029
401.996490,2374.896044,3404.947333,9104.533087
401.996798,3140.991542,2294.638420,10584.944971
401.997106,2451.505594,1258.350101,11177.109724
401.997414,-842.705048,-1332.370696,11843.295072
401.997722,-1762.019645,-1924.535449,13175.665768
401.998030,-2604.724693,-3034.844362,12805.562797
401.998338,-766.095498,-1332.370696,12065.356855
401.998646,306.438199,-518.144159,9622.677246
401.998954,1838.629195,-0.000000,7550.100608
401.999262,1762.019645,1480.411884,6957.935855
401.999570,1838.629195,1998.556043,7920.203579
401.999877,1685.410096,3108.864956,9178.553681
402.000185,1685.410096,2812.782580,8882.471304
402.000493,2298.286494,3330.926739,8956.491898
402.000801,2987.772442,1850.514855,9770.718434
402.001109,2451.505594,-296.082377,10362.883188
402.001417,153.219100,-1184.329507,10807.006753
402.001725,-1378.971896,-2960.823768,11547.212695
402.002033,-2604.724693,-3849.070898,12657.521608
402.002341,-1991.848295,-3552.988522,11917.315666
402.002649,-995.924147,-2294.638420,9918.759623
402.002957,1378.971896,-1554.432478,8734.430116
402.003265,2298.286494,148.041188,5847.626942
402.003573,1608.800546,1850.514855,4737.318029
402.003881,3140.991542,1480.411884,7550.100608
402.004189,2145.067394,2220.617826,7402.059420
402.004497,2068.457845,1776.494261,8364.327145
402.004805,2528.115143,1184.329507,8808.450710
402.005113,2374.896044,-518.144159,10066.800811
402.005421,0.000000,-1332.370696,11843.295072
402.005728,-306.438199,-2146.597232,11843.295072
402.006036,-1685.410096,-2664.741391,12879.583391
402.006344,-3217.601092,-2368.659014,11917.315666
402.006652,-689.485948,-2590.720797,11621.233289
402.006960,842.705048,-518.144159,8882.471304
402.007268,1608.800546,-0.000000,7031.956449
402.007576,3064.381992,666.185348,5847.626942
402.007884,1991.848295,2886.803174,5995.668130
402.008192,2374.896044,3627.009116,7624.121203
402.008500,2145.067394,3701.029710,8068.244768
402.008808,2528.115143,4737.318029,8068.244768
402.009116,2374.896044,2812.782580,8512.368333
402.009424,1762.019645,1554.432478,8660.409521
402.009732,229.828649,-370.102971,12361.439231
402.010040,-1225.752797,-2368.659014,13915.871710
402.010348,-2757.943793,-2294.638420,12065.356855
402.010656,-3294.210641,-2960.823768,12657.521608
402.010964,-2451.505594,-2886.803174,11843.295072
402.011272,0.000000,-1258.350101,9770.718434
402.011579,995.924147,-370.102971,8290.306550
402.011887,1225.752797,740.205942,6735.874072
402.012195,2298.286494,2590.720797,6291.750507
402.012503,1532.190996,2516.700203,7920.203579
402.012811,3447.429741,3034.844362,8660.409521
402.013119,4290.134789,3256.906145,6587.832884
402.013427,3830.477490,2960.823768,8290.306550
402.013735,1685.410096,-740.205942,9474.636058
402.014043,0.000000,-888.247130,11843.295072
402.014351,-1838.629195,-2516.700203,14211.954086
402.014659,-3064.381992,-4145.153275,13101.645173
402.014967,-2987.772442,-2368.659014,11547.212695
402.015275,-1072.533697,-2812.782580,10436.903782
402.015583,459.657299,-2220.617826,9030.512492
402.015891,1378.971896,-0.000000,7105.977043
402.016199,1838.629195,1110.308913,7328.038826
402.016507,1225.752797,2294.638420,7328.038826
402.016815,3140.991542,3108.864956,9104.533087
402.017123,3830.477490,3478.967927,9326.594869
402.017430,3370.820191,3034.844362,7994.224174
402.017738,1838.629195,1184.329507,9178.553681
402.018046,995.924147,-74.020594,11769.274478
402.018354,-1072.533697,-1332.370696,13101.645173
402.018662,-2681.334243,-1480.411884,13101.645173
402.018970,-2145.067394,-2812.782580,13249.686362
402.019278,-2068.457845,-1924.535449,10732.986159
402.019586,-1225.752797,-2294.638420,9622.677246
402.019894,306.438199,-888.247130,9030.512492
402.020202,1991.848295,888.247130,8216.285956
402.020510,1685.410096,1258.350101,7624.121203
402.020818,1378.971896,3108.864956,7698.141797
402.021126,3140.991542,3627.009116,9178.553681
402.021434,3907.087040,4219.173869,8216.285956
402.021742,3064.381992,3404.947333,7476.080014
402.022050,1838.629195,814.226536,9548.656652
402.022358,-612.876398,-0.000000,12805.562797
402.022666,-1302.362347,-1036.288319,13323.706956
402.022974,-2681.334243,-1850.514855,11991.336260
402.023281,-1685.410096,-1998.556043,10658.965565
402.023589,-459.657299,-1924.535449,7920.203579
402.023897,459.657299,-1036.288319,8068.244768
402.024205,1378.971896,-518.144159,7476.080014
402.024513,1378.971896,518.144159,6513.812290
402.024821,1991.848295,1036.288319,7920.203579
402.025129,1915.238745,2294.638420,9326.594869
402.025437,3677.258390,2368.659014,8364.327145
402.025745,3064.381992,2516.700203,8364.327145
402.026053,1991.848295,1554.432478,8882.471304
402.026361,612.876398,-296.082377,11029.068536
402.026669,-1455.581446,-1554.432478,13397.727550
402.026977,-2681.334243,-1850.514855,13101.645173
402.027285,-1455.581446,-2886.803174,12509.480420
402.027593,-2298.286494,-2442.679609,8882.471304
402.027901,-459.657299,-1998.556043,8808.450710
402.028209,536.266849,-1184.329507,8512.368333
402.028517,229.828649,592.164754,7254.018232
402.028825,1378.971896,592.164754,8512.368333
402.029132,2604.724693,1850.514855,7994.224174
402.029440,2911.162892,2590.720797,8216.285956
402.029748,4213.525239,2590.720797,8956.491898
402.030056,2987.772442,2146.597232,8586.388927
402.030364,1072.533697,666.185348,10955.047942
402.030672,-383.047749,-962.267725,13027.624579
402.030980,-2528.115143,-962.267725,12657.521608
402.031288,-3294.210641,-2368.659014,12361.439231
402.031596,-2145.067394,-2442.679609,10658.965565
402.031904,-1532.190996,-1702.473667,9474.636058
402.032212,0.000000,-1702.473667,9252.574275
402.032520,76.609550,-0.000000,7179.997637
402.032828,1532.190996,1184.329507,7328.038826
402.033136,1072.533697,2072.576638,8068.244768
402.033444,2834.553343,3182.885551,8882.471304
402.033752,4060.306139,4145.153275,8216.285956
402.034060,3753.867940,3034.844362,8290.306550
402.034368,2834.553343,1480.411884,8438.347739
402.034676,0.000000,444.123565,10881.027347
402.034983,-995.924147,-1258.350101,12657.521608
402.035291,-2911.162892,-1332.370696,11843.295072
402.035599,-1532.190996,-2516.700203,12287.418637
402.035907,-1838.629195,-2442.679609,8512.368333
402.036215,-459.657299,-2072.576638,9104.533087
402.036523,1608.800546,-1702.473667,8882.471304
402.036831,1072.533697,814.226536,7105.977043
402.037139,1762.019645,444.123565,9104.533087
402.037447,2681.334243,1554.432478,8956.491898
402.037755,3983.696590,2886.803174,8808.450710
402.038063,4213.525239,3034.844362,8512.368333
402.038371,3907.087040,1628.453072,9178.553681
402.038679,2068.457845,444.123565,10658.965565
402.038987,0.000000,-962.267725,12435.459826
402.039295,-1149.143247,-1480.411884,13027.624579
402.039603,-2374.896044,-2516.700203,11843.295072
402.039911,-1608.800546,-2590.720797,11399.171507
402.040219,-536.266849,-2664.741391,9770.718434
402.040527,612.876398,-1850.514855,9326.594869
402.040834,995.924147,-0.000000,8142.265362
402.041142,2221.676944,518.144159,7550.100608
402.041450,1991.848295,1184.329507,8956.491898
402.041758,2757.943793,2664.741391,7920.203579
402.042066,5209.449386,3034.844362,8142.265362
402.042374,3524.039291,4219.173869,7550.100608
402.042682,1991.848295,1406.391290,9400.615463
402.042990,383.047749,-148.041188,11917.315666
402.043298,-995.924147,518.144159,11547.212695
402.043606,-2528.115143,-1850.514855,11695.253884
402.043914,-1991.848295,-1702.473667,11029.068536
402.044222,-1072.533697,-1554.432478,10288.862594
402.044530,-306.438199,-1554.432478,9622.677246
402.044838,383.047749,-0.000000,7920.203579
402.045146,1302.362347,1406.391290,7179.997637
402.045454,1302.362347,1480.411884,8512.368333
402.045762,2451.505594,2738.761985,8586.388927
402.046070,3830.477490,3256.906145,8216.285956
402.046378,3753.867940,2960.823768,8512.368333
402.046685,1915.238745,1036.288319,8586.388927
402.046993,459.657299,-370.102971,11621.233289
402.047301,-1225.752797,-1036.288319,13397.727550
402.047609,-3140.991542,-2072.576638,12583.501014
402.047917,-2757.943793,-2886.803174,13323.706956
402.048225,-1532.190996,-2664.741391,10288.862594
402.048533,-1225.752797,-2368.659014,8142.265362
402.048841,0.000000,-1776.494261,8882.471304
402.049149,1378.971896,-148.041188,7550.100608
402.049457,1378.971896,1184.329507,7994.224174
402.049765,1608.800546,1628.453072,9030.512492
402.050073,3753.867940,2812.782580,8364.327145
402.050381,3983.696590,3552.988522,7179.997637
402.050689,2451.505594,2442.679609,8142.265362
402.050997,1378.971896,222.061783,11103.089130
402.051305,-229.828649,-1036.288319,13101.645173
402.051613,-2834.553343,-1184.329507,12805.562797
402.051921,-2834.553343,-3108.864956,12583.501014
402.052229,-3064.381992,-2738.761985,11473.192101
402.052536,-2221.676944,-2590.720797,10140.821405
402.052844,-383.047749,-1702.473667,8512.368333
402.053152,919.314598,1332.370696,7550.100608
402.053460,1608.800546,1036.288319,7624.121203
402.053768,1149.143247,2738.761985,7328.038826
402.054076,3600.648841,3701.029710,7994.224174
402.054384,3294.210641,4737.318029,7402.059420
402.054692,3294.210641,3997.112087,7846.182985
402.055000,2068.457845,1998.556043,9104.533087
402.055308,-229.828649,370.102971,11695.253884
402.055616,-1608.800546,-518.144159,12361.439231
402.055924,-3140.991542,-1628.453072,12583.501014
402.056232,-2757.943793,-2664.741391,12805.562797
402.056540,-2145.067394,-2738.761985,9992.780217
402.056848,0.000000,-1998.556043,9548.656652
402.057156,612.876398,-962.267725,8216.285956
402.057464,1149.143247,962.267725,7105.977043
402.057772,1455.581446,518.144159,8364.327145
402.058080,2451.505594,1850.514855,9030.512492
402.058387,4213.525239,3775.050304,7920.203579
402.058695,4136.915689,3034.844362,8142.265362
402.059003,3294.210641,2072.576638,8660.409521
402.059311,1378.971896,-74.020594,11695.253884
402.059619,-536.266849,-1258.350101,12657.521608
402.059927,-1302.362347,-2664.741391,12065.356855
402.060235,-2681.334243,-2960.823768,11991.336260
402.060543,-1072.533697,-3182.885551,11399.171507
402.060851,-612.876398,-3108.864956,9252.574275
402.061159,76.609550,-1258.350101,8216.285956
402.061467,1915.238745,1184.329507,6957.935855
402.061775,2374.896044,1554.432478,6809.894666
402.062083,2298.286494,2812.782580,7105.977043
402.062391,3064.381992,3478.967927,7476.080014
402.062699,3753.867940,4441.235652,7254.018232
402.063007,3907.087040,2442.679609,8808.450710
402.063315,1838.629195,740.205942,9770.718434
402.063623,-689.485948,-592.164754,12213.398043
402.063931,-995.924147,-2442.679609,13027.624579
402.064238,-3600.648841,-1924.535449,12583.501014
402.064546,-2604.724693,-2590.720797,13397.727550
402.064854,-1378.971896,-2960.823768,10807.006753
402.065162,0.000000,-1184.329507,8882.471304
402.065470,842.705048,518.144159,6587.832884
402.065778,2757.943793,888.247130,7105.977043
402.066086,1838.629195,2368.659014,6365.771101
402.066394,3983.696590,4145.153275,8882.471304
402.066702,4443.353888,3923.091493,5995.668130
402.067010,2987.772442,3997.112087,6661.853478
402.067318,2834.553343,740.205942,10288.862594
402.067626,536.266849,-0.000000,10362.883188
402.067934,-1455.581446,-1998.556043,12731.542202
402.068242,-3217.601092,-3330.926739,13175.665768
402.068550,-2374.896044,-3923.091493,12361.439231
402.068858,-2604.724693,-3775.050304,11177.109724
402.069166,0.000000,-2886.803174,10288.862594
402.069474,995.924147,-1332.370696,8660.409521
402.069782,1762.019645,1184.329507,6661.853478
402.070089,2298.286494,1850.514855,7550.100608
402.070397,3907.087040,3330.926739,7105.977043
402.070705,4290.134789,5329.482782,6735.874072
402.071013,4903.011187,3701.029710,7994.224174
402.071321,3370.820191,2664.741391,8364.327145
402.071629,1532.190996,-0.000000,10584.944971
402.071937,-1149.143247,-1850.514855,13249.686362
402.072245,-2451.505594,-2072.576638,13101.645173
402.072553,-3294.210641,-3627.009116,13249.686362
402.072861,-3217.601092,-4071.132681,12287.418637
402.073169,-1455.581446,-3182.885551,10214.842000
402.073477,0.000000,-2294.638420,9030.512492
402.073785,1072.533697,592.164754,7254.018232
402.074093,1608.800546,1776.494261,7105.977043
402.074401,2681.334243,2960.823768,7624.121203
402.074709,3983.696590,5551.544565,6291.750507
402.075017,4826.401637,4959.379811,6143.709319
402.075325,4596.572988,4441.235652,7624.121203
402.075633,2068.457845,2072.576638,9400.615463
402.075941,0.000000,-0.000000,12065.356855
402.076249,-2298.286494,-1406.391290,13323.706956
402.076557,-3600.648841,-3034.844362,13841.851115
402.076865,-3677.258390,-3923.091493,12805.562797
402.077174,-2987.772442,-3627.009116,10510.924376
402.077482,-995.924147,-2590.720797,10362.883188
402.077790,0.000000,-1628.453072,8586.388927
402.078098,1302.362347,1332.370696,7846.182985
402.078406,2221.676944,1628.453072,8142.265362
402.078714,3677.258390,3849.070898,7476.080014
402.079022,3907.087040,4663.297435,6957.935855
402.079330,4673.182538,4441.235652,7920.203579
402.079638,3370.820191,2072.576638,8586.388927
402.079946,1072.533697,148.041188,10955.047942
402.080254,-842.705048,-1110.308913,13027.624579
402.080562,-2298.286494,-3404.947333,13619.789333
402.080870,-3907.087040,-4219.173869,14137.933492
402.081178,-3217.601092,-4293.194464,12435.459826
402.081486,-1302.362347,-3701.029710,10140.821405
402.081794,-919.314598,-962.267725,9474.636058
402.082102,1072.533697,-0.000000,8142.265362
402.082410,1838.629195,1184.329507,7328.038826
402.082718,2911.162892,3478.967927,6291.750507
402.083027,3983.696590,4515.256246,4959.379811
402.083335,4826.401637,4589.276840,7031.956449
402.083643,2987.772442,3775.050304,8142.265362
402.083951,2221.676944,1628.453072,9400.615463
402.084259,536.266849,296.082377,11251.130318
402.084567,-2068.457845,-740.205942,11103.089130
402.084875,-2987.772442,-3108.864956,12065.356855
402.085183,-3370.820191,-2812.782580,12657.521608
402.085491,-2221.676944,-3701.029710,10881.027347
402.085799,-842.705048,-2294.638420,9474.636058
402.086107,-76.609550,-0.000000,9474.636058
402.086415,1762.019645,518.144159,7624.121203
402.086723,1378.971896,2368.659014,6291.750507
402.087031,4136.915689,4737.318029,7624.121203
402.087339,5209.449386,4441.235652,6291.750507
402.087647,3907.087040,4959.379811,6587.832884
402.087955,3140.991542,1702.473667,10066.800811
402.088263,1455.581446,-0.000000,11177.109724
402.088571,-1302.362347,-1332.370696,11843.295072
402.088880,-2451.505594,-2516.700203,12731.542202
402.089188,-2834.553343,-4515.256246,13545.768739
402.089496,-3217.601092,-3775.050304,11177.109724
402.089804,-1608.800546,-3256.906145,10362.883188
402.090112,-229.828649,-2368.659014,10288.862594
402.090420,1149.143247,-0.000000,7920.203579
402.090728,2221.676944,592.164754,8216.285956
402.091036,3217.601092,3182.885551,6661.853478
402.091344,5362.668486,5107.421000,5995.668130
402.091652,5132.839837,4441.235652,7328.038826
402.091960,3983.696590,3330.926739,8216.285956
402.092268,2451.505594,740.205942,10807.006753
402.092576,-383.047749,-444.123565,12065.356855
402.092884,-1991.848295,-1480.411884,12805.562797
402.093192,-3753.867940,-4589.276840,14211.954086
402.093500,-4290.134789,-4145.153275,12953.603985
402.093808,-2604.724693,-4293.194464,10955.047942
402.094116,-919.314598,-2146.597232,10584.944971
402.094424,536.266849,-148.041188,8882.471304
402.094733,1532.190996,962.267725,7624.121203
402.095041,2451.505594,2738.761985,7772.162391
402.095349,4903.011187,4441.235652,5921.647536
402.095657,4903.011187,5477.523971,5551.544565
402.095965,4596.572988,4811.338623,6957.935855
402.096273,3600.648841,2368.659014,8290.306550
402.096581,1072.533697,1406.391290,10955.047942
402.096889,-1455.581446,-592.164754,11695.253884
402.097197,-2987.772442,-1554.432478,12065.356855
402.097505,-2604.724693,-3404.947333,12583.501014
402.097813,-2374.896044,-2294.638420,10288.862594
402.098121,-1149.143247,-3034.844362,9252.574275
402.098429,-153.219100,-1850.514855,9696.697840
402.098737,612.876398,-222.061783,8660.409521
402.099045,919.314598,-0.000000,9918.759623
402.099353,2221.676944,2368.659014,8364.327145
402.099661,4290.134789,2960.823768,9178.553681
402.099969,4136.915689,3627.009116,8882.471304
402.100278,3370.820191,2294.638420,8142.265362
402.100586,2451.505594,740.205942,9918.759623
402.100894,536.266849,-888.247130,11547.212695
402.101202,-1225.752797,-1258.350101,11547.212695
402.101510,-2451.505594,-3034.844362,12509.480420
402.101818,-2145.067394,-3330.926739,10807.006753
402.102126,-1532.190996,-2960.823768,9400.615463
402.102434,-1225.752797,-2072.576638,8956.491898
402.102742,1072.533697,-740.205942,8956.491898
402.103050,459.657299,222.061783,8438.347739
402.103358,919.314598,1406.391290,8882.471304
402.103666,3217.601092,2886.803174,8290.306550
402.103974,4060.306139,3997.112087,7476.080014
402.104282,3370.820191,3256.906145,8438.347739
402.104590,2451.505594,2146.597232,9030.512492
402.104898,1685.410096,888.247130,10658.965565
402.105206,-612.876398,814.226536,11177.109724
402.105514,-1378.971896,-740.205942,10732.986159
402.105822,-2145.067394,-2072.576638,11399.171507
402.106131,-2298.286494,-1628.453072,9400.615463
402.106439,-842.705048,-2590.720797,9548.656652
402.106747,-536.266849,-148.041188,8512.368333
402.107055,459.657299,370.102971,8364.327145
402.107363,1072.533697,740.205942,9844.739029
402.107671,2145.067394,3182.885551,9030.512492
402.107979,3370.820191,2442.679609,9252.574275
402.108287,2911.162892,3627.009116,8808.450710
402.108595,3677.258390,2294.638420,8808.450710
402.108903,842.705048,592.164754,9844.739029
402.109211,306.438199,740.205942,10955.047942
402.109519,-689.485948,-1036.288319,11695.253884
402.109827,-1915.238745,-2072.576638,11177.109724
402.110135,-1532.190996,-1924.535449,9918.759623
402.110443,0.000000,-3404.947333,10362.883188
402.110751,-842.705048,-2812.782580,9178.553681
402.111059,229.828649,-296.082377,7772.162391
402.111367,459.657299,370.102971,9104.533087
402.111675,1685.410096,370.102971,10436.903782
402.111984,3064.381992,2516.700203,7772.162391
402.112292,3524.039291,3330.926739,8660.409521
402.112600,3830.477490,962.267725,9770.718434
402.112908,1915.238745,1110.308913,8438.347739
402.113216,536.266849,518.144159,11843.295072
402.113524,-1378.971896,-148.041188,12065.356855
402.113832,-1838.629195,-2442.679609,11769.274478
402.114140,-2757.943793,-1850.514855,11029.068536
402.114448,-1378.971896,-1924.535449,9548.656652
402.114756,-612.876398,-2294.638420,9622.677246
402.115064,-919.314598,-370.102971,7772.162391
402.115372,612.876398,-0.000000,9400.615463
402.115680,383.047749,1702.473667,8142.265362
402.115988,2451.505594,3256.906145,8512.368333
402.116296,3370.820191,3701.029710,8956.491898
402.116604,4136.915689,3849.070898,7846.182985
402.116912,3064.381992,2072.576638,8364.327145
402.117220,1455.581446,962.267725,10140.821405
402.117528,612.876398,666.185348,10955.047942
402.117837,-1149.143247,-666.185348,11103.089130
402.118145,-1838.629195,-1406.391290,11251.130318
402.118453,-689.485948,-1480.411884,9622.677246
402.118761,-536.266849,-2294.638420,9178.553681
402.119069,-306.438199,-1554.432478,8734.430116
402.119377,459.657299,-592.164754,7994.224174
402.119685,0.000000,222.061783,9400.615463
402.119993,1532.190996,888.247130,9918.759623
402.120301,2834.553343,1850.514855,8808.450710
402.120609,2987.772442,2590.720797,8808.450710
402.120917,3524.039291,666.185348,8808.450710
402.121225,1915.238745,444.123565,9548.656652
402.121533,383.047749,-222.061783,11177.109724
402.121841,-612.876398,-1480.411884,11695.253884
402.122149,-919.314598,-2220.617826,11473.192101
402.122457,-919.314598,-2368.659014,10807.006753
402.122765,153.219100,-2738.761985,9104.533087
402.123073,612.876398,-1258.350101,8142.265362
402.123382,76.609550,-74.020594,7550.100608
402.123690,536.266849,-0.000000,8808.450710
402.123998,919.314598,1628.453072,9104.533087
402.124306,2451.505594,2220.617826,9474.636058
402.124614,3753.867940,2442.679609,8734.430116
402.124922,3600.648841,2146.597232,8512.368333
402.125230,1838.629195,444.123565,9918.759623
402.125538,536.266849,-148.041188,10510.924376
402.125846,-842.705048,-370.102971,11547.212695
402.126154,-1991.848295,-1184.329507,11991.336260
402.126462,-1685.410096,-1184.329507,10732.986159
402.126770,-919.314598,-1036.288319,9474.636058
402.127078,1072.533697,-962.267725,8512.368333
402.127386,1072.533697,814.226536,7254.018232
402.127694,919.314598,962.267725,7920.203579
402.128002,919.314598,1850.514855,8364.327145
402.128310,1532.190996,2664.741391,9992.780217
402.128618,2987.772442,2812.782580,9770.718434
402.128926,2528.115143,2590.720797,8808.450710
402.129235,1991.848295,1184.329507,9844.739029
402.129543,1149.143247,-1036.288319,11843.295072
402.129851,-383.047749,370.102971,11769.274478
402.130159,-1991.848295,-1554.432478,12139.377449
402.130467,-1532.190996,-1998.556043,12139.377449
402.130775,-536.266849,-1776.494261,9844.739029
402.131083,306.438199,-1406.391290,8364.327145
402.131391,1149.143247,-814.226536,7550.100608
402.131699,995.924147,962.267725,7550.100608
402.132007,536.266849,444.123565,9030.512492
402.132315,76.609550,1702.473667,9548.656652
402.132623,2451.505594,2146.597232,10362.883188
402.132931,2068.457845,2072.576638,9400.615463
402.133239,2298.286494,962.267725,9252.574275
402.133547,1455.581446,-1036.288319,11769.274478
402.133855,-842.705048,-740.205942,12139.377449
402.134163,-2451.505594,-2146.597232,13027.624579
402.134471,-1072.533697,-2738.761985,12287.418637
402.134779,-766.095498,-2146.597232,9992.780217
402.135088,0.000000,-1998.556043,9030.512492
402.135396,1532.190996,-1036.288319,7179.997637
402.135704,1302.362347,814.226536,6513.812290
402.136012,689.485948,1332.370696,7476.080014
402.136320,1532.190996,1998.556043,8512.368333
402.136628,1915.238745,2812.782580,9178.553681
402.136936,3064.381992,2886.803174,7994.224174
402.137244,3907.087040,2146.597232,8512.368333
402.137552,2451.505594,1036.288319,10066.800811
402.137860,-306.438199,74.020594,10510.924376
402.138168,-995.924147,-222.061783,11991.336260
402.138476,-2528.115143,-1184.329507,12657.521608
402.138784,-1378.971896,-1702.473667,11325.150913
402.139092,-689.485948,-1702.473667,9548.656652
402.139400,229.828649,-1406.391290,7920.203579
402.139708,1302.362347,-74.020594,6513.812290
402.140016,919.314598,592.164754,8290.306550
402.140324,689.485948,888.247130,9326.594869
402.140632,766.095498,2368.659014,9030.512492
402.140941,2451.505594,2516.700203,10140.821405
402.141249,2451.505594,1924.535449,9326.594869
402.141557,2528.115143,888.247130,10140.821405
402.141865,306.438199,-148.041188,11769.274478
402.142173,-229.828649,-148.041188,11917.315666
402.142481,-1915.238745,-1702.473667,12435.459826
402.142789,-2068.457845,-1628.453072,12361.439231
402.143097,-1149.143247,-1998.556043,10955.047942
402.143405,842.705048,-1998.556043,8142.265362
402.143713,1072.533697,-0.000000,6809.894666
402.144021,995.924147,-592.164754,7920.203579
402.144329,1608.800546,666.185348,8882.471304
402.144637,689.485948,1628.453072,9104.533087
402.144945,2528.115143,2442.679609,9474.636058
402.145253,3370.820191,2664.741391,8808.450710
402.145561,2528.115143,1702.473667,9030.512492
402.145869,1302.362347,-0.000000,10807.006753
402.146177,919.314598,148.041188,11843.295072
402.146485,-995.924147,-592.164754,11325.150913
402.146794,-1302.362347,-1850.514855,12583.501014
402.147102,0.000000,-1554.432478,10362.883188
402.147410,383.047749,-1628.453072,9030.512492
402.147718,1455.581446,-740.205942,7698.141797
402.148026,1149.143247,666.185348,6217.729913
402.148334,1302.362347,740.205942,8586.388927
402.148642,153.219100,1480.411884,9104.533087
402.148950,2145.067394,2442.679609,8438.347739
402.149258,3370.820191,2812.782580,8364.327145
402.149566,2757.943793,3034.844362,8216.285956
402.149874,2145.067394,148.041188,10288.862594
402.150182,459.657299,444.123565,11843.295072
402.150490,-1455.581446,-222.061783,12139.377449
402.150798,-2451.505594,-1480.411884,12287.418637
402.151106,-1455.581446,-1406.391290,12065.356855
402.151414,-229.828649,-2294.638420,9844.739029
402.151722,612.876398,-1628.453072,7698.141797
402.152030,1225.752797,-592.164754,6365.771101
402.152339,1455.581446,-0.000000,7476.080014
402.152647,919.314598,1258.350101,9104.533087
402.152955,1532.190996,2368.659014,8734.430116
402.153263,3217.601092,2738.761985,8512.368333
402.153571,3370.820191,3034.844362,8290.306550
402.153879,2528.115143,1258.350101,9178.553681
402.154187,689.485948,-666.185348,11769.274478
402.154495,-919.314598,-888.247130,12213.398043
402.154803,-2451.505594,-2664.741391,13101.645173
402.155111,-2145.067394,-3552.988522,13545.768739
402.155419,-1685.410096,-2886.803174,10955.047942
402.155727,-306.438199,-2072.576638,8290.306550
402.156035,1072.533697,-1258.350101,6957.935855
402.156343,995.924147,888.247130,7402.059420
402.156651,1149.143247,518.144159,8512.368333
402.156959,1608.800546,2368.659014,7920.203579
402.157267,3217.601092,3256.906145,6883.915261
402.157575,3907.087040,3552.988522,6957.935855
402.157883,3370.820191,3256.906145,7772.162391
402.158192,1915.238745,444.123565,9992.780217
402.158500,-306.438199,296.082377,11251.130318
402.158808,-1915.238745,-518.144159,13101.645173
402.159116,-3140.991542,-2664.741391,13915.871710
402.159424,-2681.334243,-2886.803174,11843.295072
402.159732,-612.876398,-3404.947333,10807.006753
402.160040,0.000000,-1776.494261,7328.038826
402.160348,919.314598,-296.082377,7105.977043
402.160656,995.924147,740.205942,8216.285956
402.160964,1149.143247,1332.370696,8364.327145
402.161272,2068.457845,2886.803174,7846.182985
402.161580,4060.306139,3627.009116,7846.182985
402.161888,3600.648841,3330.926739,7698.141797
402.162196,2681.334243,1332.370696,8734.430116
402.162504,1149.143247,-0.000000,12287.418637
402.162812,-1149.143247,-444.123565,12065.356855
402.163120,-2374.896044,-2664.741391,14434.015869
402.163428,-2911.162892,-2664.741391,13249.686362
402.163736,-1455.581446,-3182.885551,11399.171507
402.164045,229.828649,-2590.720797,8808.450710
402.164353,1225.752797,222.061783,6661.853478
402.164661,1762.019645,222.061783,7772.162391
402.164969,766.095498,1406.391290,8364.327145
402.165277,1991.848295,2590.720797,8290.306550
402.165585,3294.210641,3997.112087,7624.121203
402.165893,3677.258390,3923.091493,7550.100608
402.166201,2681.334243,2146.597232,8734.430116
402.166509,1225.752797,444.123565,11103.089130
402.166817,-536.266849,-222.061783,12287.418637
402.167125,-3140.991542,-1850.514855,12953.603985
402.167433,-2757.943793,-3108.864956,14211.954086
402.167741,-2911.162892,-2886.803174,11103.089130
402.168049,-995.924147,-2664.741391,10214.842000
402.168357,919.314598,-592.164754,7402.059420
402.168665,1149.143247,666.185348,6957.935855
402.168973,1532.190996,296.082377,8660.409521
402.169281,2145.067394,2442.679609,7179.997637
402.169589,3217.601092,3775.050304,6957.935855
402.169898,4060.306139,4071.132681,7846.182985
402.170206,3983.696590,3775.050304,7328.038826
402.170514,2298.286494,1258.350101,9326.594869
402.170822,383.047749,-0.000000,12139.377449
402.171130,-1072.533697,-1036.288319,12361.439231
402.171438,-3140.991542,-2146.597232,13545.768739
402.171746,-2681.334243,-4219.173869,14063.912898
402.172054,-2068.457845,-2738.761985,9918.759623
402.172362,306.438199,-2294.638420,9030.512492
402.172670,766.095498,-1184.329507,7698.141797
402.172978,842.705048,-0.000000,7994.224174
402.173286,1378.971896,1110.308913,9326.594869
402.173594,2528.115143,2664.741391,7179.997637
402.173902,4136.915689,4219.173869,7105.977043
402.174210,4060.306139,4293.194464,7846.182985
402.174518,3064.381992,2516.700203,8808.450710
402.174826,842.705048,740.205942,10510.924376
402.175134,-536.266849,-0.000000,11547.212695
402.175438,-2757.943793,-2146.597232,14063.912898
402.175746,-3064.381992,-3701.029710,13249.686362
402.176054,-1838.629195,-3330.926739,11399.171507
402.176362,-1302.362347,-2590.720797,9400.615463
402.176670,0.000000,-1628.453072,7772.162391
402.176978,689.485948,296.082377,8216.285956
402.177286,1225.752797,1184.329507,8882.471304
402.177594,1915.238745,2294.638420,7476.080014
402.177902,3753.867940,4293.194464,6809.894666
402.178210,4749.792088,4441.235652,7402.059420
402.178518,4443.353888,2368.659014,8068.244768
402.178827,1838.629195,1406.391290,9622.677246
402.179135,0.000000,-148.041188,11547.212695
402.179443,-1685.410096,-1480.411884,12361.439231
402.179751,-3447.429741,-2294.638420,13175.665768
402.180059,-2451.505594,-3330.926739,13175.665768
402.180367,-1762.019645,-2960.823768,9104.533087
402.180675,-689.485948,-1924.535449,8216.285956
402.180983,612.876398,-1184.329507,8808.450710
402.181291,842.705048,296.082377,8512.368333
402.181599,1532.190996,1554.432478,8808.450710
402.181907,2374.896044,2812.782580,7402.059420
402.182215,4903.011187,4367.215058,7105.977043
402.182524,4366.744339,3923.091493,7105.977043
402.182832,3294.210641,1850.514855,8216.285956
402.183140,612.876398,1258.350101,10955.047942
402.183448,-383.047749,-814.226536,12953.603985
402.183756,-3677.258390,-2294.638420,14211.954086
402.184064,-3294.210641,-3627.009116,13693.809927
402.184372,-2145.067394,-3478.967927,10955.047942
402.184680,-1532.190996,-2368.659014,9400.615463
402.184988,0.000000,-1258.350101,8216.285956
402.185296,612.876398,888.247130,8290.306550
402.185604,1072.533697,962.267725,9474.636058
402.185912,1991.848295,2738.761985,7550.100608
402.186221,4519.963438,3923.091493,7476.080014
402.186529,4366.744339,3849.070898,8290.306550
402.186837,3370.820191,2516.700203,8216.285956
402.187145,2221.676944,1184.329507,9622.677246
402.187453,-459.657299,-370.102971,11621.233289
402.187761,-1991.848295,-1184.329507,12805.562797
402.188069,-2451.505594,-2960.823768,13101.645173
402.188377,-2757.943793,-2664.741391,11399.171507
402.188685,-1149.143247,-3552.988522,9548.656652
402.188993,-153.219100,-1258.350101,7698.141797
402.189301,306.438199,-518.144159,8216.285956
402.189609,1072.533697,962.267725,8512.368333
402.189918,1838.629195,1702.473667,7624.121203
402.190226,2604.724693,3997.112087,7402.059420
402.190534,5132.839837,3330.926739,7994.224174
402.190842,3524.039291,3330.926739,7105.977043
402.191150,2374.896044,888.247130,9030.512492
402.191458,766.095498,-296.082377,10732.986159
402.191766,-459.657299,-740.205942,11991.336260
402.192074,-2451.505594,-2812.782580,12731.542202
402.192382,-2451.505594,-2886.803174,11473.192101
402.192690,-1302.362347,-3701.029710,10881.027347
402.192998,-766.095498,-3182.885551,9474.636058
402.193306,0.000000,-1480.411884,8216.285956
402.193615,1378.971896,370.102971,7994.224174
402.193923,1532.190996,518.144159,8808.450710
402.194231,2681.334243,3034.844362,6957.935855
402.194539,4290.134789,4293.194464,6661.853478
402.194847,5209.449386,3552.988522,7550.100608
402.195155,3064.381992,2960.823768,7402.059420
402.195463,1838.629195,962.267725,10140.821405
402.195771,689.485948,-222.061783,12065.356855
402.196079,-1838.629195,-1480.411884,12361.439231
402.196387,-2451.505594,-2960.823768,12879.583391
402.196695,-2451.505594,-3108.864956,11177.109724
402.197004,-2451.505594,-3034.844362,10214.842000
402.197312,-383.047749,-1998.556043,9104.533087
402.197620,153.219100,-0.000000,8068.244768
402.197928,689.485948,740.205942,8586.388927
402.198236,1915.238745,1406.391290,8068.244768
402.198544,3677.258390,4589.276840,7402.059420
402.198852,4366.744339,3108.864956,7920.203579
402.199160,4290.134789,3701.029710,8068.244768
402.199468,2451.505594,2368.659014,8882.471304
402.199776,689.485948,740.205942,11103.089130
402.200084,-919.314598,-148.041188,11769.274478
402.200392,-2068.457845,-1554.432478,12287.418637
402.200701,-2374.896044,-2812.782580,10881.027347
402.201009,-1991.848295,-2960.823768,9474.636058
402.201317,-459.657299,-2738.761985,8956.491898
402.201625,-383.047749,-814.226536,8882.471304
402.201933,0.000000,-148.041188,9104.533087
402.202241,689.485948,518.144159,9474.636058
402.202549,2068.457845,2072.576638,9104.533087
402.202857,4213.525239,2812.782580,8512.368333
402.203165,4060.306139,2812.782580,9104.533087
402.203473,2681.334243,1184.329507,9622.677246
402.203781,766.095498,222.061783,11325.150913
402.204089,0.000000,222.061783,11695.253884
402.204398,-1532.190996,-1480.411884,12361.439231
402.204706,-2145.067394,-2368.659014,11547.212695
402.205014,-1532.190996,-2442.679609,10288.862594
402.205322,-1225.752797,-2072.576638,9104.533087
402.205630,-612.876398,-1406.391290,8142.265362
402.205938,-383.047749,-0.000000,8586.388927
402.206246,919.314598,222.061783,9992.780217
402.206554,1149.143247,1924.535449,7920.203579
402.206862,2757.943793,2960.823768,8364.327145
402.207170,3600.648841,3330.926739,9030.512492
402.207478,2451.505594,2368.659014,9326.594869
402.207786,1762.019645,1110.308913,10288.862594
402.208095,229.828649,740.205942,10362.883188
402.208403,-766.095498,-444.123565,11547.212695
402.208711,-1915.238745,-1702.473667,11103.089130
402.209019,-1915.238745,-1628.453072,10658.965565
402.209327,-919.314598,-1628.453072,9474.636058
402.209635,0.000000,-1776.494261,8068.244768
402.209943,-612.876398,-74.020594,7846.182985
402.210251,995.924147,-888.247130,8882.471304
402.210559,766.095498,592.164754,8438.347739
402.210867,1991.848295,2294.638420,8956.491898
402.211175,3294.210641,2738.761985,8956.491898
402.211483,3524.039291,2368.659014,8660.409521
402.211792,2528.115143,1554.432478,9400.615463
402.212100,1608.800546,1184.329507,10214.842000
402.212408,1149.143247,-0.000000,10584.944971
402.212716,-536.266849,-1110.308913,10658.965565
402.213024,-919.314598,-1110.308913,10140.821405
402.213332,-766.095498,-2886.803174,9844.739029
402.213640,-612.876398,-2368.659014,9252.574275
402.213948,229.828649,-814.226536,7402.059420
402.214256,229.828649,-592.164754,8956.491898
402.214564,459.657299,-222.061783,9474.636058
402.214872,1455.581446,1184.329507,9178.553681
402.215180,3064.381992,2368.659014,10288.862594
402.215489,3753.867940,2368.659014,8734.430116
402.215797,3294.210641,1998.556043,8438.347739
402.216105,1455.581446,814.226536,10510.924376
402.216413,459.657299,-148.041188,11325.150913
402.216721,-612.876398,-1332.370696,11325.150913
402.217029,-1915.238745,-1702.473667,10362.883188
402.217337,-1532.190996,-2368.659014,10732.986159
402.217645,-536.266849,-2220.617826,9844.739029
402.217953,-383.047749,-1258.350101,8808.450710
402.218261,-306.438199,-740.205942,8956.491898
402.218569,306.438199,148.041188,8660.409521
402.218877,1072.533697,1776.494261,8142.265362
402.219186,1915.238745,3552.988522,9030.512492
402.219494,4366.744339,4145.153275,8586.388927
402.219802,4213.525239,4219.173869,6883.915261
402.220110,2757.943793,2516.700203,8216.285956
402.220418,1608.800546,740.205942,10214.842000
402.220726,76.609550,518.144159,10214.842000
402.221034,-1225.752797,-814.226536,11769.274478
402.221342,-1378.971896,-1036.288319,11177.109724
402.221650,-1685.410096,-1480.411884,9918.759623
402.221958,-1149.143247,-1776.494261,9918.759623
402.222266,-612.876398,-1776.494261,9548.656652
402.222574,-229.828649,-1184.329507,9252.574275
402.222883,229.828649,296.082377,9474.636058
402.223191,1302.362347,1110.308913,9252.574275
402.223499,2757.943793,2368.659014,8660.409521
402.223807,3753.867940,1998.556043,9252.574275
402.224115,3064.381992,1850.514855,9104.533087
402.224423,2221.676944,666.185348,9474.636058
402.224731,1149.143247,-0.000000,10510.924376
402.225039,0.000000,-814.226536,11251.130318
402.225347,-536.266849,-1406.391290,10881.027347
402.225655,-919.314598,-1776.494261,10214.842000
402.225963,-1149.143247,-2664.741391,8808.450710
402.226272,-612.876398,-888.247130,8216.285956
402.226580,0.000000,-370.102971,8882.471304
402.226888,229.828649,740.205942,9104.533087
402.227196,229.828649,1702.473667,9770.718434
402.227504,1685.410096,1554.432478,10362.883188
402.227812,2757.943793,2146.597232,9326.594869
402.228120,1915.238745,1628.453072,9030.512492
402.228428,1149.143247,444.123565,10066.800811
402.228736,689.485948,-0.000000,10584.944971
402.229044,-1225.752797,-148.041188,10214.842000
402.229352,-919.314598,-1184.329507,11473.192101
402.229660,0.000000,-1332.370696,8660.409521
402.229969,-1838.629195,-1332.370696,7920.203579
402.230277,0.000000,-1332.370696,10140.821405
402.230585,-306.438199,-444.123565,8364.327145
402.230893,-153.219100,888.247130,9548.656652
402.231201,0.000000,1110.308913,7994.224174
402.231509,2068.457845,2516.700203,10362.883188
402.231817,2604.724693,1554.432478,9918.759623
402.232125,1685.410096,2146.597232,8438.347739
402.232433,2298.286494,296.082377,9918.759623
402.232741,536.266849,-0.000000,9548.656652
402.233049,-612.876398,-1258.350101,12213.398043
402.233357,-1378.971896,-296.082377,10955.047942
402.233666,-689.485948,-1184.329507,10658.965565
402.233974,-306.438199,-1924.535449,9474.636058
402.234282,-536.266849,-592.164754,7254.018232
402.234590,1149.143247,-74.020594,8586.388927
402.234898,-1072.533697,444.123565,8586.388927
402.235206,689.485948,666.185348,9178.553681
402.235514,1225.752797,1702.473667,9178.553681
402.235822,2681.334243,2368.659014,8660.409521
402.236130,3217.601092,2368.659014,8882.471304
402.236438,1915.238745,1776.494261,9548.656652
402.236746,1455.581446,-370.102971,11843.295072
402.237054,-536.266849,-1332.370696,11843.295072
402.237363,-1149.143247,-1628.453072,11843.295072
402.237671,-2221.676944,-1702.473667,11251.130318
402.237979,-689.485948,-2590.720797,10732.986159
402.238287,0.000000,-1332.370696,8956.491898
402.238595,306.438199,370.102971,7476.080014
402.238903,1149.143247,888.247130,7476.080014
402.239211,995.924147,1998.556043,7624.121203
402.239519,2145.067394,2368.659014,7846.182985
402.239827,2834.553343,3108.864956,8734.430116
402.240135,2987.772442,2146.597232,9178.553681
402.240443,2451.505594,1702.473667,8882.471304
402.240751,766.095498,-0.000000,11177.109724
402.241060,-229.828649,-740.205942,11991.336260
402.241368,-1149.143247,-592.164754,11843.295072
402.241676,-1378.971896,-1258.350101,12139.377449
402.241984,-766.095498,-1924.535449,10288.862594
402.242292,-383.047749,-1702.473667,7772.162391
402.242600,842.705048,-518.144159,8290.306550
402.242908,689.485948,74.020594,7254.018232
402.243216,1302.362347,1258.350101,7772.162391
402.243524,766.095498,1258.350101,8216.285956
402.243832,1685.410096,2072.576638,9474.636058
402.244140,2604.724693,1850.514855,9474.636058
402.244448,2451.505594,1776.494261,9252.574275
402.244757,1608.800546,-0.000000,10658.965565
402.245065,459.657299,-1998.556043,11029.068536
402.245373,-766.095498,-1702.473667,12509.480420
402.245681,-1991.848295,-1628.453072,11399.171507
402.245989,-1072.533697,-1998.556043,11029.068536
402.246297,306.438199,-1924.535449,9844.739029
402.246605,459.657299,-888.247130,8068.244768
402.246913,1455.581446,-0.000000,7402.059420
402.247221,2298.286494,1406.391290,7698.141797
402.247529,2068.457845,2368.659014,7402.059420
402.247837,1915.238745,2442.679609,7994.224174
402.248145,2681.334243,2368.659014,8882.471304
402.248454,3447.429741,2294.638420,8956.491898
402.248762,1532.190996,962.267725,9474.636058
402.249070,76.609550,-962.267725,11251.130318
402.249378,-919.314598,-1850.514855,13323.706956
402.249686,-2374.896044,-1628.453072,11917.315666
402.249994,-2451.505594,-2146.597232,10955.047942
402.250302,-612.876398,-2220.617826,9992.780217
402.250610,153.219100,-888.247130,7846.182985
402.250918,459.657299,222.061783,7031.956449
402.251226,1608.800546,962.267725,7698.141797
402.251534,1532.190996,2294.638420,7698.141797
402.251842,1455.581446,2368.659014,8068.244768
402.252151,2374.896044,2738.761985,9104.533087
402.252459,3064.381992,2886.803174,9918.759623
402.252767,1532.190996,1998.556043,10288.862594
402.253075,459.657299,-0.000000,11103.089130
402.253383,-536.266849,-1628.453072,12953.603985
402.253691,-1838.629195,-1850.514855,12731.542202
402.253999,-1915.238745,-1924.535449,11695.253884
402.254307,-1072.533697,-1850.514855,10732.986159
402.254615,306.438199,-1924.535449,9696.697840
402.254923,1378.971896,-888.247130,7994.224174
402.255231,1302.362347,740.205942,6439.791695
402.255539,1225.752797,1776.494261,7624.121203
402.255848,1762.019645,1924.535449,8808.450710
402.256156,1915.238745,3627.009116,8142.265362
402.256464,3677.258390,2960.823768,9030.512492
402.256772,2911.162892,2368.659014,9030.512492
402.257080,1378.971896,1036.288319,10658.965565
402.257388,153.219100,-1702.473667,12583.501014
402.257696,-842.705048,-2146.597232,13027.624579
402.258004,-2451.505594,-1924.535449,11917.315666
402.258312,-1915.238745,-3330.926739,12139.377449
402.258620,-2145.067394,-2220.617826,10214.842000
402.258928,383.047749,-2294.638420,9992.780217
402.259237,229.828649,296.082377,7476.080014
402.259545,919.314598,1332.370696,7254.018232
402.259853,1991.848295,2442.679609,8438.347739
402.260161,1991.848295,3775.050304,7328.038826
402.260469,2911.162892,3997.112087,7402.059420
402.260777,3753.867940,3775.050304,8956.491898
402.261085,2604.724693,2442.679609,9178.553681
402.261393,76.609550,-296.082377,10510.924376
402.261701,229.828649,-1554.432478,13471.748144
402.262009,-2528.115143,-1332.370696,11843.295072
402.262317,-2604.724693,-2590.720797,12805.562797
402.262625,-995.924147,-2220.617826,11103.089130
402.262934,-1225.752797,-2146.597232,9622.677246
402.263242,383.047749,-1406.391290,9104.533087
402.263550,1072.533697,666.185348,6217.729913
402.263858,1532.190996,1332.370696,7328.038826
402.264166,1685.410096,1924.535449,8068.244768
402.264474,2911.162892,2590.720797,7402.059420
402.264782,3370.820191,2886.803174,8660.409521
402.265090,2834.553343,1628.453072,8586.388927
402.265398,1072.533697,-0.000000,10881.027347
402.265706,0.000000,-1332.370696,12509.480420
402.266014,-1532.190996,-2220.617826,13323.706956
402.266322,-2451.505594,-2812.782580,12583.501014
402.266631,-2298.286494,-2664.741391,11325.150913
402.266939,-1225.752797,-2664.741391,9696.697840
402.267247,229.828649,-1702.473667,7624.121203
402.267555,842.705048,740.205942,6439.791695
402.267863,1302.362347,1554.432478,6809.894666
402.268171,1532.190996,1924.535449,7105.977043
402.268479,2221.676944,3034.844362,7254.018232
402.268787,4443.353888,3182.885551,7624.121203
402.269095,3524.039291,3034.844362,8142.265362
402.269403,1378.971896,592.164754,9844.739029
402.269711,153.219100,-1628.453072,11917.315666
402.270019,-1378.971896,-1406.391290,12435.459826
402.270328,-2451.505594,-2294.638420,12287.418637
402.270636,-2451.505594,-2590.720797,11769.274478
402.270944,-1302.362347,-2812.782580,10584.944971
402.271252,383.047749,-1554.432478,8512.368333
402.271560,919.314598,-0.000000,7476.080014
402.271868,1762.019645,1332.370696,7105.977043
402.272176,2604.724693,2368.659014,7698.141797
402.272484,2374.896044,3034.844362,7402.059420
402.272792,3907.087040,4145.153275,7624.121203
402.273100,4366.744339,3701.029710,7846.182985
402.273408,2681.334243,2294.638420,8808.450710
402.273716,306.438199,-518.144159,11547.212695
402.274025,-1378.971896,-1776.494261,13619.789333
402.274333,-2757.943793,-3404.947333,14137.933492
402.274641,-3217.601092,-3478.967927,13027.624579
402.274949,-2374.896044,-3330.926739,11695.253884
402.275257,-766.095498,-2516.700203,10510.924376
402.275565,536.266849,-1110.308913,7920.203579
402.275873,2068.457845,1258.350101,6587.832884
402.276181,2834.553343,1924.535449,7550.100608
402.276489,3983.696590,3627.009116,7105.977043
402.276797,3983.696590,3997.112087,7772.162391
402.277105,4749.792088,4293.194464,8660.409521
402.277413,4290.134789,3256.906145,8808.450710
402.277722,1455.581446,666.185348,10658.965565
402.278030,-229.828649,-1480.411884,13545.768739
402.278338,-1838.629195,-2220.617826,13101.645173
402.278646,-3830.477490,-3034.844362,12879.583391
402.278954,-2681.334243,-3552.988522,13323.706956
402.279262,-2145.067394,-2220.617826,10214.842000
402.279570,383.047749,-2368.659014,10214.842000
402.279878,1149.143247,1110.308913,7402.059420
402.280186,2298.286494,1258.350101,7624.121203
402.280494,1915.238745,3108.864956,7105.977043
402.280802,3907.087040,4441.235652,6661.853478
402.281110,4519.963438,5329.482782,7476.080014
402.281418,3753.867940,4959.379811,7105.977043
402.281727,3830.477490,1110.308913,10140.821405
402.282035,-536.266849,-74.020594,11029.068536
402.282343,-1915.238745,-1850.514855,12879.583391
402.282651,-3600.648841,-2738.761985,13619.789333
402.282959,-3600.648841,-3182.885551,12879.583391
402.283267,-2528.115143,-2442.679609,12139.377449
402.283575,-1149.143247,-2072.576638,10140.821405
402.283883,1532.190996,-296.082377,8142.265362
402.284191,919.314598,740.205942,7402.059420
402.284499,1608.800546,1258.350101,7105.977043
402.284807,1991.848295,2812.782580,7402.059420
402.285115,3830.477490,3775.050304,7550.100608
402.285423,4596.572988,3997.112087,7772.162391
402.285732,3447.429741,2368.659014,8438.347739
402.286040,1915.238745,-74.020594,10955.047942
402.286348,-383.047749,-1036.288319,12065.356855
402.286656,-1532.190996,-2368.659014,12879.583391
402.286964,-2987.772442,-3330.926739,12879.583391
402.287272,-2374.896044,-3034.844362,11473.192101
402.287580,-2374.896044,-3034.844362,10214.842000
402.287888,-459.657299,-1702.473667,9104.533087
402.288196,995.924147,740.205942,6735.874072
402.288504,1991.848295,1332.370696,6809.894666
402.288812,2757.943793,2664.741391,6957.935855
402.289120,4060.306139,3997.112087,6957.935855
402.289428,4290.134789,4589.276840,7402.059420
402.289737,3983.696590,3034.844362,8068.244768
402.290045,3140.991542,444.123565,10807.006753
402.290353,0.000000,-888.247130,11399.171507
402.290661,-1608.800546,-1702.473667,12213.398043
402.290969,-2834.553343,-3627.009116,13841.851115
402.291277,-3217.601092,-2960.823768,13027.624579
402.291585,-3447.429741,-2664.741391,10955.047942
402.291893,-1378.971896,-1258.350101,10214.842000
402.292201,689.485948,666.185348,7698.141797
402.292509,383.047749,2368.659014,7031.956449
402.292817,1302.362347,2368.659014,8068.244768
402.293125,3217.601092,4219.173869,8586.388927
402.293433,4060.306139,5033.400406,8142.265362
402.293742,3677.258390,4811.338623,8438.347739
402.294050,3217.601092,3034.844362,9548.656652
402.294358,612.876398,-222.061783,11251.130318
402.294666,-1915.238745,-1036.288319,12139.377449
402.294974,-2604.724693,-2664.741391,12805.562797
402.295282,-3140.991542,-3552.988522,13175.665768
402.295590,-3524.039291,-3478.967927,10881.027347
402.295898,-1685.410096,-2442.679609,10584.944971
402.296206,842.705048,-2220.617826,9844.739029
402.296514,612.876398,-0.000000,6217.729913
402.296822,689.485948,1258.350101,7105.977043
402.297130,3447.429741,1628.453072,8586.388927
402.297438,3677.258390,4515.256246,7105.977043
402.297747,4443.353888,4293.194464,7105.977043
402.298055,4903.011187,2960.823768,9252.574275
402.298363,2221.676944,-0.000000,9326.594869
402.298671,229.828649,-1554.432478,11917.315666
402.298979,-1455.581446,-2368.659014,11843.295072
402.299287,-2911.162892,-3627.009116,12657.521608
402.299595,-2987.772442,-3330.926739,11473.192101
402.299903,-2451.505594,-3182.885551,10140.821405
402.300211,-383.047749,-3256.906145,10140.821405
402.300519,459.657299,-1184.329507,7254.018232
402.300827,2221.676944,1036.288319,5847.626942
402.301135,2145.067394,1332.370696,6735.874072
402.301443,3524.039291,2664.741391,7402.059420
402.301752,4366.744339,4293.194464,7328.038826
402.302060,4903.011187,3775.050304,7698.141797
402.302368,2451.505594,1332.370696,7846.182985
402.302676,689.485948,-518.144159,10881.027347
402.302984,-689.485948,-1406.391290,12879.583391
402.303292,-3140.991542,-1998.556043,11473.192101
402.303600,-1915.238745,-2368.659014,11991.336260
402.303908,-2987.772442,-1554.432478,10881.027347
402.304216,-1685.410096,-2738.761985,10436.903782
402.304524,459.657299,-74.020594,8068.244768
402.304832,1072.533697,1406.391290,7105.977043
402.305140,919.314598,1406.391290,7846.182985
402.305448,2987.772442,2368.659014,7994.224174
402.305757,3983.696590,4219.173869,7846.182985
402.306065,4213.525239,3182.885551,8142.265362
402.306373,3753.867940,2220.617826,8808.450710
402.306681,1762.019645,-0.000000,10214.842000
402.306989,153.219100,-740.205942,11843.295072
402.307297,-1762.019645,-1110.308913,11917.315666
402.307605,-1991.848295,-2368.659014,12879.583391
402.307913,-2145.067394,-2590.720797,11769.274478
402.308221,-1762.019645,-2886.803174,9696.697840
402.308529,383.047749,-2072.576638,9400.615463
402.308837,842.705048,-148.041188,8364.327145
402.309145,919.314598,1036.288319,8290.306550
402.309453,919.314598,1776.494261,9252.574275
402.309762,2987.772442,3701.029710,8586.388927
402.310070,3600.648841,3404.947333,8882.471304
402.310378,3907.087040,3108.864956,9474.636058
402.310686,2911.162892,666.185348,9696.697840
402.310994,536.266849,-222.061783,11843.295072
402.311302,-536.266849,-1332.370696,12213.398043
402.311610,-1838.629195,-2072.576638,11991.336260
402.311918,-2298.286494,-2220.617826,11473.192101
402.312226,-1608.800546,-2368.659014,10140.821405
402.312534,383.047749,-1258.350101,9178.553681
402.312842,383.047749,148.041188,7328.038826
402.313150,919.314598,1406.391290,7328.038826
402.313458,1378.971896,1184.329507,8216.285956
402.313767,1762.019645,3182.885551,9104.533087
402.314075,3370.820191,3108.864956,9326.594869
402.314383,3447.429741,3997.112087,9178.553681
402.314691,2145.067394,1332.370696,10066.800811
402.314999,766.095498,-0.000000,10881.027347
402.315307,-153.219100,-222.061783,11695.253884
402.315615,-1915.238745,-1850.514855,11769.274478
402.315923,-2298.286494,-2072.576638,11325.150913
402.316231,-1455.581446,-2590.720797,10807.006753
402.316539,-612.876398,-2220.617826,9622.677246
402.316847,-612.876398,-1406.391290,8290.306550
402.317155,76.609550,-148.041188,8438.347739
402.317463,-459.657299,222.061783,8586.388927
402.317772,1532.190996,1110.308913,9104.533087
402.318080,2681.334243,2812.782580,9030.512492
402.318388,3600.648841,3552.988522,8290.306550
402.318696,3830.477490,1850.514855,8512.368333
402.319004,2451.505594,962.267725,9474.636058
402.319312,1149.143247,-370.102971,11103.089130
402.319620,-689.485948,-1406.391290,10881.027347
402.319928,-1608.800546,-2590.720797,11251.130318
402.320236,-2068.457845,-3552.988522,10584.944971
402.320544,-766.095498,-2442.679609,9696.697840
402.320852,153.219100,-2146.597232,9770.718434
402.321160,-153.219100,-740.205942,8364.327145
402.321468,153.219100,740.205942,7402.059420
402.321777,842.705048,814.226536,8068.244768
402.322085,2298.286494,2442.679609,7994.224174
402.322393,3294.210641,3627.009116,8734.430116
402.322701,4290.134789,3330.926739,8734.430116
402.323009,3217.601092,1628.453072,9474.636058
402.323317,1302.362347,592.164754,10362.883188
402.323625,-153.219100,-1036.288319,11473.192101
402.323933,-1302.362347,-1628.453072,11547.212695
402.324241,-2068.457845,-1702.473667,10955.047942
402.324549,-1838.629195,-2294.638420,10732.986159
402.324857,-842.705048,-1702.473667,9326.594869
402.325165,229.828649,-740.205942,8142.265362
402.325473,383.047749,444.123565,7624.121203
402.325782,1302.362347,1554.432478,8290.306550
402.326090,1838.629195,2072.576638,9474.636058
402.326398,2528.115143,3627.009116,8808.450710
402.326706,3217.601092,3108.864956,8956.491898
402.327014,3294.210641,2146.597232,10288.862594
402.327322,1608.800546,444.123565,9622.677246
402.327630,0.000000,148.041188,11177.109724
402.327938,-842.705048,-1924.535449,12509.480420
402.328246,-1762.019645,-1184.329507,11843.295072
402.328554,-1225.752797,-1776.494261,11251.130318
402.328862,-766.095498,-1258.350101,9400.615463
402.329170,383.047749,-740.205942,8438.347739
402.329478,919.314598,962.267725,7994.224174
402.329787,306.438199,1258.350101,8882.471304
402.330095,766.095498,1258.350101,9844.739029
402.330403,1685.410096,2590.720797,9400.615463
402.330711,3217.601092,3108.864956,9326.594869
402.331019,2528.115143,1850.514855,9622.677246
402.331327,1225.752797,518.144159,10658.965565
402.331635,1149.143247,-444.123565,11325.150913
402.331943,-1149.143247,-1480.411884,10881.027347
402.332251,-842.705048,-1702.473667,11547.212695
402.332559,-766.095498,-1776.494261,11029.068536
402.332867,-919.314598,-1406.391290,9400.615463
402.333175,459.657299,-1628.453072,9104.533087
402.333483,1532.190996,962.267725,6957.935855
402.333792,306.438199,1628.453072,7031.956449
402.334100,919.314598,1184.329507,8142.265362
402.334408,2681.334243,2664.741391,8512.368333
402.334716,2374.896044,3182.885551,8586.388927
402.335024,2068.457845,1998.556043,10066.800811
402.335332,1991.848295,-74.020594,10288.862594
402.335640,-153.219100,-740.205942,11325.150913
402.335948,-1455.581446,-1998.556043,12879.583391
402.336256,-1302.362347,-1850.514855,11621.233289
402.336564,-1838.629195,-1554.432478,10807.006753
402.336872,-1608.800546,-1998.556043,10584.944971
402.337180,1149.143247,-1406.391290,7920.203579
402.337489,1378.971896,518.144159,7105.977043
402.337797,459.657299,1332.370696,6439.791695
402.338105,3064.381992,-222.061783,9622.677246
402.338413,536.266849,2516.700203,7105.977043
402.338721,1455.581446,2664.741391,9622.677246
402.339029,3753.867940,1850.514855,10362.883188
402.339337,1762.019645,2368.659014,8142.265362
402.339645,1225.752797,-1258.350101,12213.398043
402.339953,766.095498,-1554.432478,11473.192101
402.340261,-689.485948,-2886.803174,11843.295072
402.340569,-1915.238745,-2516.700203,12657.521608
402.340877,-842.705048,-1924.535449,10214.842000
402.341185,0.000000,-1924.535449,9844.739029
402.341494,919.314598,-888.247130,7550.100608
402.341802,1762.019645,1554.432478,5477.523971
402.342110,1149.143247,1554.432478,6661.853478
402.342418,1762.019645,1850.514855,8290.306550
402.342726,1915.238745,3701.029710,8364.327145
402.343034,2681.334243,2886.803174,9696.697840
402.343342,2987.772442,1702.473667,9992.780217
402.343650,919.314598,592.164754,9548.656652
402.343958,1532.190996,-1258.350101,12509.480420
402.344266,-1302.362347,-1184.329507,11769.274478
402.344574,-995.924147,-1702.473667,11547.212695
402.344882,-995.924147,-814.226536,10658.965565
402.345190,0.000000,-1628.453072,10732.986159
402.345499,1149.143247,-1480.411884,8068.244768
402.345807,1225.752797,1110.308913,5847.626942
402.346115,1838.629195,1184.329507,7328.038826
402.346423,1072.533697,1480.411884,8068.244768
402.346731,1762.019645,2590.720797,9548.656652
402.347039,1608.800546,2812.782580,8882.471304
402.347347,2757.943793,2146.597232,10436.903782
402.347655,2145.067394,1924.535449,9918.759623
402.347963,459.657299,-222.061783,11473.192101
402.348271,-153.219100,-1628.453072,12805.562797
402.348579,-1455.581446,-1850.514855,12287.418637
402.348887,-1378.971896,-1998.556043,12065.356855
402.349195,-1608.800546,-1924.535449,10362.883188
402.349504,689.485948,-1480.411884,10214.842000
402.349812,1225.752797,518.144159,7624.121203
402.350120,1455.581446,1628.453072,6365.771101
402.350428,1915.238745,1702.473667,7476.080014
402.350736,1685.410096,2738.761985,7772.162391
402.351044,1838.629195,2886.803174,9030.512492
402.351352,2757.943793,3034.844362,9030.512492
402.351660,2451.505594,2072.576638,10214.842000
402.351968,766.095498,-592.164754,11843.295072
402.352276,-306.438199,-1998.556043,13249.686362
402.352584,-1991.848295,-2442.679609,12731.542202
402.352892,-1991.848295,-2812.782580,11695.253884
402.353200,-919.314598,-1702.473667,10807.006753
402.353509,-306.438199,-1628.453072,10214.842000
402.353817,995.924147,-444.123565,8068.244768
402.354125,2374.896044,1850.514855,5625.565159
402.354433,2528.115143,2368.659014,6291.750507
402.354741,2451.505594,2812.782580,7105.977043
402.355049,2451.505594,3182.885551,8364.327145
402.355357,3370.820191,2738.761985,8512.368333
402.355665,2374.896044,2442.679609,9252.574275
402.355973,612.876398,296.082377,10584.944971
402.356281,-229.828649,-1998.556043,12287.418637
402.356589,-2451.505594,-2368.659014,13101.645173
402.356897,-3294.210641,-3849.070898,13249.686362
402.357205,-2374.896044,-2960.823768,11695.253884
402.357514,-995.924147,-2368.659014,10658.965565
402.357822,306.438199,-2368.659014,8364.327145
402.358130,1838.629195,222.061783,6957.935855
402.358438,2068.457845,1776.494261,6069.688724
402.358746,1762.019645,2072.576638,7031.956449
402.359054,2145.067394,3034.844362,7254.018232
402.359362,3217.601092,3775.050304,8512.368333
402.359670,2528.115143,3034.844362,8734.430116
402.359978,1838.629195,1110.308913,10214.842000
402.360286,0.000000,-1036.288319,11843.295072
402.360594,-1378.971896,-1776.494261,13323.706956
402.360902,-2451.505594,-3552.988522,12509.480420
402.361210,-3370.820191,-2812.782580,12213.398043
402.361519,-1532.190996,-3478.967927,12139.377449
402.361827,-1302.362347,-2664.741391,9770.718434
402.362135,2145.067394,-666.185348,7476.080014
402.362443,1378.971896,1480.411884,5921.647536
402.362751,2528.115143,2368.659014,5995.668130
402.363059,2528.115143,3182.885551,6957.935855
402.363367,2681.334243,3849.070898,7550.100608
402.363675,3524.039291,3923.091493,7994.224174
402.363983,3217.601092,3478.967927,9252.574275
402.364291,1302.362347,370.102971,11251.130318
402.364599,-919.314598,-1554.432478,12879.583391
402.364907,-2451.505594,-2664.741391,13471.748144
402.365215,-2757.943793,-3330.926739,13027.624579
402.365524,-2145.067394,-2146.597232,11843.295072
402.365832,-842.705048,-1554.432478,10066.800811
402.366140,229.828649,-1406.391290,8956.491898
402.366448,2374.896044,1406.391290,6143.709319
402.366756,2987.772442,2590.720797,6439.791695
402.367064,2604.724693,2812.782580,6513.812290
402.367372,3217.601092,3849.070898,7328.038826
402.367680,4826.401637,3923.091493,7105.977043
402.367988,2757.943793,2812.782580,9030.512492
402.368296,1302.362347,1184.329507,11325.150913
402.368604,536.266849,-2146.597232,12657.521608
402.368912,-2298.286494,-1850.514855,13693.809927
402.369220,-3140.991542,-3923.091493,14952.160028
402.369529,-2757.943793,-3775.050304,13101.645173
402.369837,-2528.115143,-2368.659014,12583.501014
402.370145,383.047749,-2072.576638,10658.965565
402.370453,766.095498,962.267725,6735.874072
402.370761,1838.629195,2664.741391,7328.038826
402.371069,1608.800546,2146.597232,7772.162391
402.371377,3064.381992,4145.153275,7031.956449
402.371685,2911.162892,5033.400406,7772.162391
402.371993,3524.039291,3923.091493,8734.430116
402.372301,2068.457845,2294.638420,9030.512492
402.372609,0.000000,-1184.329507,12731.542202
402.372917,-1838.629195,-2442.679609,13841.851115
402.373225,-2451.505594,-3034.844362,12509.480420
402.373534,-3140.991542,-3997.112087,12953.603985
402.373842,-1991.848295,-2886.803174,11843.295072
402.374150,0.000000,-2294.638420,8882.471304
402.374458,1685.410096,-296.082377,7994.224174
402.374766,2911.162892,666.185348,4589.276840
402.375074,2528.115143,2368.659014,4885.359217
402.375382,2987.772442,2812.782580,6735.874072
402.375690,3830.477490,3701.029710,6291.750507
402.375998,3294.210641,4071.132681,6587.832884
402.376306,2681.334243,2442.679609,8882.471304
402.376614,1455.581446,-370.102971,10584.944971
402.376922,-383.047749,-1628.453072,12435.459826
402.377230,-2604.724693,-2738.761985,12731.542202
402.377539,-3294.210641,-3478.967927,12953.603985
402.377847,-2298.286494,-3552.988522,12583.501014
402.378155,-1378.971896,-2664.741391,10584.944971
402.378463,689.485948,-1998.556043,8660.409521
402.378771,1455.581446,-888.247130,6069.688724
402.379079,1685.410096,814.226536,5921.647536
402.379387,2221.676944,2146.597232,7550.100608
402.379695,3524.039291,3182.885551,7105.977043
402.380003,2757.943793,3997.112087,7105.977043
402.380311,3524.039291,3330.926739,8142.265362
402.380619,1532.190996,1628.453072,8956.491898
402.380927,229.828649,-814.226536,12583.501014
402.381235,-1378.971896,-1776.494261,12879.583391
402.381543,-2145.067394,-2590.720797,12509.480420
402.381852,-3064.381992,-3701.029710,13471.748144
402.382160,-1685.410096,-3182.885551,12139.377449
402.382468,-919.314598,-2368.659014,9918.759623
402.382776,612.876398,-370.102971,8586.388927
402.383084,1915.238745,888.247130,6365.771101
402.383392,1302.362347,3108.864956,6513.812290
402.383700,3140.991542,3108.864956,7772.162391
402.384008,3677.258390,5255.462188,6661.853478
402.384316,4136.915689,4589.276840,7328.038826
402.384624,2987.772442,2738.761985,8734.430116
402.384932,1532.190996,-0.000000,10066.800811
402.385240,-306.438199,-1184.329507,12583.501014
402.385548,-2221.676944,-2146.597232,13249.686362
402.385856,-2604.724693,-3108.864956,13545.768739
402.386164,-1685.410096,-3182.885551,13175.665768
402.386473,-1302.362347,-2738.761985,11177.109724
402.386781,766.095498,-2220.617826,8438.347739
402.387089,536.266849,518.144159,6957.935855
402.387397,1762.019645,1776.494261,7550.100608
402.387705,1608.800546,2368.659014,7254.018232
402.388013,2987.772442,4293.194464,7624.121203
402.388321,3907.087040,4589.276840,7846.182985
402.388629,4136.915689,3849.070898,8586.388927
402.388937,2604.724693,1998.556043,9104.533087
402.389245,1302.362347,-962.267725,11917.315666
402.389553,-459.657299,-1332.370696,12805.562797
402.389861,-2298.286494,-2072.576638,12953.603985
402.390169,-2834.553343,-2812.782580,13693.809927
402.390477,-1608.800546,-3478.967927,12287.418637
402.390786,-766.095498,-1776.494261,8882.471304
402.391094,0.000000,-1110.308913,8364.327145
402.391402,612.876398,962.267725,7254.018232
402.391710,689.485948,1998.556043,7846.182985
402.392018,1608.800546,3256.906145,8512.368333
402.392326,3370.820191,4515.256246,7254.018232
402.392634,4060.306139,4293.194464,7402.059420
402.392942,2528.115143,2146.597232,9252.574275
402.393250,1225.752797,-444.123565,10362.883188
402.393558,-383.047749,-1258.350101,12065.356855
402.393866,-1991.848295,-2738.761985,12361.439231
402.394174,-2374.896044,-3923.091493,12287.418637
402.394482,-1608.800546,-3182.885551,11029.068536
402.394790,-612.876398,-2590.720797,9400.615463
402.395098,383.047749,-962.267725,7550.100608
402.395407,766.095498,296.082377,6883.915261
402.395715,689.485948,2072.576638,6587.832884
402.396023,1302.362347,1850.514855,8142.265362
402.396331,3294.210641,4293.194464,7105.977043
402.396639,3600.648841,3849.070898,8068.244768
402.396947,3447.429741,2442.679609,9474.636058
402.397255,1072.533697,296.082377,9326.594869
402.397563,-459.657299,-1628.453072,11991.336260
402.397871,-1455.581446,-2812.782580,12139.377449
402.398179,-2451.505594,-2886.803174,12065.356855
402.398487,-1838.629195,-3701.029710,13545.768739
402.398795,-383.047749,-2516.700203,10362.883188
402.399103,229.828649,-1998.556043,7698.141797
402.399411,766.095498,-0.000000,6661.853478
402.399720,1608.800546,1184.329507,6069.688724
402.400028,612.876398,2368.659014,7254.018232
402.400336,2451.505594,3478.967927,7476.080014
402.400644,3524.039291,4145.153275,7994.224174
402.400952,3677.258390,3627.009116,8512.368333
402.401260,2374.896044,1184.329507,9918.759623
402.401568,612.876398,-370.102971,10955.047942
402.401876,-1225.752797,-2146.597232,12139.377449
402.402184,-2145.067394,-2442.679609,12139.377449
402.402492,-2681.334243,-2294.638420,11843.295072
402.402800,-919.314598,-2442.679609,11991.336260
402.403108,153.219100,-1850.514855,9252.574275
402.403416,459.657299,-0.000000,7105.977043
402.403724,1072.533697,370.102971,7624.121203
402.404033,1225.752797,2294.638420,6883.915261
402.404341,1608.800546,2664.741391,8290.306550
402.404649,3064.381992,4441.235652,8216.285956
402.404957,3677.258390,3034.844362,9178.553681
402.405265,2834.553343,2368.659014,9622.677246
402.405573,1838.629195,-148.041188,10066.800811
402.405881,0.000000,-1110.308913,11547.212695
402.406189,-1532.190996,-1850.514855,11473.192101
402.406497,-1302.362347,-2590.720797,13249.686362
402.406805,-995.924147,-2220.617826,11621.233289
402.407113,0.000000,-1850.514855,9770.718434
402.407421,1838.629195,-1776.494261,8808.450710
402.407729,-306.438199,1480.411884,5699.585753
402.408037,1302.362347,296.082377,8808.450710
402.408345,0.000000,1924.535449,8660.409521
402.408654,1838.629195,3849.070898,8734.430116
402.408962,2911.162892,3256.906145,9548.656652
402.409270,2528.115143,2738.761985,9178.553681
402.409578,1838.629195,592.164754,10881.027347
402.409886,229.828649,-296.082377,10658.965565
402.410194,-229.828649,-814.226536,11251.130318
402.410502,-1915.238745,-2294.638420,12435.459826
402.410810,-1072.533697,-2294.638420,12361.439231
402.411118,-229.828649,-2368.659014,11325.150913
402.411426,689.485948,-1850.514855,9474.636058
402.411734,919.314598,-74.020594,7105.977043
402.412042,612.876398,1036.288319,7179.997637
402.412350,536.266849,1184.329507,8290.306550
402.412658,1072.533697,2664.741391,8882.471304
402.412967,2068.457845,3552.988522,10288.862594
402.413275,2757.943793,2590.720797,9622.677246
402.413583,1991.848295,1332.370696,9548.656652
402.413891,766.095498,-0.000000,9844.739029
402.414199,689.485948,-1110.308913,10362.883188
402.414507,0.000000,-1776.494261,10362.883188
402.414815,-1532.190996,-1998.556043,10881.027347
402.415123,-536.266849,-2368.659014,11621.233289
402.415431,229.828649,-2072.576638,8956.491898
402.415739,766.095498,-592.164754,7698.141797
402.416047,459.657299,-148.041188,8068.244768
402.416355,76.609550,1110.308913,7105.977043
402.416663,689.485948,1628.453072,8882.471304
402.416971,1685.410096,2812.782580,9252.574275
402.417279,2451.505594,2738.761985,9326.594869
402.417588,2834.553343,2368.659014,9770.718434
402.417896,2221.676944,888.247130,8660.409521
402.418204,842.705048,-370.102971,10510.924376
402.418512,-306.438199,-1332.370696,10955.047942
402.418820,-1302.362347,-1998.556043,11547.212695
402.419128,-1149.143247,-2072.576638,11251.130318
402.419436,-689.485948,-1850.514855,10732.986159
402.419744,76.609550,-2072.576638,9178.553681
402.420052,0.000000,-0.000000,6957.935855
402.420360,76.609550,740.205942,8438.347739
402.420668,-383.047749,1480.411884,8142.265362
402.420976,1072.533697,3108.864956,9474.636058
402.421284,2221.676944,2368.659014,10436.903782
402.421592,1072.533697,3775.050304,9030.512492
402.421901,2681.334243,740.205942,10807.006753
402.422209,153.219100,518.144159,10214.842000
402.422517,-229.828649,-1406.391290,12139.377449
402.422825,-842.705048,-2294.638420,11103.089130
402.423133,-1302.362347,-2220.617826,11547.212695
402.423441,-153.219100,-3108.864956,11399.171507
402.423749,-229.828649,-1628.453072,7920.203579
402.424057,536.266849,-888.247130,8586.388927
402.424365,229.828649,-0.000000,7624.121203
402.424673,536.266849,1184.329507,7550.100608
402.424981,1532.190996,2960.823768,8808.450710
402.425289,2068.457845,2812.782580,8882.471304
402.425597,3600.648841,3330.926739,8956.491898
402.425905,3217.601092,3256.906145,9030.512492
402.426213,2298.286494,1184.329507,9622.677246
402.426522,1072.533697,-148.041188,10584.944971
402.426830,383.047749,-1036.288319,10362.883188
402.427138,-1378.971896,-1554.432478,10881.027347
402.427446,-919.314598,-2738.761985,11251.130318
402.427754,0.000000,-1406.391290,10140.821405
402.428062,229.828649,-1258.350101,9252.574275
402.428370,-459.657299,-1258.350101,7624.121203
402.428678,-383.047749,962.267725,7624.121203
402.428986,383.047749,592.164754,10140.821405
402.429294,383.047749,2516.700203,9400.615463
402.429602,2681.334243,2516.700203,10362.883188
402.429910,2681.334243,2886.803174,8808.450710
402.430218,1838.629195,1480.411884,9474.636058
402.430526,1838.629195,-0.000000,11103.089130
402.430835,306.438199,592.164754,10658.965565
402.431143,-536.266849,-1406.391290,11695.253884
402.431451,-153.219100,-2072.576638,10066.800811
402.431759,-229.828649,-1406.391290,10436.903782
402.432067,0.000000,-2368.659014,10362.883188
402.432375,76.609550,-296.082377,7031.956449
402.432683,-383.047749,-148.041188,9474.636058
402.432991,-383.047749,592.164754,9474.636058
402.433299,1072.533697,1998.556043,9178.553681
402.433607,1302.362347,2738.761985,10288.862594
402.433915,2451.505594,2072.576638,9548.656652
402.434223,2145.067394,1998.556043,8882.471304
402.434531,229.828649,370.102971,10214.842000
402.434839,612.876398,-1258.350101,11843.295072
402.435147,-229.828649,-1702.473667,10510.924376
402.435456,-1225.752797,-1628.453072,10732.986159
402.435764,0.000000,-2146.597232,10436.903782
402.436072,-229.828649,-962.267725,8882.471304
402.436380,153.219100,296.082377,8068.244768
402.436688,76.609550,1258.350101,7179.997637
402.436996,229.828649,2220.617826,7105.977043
402.437304,0.000000,2664.741391,9326.594869
402.437612,689.485948,3256.906145,9474.636058
402.437920,842.705048,3182.885551,9844.739029
402.438228,766.095498,1554.432478,10807.006753
402.438536,-306.438199,-74.020594,11325.150913
402.438844,-2068.457845,-1998.556043,12731.542202
402.439152,-3140.991542,-2664.741391,12657.521608
402.439460,-3983.696590,-2738.761985,12065.356855
402.439769,-2528.115143,-2738.761985,12287.418637
402.440077,-1455.581446,-2294.638420,9844.739029
402.440385,-612.876398,-1184.329507,7772.162391
402.440693,-306.438199,222.061783,6513.812290
402.441001,-76.609550,1924.535449,6587.832884
402.441309,0.000000,2960.823768,7550.100608
402.441617,1072.533697,3923.091493,8216.285956
402.441925,1838.629195,4219.173869,8438.347739
402.442233,612.876398,3775.050304,8882.471304
402.442541,536.266849,962.267725,10584.944971
402.442849,-1455.581446,-1184.329507,12065.356855
402.443157,-3370.820191,-2886.803174,12879.583391
402.443465,-4673.182538,-4737.318029,13841.851115
402.443773,-5362.668486,-3997.112087,12287.418637
402.444081,-4290.134789,-3627.009116,11843.295072
402.444390,-1302.362347,-2664.741391,10510.924376
402.444698,-536.266849,-0.000000,6735.874072
402.445006,306.438199,592.164754,6217.729913
402.445314,459.657299,1702.473667,6143.709319
402.445622,612.876398,3775.050304,6143.709319
402.445930,1608.800546,3923.091493,7772.162391
402.446238,2374.896044,5329.482782,7920.203579
402.446546,2374.896044,4293.194464,8438.347739
402.446854,612.876398,1332.370696,9474.636058
402.447162,-842.705048,-0.000000,11029.068536
402.447470,-1991.848295,-1924.535449,11621.233289
402.447778,-3983.696590,-3256.906145,11695.253884
402.448086,-5056.230287,-2294.638420,11695.253884
402.448394,-4060.306139,-2368.659014,10955.047942
402.448703,-2451.505594,-1554.432478,10510.924376
402.449011,-1225.752797,222.061783,7846.182985
402.449319,-842.705048,222.061783,6439.791695
402.449627,-1608.800546,1110.308913,7254.018232
402.449935,-1608.800546,2442.679609,8438.347739
402.450243,-1455.581446,3108.864956,9844.739029
402.450551,-919.314598,3701.029710,10362.883188
402.450859,-1608.800546,2442.679609,10584.944971
402.451167,-1378.971896,296.082377,11177.109724
402.451475,-1838.629195,-666.185348,11399.171507
402.451783,-3600.648841,-2368.659014,11399.171507
402.452091,-3983.696590,-3997.112087,12213.398043
402.452399,-4826.401637,-3552.988522,11917.315666
402.452707,-5439.278036,-3404.947333,11177.109724
402.453015,-3064.381992,-1702.473667,10066.800811
402.453324,-1149.143247,1110.308913,7254.018232
402.453632,536.266849,1480.411884,6439.791695
402.453940,459.657299,1554.432478,5625.565159
402.454248,-153.219100,2294.638420,7105.977043
402.454556,0.000000,1628.453072,9104.533087
402.454864,-1072.533697,3404.947333,8808.450710
402.455172,-1608.800546,2960.823768,11251.130318
402.455480,-842.705048,962.267725,11325.150913
402.455788,-536.266849,888.247130,10510.924376
402.456096,-2145.067394,-296.082377,9548.656652
402.456404,-1838.629195,-1850.514855,10584.944971
402.456712,-3447.429741,-2664.741391,10436.903782
402.457020,-5132.839837,-3627.009116,11473.192101
402.457328,-4903.011187,-3330.926739,12139.377449
402.457637,-4366.744339,-666.185348,9548.656652
402.457945,-2221.676944,518.144159,9252.574275
402.458253,-383.047749,2812.782580,6883.915261
402.458561,612.876398,3627.009116,6365.771101
402.458869,383.047749,2886.803174,7846.182985
402.459177,-536.266849,2738.761985,7550.100608
402.459485,-2451.505594,1110.308913,9844.739029
402.459793,-3524.039291,444.123565,11473.192101
402.460101,-3524.039291,592.164754,10732.986159
402.460409,-3217.601092,518.144159,10955.047942
402.460717,-2681.334243,592.164754,9992.780217
402.461025,-1838.629195,592.164754,8808.450710
402.461333,-1838.629195,-296.082377,9400.615463
402.461641,-2374.896044,-1702.473667,10140.821405
402.461950,-3447.429741,-2812.782580,11251.130318
402.462258,-4443.353888,-3997.112087,12361.439231
402.462566,-4443.353888,-3849.070898,12805.562797
402.462874,-3907.087040,-1776.494261,11103.089130
402.463182,-1302.362347,666.185348,9770.718434
402.463490,-229.828649,2812.782580,7550.100608
402.463798,1072.533697,3627.009116,6217.729913
402.464106,1149.143247,3849.070898,6365.771101
402.464414,0.000000,3108.864956,6587.832884
402.464722,-1072.533697,666.185348,7846.182985
402.465030,-3907.087040,-444.123565,10584.944971
402.465338,-5209.449386,-1406.391290,11029.068536
402.465646,-5745.716235,-518.144159,11399.171507
402.465954,-4903.011187,-0.000000,11251.130318
402.466262,-3753.867940,1702.473667,9918.759623
402.466571,-2221.676944,2368.659014,9992.780217
402.466879,-383.047749,1850.514855,8882.471304
402.467187,-1072.533697,518.144159,8216.285956
402.467495,-1915.238745,-592.164754,9992.780217
402.467803,-2834.553343,-2368.659014,11843.295072
402.468111,-4519.963438,-3849.070898,12583.501014
402.468419,-5286.058936,-4219.173869,12879.583391
402.468727,-4903.011187,-3849.070898,12583.501014
402.469035,-4290.134789,-1850.514855,10584.944971
402.469343,-2068.457845,-148.041188,9474.636058
402.469651,-1149.143247,1924.535449,7105.977043
402.469959,459.657299,3108.864956,5477.523971
402.470267,1762.019645,4293.194464,5329.482782
402.470575,1532.190996,4811.338623,5551.544565
402.470884,1302.362347,3997.112087,6513.812290
402.471192,306.438199,3182.885551,7846.182985
402.471500,-1685.410096,1258.350101,9474.636058
402.471808,-2528.115143,-592.164754,10732.986159
402.472116,-3753.867940,-1332.370696,11177.109724
402.472424,-4979.620737,-1110.308913,11473.192101
402.472732,-3907.087040,-1258.350101,11547.212695
402.473040,-2681.334243,-370.102971,11103.089130
402.473348,-1762.019645,370.102971,9474.636058
402.473656,-1072.533697,444.123565,8660.409521
402.473964,-1302.362347,-0.000000,9104.533087
402.474272,-1838.629195,-1184.329507,10658.965565
402.474580,-3983.696590,-2368.659014,11917.315666
402.474888,-5669.106685,-3256.906145,13471.748144
402.475196,-5898.935335,-3923.091493,13693.809927
402.475505,-5975.544884,-2886.803174,13323.706956
402.475813,-4826.401637,-1924.535449,12657.521608
402.476121,-3217.601092,-74.020594,9918.759623
402.476429,-995.924147,1998.556043,7772.162391
402.476737,2298.286494,3775.050304,6069.688724
402.477045,3064.381992,5551.544565,3404.947333
402.477353,4443.353888,6291.750507,3330.926739
402.477661,3677.258390,5699.585753,3552.988522
402.477969,1608.800546,4737.318029,4219.173869
402.478277,-766.095498,1776.494261,7328.038826
402.478585,-3524.039291,-592.164754,10584.944971
402.478893,-6665.030833,-2960.823768,13545.768739
402.479200,-7584.345430,-4515.256246,15100.201217
402.479508,-8273.831378,-5329.482782,15840.407159
402.479816,-7354.516781,-5403.503377,15692.365970
402.480124,-5822.325785,-3330.926739,13101.645173
402.480432,-3140.991542,-518.144159,10362.883188
402.480740,-919.314598,1480.411884,8142.265362
402.481048,689.485948,3627.009116,6809.894666
402.481356,1608.800546,4589.276840,6661.853478
402.481664,1532.190996,5255.462188,5625.565159
402.481972,612.876398,4219.173869,6661.853478
402.482280,-1149.143247,2516.700203,8364.327145
402.482588,-4213.525239,-0.000000,10807.006753
402.482896,-6894.859482,-2664.741391,13101.645173
402.483204,-8120.612279,-5107.421000,15174.221811
402.483512,-8963.317327,-5921.647536,15100.201217
402.483820,-7584.345430,-5477.523971,14656.077652
402.484128,-4443.353888,-4367.215058,12953.603985
402.484435,-1608.800546,-1776.494261,9992.780217
402.484743,612.876398,444.123565,7105.977043
402.485051,3140.991542,3034.844362,5107.421000
402.485359,4213.525239,4589.276840,4589.276840
402.485667,4903.011187,5995.668130,3627.009116
402.485975,3677.258390,7105.977043,2664.741391
402.486283,2911.162892,6069.688724,4811.338623
402.486591,229.828649,3849.070898,6957.935855
402.486899,-1838.629195,2368.659014,9622.677246
402.487207,-4979.620737,-1406.391290,13101.645173
402.487515,-7507.735880,-3923.091493,14137.933492
402.487823,-9499.584175,-3997.112087,14434.015869
402.488131,-8273.831378,-5033.400406,15174.221811
402.488439,-6205.373534,-4441.235652,14211.954086
402.488747,-4979.620737,-2738.761985,11843.295072
402.489055,-3217.601092,-2220.617826,10658.965565
402.489363,-1149.143247,-148.041188,8956.491898
402.489670,0.000000,2072.576638,7550.100608
402.489978,1608.800546,2886.803174,7031.956449
402.490286,2451.505594,3627.009116,6217.729913
402.490594,2298.286494,3404.947333,6513.812290
402.490902,1149.143247,3108.864956,7105.977043
402.491210,0.000000,1406.391290,8660.409521
402.491518,-1225.752797,-296.082377,10732.986159
402.491826,-2145.067394,-740.205942,10658.965565
402.492134,-3140.991542,-1480.411884,11251.130318
402.492442,-3140.991542,-1702.473667,10214.842000
402.492750,-2834.553343,-296.082377,9696.697840
402.493058,-2145.067394,518.144159,9326.594869
402.493366,-1072.533697,962.267725,8660.409521
402.493674,-842.705048,1924.535449,8216.285956
402.493982,-1762.019645,2368.659014,8660.409521
402.494290,-1455.581446,2220.617826,9548.656652
402.494598,-2987.772442,1850.514855,9918.759623
402.494905,-4136.915689,740.205942,10955.047942
402.495213,-5669.106685,-518.144159,11843.295072
402.495521,-6971.469032,-1628.453072,12509.480420
402.495829,-6894.859482,-2220.617826,13397.727550
402.496137,-6741.640382,-2516.700203,13323.706956
402.496445,-5975.544884,-2368.659014,12361.439231
402.496753,-4979.620737,-2294.638420,11103.089130
402.497061,-3064.381992,-1480.411884,9992.780217
402.497369,-1302.362347,-296.082377,8660.409521
402.497677,229.828649,962.267725,7105.977043
402.497985,842.705048,2146.597232,5995.668130
402.498293,1378.971896,2664.741391,5773.606348
402.498601,1608.800546,2886.803174,6069.688724
402.498909,1072.533697,2960.823768,6661.853478
402.499217,0.000000,2442.679609,7105.977043
402.499525,-383.047749,1554.432478,8734.430116
402.499833,-2068.457845,370.102971,9548.656652
402.500141,-2911.162892,-296.082377,10584.944971
402.500448,-3677.258390,-888.247130,11473.192101
402.500756,-4136.915689,-1480.411884,11621.233289
402.501064,-3753.867940,-1776.494261,11399.171507
402.501372,-3370.820191,-1480.411884,10955.047942
402.501680,-3140.991542,-962.267725,10732.986159
402.501988,-2374.896044,-814.226536,10066.800811
402.502296,-1838.629195,222.061783,9696.697840
402.502604,-1608.800546,962.267725,9622.677246
402.502912,-1149.143247,1332.370696,9252.574275
402.503220,-1072.533697,1554.432478,9400.615463
402.503528,-1072.533697,1184.329507,9474.636058
402.503836,-1455.581446,962.267725,9400.615463
402.504144,-2298.286494,370.102971,9622.677246
402.504452,-2298.286494,-0.000000,10140.821405
402.504760,-2528.115143,-0.000000,10436.903782
402.505068,-2451.505594,370.102971,9844.739029
402.505376,-1915.238745,518.144159,9548.656652
402.505683,-1455.581446,666.185348,8734.430116
402.505991,-306.438199,444.123565,8512.368333
402.506299,-995.924147,740.205942,8586.388927
402.506607,-689.485948,740.205942,8512.368333
402.506915,-1378.971896,814.226536,8734.430116
402.507223,-1915.238745,666.185348,9030.512492
402.507531,-2757.943793,370.102971,9918.759623
402.507839,-3600.648841,-222.061783,10288.862594
402.508147,-3907.087040,-888.247130,10955.047942
402.508455,-4060.306139,-1332.370696,10732.986159
402.508763,-3907.087040,-1406.391290,11251.130318
402.509071,-3447.429741,-1184.329507,11325.150913
402.509379,-3217.601092,-1258.350101,10362.883188
402.509687,-2298.286494,-1110.308913,9696.697840
402.509995,-1608.800546,-370.102971,9326.594869
402.510303,-766.095498,-148.041188,8660.409521
402.510611,-459.657299,-222.061783,8512.368333
402.510918,-689.485948,-0.000000,8660.409521
402.511226,0.000000,518.144159,8660.409521
402.511534,0.000000,222.061783,8734.430116
402.511842,0.000000,1110.308913,8734.430116
402.512150,76.609550,1332.370696,8068.244768
402.512458,383.047749,1480.411884,8512.368333
402.512766,153.219100,1850.514855,8142.265362
402.513074,-229.828649,1850.514855,8142.265362
402.513382,-689.485948,1110.308913,9030.512492
402.513690,-1378.971896,518.144159,9252.574275
402.513998,-2221.676944,296.082377,10066.800811
402.514306,-3217.601092,-0.000000,10584.944971
402.514614,-3140.991542,-0.000000,10881.027347
402.514922,-3447.429741,296.082377,10807.006753
402.515230,-3600.648841,370.102971,11251.130318
402.515538,-3524.039291,296.082377,11103.089130
402.515846,-3524.039291,370.102971,11103.089130
402.516153,-3907.087040,-0.000000,10881.027347
402.516461,-3064.381992,-0.000000,11029.068536
402.516769,-3217.601092,222.061783,10658.965565
402.517077,-3294.210641,518.144159,9696.697840
402.517385,-2987.772442,1036.288319,9474.636058
402.517693,-2681.334243,1110.308913,9178.553681
402.518001,-2528.115143,1036.288319,9030.512492
402.518309,-2451.505594,1036.288319,9178.553681
402.518617,-3064.381992,370.102971,9178.553681
402.518925,-3217.601092,-0.000000,9326.594869
402.519233,-3677.258390,-0.000000,9992.780217
402.519541,-3907.087040,-666.185348,9918.759623
402.519849,-4290.134789,-888.247130,9992.780217
402.520157,-4366.744339,-666.185348,9992.780217
402.520465,-4213.525239,-814.226536,10066.800811
402.520773,-4290.134789,-814.226536,9770.718434
402.521081,-3907.087040,-370.102971,9770.718434
402.521388,-3370.820191,-518.144159,9178.553681
402.521696,-3294.210641,-296.082377,8956.491898
402.522004,-3140.991542,-74.020594,9104.533087
402.522312,-3140.991542,-222.061783,9474.636058
402.522620,-3447.429741,-518.144159,9178.553681
402.522928,-3294.210641,-666.185348,9844.739029
402.523236,-2911.162892,-1258.350101,10362.883188
402.523544,-3524.039291,-1480.411884,10881.027347
402.523852,-3217.601092,-1480.411884,10881.027347
402.524160,-2757.943793,-1480.411884,9992.780217
402.524468,-1991.848295,-962.267725,10288.862594
402.524776,-1149.143247,-592.164754,9696.697840
402.525084,0.000000,370.102971,8808.450710
402.525392,612.876398,1406.391290,8068.244768
402.525700,1149.143247,1924.535449,7402.059420
402.526008,842.705048,2664.741391,6661.853478
402.526316,1532.190996,3256.906145,7031.956449
402.526623,689.485948,3552.988522,7031.956449
402.526931,0.000000,3627.009116,7624.121203
402.527239,-689.485948,3108.864956,8660.409521
402.527547,-1915.238745,2368.659014,9696.697840
402.527855,-3140.991542,1110.308913,10807.006753
402.528163,-4366.744339,444.123565,11843.295072
402.528471,-4596.572988,-1036.288319,12731.542202
402.528779,-5209.449386,-1184.329507,12509.480420
402.529087,-5515.887586,-1628.453072,13101.645173
402.529395,-5286.058936,-1924.535449,12731.542202
402.529703,-4979.620737,-1702.473667,12583.501014
402.530011,-4136.915689,-1850.514855,11843.295072
402.530319,-3447.429741,-814.226536,11177.109724
402.530627,-2834.553343,-666.185348,10584.944971
402.530935,-1608.800546,-222.061783,9622.677246
402.531243,-536.266849,370.102971,8734.430116
402.531551,-536.266849,592.164754,8734.430116
402.531858,76.609550,1406.391290,7624.121203
402.532166,612.876398,1406.391290,7550.100608
402.532474,1072.533697,1998.556043,7328.038826
402.532782,536.266849,2442.679609,6735.874072
402.533090,306.438199,3034.844362,7105.977043
402.533398,1149.143247,2812.782580,7624.121203
402.533706,612.876398,2368.659014,8142.265362
402.534014,-766.095498,2072.576638,8586.388927
402.534322,-2145.067394,592.164754,9918.759623
402.534630,-3677.258390,-740.205942,10288.862594
402.534938,-4903.011187,-1258.350101,11547.212695
402.535246,-5209.449386,-2664.741391,12361.439231
402.535554,-6128.763984,-2590.720797,11991.336260
402.535862,-5898.935335,-3701.029710,13471.748144
402.536170,-4903.011187,-3552.988522,12509.480420
402.536478,-5209.449386,-2960.823768,12287.418637
402.536786,-4060.306139,-2442.679609,11547.212695
402.537093,-2834.553343,-1332.370696,9918.759623
402.537401,-1455.581446,222.061783,9474.636058
402.537709,536.266849,2072.576638,7328.038826
402.538017,1838.629195,4663.297435,5255.462188
402.538325,4060.306139,5107.421000,4293.194464
402.538633,4136.915689,5107.421000,3552.988522
402.538941,2911.162892,5921.647536,4145.153275
402.539249,1608.800546,4367.215058,6069.688724
402.539557,-536.266849,2368.659014,8068.244768
402.539865,-3140.991542,370.102971,10140.821405
402.540173,-4903.011187,-2072.576638,13101.645173
402.540481,-6818.249932,-4071.132681,14137.933492
402.540789,-7737.564530,-5847.626942,14878.139434
402.541097,-7737.564530,-6439.791695,15100.201217
402.541405,-6052.154434,-5625.565159,14285.974681
402.541713,-5515.887586,-3108.864956,11843.295072
402.542021,-3524.039291,-1184.329507,10658.965565
402.542328,-689.485948,1702.473667,8290.306550
402.542636,919.314598,4515.256246,6291.750507
402.542944,2528.115143,5551.544565,4885.359217
402.543252,3064.381992,6365.771101,3404.947333
402.543560,1455.581446,5329.482782,4959.379811
402.543868,-842.705048,2738.761985,7698.141797
402.544176,-2987.772442,-0.000000,9992.780217
402.544484,-6588.421283,-2960.823768,12953.603985
402.544792,-8273.831378,-6069.688724,14878.139434
402.545100,-8656.879127,-6513.812290,14730.098246
402.545408,-8197.221829,-6809.894666,14434.015869
402.545716,-6205.373534,-5033.400406,12509.480420
402.546024,-3140.991542,-888.247130,9400.615463
402.546332,0.000000,1406.391290,7772.162391
402.546640,2604.724693,4293.194464,5403.503377
402.546948,4596.572988,7550.100608,3256.906145
402.547256,5669.106685,7846.182985,3256.906145
402.547564,4290.134789,7846.182985,3552.988522
402.547871,2145.067394,4959.379811,6217.729913
402.548179,-1915.238745,1332.370696,10732.986159
402.548487,-5439.278036,-1702.473667,14137.933492
402.548795,-8656.879127,-5181.441594,16284.530724
402.549103,-10878.556072,-6883.915261,17542.880825
402.549411,-10342.289223,-6587.832884,17764.942608
402.549719,-7584.345430,-4737.318029,15100.201217
402.550027,-4290.134789,-1184.329507,10362.883188
402.550335,0.000000,2072.576638,7476.080014
402.550643,1378.971896,3775.050304,5995.668130
402.550951,2528.115143,5625.565159,5107.421000
402.551259,2911.162892,5921.647536,5033.400406
402.551567,1608.800546,4959.379811,5477.523971
402.551875,-1302.362347,2738.761985,7105.977043
402.552183,-3753.867940,296.082377,9918.759623
402.552491,-5669.106685,-1480.411884,12139.377449
402.552799,-7660.954980,-3182.885551,13545.768739
402.553106,-7967.393179,-3256.906145,14878.139434
402.553414,-6665.030833,-1998.556043,12287.418637
402.553722,-3294.210641,-444.123565,9992.780217
402.554030,612.876398,888.247130,8808.450710
402.554338,2528.115143,1110.308913,6587.832884
402.554646,2987.772442,370.102971,6587.832884
402.554954,1455.581446,222.061783,6957.935855
402.555262,306.438199,370.102971,7254.018232
402.555570,-1455.581446,222.061783,8808.450710
402.555878,-3294.210641,1332.370696,10436.903782
402.556186,-2451.505594,1480.411884,9548.656652
402.556494,-2834.553343,1036.288319,9696.697840
402.556802,-3064.381992,370.102971,9844.739029
402.557110,-3600.648841,-1036.288319,10732.986159
402.557418,-4290.134789,-2738.761985,13471.748144
402.557726,-5209.449386,-3997.112087,12953.603985
402.558034,-5745.716235,-3701.029710,11177.109724
402.558341,-5056.230287,-2368.659014,11029.068536
402.558649,-3064.381992,148.041188,9474.636058
402.558957,-612.876398,2516.700203,7624.121203
402.559265,1455.581446,4737.318029,4811.338623
402.559573,2451.505594,5847.626942,3997.112087
402.559881,2451.505594,4737.318029,5625.565159
402.560189,919.314598,2146.597232,8808.450710
402.560497,-1608.800546,-0.000000,10510.924376
402.560805,-4060.306139,-1702.473667,11103.089130
402.561113,-5822.325785,-3034.844362,13545.768739
402.561421,-6435.202183,-3552.988522,14952.160028
402.561729,-5822.325785,-2738.761985,13471.748144
402.562037,-4519.963438,-1554.432478,11547.212695
402.562345,-2068.457845,-1110.308913,9548.656652
402.562653,-2298.286494,-740.205942,8956.491898
402.562961,-1915.238745,-1036.288319,9104.533087
402.563269,-1378.971896,222.061783,8438.347739
402.563576,-1072.533697,2146.597232,7254.018232
402.563884,-766.095498,3849.070898,7254.018232
402.564192,1225.752797,5107.421000,7105.977043
402.564500,2604.724693,5403.503377,5403.503377
402.564808,995.924147,4885.359217,5551.544565
402.565116,459.657299,2368.659014,8512.368333
402.565424,-1991.848295,-1258.350101,11843.295072
402.565732,-4903.011187,-2812.782580,13545.768739
402.566040,-6588.421283,-3330.926739,13545.768739
402.566348,-5362.668486,-3701.029710,13397.727550
402.566656,-3907.087040,-2812.782580,12805.562797
402.566964,-1915.238745,-2368.659014,11547.212695
402.567272,-919.314598,-1702.473667,9326.594869
402.567580,-153.219100,-2664.741391,9400.615463
402.567888,-2145.067394,-1702.473667,8882.471304
402.568196,-1915.238745,-814.226536,9474.636058
402.568504,-1455.581446,222.061783,10436.903782
402.568811,-766.095498,2886.803174,8290.306550
402.569119,1838.629195,4219.173869,7179.997637
402.569427,3677.258390,5255.462188,5773.606348
402.569735,3753.867940,4145.153275,6735.874072
402.570043,3447.429741,3256.906145,7920.203579
402.570351,383.047749,814.226536,8586.388927
402.570659,-1378.971896,-666.185348,10955.047942
402.570967,-2681.334243,-1480.411884,11547.212695
402.571275,-1991.848295,-962.267725,11769.274478
402.571583,-1302.362347,-1110.308913,11325.150913
402.571891,-306.438199,-1406.391290,10140.821405
402.572199,-306.438199,-1480.411884,9622.677246
402.572507,-842.705048,-1406.391290,9474.636058
402.572815,-1991.848295,-1702.473667,10732.986159
402.573123,-2757.943793,740.205942,10658.965565
402.573431,-1532.190996,1110.308913,12065.356855
402.573739,-612.876398,2960.823768,9178.553681
402.574046,536.266849,3701.029710,7254.018232
402.574354,2451.505594,2812.782580,8216.285956
402.574662,919.314598,1924.535449,8438.347739
402.574970,-383.047749,1184.329507,9326.594869
402.575278,-2374.896044,148.041188,10658.965565
402.575586,-2298.286494,-740.205942,11547.212695
402.575894,-2604.724693,-2220.617826,11251.130318
402.576202,-1762.019645,-2442.679609,10436.903782
402.576510,-1302.362347,-2960.823768,9548.656652
402.576818,-1915.238745,-3478.967927,9400.615463
402.577126,-1378.971896,-2146.597232,9548.656652
402.577434,-1455.581446,-0.000000,9178.553681
402.577742,459.657299,1702.473667,8586.388927
402.578050,3064.381992,3256.906145,6735.874072
402.578358,3217.601092,3923.091493,5625.565159
402.578666,4060.306139,2886.803174,7105.977043
402.578973,3217.601092,1776.494261,7179.997637
402.579281,612.876398,1702.473667,8364.327145
402.579589,-995.924147,-1406.391290,11621.233289
402.579897,-2834.553343,-2368.659014,13101.645173
402.580205,-3064.381992,-3849.070898,14211.954086
402.580513,-2451.505594,-3997.112087,11399.171507
402.580821,-1532.190996,-3404.947333,10436.903782
402.581129,-2145.067394,-3034.844362,10140.821405
402.581437,-1532.190996,-1628.453072,9918.759623
402.581744,76.609550,1036.288319,9400.615463
402.582052,1991.848295,2294.638420,8364.327145
402.582360,4136.915689,3849.070898,6809.894666
402.582668,4903.011187,4811.338623,5773.606348
402.582976,4290.134789,3256.906145,7476.080014
402.583284,2757.943793,2072.576638,8586.388927
402.583592,306.438199,1702.473667,9030.512492
402.583900,-995.924147,-0.000000,12879.583391
402.584208,-2068.457845,-1776.494261,13397.727550
402.584515,-1608.800546,-1332.370696,11843.295072
402.584823,-1225.752797,-1110.308913,10881.027347
402.585131,-459.657299,-1850.514855,10214.842000
402.585439,-459.657299,-888.247130,9770.718434
402.585747,-1532.190996,-0.000000,9548.656652
402.586055,-612.876398,888.247130,10214.842000
402.586363,536.266849,2368.659014,8956.491898
402.586671,1762.019645,3552.988522,7698.141797
402.586979,2221.676944,2738.761985,8586.388927
402.587286,1991.848295,2146.597232,9474.636058
402.587594,0.000000,1702.473667,9400.615463
402.587902,-229.828649,-0.000000,11399.171507
402.588210,-229.828649,-1184.329507,12657.521608
402.588518,-1532.190996,-1998.556043,11769.274478
402.588826,-1225.752797,-1702.473667,10510.924376
402.589134,306.438199,-2664.741391,10140.821405
402.589442,-766.095498,-2886.803174,10288.862594
402.589750,-612.876398,-2294.638420,10436.903782
402.590057,0.000000,222.061783,8808.450710
402.590365,689.485948,740.205942,9400.615463
402.590673,2681.334243,2368.659014,7105.977043
402.590981,3830.477490,3849.070898,5995.668130
402.591289,4903.011187,3552.988522,7328.038826
402.591597,3524.039291,1924.535449,6809.894666
402.591905,2221.676944,1776.494261,7994.224174
402.592213,1608.800546,296.082377,11399.171507
402.592521,1072.533697,-1998.556043,12731.542202
402.592828,-766.095498,-2442.679609,11251.130318
402.593136,-766.095498,-2960.823768,11177.109724
402.593444,-1685.410096,-4293.194464,11103.089130
402.593752,-1991.848295,-4145.153275,11769.274478
402.594060,-1149.143247,-2368.659014,11399.171507
402.594368,-229.828649,-592.164754,9326.594869
402.594676,1762.019645,1776.494261,7994.224174
402.594984,4519.963438,3701.029710,7994.224174
402.595292,4903.011187,4737.318029,7179.997637
402.595599,4596.572988,3849.070898,7105.977043
402.595907,3753.867940,3775.050304,7328.038826
402.596215,2374.896044,2368.659014,9400.615463
402.596523,1608.800546,-0.000000,12139.377449
402.596831,459.657299,-888.247130,11769.274478
402.597139,76.609550,-1702.473667,10584.944971
402.597447,-1072.533697,-2368.659014,9474.636058
402.597755,-1455.581446,-3256.906145,11547.212695
402.598062,-1455.581446,-2886.803174,12213.398043
402.598370,-919.314598,-1110.308913,10140.821405
402.598678,76.609550,518.144159,8586.388927
402.598986,2221.676944,2146.597232,8142.265362
402.599294,3600.648841,3775.050304,7328.038826
402.599602,4290.134789,3849.070898,7328.038826
402.599910,3907.087040,5181.441594,6661.853478
402.600218,3064.381992,3256.906145,7476.080014
402.600526,2145.067394,1702.473667,9548.656652
402.600833,1762.019645,370.102971,11991.336260
402.601141,0.000000,-1258.350101,10807.006753
402.601449,-689.485948,-2812.782580,9770.718434
402.601757,-1915.238745,-3404.947333,11103.089130
402.602065,-2374.896044,-4441.235652,12435.459826
402.602373,-3217.601092,-3552.988522,11325.150913
402.602681,-2451.505594,-370.102971,9992.780217
402.602989,536.266849,148.041188,10510.924376
402.603297,2298.286494,2368.659014,8290.306550
402.603604,3447.429741,2146.597232,7772.162391
402.603912,2834.553343,3775.050304,7179.997637
402.604220,4366.744339,1850.514855,8438.347739
402.604528,1915.238745,2664.741391,10288.862594
402.604836,1302.362347,-0.000000,11325.150913
402.605144,1225.752797,-814.226536,10807.006753
402.605452,-612.876398,-1628.453072,9400.615463
402.605760,-1072.533697,-2368.659014,10066.800811
402.606068,-2451.505594,-2664.741391,10881.027347
402.606375,-2757.943793,-3478.967927,13323.706956
402.606683,-2834.553343,-1332.370696,9918.759623
402.606991,76.609550,-222.061783,9474.636058
402.607299,919.314598,2368.659014,9104.533087
402.607607,2451.505594,2738.761985,7476.080014
402.607915,3600.648841,3775.050304,8216.285956
402.608223,2068.457845,4515.256246,6883.915261
402.608531,1915.238745,3034.844362,8290.306550
402.608839,229.828649,1998.556043,9918.759623
402.609146,1302.362347,-0.000000,11621.233289
402.609454,-1149.143247,-814.226536,9918.759623
402.609762,-1532.190996,-1702.473667,8808.450710
402.610070,-2374.896044,-3627.009116,11621.233289
402.610378,-4443.353888,-3330.926739,11547.212695
402.610686,-3524.039291,-2886.803174,12139.377449
402.610994,-2221.676944,-1406.391290,9696.697840
402.611302,0.000000,444.123565,9474.636058
402.611610,2221.676944,1628.453072,8142.265362
402.611917,3524.039291,2146.597232,7772.162391
402.612225,3907.087040,3330.926739,7105.977043
402.612533,2451.505594,3701.029710,6365.771101
402.612841,3140.991542,1850.514855,10807.006753
402.613149,1838.629195,518.144159,9918.759623
402.613457,1532.190996,-1036.288319,10140.821405
402.613765,1149.143247,-1702.473667,8142.265362
402.614073,-383.047749,-3701.029710,9474.636058
402.614381,-1915.238745,-3923.091493,11473.192101
402.614688,-2681.334243,-3701.029710,10881.027347
402.614996,-1762.019645,-1850.514855,10584.944971
402.615304,-766.095498,-222.061783,8808.450710
402.615612,2528.115143,1258.350101,8734.430116
402.615920,3524.039291,2294.638420,8068.244768
402.616228,2987.772442,2590.720797,7772.162391
402.616536,3753.867940,3701.029710,7402.059420
402.616844,1991.848295,2442.679609,9474.636058
402.617151,995.924147,814.226536,11547.212695
402.617459,1072.533697,-0.000000,10955.047942
402.617767,689.485948,-666.185348,10214.842000
402.618075,-842.705048,-2442.679609,9696.697840
402.618383,-1838.629195,-2886.803174,11251.130318
402.618691,-2145.067394,-2590.720797,11917.315666
402.618999,-2451.505594,-1924.535449,10214.842000
402.619307,-536.266849,-148.041188,10214.842000
402.619615,1762.019645,1480.411884,8660.409521
402.619922,3524.039291,3478.967927,7105.977043
402.620230,4826.401637,3775.050304,6883.915261
402.620538,4290.134789,3997.112087,6809.894666
402.620846,2987.772442,4145.153275,7476.080014
402.621154,2528.115143,2368.659014,10288.862594
402.621462,2068.457845,888.247130,10881.027347
402.621770,612.876398,-518.144159,10288.862594
402.622078,-689.485948,-2368.659014,10584.944971
402.622386,-1149.143247,-3108.864956,11547.212695
402.622693,-2987.772442,-3627.009116,11695.253884
402.623001,-2987.772442,-2442.679609,11325.150913
402.623309,-1762.019645,-1406.391290,10807.006753
402.623617,0.000000,-296.082377,10510.924376
402.623925,1991.848295,1184.329507,8142.265362
402.624233,3983.696590,2516.700203,7105.977043
402.624541,4290.134789,2590.720797,7476.080014
402.624849,2221.676944,3701.029710,6661.853478
402.625157,2451.505594,2442.679609,10658.965565
402.625464,2604.724693,296.082377,11621.233289
402.625772,766.095498,-74.020594,9548.656652
402.626080,995.924147,-2368.659014,10584.944971
402.626388,-842.705048,-2368.659014,10140.821405
402.626696,-2451.505594,-4071.132681,12065.356855
402.627004,-3294.210641,-2368.659014,11695.253884
402.627312,-1991.848295,-1332.370696,10436.903782
402.627620,-919.314598,-444.123565,10362.883188
402.627928,1072.533697,1924.535449,7994.224174
402.628235,4903.011187,2738.761985,8142.265362
402.628543,2221.676944,4293.194464,5921.647536
402.628851,3983.696590,3552.988522,8808.450710
402.629159,2451.505594,4219.173869,8364.327145
402.629467,1378.971896,2146.597232,9918.759623
402.629775,1302.362347,296.082377,11917.315666
402.630083,0.000000,-518.144159,8882.471304
402.630391,-1302.362347,-2516.700203,11177.109724
402.630699,-3370.820191,-4293.194464,11695.253884
402.631006,-3753.867940,-3256.906145,12731.542202
402.631314,-3830.477490,-2516.700203,10881.027347
402.631622,-1685.410096,-888.247130,9918.759623
402.631930,1302.362347,1036.288319,9400.615463
402.632238,3294.210641,2294.638420,7031.956449
402.632546,3753.867940,3108.864956,6217.729913
402.632854,4290.134789,3404.947333,6883.915261
402.633162,3524.039291,3478.967927,8142.265362
402.633470,2221.676944,1998.556043,9992.780217
402.633777,2068.457845,-148.041188,11399.171507
402.634085,1225.752797,-740.205942,10732.986159
402.634393,-766.095498,-2442.679609,10288.862594
402.634701,-2221.676944,-4145.153275,11695.253884
402.635009,-2757.943793,-4367.215058,11991.336260
402.635317,-3370.820191,-3182.885551,11177.109724
402.635625,-1915.238745,-1184.329507,9844.739029
402.635933,842.705048,-740.205942,10436.903782
402.636241,2604.724693,1776.494261,7328.038826
402.636548,3983.696590,2738.761985,6291.750507
402.636856,4673.182538,3108.864956,6809.894666
402.637164,3140.991542,4367.215058,7179.997637
402.637472,2757.943793,2960.823768,9992.780217
402.637780,1532.190996,1702.473667,10140.821405
402.638088,459.657299,296.082377,10288.862594
402.638396,995.924147,-1332.370696,11547.212695
402.638704,-1915.238745,-2368.659014,10732.986159
402.639011,-2681.334243,-4071.132681,12657.521608
402.639319,-3140.991542,-2960.823768,11843.295072
402.639627,-2681.334243,-1480.411884,10807.006753
402.639935,-919.314598,-888.247130,10288.862594
402.640243,1608.800546,1554.432478,7846.182985
402.640551,3677.258390,2368.659014,7550.100608
402.640859,3447.429741,3478.967927,5847.626942
402.641167,4290.134789,3701.029710,6735.874072
402.641475,2911.162892,4071.132681,7994.224174
402.641782,2145.067394,2516.700203,9918.759623
402.642090,1915.238745,1110.308913,11029.068536
402.642398,383.047749,-222.061783,9696.697840
402.642706,-383.047749,-1924.535449,10881.027347
402.643014,-2528.115143,-4293.194464,11621.233289
402.643322,-3064.381992,-4071.132681,12213.398043
402.643630,-3294.210641,-3404.947333,11991.336260
402.643938,-1532.190996,-1702.473667,11399.171507
402.644246,383.047749,-444.123565,9992.780217
402.644553,2451.505594,2146.597232,7105.977043
402.644861,4596.572988,2590.720797,6661.853478
402.645169,3907.087040,3404.947333,6513.812290
402.645477,3983.696590,3775.050304,7105.977043
402.645785,3140.991542,3108.864956,8734.430116
402.646093,1762.019645,-74.020594,11103.089130
402.646401,1302.362347,-814.226536,10807.006753
402.646709,-1072.533697,-1628.453072,9918.759623
402.647017,-2298.286494,-3552.988522,11917.315666
402.647324,-3217.601092,-4663.297435,11769.274478
402.647632,-3983.696590,-3108.864956,11917.315666
402.647940,-3217.601092,-2442.679609,11103.089130
402.648248,0.000000,-888.247130,10584.944971
402.648556,1378.971896,2516.700203,6661.853478
402.648864,4673.182538,2738.761985,5551.544565
402.649172,4979.620737,3404.947333,5551.544565
402.649480,4060.306139,4589.276840,5773.606348
402.649788,2987.772442,4441.235652,7624.121203
402.650095,2681.334243,2146.597232,9918.759623
402.650403,1608.800546,740.205942,9770.718434
402.650711,-842.705048,-740.205942,10881.027347
402.651019,-1225.752797,-3627.009116,11103.089130
402.651327,-3753.867940,-4293.194464,11695.253884
402.651635,-4366.744339,-4145.153275,13027.624579
402.651943,-3140.991542,-3034.844362,12287.418637
402.652251,-1378.971896,-962.267725,10214.842000
402.652559,536.266849,814.226536,9696.697840
402.652866,4519.963438,2886.803174,6365.771101
402.653174,4903.011187,4145.153275,5477.523971
402.653482,4366.744339,3404.947333,6513.812290
402.653790,4826.401637,4811.338623,6587.832884
402.654098,3294.210641,4219.173869,8660.409521
402.654406,1838.629195,-0.000000,11473.192101
402.654714,1149.143247,-888.247130,11769.274478
402.655022,-1149.143247,-2590.720797,11325.150913
402.655330,-2911.162892,-4663.297435,12065.356855
402.655637,-4826.401637,-4959.379811,12879.583391
402.655945,-3447.429741,-3404.947333,13693.809927
402.656253,-2221.676944,-1850.514855,11843.295072
402.656561,306.438199,592.164754,9696.697840
402.656869,3140.991542,2294.638420,7031.956449
402.657177,5439.278036,3775.050304,6143.709319
402.657485,4903.011187,3552.988522,6365.771101
402.657793,5132.839837,4515.256246,6809.894666
402.658100,3907.087040,4367.215058,8290.306550
402.658408,2451.505594,2294.638420,10066.800811
402.658716,1455.581446,-370.102971,11325.150913
402.659024,-153.219100,-814.226536,11547.212695
402.659332,-2221.676944,-3182.885551,11769.274478
402.659640,-4136.915689,-4071.132681,11843.295072
402.659948,-3600.648841,-4293.194464,12731.542202
402.660256,-3907.087040,-2220.617826,12435.459826
402.660564,-1149.143247,-814.226536,10658.965565
402.660871,1762.019645,1554.432478,8364.327145
402.661179,3217.601092,3923.091493,5255.462188
402.661487,4903.011187,3404.947333,6439.791695
402.661795,5056.230287,4515.256246,6143.709319
402.662103,3677.258390,5625.565159,6439.791695
402.662411,2451.505594,3478.967927,9030.512492
402.662719,1991.848295,814.226536,11029.068536
402.663027,612.876398,-370.102971,11325.150913
402.663335,-1915.238745,-3108.864956,10955.047942
402.663642,-2757.943793,-4367.215058,11473.192101
402.663950,-3830.477490,-4737.318029,12879.583391
402.664258,-4213.525239,-3182.885551,12657.521608
402.664566,-1991.848295,-1998.556043,11917.315666
402.664874,536.266849,-0.000000,9770.718434
402.665182,2451.505594,2072.576638,6957.935855
402.665490,4673.182538,2294.638420,5995.668130
402.665798,4979.620737,3552.988522,6217.729913
402.666106,4366.744339,4071.132681,6069.688724
402.666413,2911.162892,3923.091493,7772.162391
402.666721,2374.896044,1332.370696,11177.109724
402.667029,766.095498,-518.144159,11177.109724
402.667337,-1225.752797,-1702.473667,10658.965565
402.667645,-2604.724693,-4367.215058,11547.212695
402.667953,-3983.696590,-4515.256246,12731.542202
402.668261,-3524.039291,-4589.276840,13767.830521
402.668569,-4903.011187,-2960.823768,10955.047942
402.668877,-2451.505594,-1406.391290,11695.253884
402.669184,3064.381992,814.226536,8512.368333
402.669492,2145.067394,4219.173869,4219.173869
402.669800,5439.278036,3404.947333,6735.874072
402.670108,4979.620737,3997.112087,5181.441594
402.670416,4060.306139,4811.338623,6883.915261
402.670724,2528.115143,2738.761985,9104.533087
402.671032,1685.410096,592.164754,10288.862594
402.671340,-229.828649,-1332.370696,11177.109724
402.671648,-3217.601092,-2368.659014,9326.594869
402.671955,-3600.648841,-4293.194464,13027.624579
402.672263,-5439.278036,-4885.359217,13545.768739
402.672571,-4519.963438,-3108.864956,12435.459826
402.672879,-2068.457845,-1850.514855,9992.780217
402.673187,383.047749,-0.000000,8512.368333
402.673495,3830.477490,2590.720797,7328.038826
402.673803,4443.353888,3701.029710,5625.565159
402.674111,5439.278036,3627.009116,7105.977043
402.674419,4290.134789,4663.297435,5551.544565
402.674726,4136.915689,4663.297435,7254.018232
402.675034,3064.381992,814.226536,11103.089130
402.675342,1762.019645,-370.102971,10732.986159
402.675650,612.876398,-814.226536,10066.800811
402.675958,-1915.238745,-4071.132681,10510.924376
402.676266,-3907.087040,-5255.462188,12731.542202
402.676574,-5132.839837,-4293.194464,13619.789333
402.676882,-2757.943793,-2886.803174,12731.542202
402.677189,-536.266849,-1036.288319,10881.027347
402.677497,2068.457845,1110.308913,7920.203579
402.677805,4060.306139,2368.659014,7031.956449
402.678113,4443.353888,2812.782580,8142.265362
402.678421,4749.792088,4293.194464,6735.874072
402.678729,3983.696590,4885.359217,7105.977043
402.679037,2604.724693,2738.761985,9548.656652
402.679345,2374.896044,444.123565,10658.965565
402.679653,1072.533697,-0.000000,9992.780217
402.679960,-1072.533697,-1406.391290,10658.965565
402.680268,-2604.724693,-4219.173869,11769.274478
402.680576,-4979.620737,-3849.070898,12731.542202
402.680884,-3753.867940,-2368.659014,13175.665768
402.681192,-2068.457845,-1628.453072,11473.192101
402.681500,536.266849,444.123565,8956.491898
402.681808,2911.162892,2516.700203,7254.018232
402.682116,5056.230287,3108.864956,7031.956449
402.682424,4596.572988,3775.050304,6365.771101
402.682732,4749.792088,5033.400406,6291.750507
402.683040,4596.572988,4515.256246,8216.285956
402.683348,2911.162892,1258.350101,9474.636058
402.683656,2298.286494,222.061783,9696.697840
402.683963,306.438199,-1036.288319,9548.656652
402.684271,-2145.067394,-3775.050304,11103.089130
402.684579,-3753.867940,-4293.194464,12509.480420
402.684887,-3983.696590,-4293.194464,13323.706956
402.685195,-2757.943793,-2738.761985,12879.583391
402.685503,-459.657299,-962.267725,9918.759623
402.685811,2528.115143,740.205942,8142.265362
