#time,accel_x,accel_y,accel_z
640.775903,-210.568389,6451.049730,-11121.839445
640.778091,421.136778,2756.531635,-7369.893608
640.780279,-535.992262,2143.969050,-11696.116869
640.782468,631.705166,-6106.483275,-7542.176835
640.784656,-555.134843,-10566.704602,-9150.153622
640.786844,57.427742,-11887.542677,-11581.261384
640.789032,1014.556782,-5398.207786,-9513.862658
640.791221,-2833.101958,2737.389054,-8767.302006
640.793409,1416.550979,-2450.250342,-9743.573627
640.795597,-593.420005,-133.998066,-10719.845248
640.797785,363.709035,-2354.537438,-7867.600709
640.799974,-114.855485,-3694.518094,-11351.550414
640.802415,-803.988394,-5053.641331,-8690.731683
640.804856,153.140646,-7235.895542,-8901.300072
640.807297,-172.283227,-7982.456194,-10183.852986
640.809738,-229.710970,-3426.521963,-11408.978157
640.812180,-133.998066,823.130974,-7542.176835
640.814621,-153.140646,4728.217458,-10930.413637
640.817062,612.562586,4747.360038,-8863.014910
640.819503,-612.562586,3675.375514,-9226.723946
640.821944,172.283227,-1033.699363,-10547.562021
640.824386,-248.853550,-3617.947771,-8403.592971
640.826827,114.855485,-5245.067139,-9686.145885
640.829268,-440.279358,-6087.340694,-10700.702667
640.831709,210.568389,-3866.801322,-8671.589102
640.834150,-191.425808,708.275490,-10088.140082
640.836592,-19.142581,3732.803256,-10126.425243
640.839033,344.566454,3445.664544,-7771.887805
640.841474,-172.283227,2679.961312,-11026.126541
640.843915,-114.855485,-650.847747,-8652.446522
640.846356,-133.998066,-2775.674216,-9705.288466
640.848798,38.285162,-5589.633594,-9245.866526
640.851239,-555.134843,-5551.348432,-10872.985894
640.853680,-19.142581,-3713.660675,-9188.438784
640.856121,-344.566454,459.421939,-10011.569758
640.858563,325.423874,2775.674216,-10241.280728
640.861004,-153.140646,3005.385186,-7905.885870
640.863445,287.138712,2354.537438,-10892.128475
640.865886,-153.140646,-38.285162,-8441.878133
640.868327,19.142581,-3120.240670,-10049.854920
640.870769,-76.570323,-6029.912952,-8939.585234
640.873210,-57.427742,-4575.076811,-10451.849117
640.875651,-535.992262,-2029.113565,-9896.714274
640.878092,-95.712904,1856.830338,-9877.571693
640.880533,-210.568389,3235.096155,-8480.163294
640.882975,229.710970,1990.828403,-10777.272990
640.885416,-95.712904,976.271621,-9073.583299
640.887857,38.285162,-1071.984525,-8518.448456
640.890298,-210.568389,-2833.101958,-11236.694930
640.892739,-133.998066,-5532.205851,-8212.167163
640.895181,-574.277424,-4077.369710,-11102.696864
640.897622,-0.000000,-2220.539373,-9839.286531
640.900170,344.566454,1684.547110,-8384.450390
640.902718,-401.994197,3215.953574,-9590.432981
640.905266,19.142581,2201.396792,-10470.991698
640.907814,-306.281293,114.855485,-7791.030386
640.910362,-57.427742,-1971.685822,-10738.987829
640.912909,19.142581,-4000.799387,-9341.579430
640.915457,-248.853550,-4996.213589,-8901.300072
640.918005,-248.853550,-3560.520029,-11255.837510
640.920553,-172.283227,-38.285162,-9379.864592
640.923101,-114.855485,2813.959378,-8939.585234
640.925649,401.994197,1378.265818,-9686.145885
640.928197,-363.709035,1167.697429,-10643.274925
640.930745,267.996131,-1052.841944,-7752.745224
640.933293,-459.421939,-2124.826469,-11083.554283
640.935841,287.138712,-4096.512291,-9207.581365
640.938389,-555.134843,-3369.094221,-9571.290400
640.940937,133.998066,-1684.547110,-10432.706536
640.943485,-325.423874,1454.836141,-9265.009107
640.946033,-19.142581,2565.105827,-9667.003304
640.948581,-95.712904,1167.697429,-9667.003304
640.951129,-0.000000,114.855485,-9475.577496
640.953677,-76.570323,-1646.261949,-8786.444587
640.956224,-114.855485,-2488.535504,-10719.845248
640.958772,-114.855485,-4268.795518,-8269.594906
640.961320,-76.570323,-3407.379382,-11217.552349
640.963868,-133.998066,-1588.834206,-9456.434915
640.966416,-363.709035,1320.838075,-9245.866526
640.968964,401.994197,1569.691626,-10279.565890
640.971512,-669.990328,1359.123237,-8977.870395
640.974060,382.851616,19.142581,-9475.577496
640.976608,-229.710970,-1071.984525,-9456.434915
640.979156,76.570323,-1703.689691,-9399.007173
640.981704,-95.712904,-4230.510357,-9418.149754
640.984252,-421.136778,-2699.103893,-10777.272990
640.986800,76.570323,-1646.261949,-8939.585234
640.989348,-133.998066,957.129040,-10049.854920
640.991896,-19.142581,1091.127106,-9322.436850
640.994444,-95.712904,937.986459,-9973.284597
640.996992,76.570323,-497.707101,-8901.300072
640.999539,-172.283227,-1282.552914,-10183.852986
641.002126,382.851616,-2258.824534,-8824.729749
641.004712,-669.990328,-2565.105827,-10317.851051
641.007298,248.853550,-2029.113565,-10547.562021
641.009885,-421.136778,-229.710970,-8384.450390
641.012471,114.855485,555.134843,-10892.128475
641.015057,19.142581,-248.853550,-8537.591037
641.017644,-229.710970,-248.853550,-9896.714274
641.020230,19.142581,-1473.978722,-9724.431046
641.022816,-306.281293,-555.134843,-9647.860723
641.025403,344.566454,-2450.250342,-8595.018779
641.027989,-497.707101,-2258.824534,-11236.694930
641.030575,-19.142581,-1780.260014,-9379.864592
641.033162,57.427742,-133.998066,-9131.011042
641.035748,-421.136778,708.275490,-10719.845248
641.038334,248.853550,-593.420005,-8709.874264
641.040921,-57.427742,133.998066,-9494.720077
641.043507,-114.855485,-287.138712,-9992.427178
641.046093,-153.140646,-325.423874,-9475.577496
641.048680,57.427742,-2756.531635,-8422.735552
641.051266,-421.136778,-2737.389054,-11791.829773
641.053852,-19.142581,-2469.392923,-7886.743290
641.056439,-114.855485,-57.427742,-10298.708470
641.059025,-153.140646,210.568389,-9973.284597
641.061611,-76.570323,325.423874,-8652.446522
641.064198,-133.998066,382.851616,-10068.997501
641.066784,-153.140646,0.000000,-9973.284597
641.069370,229.710970,-1244.267752,-8614.161360
641.071957,-421.136778,-3062.812928,-9762.716208
641.074543,-114.855485,-2794.816797,-10949.556218
641.077129,-95.712904,-2373.680019,-7886.743290
641.079716,-114.855485,-57.427742,-10834.700733
641.082302,-19.142581,535.992262,-9494.720077
641.084888,-133.998066,861.416136,-9322.436850
641.087475,-133.998066,306.281293,-9801.001370
641.090061,-57.427742,-401.994197,-9705.288466
641.092647,-153.140646,-1971.685822,-9054.440718
641.095233,-363.709035,-3273.381317,-10547.562021
641.097820,153.140646,-2737.389054,-9801.001370
641.100406,-459.421939,-1052.841944,-8977.870395
641.102992,19.142581,287.138712,-10566.704602
641.105591,-172.283227,172.283227,-8422.735552
641.108189,-38.285162,593.420005,-10202.995566
641.110787,-210.568389,38.285162,-9705.288466
641.113385,-19.142581,-133.998066,-9724.431046
641.115983,-114.855485,-1761.117434,-8901.300072
641.118581,-401.994197,-2871.387120,-10949.556218
641.121179,-76.570323,-2392.822600,-9647.860723
641.123777,191.425808,-823.130974,-8518.448456
641.126375,19.142581,114.855485,-10451.849117
641.128973,-459.421939,-401.994197,-9111.868461
641.131571,497.707101,-612.562586,-9303.294269
641.134169,-210.568389,-401.994197,-9743.573627
641.136767,-478.564520,0.000000,-10049.854920
641.139365,344.566454,-1933.400661,-8269.594906
641.141963,-650.847747,-1091.127106,-11179.267187
641.144561,-57.427742,-1780.260014,-9188.438784
641.147159,-19.142581,-1129.412267,-9647.860723
641.149758,-172.283227,-918.843878,-9686.145885
641.152356,-38.285162,-1512.263883,-9973.284597
641.154954,-133.998066,-401.994197,-9437.292334
641.157552,-38.285162,172.283227,-9456.434915
641.160150,-0.000000,555.134843,-10011.569758
641.162748,-114.855485,-1263.410333,-8327.022648
641.165346,-95.712904,-1473.978722,-11121.839445
641.167944,-57.427742,-2335.394858,-9284.151688
641.170542,-153.140646,-1167.697429,-10432.706536
641.173140,19.142581,-1761.117434,-8939.585234
641.175738,-210.568389,-95.712904,-10470.991698
641.178336,76.570323,382.851616,-9399.007173
641.180934,57.427742,861.416136,-9552.147819
641.183532,-382.851616,401.994197,-9590.432981
641.186130,19.142581,-2239.681954,-9399.007173
641.188728,-172.283227,-2526.820666,-10317.851051
641.191326,-57.427742,-2603.390989,-8997.012976
641.193925,-172.283227,-976.271621,-10375.278794
641.196523,-172.283227,-1033.699363,-8480.163294
641.199121,-38.285162,172.283227,-10815.558152
641.201719,-210.568389,650.847747,-9092.725880
641.204317,-19.142581,593.420005,-9322.436850
641.206915,57.427742,-937.986459,-9743.573627
641.209346,-382.851616,-2067.398726,-10509.276859
641.211777,133.998066,-2775.674216,-9245.866526
641.214208,-382.851616,-1378.265818,-9743.573627
641.216639,-0.000000,-708.275490,-9686.145885
641.219071,-57.427742,-593.420005,-9131.011042
641.221502,-344.566454,708.275490,-10662.417506
641.223933,287.138712,-95.712904,-8518.448456
641.226364,-229.710970,153.140646,-9992.427178
641.228795,-153.140646,-2105.683888,-9207.581365
641.231226,-172.283227,-2335.394858,-10566.704602
641.233657,-172.283227,-2431.107762,-9188.438784
641.236089,-133.998066,-937.986459,-9762.716208
641.238520,-19.142581,19.142581,-9954.142016
641.240951,-153.140646,-76.570323,-8901.300072
641.243382,-0.000000,-803.988394,-9820.143950
641.245813,-38.285162,-153.140646,-9418.149754
641.248244,-133.998066,-689.132909,-9571.290400
641.250676,-19.142581,-3024.527766,-9303.294269
641.253107,-210.568389,-2373.680019,-10585.847182
641.255538,-57.427742,-2029.113565,-8843.872330
641.257969,248.853550,-555.134843,-10298.708470
641.260400,-153.140646,-459.421939,-8537.591037
641.262831,-19.142581,-363.709035,-10662.417506
641.265262,38.285162,-95.712904,-9667.003304
641.267694,-0.000000,478.564520,-9169.296203
641.270125,-382.851616,172.283227,-10068.997501
641.272556,76.570323,-2086.541307,-9303.294269
641.274987,-765.703232,-1837.687757,-9743.573627
641.277418,-57.427742,-2411.965181,-9533.005238
641.279849,76.570323,-1091.127106,-10183.852986
641.282280,-574.277424,-516.849682,-8422.735552
641.284712,133.998066,363.709035,-11217.552349
641.287143,325.423874,363.709035,-8843.872330
641.289574,-287.138712,1052.841944,-8709.874264
641.292005,555.134843,-1933.400661,-9896.714274
641.294436,-574.277424,-2526.820666,-10432.706536
641.296867,-287.138712,-2813.959378,-8920.442653
641.299298,-229.710970,-1493.121302,-10356.136213
641.301730,-727.418070,727.418070,-10872.985894
641.304161,497.707101,-344.566454,-7140.182638
641.306655,-19.142581,229.710970,-10719.845248
641.309149,-19.142581,-689.132909,-10317.851051
641.311643,-57.427742,-191.425808,-8480.163294
641.314137,172.283227,-2507.678085,-9705.288466
641.316631,-765.703232,-2201.396792,-11504.691061
641.319125,612.562586,-2354.537438,-7714.460062
641.321620,-229.710970,-76.570323,-10662.417506
641.324114,-287.138712,535.992262,-10126.425243
641.326608,114.855485,172.283227,-8824.729749
641.329102,-95.712904,-114.855485,-9934.999435
641.331596,-363.709035,-325.423874,-10145.567824
641.334090,172.283227,-574.277424,-8882.157491
641.336584,-76.570323,-2775.674216,-8824.729749
641.339078,-459.421939,-2373.680019,-11676.974288
641.341573,210.568389,-2354.537438,-8231.309744
641.344067,-114.855485,-612.562586,-9896.714274
641.346561,-401.994197,325.423874,-10987.841379
641.349055,172.283227,574.277424,-8671.589102
641.351549,-95.712904,765.703232,-9399.007173
641.354043,-57.427742,210.568389,-10624.132344
641.356537,-133.998066,-976.271621,-8020.741355
641.359031,210.568389,-4173.082614,-9896.714274
641.361526,-631.705166,-3522.234867,-11408.978157
641.364020,-229.710970,-2813.959378,-8154.739421
641.366514,325.423874,-918.843878,-10451.849117
641.369008,-440.279358,535.992262,-9686.145885
641.371502,133.998066,2163.111630,-9724.431046
641.373996,-76.570323,1741.974853,-8633.303941
641.376490,-440.279358,765.703232,-10643.274925
641.378984,382.851616,-1703.689691,-8709.874264
641.381479,-248.853550,-3579.662610,-9475.577496
641.383973,-401.994197,-3579.662610,-10968.698798
641.386502,-57.427742,-3120.240670,-8882.157491
641.389032,-287.138712,-1588.834206,-9609.575562
641.391561,-803.988394,-1014.556782,-9667.003304
641.394090,1091.127106,363.709035,-10145.567824
641.396620,-784.845813,2909.672282,-9877.571693
641.399149,363.709035,2258.824534,-10241.280728
641.401679,-210.568389,-497.707101,-7312.465866
641.404208,-516.849682,-2201.396792,-11542.976222
641.406737,-57.427742,-3713.660675,-10585.847182
641.409267,-153.140646,-2182.254211,-8748.159426
641.411796,995.414202,-2067.398726,-8231.309744
641.414326,-727.418070,-727.418070,-10777.272990
641.416855,-76.570323,401.994197,-10872.985894
641.419384,478.564520,516.849682,-7331.608446
641.421914,-382.851616,1071.984525,-10068.997501
641.424443,-0.000000,-1722.832272,-10011.569758
641.426973,-459.421939,-1263.410333,-9743.573627
641.429502,-574.277424,-1531.406464,-9360.722011
641.432031,669.990328,-1263.410333,-11006.983960
641.434561,-287.138712,-765.703232,-7312.465866
641.437090,-459.421939,-842.273555,-10777.272990
641.439620,459.421939,-1780.260014,-10853.843314
641.442149,-191.425808,-344.566454,-8288.737486
641.444678,38.285162,-593.420005,-8958.727814
641.447208,-421.136778,-1607.976787,-10470.991698
641.449737,-153.140646,-727.418070,-10624.132344
641.452267,669.990328,-1607.976787,-7752.745224
641.454796,-823.130974,-76.570323,-11102.696864
641.457325,210.568389,-842.273555,-9265.009107
641.459855,38.285162,-401.994197,-9437.292334
641.462384,-248.853550,-689.132909,-9934.999435
641.464914,-114.855485,-172.283227,-10145.567824
641.467443,248.853550,-1588.834206,-7408.178770
641.469972,1359.123237,-2277.967115,-11810.972354
641.472502,-1282.552914,191.425808,-10547.562021
641.475031,-248.853550,267.996131,-6929.614250
641.477561,631.705166,-880.558717,-11428.120738
641.480090,-1205.982590,-1741.974853,-8729.016845
641.482620,344.566454,-2163.111630,-9762.716208
641.485149,478.564520,-1990.828403,-8193.024582
641.487702,-1033.699363,727.418070,-10298.708470
641.490256,421.136778,-1378.265818,-9801.001370
641.492809,-229.710970,-401.994197,-9475.577496
641.495363,-516.849682,-631.705166,-9820.143950
641.497917,-19.142581,-746.560651,-10566.704602
641.500470,-38.285162,-746.560651,-8346.165229
641.503024,-76.570323,-1627.119368,-10758.130410
641.505577,-133.998066,-1301.695494,-9820.143950
641.508131,-38.285162,-880.558717,-8614.161360
641.510684,-38.285162,-229.710970,-10585.847182
641.513238,-76.570323,-1320.838075,-8824.729749
641.515791,-210.568389,-401.994197,-10375.278794
641.518345,133.998066,-1703.689691,-9150.153622
641.520898,-248.853550,-459.421939,-10260.423309
641.523452,-19.142581,-1225.125171,-8633.303941
641.526005,-76.570323,-1531.406464,-10432.706536
641.528559,229.710970,-1473.978722,-9590.432981
641.531112,-325.423874,114.855485,-9188.438784
641.533666,-76.570323,842.273555,-10624.132344
641.536219,-344.566454,-899.701298,-8863.014910
641.538773,-363.709035,-899.701298,-10432.706536
641.541326,535.992262,-2201.396792,-9743.573627
641.543880,-650.847747,-593.420005,-9111.868461
641.546433,363.709035,-2603.390989,-9475.577496
641.548987,-287.138712,-803.988394,-10834.700733
641.551541,-267.996131,-229.710970,-8384.450390
641.554094,248.853550,516.849682,-10241.280728
641.556648,-344.566454,-172.283227,-9552.147819
641.559201,-76.570323,-1588.834206,-9456.434915
641.561755,38.285162,-1627.119368,-10222.138147
641.564308,-421.136778,-1186.840010,-9111.868461
641.566862,-76.570323,-95.712904,-10432.706536
641.569415,153.140646,-1703.689691,-8575.876198
641.571969,-631.705166,-612.562586,-10528.419440
641.574522,287.138712,-1627.119368,-9399.007173
641.577076,-555.134843,172.283227,-9418.149754
641.579629,306.281293,-1761.117434,-8920.442653
641.582183,-153.140646,-880.558717,-11294.122672
641.584736,-19.142581,-746.560651,-8193.024582
641.587290,-133.998066,-76.570323,-10049.854920
641.589857,-19.142581,-191.425808,-10068.997501
641.592424,-0.000000,-1378.265818,-8671.589102
641.594990,-172.283227,-1167.697429,-10413.563955
641.597557,-172.283227,-1282.552914,-9552.147819
641.600124,-95.712904,-344.566454,-9360.722011
641.602691,210.568389,-1703.689691,-9054.440718
641.605258,-38.285162,-1091.127106,-11428.120738
641.607825,95.712904,-842.273555,-8422.735552
641.610392,-459.421939,555.134843,-9781.858789
641.612958,-76.570323,-784.845813,-9877.571693
641.615525,-191.425808,-1320.838075,-9303.294269
641.618092,248.853550,-2163.111630,-9475.577496
641.620659,-497.707101,-746.560651,-9743.573627
641.623226,229.710970,-229.710970,-9131.011042
641.625793,-363.709035,-1186.840010,-9628.718142
641.628360,-133.998066,-650.847747,-10719.845248
641.630926,-0.000000,-1588.834206,-8327.022648
641.633493,-95.712904,-612.562586,-10662.417506
641.636060,-133.998066,-1091.127106,-8767.302006
641.638627,-325.423874,-478.564520,-10241.280728
641.641194,267.996131,-1244.267752,-9552.147819
641.643761,-382.851616,459.421939,-9533.005238
641.646328,-19.142581,-172.283227,-9150.153622
641.648894,-0.000000,-1837.687757,-10126.425243
641.651461,-76.570323,-1722.832272,-8805.587168
641.654028,-57.427742,-1607.976787,-9513.862658
641.656595,-153.140646,-899.701298,-10241.280728
641.659162,325.423874,-2450.250342,-7982.456194
641.661729,-95.712904,-784.845813,-11026.126541
641.664296,114.855485,-248.853550,-9226.723946
641.666863,-957.129040,1895.115499,-9743.573627
641.669429,842.273555,-267.996131,-9073.583299
641.671996,-1435.693560,172.283227,-10662.417506
641.674563,823.130974,-2105.683888,-8748.159426
641.677130,-459.421939,-1856.830338,-10126.425243
641.679697,-267.996131,-1607.976787,-9724.431046
641.682264,306.281293,-2813.959378,-9207.581365
641.684831,-497.707101,-593.420005,-10202.995566
641.687397,267.996131,-689.132909,-9341.579430
641.689964,-153.140646,1110.269686,-9839.286531
641.692538,133.998066,-823.130974,-8958.727814
641.695111,-555.134843,0.000000,-11179.267187
641.697684,229.710970,-1225.125171,-8327.022648
641.700257,-306.281293,-612.562586,-10260.423309
641.702830,-153.140646,-1761.117434,-9437.292334
641.705403,38.285162,-2813.959378,-9954.142016
641.707976,-19.142581,-2411.965181,-9724.431046
641.710549,-153.140646,-1244.267752,-9628.718142
641.713122,229.710970,-267.996131,-9456.434915
641.715695,-76.570323,-229.710970,-9513.862658
641.718268,-57.427742,937.986459,-10700.702667
641.720841,-114.855485,229.710970,-8193.024582
641.723414,-114.855485,95.712904,-10298.708470
641.725987,-38.285162,-2373.680019,-8518.448456
641.728560,19.142581,-2143.969050,-11121.839445
641.731133,-38.285162,-2220.539373,-9035.298138
641.733706,-478.564520,-76.570323,-9781.858789
641.736278,344.566454,-516.849682,-9379.864592
641.738851,-344.566454,-574.277424,-9667.003304
641.741424,153.140646,-842.273555,-9877.571693
641.743997,-0.000000,-401.994197,-8748.159426
641.746570,-153.140646,114.855485,-10662.417506
641.749143,-133.998066,-1914.258080,-8441.878133
641.751716,-172.283227,-1646.261949,-10815.558152
641.754289,-95.712904,-2507.678085,-8997.012976
641.756862,-248.853550,-133.998066,-10068.997501
641.759435,38.285162,-765.703232,-9054.440718
641.762008,-153.140646,-842.273555,-10815.558152
641.764581,-19.142581,-784.845813,-8671.589102
641.767154,-153.140646,-76.570323,-9609.575562
641.769727,38.285162,-612.562586,-10356.136213
641.772300,-172.283227,-1359.123237,-8633.303941
641.774873,210.568389,-1263.410333,-10298.708470
641.777446,-229.710970,-957.129040,-9915.856854
641.780019,-76.570323,-38.285162,-9284.151688
641.782592,76.570323,-1512.263883,-9207.581365
641.785165,-497.707101,-823.130974,-10911.271056
641.787738,287.138712,-1952.543242,-8422.735552
641.790311,-363.709035,-363.709035,-10317.851051
641.792883,267.996131,-803.988394,-9647.860723
641.795458,-344.566454,-784.845813,-8863.014910
641.798032,153.140646,-937.986459,-10566.704602
641.800606,-593.420005,229.710970,-9686.145885
641.803180,363.709035,-842.273555,-9188.438784
641.805754,-267.996131,-2029.113565,-9877.571693
641.808328,-95.712904,-1435.693560,-9781.858789
641.810903,-153.140646,-1684.547110,-9035.298138
641.813477,-172.283227,-191.425808,-10777.272990
641.816051,172.283227,-1493.121302,-7963.313613
641.818625,-784.845813,-57.427742,-11236.694930
641.821199,535.992262,-976.271621,-9360.722011
641.823773,-535.992262,497.707101,-9667.003304
641.826348,306.281293,-95.712904,-10126.425243
641.828922,-287.138712,-803.988394,-9437.292334
641.831496,-248.853550,-689.132909,-9686.145885
641.834070,612.562586,-2182.254211,-9207.581365
641.836644,-689.132909,-1186.840010,-10336.993632
641.839218,363.709035,-3847.658741,-8518.448456
641.841793,-172.283227,-1780.260014,-11294.122672
641.844367,-95.712904,-765.703232,-8843.872330
641.846941,-133.998066,1244.267752,-9418.149754
641.849515,114.855485,229.710970,-9801.001370
641.852089,-344.566454,287.138712,-9934.999435
641.854663,-19.142581,-555.134843,-9188.438784
641.857238,-191.425808,-593.420005,-9801.001370
641.859812,-57.427742,-1282.552914,-9896.714274
641.862386,-0.000000,-2890.529701,-9131.011042
641.864960,-267.996131,-1703.689691,-10164.710405
641.867534,38.285162,-1550.549045,-9513.862658
641.870108,-191.425808,19.142581,-9188.438784
641.872683,535.992262,-765.703232,-9954.142016
641.875257,-497.707101,459.421939,-9877.571693
641.877831,229.710970,-727.418070,-8652.446522
641.880405,-784.845813,76.570323,-10872.985894
641.882979,344.566454,-1473.978722,-8499.305875
641.885553,-593.420005,-1799.402595,-10222.138147
641.888128,114.855485,-1933.400661,-9571.290400
641.890702,-382.851616,-555.134843,-9437.292334
641.893276,229.710970,-459.421939,-10011.569758
641.895850,-229.710970,-1454.836141,-9571.290400
641.898426,-76.570323,-574.277424,-10107.282662
641.901001,-133.998066,-842.273555,-8652.446522
641.903577,-76.570323,287.138712,-10509.276859
641.906152,-0.000000,-708.275490,-8518.448456
641.908728,-191.425808,-1071.984525,-10796.415571
641.911303,19.142581,-1646.261949,-9284.151688
641.913879,-363.709035,-765.703232,-9245.866526
641.916455,325.423874,-1856.830338,-10145.567824
641.919030,-535.992262,-1167.697429,-9418.149754
641.921606,287.138712,-957.129040,-9801.001370
641.924181,-459.421939,-191.425808,-9207.581365
641.926757,172.283227,95.712904,-10336.993632
641.929332,-114.855485,-1014.556782,-8193.024582
641.931908,-95.712904,-555.134843,-11294.122672
641.934483,-76.570323,-1818.545176,-8556.733618
641.937059,-555.134843,-880.558717,-9781.858789
641.939635,497.707101,-2507.678085,-9743.573627
641.942210,-727.418070,-1129.412267,-9762.716208
641.944786,765.703232,-1129.412267,-10413.563955
641.947361,-765.703232,1225.125171,-8939.585234
641.949937,478.564520,727.418070,-9686.145885
641.952512,-593.420005,-497.707101,-9437.292334
641.955088,306.281293,-1416.550979,-9609.575562
641.957663,-267.996131,-1856.830338,-9667.003304
641.960239,-76.570323,-1186.840010,-9801.001370
641.962815,38.285162,-2469.392923,-8939.585234
641.965390,-459.421939,-1110.269686,-10834.700733
641.967966,459.421939,-2105.683888,-8786.444587
641.970541,-861.416136,803.988394,-9915.856854
641.973117,344.566454,593.420005,-10317.851051
641.975692,-593.420005,267.996131,-8556.733618
641.978268,555.134843,-746.560651,-10183.852986
641.980843,-287.138712,-1033.699363,-9667.003304
641.983419,38.285162,-1263.410333,-9303.294269
641.985994,-19.142581,-3483.949706,-9169.296203
641.988570,-478.564520,-2105.683888,-11140.982026
641.991146,38.285162,-1454.836141,-8690.731683
641.993721,-95.712904,555.134843,-10643.274925
641.996297,-19.142581,459.421939,-9035.298138
641.998872,-133.998066,1129.412267,-9896.714274
642.001447,114.855485,-153.140646,-9667.003304
642.004021,-440.279358,-612.562586,-9226.723946
642.006596,593.420005,-2431.107762,-9954.142016
642.009170,-440.279358,-3407.379382,-9303.294269
642.011745,191.425808,-2871.387120,-9647.860723
642.014319,-593.420005,-650.847747,-9820.143950
642.016894,95.712904,1339.980656,-10566.704602
642.019469,-382.851616,1071.984525,-7829.315547
642.022043,57.427742,1091.127106,-11198.409768
642.024618,-114.855485,-172.283227,-9360.722011
642.027192,-19.142581,-1091.127106,-9418.149754
642.029767,-191.425808,-3637.090352,-9590.432981
642.032341,-478.564520,-3579.662610,-10202.995566
642.034916,344.566454,-3235.096155,-8729.016845
642.037490,-631.705166,-382.851616,-10432.706536
642.040065,401.994197,421.136778,-10011.569758
642.042639,-210.568389,995.414202,-7982.456194
642.045214,191.425808,1339.980656,-11715.259450
642.047788,-363.709035,478.564520,-7771.887805
642.050363,153.140646,-574.277424,-9915.856854
642.052938,-344.566454,-2737.389054,-9552.147819
642.055512,-95.712904,-3235.096155,-10145.567824
642.058087,-248.853550,-3732.803256,-8729.016845
642.060661,-574.277424,-1531.406464,-10547.562021
642.063236,516.849682,-574.277424,-9686.145885
642.065810,-555.134843,1110.269686,-10088.140082
642.068385,76.570323,1301.695494,-9743.573627
642.070959,-0.000000,1933.400661,-8709.874264
642.073534,57.427742,440.279358,-9801.001370
642.076108,-421.136778,-2622.533570,-9533.005238
642.078683,19.142581,-3349.951640,-10145.567824
642.081257,-133.998066,-3943.371645,-8671.589102
642.083832,-401.994197,-1512.263883,-11045.269122
642.086406,267.996131,-1435.693560,-8633.303941
642.088981,-421.136778,650.847747,-10145.567824
642.091556,153.140646,937.986459,-10222.138147
642.094130,-76.570323,1952.543242,-8480.163294
642.096705,344.566454,535.992262,-9896.714274
642.099279,-689.132909,-1856.830338,-9724.431046
642.101854,344.566454,-2603.390989,-9915.856854
642.104425,-650.847747,-2507.678085,-9571.290400
642.106997,95.712904,-1531.406464,-10681.560086
642.109569,344.566454,-2488.535504,-7886.743290
642.112140,-555.134843,-172.283227,-11389.835576
642.114712,325.423874,-727.418070,-9245.866526
642.117284,-153.140646,1167.697429,-8958.727814
642.119856,191.425808,191.425808,-9667.003304
642.122427,-440.279358,-267.996131,-10490.134278
642.124999,191.425808,-1435.693560,-8346.165229
642.127571,-229.710970,-1493.121302,-10222.138147
642.130142,-0.000000,-1186.840010,-10145.567824
642.132714,-172.283227,-2431.107762,-8403.592971
642.135286,-57.427742,-1148.554848,-10872.985894
642.137857,-114.855485,-1320.838075,-9016.155557
642.140429,-19.142581,133.998066,-9705.288466
642.143001,267.996131,-1167.697429,-9341.579430
642.145572,-344.566454,19.142581,-10145.567824
642.148144,-114.855485,-478.564520,-9571.290400
642.150716,-19.142581,937.986459,-10336.993632
642.153288,-612.562586,2584.248408,-9169.296203
642.155859,440.279358,1339.980656,-9992.427178
642.158431,-631.705166,2507.678085,-10068.997501
642.161003,306.281293,2124.826469,-9284.151688
642.163574,-76.570323,-842.273555,-9207.581365
642.166146,-229.710970,-918.843878,-11121.839445
642.168718,-401.994197,-38.285162,-8518.448456
642.171289,-133.998066,-172.283227,-9820.143950
642.173861,19.142581,555.134843,-11064.411702
642.176433,191.425808,3924.229064,-8767.302006
642.179004,-306.281293,5283.352301,-9896.714274
642.181576,-76.570323,5359.922624,-11217.552349
642.184148,-612.562586,765.703232,-6699.903280
642.186719,689.132909,-3311.666478,-11753.544611
642.189291,38.285162,-6144.768437,-8729.016845
642.191863,-784.845813,-5666.203917,-8977.870395
642.194435,497.707101,-4345.365842,-11006.983960
642.197006,-440.279358,-344.566454,-9207.581365
642.199578,172.283227,1244.267752,-9437.292334
642.202150,-172.283227,2297.109696,-10624.132344
642.204721,-19.142581,4058.227130,-9743.573627
642.207291,-0.000000,1033.699363,-7484.749093
642.209860,-95.712904,-1493.121302,-11638.689126
642.212430,-229.710970,-4402.793584,-8901.300072
642.214999,76.570323,-4632.504554,-9341.579430
642.217569,-421.136778,-3043.670347,-9647.860723
642.220138,57.427742,-765.703232,-9418.149754
642.222708,38.285162,344.566454,-9475.577496
642.225277,-153.140646,2354.537438,-10547.562021
642.227847,363.709035,2622.533570,-8288.737486
642.230416,-516.849682,459.421939,-8575.876198
642.232986,-114.855485,-2641.676150,-11791.829773
642.235555,-191.425808,-4249.652938,-8422.735552
642.238124,172.283227,-3732.803256,-9781.858789
642.240694,-497.707101,-2431.107762,-10662.417506
642.243263,210.568389,-440.279358,-9437.292334
642.245833,-19.142581,650.847747,-8556.733618
642.248402,-421.136778,2335.394858,-11906.685258
642.250972,708.275490,1531.406464,-7867.600709
642.253541,-689.132909,76.570323,-10164.710405
642.256111,248.853550,-3522.234867,-10968.698798
642.258680,-19.142581,-3809.373579,-7503.891674
642.261250,-172.283227,-2909.672282,-10566.704602
642.263819,-612.562586,-1837.687757,-11064.411702
642.266389,516.849682,-363.709035,-8059.026517
642.268958,-401.994197,976.271621,-9896.714274
642.271528,-95.712904,2431.107762,-12174.681389
642.274097,191.425808,746.560651,-6029.912952
642.276667,-153.140646,-95.712904,-10394.421374
642.279236,-363.709035,-2813.959378,-11006.983960
642.281805,38.285162,-3503.092286,-7331.608446
642.284375,-57.427742,-3101.098090,-10987.841379
642.286944,-497.707101,-1875.972918,-10681.560086
642.289514,229.710970,-823.130974,-8365.307810
642.292083,-497.707101,612.562586,-11217.552349
642.294653,133.998066,2124.826469,-9628.718142
642.297222,19.142581,995.414202,-7350.751027
642.299792,-153.140646,-650.847747,-11810.972354
642.302361,-191.425808,-2890.529701,-8882.157491
642.304931,-0.000000,-2431.107762,-9073.583299
642.307500,-823.130974,-2737.389054,-10796.415571
642.310066,574.277424,-2756.531635,-9571.290400
642.312631,-555.134843,-1378.265818,-8843.872330
642.315197,57.427742,-267.996131,-11217.552349
642.317762,-57.427742,2584.248408,-8977.870395
642.320328,-153.140646,2220.539373,-8269.594906
642.322893,382.851616,574.277424,-11198.409768
642.325459,-516.849682,-1263.410333,-8039.883936
642.328024,497.707101,-3292.523898,-10413.563955
642.330590,-823.130974,-3579.662610,-9150.153622
642.333156,440.279358,-3445.664544,-9245.866526
642.335721,-555.134843,-1627.119368,-10432.706536
642.338287,-38.285162,1205.982590,-10528.419440
642.340852,191.425808,2450.250342,-7159.325219
642.343418,-382.851616,2507.678085,-11274.980091
642.345983,248.853550,-229.710970,-9456.434915
642.348549,-440.279358,-1091.127106,-7982.456194
642.351114,287.138712,-2794.816797,-11447.263318
642.353680,-382.851616,-3617.947771,-8556.733618
642.356245,-76.570323,-3675.375514,-9513.862658
642.358811,-363.709035,-2603.390989,-10662.417506
642.361376,-76.570323,229.710970,-10145.567824
642.363942,114.855485,1205.982590,-7599.604578
642.366508,-382.851616,2545.963246,-11542.976222
642.369073,-0.000000,478.564520,-8231.309744
642.371639,57.427742,-1014.556782,-9667.003304
642.374204,-191.425808,-2699.103893,-10796.415571
642.376770,-248.853550,-3579.662610,-8212.167163
642.379335,114.855485,-3847.658741,-10662.417506
642.381901,-612.562586,-1684.547110,-9858.429112
642.384466,459.421939,1014.556782,-9590.432981
642.387032,-248.853550,1684.547110,-8575.876198
642.389597,-0.000000,1761.117434,-10987.841379
642.392163,-0.000000,-689.132909,-8480.163294
642.394728,-191.425808,-1205.982590,-9801.001370
642.397294,19.142581,-2909.672282,-10260.423309
642.399859,-267.996131,-2909.672282,-8786.444587
642.402425,57.427742,-2775.674216,-10068.997501
642.404991,-363.709035,-1033.699363,-10624.132344
642.407556,306.281293,1167.697429,-8288.737486
642.410122,-172.283227,1263.410333,-9647.860723
642.412684,-210.568389,440.279358,-10509.276859
642.415246,76.570323,-1416.550979,-8461.020714
642.417808,-191.425808,-1512.263883,-10317.851051
642.420370,-172.283227,-2737.389054,-9475.577496
642.422932,38.285162,-2526.820666,-9686.145885
642.425495,-229.710970,-2086.541307,-9705.288466
642.428057,-133.998066,-76.570323,-10566.704602
642.430619,210.568389,1378.265818,-8231.309744
642.433181,-248.853550,1282.552914,-10241.280728
642.435743,-153.140646,-95.712904,-9839.286531
642.438305,38.285162,-1473.978722,-8671.589102
642.440868,-746.560651,-1569.691626,-10777.272990
642.443430,-114.855485,-3273.381317,-9265.009107
642.445992,172.283227,-3024.527766,-9188.438784
642.448554,-172.283227,-1454.836141,-9973.284597
642.451116,-306.281293,2431.107762,-11026.126541
642.453678,363.709035,2220.539373,-6795.616184
642.456240,-248.853550,2565.105827,-11332.407834
642.458803,-95.712904,-765.703232,-8729.016845
642.461365,133.998066,-3885.943902,-8863.014910
642.463927,-19.142581,-4785.645200,-11715.259450
642.466489,-497.707101,-3694.518094,-7848.458128
642.469051,440.279358,-2718.246474,-10260.423309
642.471613,-631.705166,0.000000,-10834.700733
642.474176,172.283227,2756.531635,-9188.438784
642.476738,172.283227,1990.828403,-8307.880067
642.479300,-287.138712,1627.119368,-10662.417506
642.481862,-0.000000,-1952.543242,-7886.743290
642.484424,-363.709035,-2679.961312,-10758.130410
642.486986,-38.285162,-4058.227130,-9494.720077
642.489549,38.285162,-2986.242605,-8901.300072
642.492111,-114.855485,-1895.115499,-10279.565890
642.494673,-38.285162,172.283227,-10777.272990
642.497235,-38.285162,2737.389054,-8269.594906
642.499797,382.851616,1493.121302,-9322.436850
642.502359,-631.705166,574.277424,-10643.274925
642.504922,-114.855485,-2756.531635,-7963.313613
642.507484,210.568389,-3503.092286,-11542.976222
642.510046,-593.420005,-3062.812928,-8537.591037
642.512608,229.710970,-2220.539373,-9858.429112
642.515168,-38.285162,-1646.261949,-10241.280728
642.517728,-344.566454,1531.406464,-9762.716208
642.520288,516.849682,1550.549045,-7944.171032
642.522848,-478.564520,1646.261949,-10700.702667
642.525408,133.998066,-1014.556782,-9475.577496
642.527968,-0.000000,-2775.674216,-8537.591037
642.530528,-344.566454,-2775.674216,-10643.274925
642.533088,-133.998066,-3120.240670,-9379.864592
642.535648,-133.998066,-1875.972918,-9379.864592
642.538209,-19.142581,-1091.127106,-10107.282662
642.540769,-401.994197,1684.547110,-10643.274925
642.543329,210.568389,1148.554848,-7618.747158
642.545889,-172.283227,1052.841944,-10547.562021
642.548449,-19.142581,-1091.127106,-9552.147819
642.551009,-76.570323,-2163.111630,-8805.587168
642.553569,-191.425808,-2603.390989,-10490.134278
642.556129,-0.000000,-2986.242605,-9667.003304
642.558689,-114.855485,-2086.541307,-9494.720077
642.561249,-172.283227,-612.562586,-10413.563955
642.563809,-95.712904,2105.683888,-9801.001370
642.566369,-19.142581,1512.263883,-8116.454259
642.568929,-133.998066,842.273555,-10777.272990
642.571489,-0.000000,-1550.549045,-9360.722011
642.574049,-133.998066,-1895.115499,-9226.723946
642.576609,38.285162,-3158.525832,-9705.288466
642.579169,-267.996131,-2775.674216,-9915.856854
642.581730,-38.285162,-2220.539373,-9686.145885
642.584290,-57.427742,-535.992262,-10030.712339
642.586850,-325.423874,2201.396792,-9628.718142
642.589410,76.570323,880.558717,-8958.727814
642.591970,-0.000000,229.710970,-10222.138147
642.594530,-172.283227,-1665.404530,-8939.585234
642.597090,-95.712904,-1722.832272,-10279.565890
642.599650,-133.998066,-2488.535504,-9131.011042
642.602210,57.427742,-2718.246474,-9992.427178
642.604770,-0.000000,-2277.967115,-10183.852986
642.607330,-401.994197,287.138712,-10375.278794
642.609890,153.140646,1435.693560,-7733.602643
642.612450,191.425808,1071.984525,-10375.278794
642.615010,-363.709035,38.285162,-9513.862658
642.617567,631.705166,-1971.685822,-8709.874264
642.620124,-861.416136,-1531.406464,-10777.272990
642.622681,-76.570323,-2852.244539,-9360.722011
642.625238,95.712904,-2182.254211,-9341.579430
642.627795,-478.564520,-1263.410333,-10088.140082
642.630352,133.998066,172.283227,-10279.565890
642.632909,-191.425808,842.273555,-7121.040058
642.635466,-210.568389,76.570323,-11140.982026
642.638022,-57.427742,-2067.398726,-9705.288466
642.640579,-19.142581,-1780.260014,-9341.579430
642.643136,-133.998066,-1550.549045,-9265.009107
642.645693,-344.566454,-1646.261949,-10624.132344
642.648250,229.710970,-1435.693560,-9169.296203
642.650807,-191.425808,-765.703232,-9494.720077
642.653364,-76.570323,957.129040,-11064.411702
642.655921,210.568389,-38.285162,-7695.317482
642.658478,-516.849682,-210.568389,-10260.423309
642.661035,267.996131,-2469.392923,-10126.425243
642.663592,-191.425808,-1473.978722,-9016.155557
642.666148,76.570323,-1378.265818,-9284.151688
642.668705,-95.712904,-1339.980656,-10470.991698
642.671262,114.855485,-1799.402595,-9111.868461
642.673819,-612.562586,-918.843878,-10413.563955
642.676376,784.845813,19.142581,-9724.431046
642.678933,-708.275490,957.129040,-8078.169098
642.681490,593.420005,-306.281293,-10394.421374
642.684047,-440.279358,-784.845813,-9724.431046
642.686604,-19.142581,-555.134843,-9226.723946
642.689161,19.142581,-1895.115499,-9475.577496
642.691718,-421.136778,-1703.689691,-10490.134278
642.694274,497.707101,-2833.101958,-8633.303941
642.696831,-593.420005,-1014.556782,-10738.987829
642.699388,-38.285162,76.570323,-9226.723946
642.701945,-19.142581,229.710970,-8997.012976
642.704502,-153.140646,153.140646,-10088.140082
642.707059,-57.427742,-210.568389,-9724.431046
642.709616,-248.853550,95.712904,-9781.858789
642.712173,19.142581,-2277.967115,-9418.149754
642.714730,-325.423874,-2679.961312,-10088.140082
642.717287,-0.000000,-2469.392923,-8920.442653
642.719782,-248.853550,38.285162,-10528.419440
642.722277,-95.712904,95.712904,-8193.024582
642.724773,-133.998066,650.847747,-10222.138147
642.727268,153.140646,-1397.408398,-9303.294269
642.729763,267.996131,-1856.830338,-10509.276859
642.732258,-344.566454,-1033.699363,-8920.442653
642.734753,-76.570323,-1493.121302,-9284.151688
642.737248,-57.427742,-1627.119368,-10738.987829
642.739744,-191.425808,-1263.410333,-8805.587168
642.742239,210.568389,248.853550,-10738.987829
642.744734,-172.283227,-57.427742,-8709.874264
642.747229,-133.998066,-114.855485,-9609.575562
642.749724,593.420005,-2277.967115,-10088.140082
642.752219,-1167.697429,-401.994197,-9667.003304
642.754715,689.132909,-1703.689691,-8786.444587
642.757210,-229.710970,-880.558717,-9992.427178
642.759705,-76.570323,-1320.838075,-9781.858789
642.762200,57.427742,-1225.125171,-9628.718142
642.764695,-172.283227,823.130974,-9609.575562
642.767190,-133.998066,-153.140646,-8843.872330
642.769686,-153.140646,-1225.125171,-10470.991698
642.772181,-363.709035,-2143.969050,-10260.423309
642.774676,-19.142581,-1282.552914,-9188.438784
642.777171,-172.283227,-1205.982590,-9188.438784
642.779666,-172.283227,-459.421939,-10470.991698
642.782161,-19.142581,-842.273555,-8939.585234
642.784657,-363.709035,38.285162,-10509.276859
642.787152,153.140646,-114.855485,-9111.868461
642.789647,-306.281293,-574.277424,-9092.725880
642.792142,95.712904,-2258.824534,-10604.989763
642.794637,-593.420005,-1971.685822,-9628.718142
642.797132,19.142581,-1244.267752,-9207.581365
642.799628,133.998066,-1837.687757,-9533.005238
642.802123,-803.988394,-229.710970,-10681.560086
642.804618,880.558717,-918.843878,-8518.448456
642.807113,-803.988394,1473.978722,-10509.276859
642.809608,650.847747,38.285162,-8920.442653
642.812103,-114.855485,-38.285162,-9245.866526
642.814599,-133.998066,-2029.113565,-9877.571693
642.817094,-287.138712,-2048.256146,-9954.142016
642.819602,459.421939,-2201.396792,-8422.735552
642.822110,-593.420005,-1052.841944,-10547.562021
642.824618,248.853550,-1359.123237,-10164.710405
642.827126,-229.710970,-382.851616,-8652.446522
642.829634,95.712904,1033.699363,-10872.985894
642.832142,-19.142581,-76.570323,-8709.874264
642.834650,-344.566454,76.570323,-9724.431046
642.837158,-172.283227,-1167.697429,-10872.985894
642.839666,-76.570323,-1722.832272,-8939.585234
642.842174,19.142581,-2258.824534,-8882.157491
642.844682,-803.988394,-1933.400661,-11447.263318
642.847190,535.992262,-2335.394858,-8365.307810
642.849699,-172.283227,-631.705166,-8422.735552
642.852207,-421.136778,1703.689691,-10719.845248
642.854715,-172.283227,937.986459,-7695.317482
642.857223,267.996131,-1703.689691,-8575.876198
642.859731,1033.699363,-3924.229064,-13610.374949
642.862239,-1493.121302,-937.986459,-9092.725880
642.864747,593.420005,-2124.826469,-5800.201982
642.867255,133.998066,-1225.125171,-13916.656242
642.869763,-899.701298,191.425808,-9437.292334
642.872271,459.421939,574.277424,-7350.751027
642.874779,57.427742,1014.556782,-10317.851051
642.877287,38.285162,-784.845813,-10700.702667
642.879795,-689.132909,-1722.832272,-7963.313613
642.882303,-497.707101,-2143.969050,-10547.562021
642.884811,593.420005,-1914.258080,-11064.411702
642.887320,-325.423874,-842.273555,-7082.754896
642.889828,-0.000000,-880.558717,-11140.982026
642.892336,114.855485,-880.558717,-10126.425243
642.894844,-401.994197,1435.693560,-9265.009107
642.897352,-153.140646,-306.281293,-7369.893608
642.899860,-0.000000,-1301.695494,-11983.255581
642.902368,-287.138712,-2297.109696,-9226.723946
642.904876,-95.712904,-2086.541307,-8327.022648
642.907384,-76.570323,-1320.838075,-11179.267187
642.909892,-133.998066,-861.416136,-9360.722011
642.912400,-114.855485,-478.564520,-8901.300072
642.914908,-19.142581,-516.849682,-10183.852986
642.917416,-363.709035,1129.412267,-11140.982026
642.919934,-19.142581,-210.568389,-6642.475538
642.922451,172.283227,-1110.269686,-10356.136213
642.924968,-1091.127106,-2258.824534,-10930.413637
642.927486,765.703232,-2756.531635,-8920.442653
642.930003,-95.712904,-1780.260014,-8595.018779
642.932521,-765.703232,-38.285162,-11696.116869
642.935038,995.414202,-689.132909,-8537.591037
642.937555,-401.994197,918.843878,-8997.012976
642.940073,-57.427742,1646.261949,-10853.843314
642.942590,306.281293,-382.851616,-8346.165229
642.945108,-478.564520,-1244.267752,-9265.009107
642.947625,1416.550979,-5130.211654,-7829.315547
642.950142,-1550.549045,-3081.955509,-12308.679454
642.952660,38.285162,-2986.242605,-9265.009107
642.955177,401.994197,-823.130974,-9131.011042
642.957695,-899.701298,1493.121302,-9820.143950
642.960212,478.564520,2201.396792,-10490.134278
642.962729,-95.712904,3560.520029,-7905.885870
642.965247,248.853550,-459.421939,-11810.972354
642.967764,-631.705166,-3196.810994,-9226.723946
642.970281,-440.279358,-4134.797453,-7771.887805
642.972799,-172.283227,-3617.947771,-11562.118803
642.975316,-478.564520,-2354.537438,-9035.298138
642.977834,133.998066,-267.996131,-9322.436850
642.980351,-38.285162,612.562586,-10107.282662
642.982868,-497.707101,2641.676150,-10624.132344
642.985386,746.560651,976.271621,-6795.616184
642.987903,-708.275490,574.277424,-11045.269122
642.990421,248.853550,-3024.527766,-10088.140082
642.992938,-248.853550,-3388.236802,-7810.172966
642.995455,-459.421939,-2584.248408,-11389.835576
642.997973,229.710970,-2545.963246,-9628.718142
643.000490,-459.421939,-382.851616,-8288.737486
643.003008,363.709035,-229.710970,-10968.698798
643.005525,-325.423874,2890.529701,-10279.565890
643.008042,57.427742,842.273555,-7197.610381
643.010560,344.566454,-1148.554848,-11351.550414
643.013077,-842.273555,-2411.965181,-9896.714274
643.015595,382.851616,-2469.392923,-8461.020714
643.018112,153.140646,-2373.680019,-10222.138147
643.020638,-497.707101,-1129.412267,-10202.995566
643.023163,708.275490,-1416.550979,-8039.883936
643.025689,-861.416136,248.853550,-11198.409768
643.028215,95.712904,765.703232,-9379.864592
643.030740,19.142581,-1129.412267,-7810.172966
643.033266,-727.418070,-1014.556782,-12251.251712
643.035792,287.138712,-2526.820666,-8824.729749
643.038317,-229.710970,-593.420005,-10394.421374
643.040843,-172.283227,-918.843878,-9973.284597
643.043369,-19.142581,-363.709035,-9437.292334
643.045894,-95.712904,-842.273555,-8671.589102
643.048420,-172.283227,-229.710970,-11638.689126
643.050946,-95.712904,133.998066,-7867.600709
643.053471,267.996131,-899.701298,-8997.012976
643.055997,-555.134843,-1741.974853,-11370.692995
643.058523,-19.142581,-2048.256146,-8786.444587
643.061048,-689.132909,-899.701298,-9379.864592
643.063574,114.855485,-1971.685822,-10202.995566
643.066100,-344.566454,-823.130974,-9801.001370
643.068625,-76.570323,-612.562586,-8767.302006
643.071151,57.427742,516.849682,-11236.694930
643.073677,574.277424,-19.142581,-7235.895542
643.076203,-478.564520,-421.136778,-10949.556218
643.078728,-38.285162,-2163.111630,-10796.415571
643.081254,-325.423874,-1282.552914,-8097.311678
643.083780,172.283227,-1397.408398,-10279.565890
643.086305,38.285162,-1875.972918,-10815.558152
643.088831,-689.132909,-803.988394,-8193.024582
643.091357,267.996131,-1129.412267,-9781.858789
643.093882,-669.990328,1493.121302,-11791.829773
643.096408,516.849682,38.285162,-6221.338760
643.098934,-459.421939,114.855485,-11217.552349
643.101459,172.283227,-2507.678085,-10317.851051
643.103985,-363.709035,-1875.972918,-8365.307810
643.106511,210.568389,-2316.252277,-9877.571693
643.109036,-325.423874,-1607.976787,-10566.704602
643.111562,38.285162,-1091.127106,-8212.167163
643.114088,-248.853550,-172.283227,-10930.413637
643.116613,-57.427742,1646.261949,-9647.860723
643.119139,-38.285162,516.849682,-7771.887805
643.121670,-114.855485,-880.558717,-11562.118803
643.124202,-114.855485,-2679.961312,-9226.723946
643.126733,-95.712904,-2182.254211,-9073.583299
643.129264,-114.855485,-2431.107762,-10356.136213
643.131795,-382.851616,-1071.984525,-9992.427178
643.134327,382.851616,-1301.695494,-8097.311678
643.136858,-497.707101,497.707101,-11466.405899
643.139389,248.853550,1378.265818,-8977.870395
643.141920,-153.140646,497.707101,-8346.165229
643.144452,38.285162,-1339.980656,-10987.841379
643.146983,-689.132909,-1895.115499,-8882.157491
643.149514,478.564520,-2239.681954,-10413.563955
643.152045,-631.705166,-1952.543242,-9896.714274
643.154577,114.855485,-1205.982590,-9494.720077
643.157108,76.570323,-861.416136,-9169.296203
643.159639,-478.564520,1435.693560,-11504.691061
643.162170,421.136778,421.136778,-7331.608446
643.164702,-191.425808,248.853550,-9896.714274
643.167233,-0.000000,-2086.541307,-10643.274925
643.169764,-153.140646,-2182.254211,-8231.309744
643.172295,-19.142581,-2086.541307,-10183.852986
643.174827,-497.707101,-1818.545176,-9973.284597
643.177358,-19.142581,-1148.554848,-9341.579430
643.179889,-38.285162,-976.271621,-9399.007173
643.182420,-114.855485,1282.552914,-11332.407834
643.184952,287.138712,535.992262,-7465.606512
643.187483,-516.849682,-248.853550,-11217.552349
643.190014,-19.142581,-3120.240670,-9667.003304
643.192545,-363.709035,-2526.820666,-8939.585234
643.195077,133.998066,-2373.680019,-10202.995566
643.197608,-95.712904,-842.273555,-9801.001370
643.200139,-57.427742,-133.998066,-8652.446522
643.202670,38.285162,153.140646,-10758.130410
643.205202,-133.998066,2124.826469,-9820.143950
643.207733,401.994197,-133.998066,-7599.604578
643.210264,-574.277424,-746.560651,-11600.403965
643.212795,-19.142581,-3311.666478,-9035.298138
643.215327,-191.425808,-2679.961312,-9111.868461
643.217858,210.568389,-2794.816797,-10202.995566
643.220389,-516.849682,-842.273555,-10088.140082
643.222925,421.136778,-861.416136,-8346.165229
643.225462,-669.990328,1071.984525,-11619.546546
643.227998,459.421939,1091.127106,-7886.743290
643.230534,-229.710970,516.849682,-9399.007173
643.233071,-95.712904,-1627.119368,-10834.700733
643.235607,-76.570323,-2545.963246,-8518.448456
643.238143,-172.283227,-1895.115499,-9973.284597
643.240680,-172.283227,-2335.394858,-9686.145885
643.243216,-133.998066,-957.129040,-9896.714274
643.245752,-0.000000,-918.843878,-8824.729749
643.248289,-344.566454,669.990328,-11428.120738
643.250825,153.140646,803.988394,-7580.461997
643.253361,19.142581,191.425808,-9877.571693
643.255898,-306.281293,-1741.974853,-10681.560086
643.258434,-95.712904,-2354.537438,-8116.454259
643.260970,-0.000000,-2258.824534,-10432.706536
643.263507,-267.996131,-1856.830338,-9896.714274
643.266043,133.998066,-1225.125171,-9265.009107
643.268579,-440.279358,-267.996131,-9992.427178
643.271116,-95.712904,1665.404530,-10777.272990
643.273652,57.427742,344.566454,-7255.038123
643.276188,-172.283227,95.712904,-11217.552349
643.278725,-76.570323,-2603.390989,-9379.864592
643.281261,-76.570323,-2775.674216,-8901.300072
643.283797,153.140646,-3254.238736,-9973.284597
643.286334,-555.134843,-1799.402595,-10547.562021
643.288870,229.710970,-746.560651,-8997.012976
643.291406,-421.136778,593.420005,-9724.431046
643.293942,153.140646,2660.818731,-11217.552349
643.296479,172.283227,727.418070,-7389.036189
643.299015,-535.992262,-689.132909,-11045.269122
643.301551,-133.998066,-2699.103893,-8595.018779
643.304088,38.285162,-2986.242605,-9973.284597
643.306624,-440.279358,-3196.810994,-9820.143950
643.309160,-57.427742,-1435.693560,-10030.712339
643.311697,-19.142581,-861.416136,-8575.876198
643.314233,-172.283227,593.420005,-11064.411702
643.316769,191.425808,2392.822600,-8748.159426
643.319306,-784.845813,918.843878,-8729.016845
643.321842,516.849682,-2565.105827,-11408.978157
643.324381,-708.275490,-2813.959378,-8633.303941
643.326921,574.277424,-2431.107762,-9839.286531
643.329460,-516.849682,-1512.263883,-9762.716208
643.332000,19.142581,76.570323,-9858.429112
643.334539,-133.998066,95.712904,-8652.446522
643.337079,-133.998066,1378.265818,-11753.544611
643.339618,248.853550,19.142581,-6833.901346
643.342158,-287.138712,-880.558717,-10796.415571
643.344697,-0.000000,-3656.232933,-9992.427178
643.347236,-440.279358,-3005.385186,-8078.169098
643.349776,-57.427742,-2182.254211,-10892.128475
643.352315,-95.712904,-1301.695494,-9743.573627
643.354855,-172.283227,229.710970,-8863.014910
643.357394,267.996131,-57.427742,-10107.282662
643.359934,-382.851616,2354.537438,-10834.700733
643.362473,267.996131,363.709035,-6910.471669
643.365012,-401.994197,-823.130974,-11562.118803
643.367552,306.281293,-3732.803256,-9073.583299
643.370091,-535.992262,-2947.957443,-8786.444587
643.372631,210.568389,-2469.392923,-10624.132344
643.375170,-440.279358,-401.994197,-8843.872330
643.377710,248.853550,-76.570323,-9781.858789
643.380249,-401.994197,574.277424,-10413.563955
643.382789,172.283227,1895.115499,-9035.298138
643.385328,-114.855485,0.000000,-8824.729749
643.387867,-38.285162,-1110.269686,-11121.839445
643.390407,-172.283227,-2967.100024,-7963.313613
643.392946,-38.285162,-2641.676150,-10968.698798
643.395486,-133.998066,-2297.109696,-9111.868461
643.398025,-153.140646,-746.560651,-9667.003304
643.400565,-133.998066,-631.705166,-9590.432981
643.403104,-421.136778,-344.566454,-10260.423309
643.405643,57.427742,1110.269686,-9322.436850
643.408183,-95.712904,-19.142581,-8824.729749
643.410722,-172.283227,-1110.269686,-10336.993632
643.413262,-0.000000,-2124.826469,-8441.878133
643.415801,-133.998066,-1512.263883,-10911.271056
643.418341,-153.140646,-2143.969050,-8977.870395
643.420880,-0.000000,-1531.406464,-10011.569758
643.423420,-248.853550,-1301.695494,-9494.720077
