#time,accel_x,accel_y,accel_z
145.787782,2451.505594,-0.000000,9844.739029
145.788090,2681.334243,-148.041188,9548.656652
145.788398,2834.553343,-444.123565,9770.718434
145.788705,2987.772442,-888.247130,9474.636058
145.789013,3064.381992,-222.061783,9474.636058
145.789321,3677.258390,-518.144159,9474.636058
145.789629,3370.820191,-222.061783,9770.718434
145.789937,3524.039291,-0.000000,9474.636058
145.790245,3524.039291,370.102971,9326.594869
145.790553,3830.477490,962.267725,8660.409521
145.790860,3753.867940,1332.370696,8660.409521
145.791168,3677.258390,1184.329507,8956.491898
145.791476,3524.039291,1776.494261,9104.533087
145.791784,3600.648841,1406.391290,8808.450710
145.792092,2987.772442,1036.288319,9326.594869
145.792400,2451.505594,740.205942,9770.718434
145.792708,1991.848295,-0.000000,10510.924376
145.793015,1532.190996,-296.082377,11029.068536
145.793323,1072.533697,-666.185348,11251.130318
145.793631,689.485948,-962.267725,11251.130318
145.793939,1225.752797,-814.226536,11473.192101
145.794247,1608.800546,-666.185348,10955.047942
145.794555,1762.019645,-148.041188,10436.903782
145.794862,2221.676944,-0.000000,9770.718434
145.795170,2681.334243,296.082377,9474.636058
145.795478,2757.943793,518.144159,9474.636058
145.795786,2987.772442,444.123565,9178.553681
145.796094,3447.429741,222.061783,8882.471304
145.796402,3140.991542,-0.000000,8956.491898
145.796710,2145.067394,-0.000000,9178.553681
145.797017,2681.334243,-296.082377,9326.594869
145.797325,2834.553343,-0.000000,9178.553681
145.797633,2757.943793,-148.041188,9178.553681
145.797941,2911.162892,-74.020594,8956.491898
145.798249,3140.991542,222.061783,8882.471304
145.798557,3447.429741,-0.000000,8882.471304
145.798865,3600.648841,814.226536,8660.409521
145.799172,3524.039291,666.185348,8808.450710
145.799480,3064.381992,148.041188,9326.594869
145.799788,3064.381992,296.082377,9474.636058
145.800096,2681.334243,-296.082377,9474.636058
145.800404,2451.505594,-148.041188,9696.697840
145.800712,2451.505594,-222.061783,9918.759623
145.801020,2604.724693,-666.185348,10066.800811
145.801327,3064.381992,-74.020594,9918.759623
145.801635,2757.943793,370.102971,9326.594869
145.801943,2987.772442,962.267725,9474.636058
145.802251,3447.429741,1184.329507,9178.553681
145.802559,3370.820191,1332.370696,9252.574275
145.802867,3140.991542,1628.453072,8882.471304
145.803175,2911.162892,1924.535449,9030.512492
145.803482,2451.505594,1702.473667,9474.636058
145.803790,2221.676944,1258.350101,9400.615463
145.804098,1685.410096,1110.308913,9844.739029
145.804406,995.924147,666.185348,10214.842000
145.804714,689.485948,370.102971,10362.883188
145.805022,0.000000,222.061783,10658.965565
145.805330,0.000000,-0.000000,10584.944971
145.805637,76.609550,-296.082377,10510.924376
145.805945,0.000000,-148.041188,10510.924376
145.806253,0.000000,-74.020594,10214.842000
145.806561,-306.438199,-370.102971,10288.862594
145.806869,153.219100,-296.082377,9770.718434
145.807177,-383.047749,-74.020594,9992.780217
145.807484,-536.266849,-296.082377,9770.718434
145.807792,-536.266849,-592.164754,9918.759623
145.808100,0.000000,-740.205942,9696.697840
145.808408,0.000000,-1110.308913,9770.718434
145.808716,0.000000,-1036.288319,9844.739029
145.809024,459.657299,-888.247130,9474.636058
145.809332,306.438199,-1110.308913,9178.553681
145.809639,1072.533697,-592.164754,9104.533087
145.809947,1378.971896,-444.123565,8882.471304
145.810255,1685.410096,-296.082377,8586.388927
145.810563,2145.067394,-0.000000,8660.409521
145.810871,2145.067394,-296.082377,8660.409521
145.811179,1991.848295,-0.000000,8956.491898
145.811487,1991.848295,-0.000000,9326.594869
145.811794,1532.190996,-0.000000,9474.636058
145.812102,1225.752797,-74.020594,9474.636058
145.812410,1302.362347,-148.041188,9474.636058
145.812718,1072.533697,-148.041188,10066.800811
145.813026,1072.533697,-74.020594,10140.821405
145.813334,689.485948,-222.061783,10140.821405
145.813642,536.266849,-222.061783,10214.842000
145.813949,383.047749,-74.020594,9992.780217
145.814257,995.924147,518.144159,9992.780217
145.814565,1149.143247,1110.308913,9474.636058
145.814873,1532.190996,1702.473667,9326.594869
145.815181,1838.629195,2146.597232,9030.512492
145.815489,2145.067394,2368.659014,9030.512492
145.815797,2145.067394,2590.720797,8882.471304
145.816104,1532.190996,2590.720797,8660.409521
145.816412,1532.190996,2664.741391,9252.574275
145.816720,1455.581446,2368.659014,9400.615463
145.817028,919.314598,2072.576638,9474.636058
145.817336,536.266849,1480.411884,9474.636058
145.817644,0.000000,1184.329507,10066.800811
145.817952,-459.657299,-0.000000,10362.883188
145.818259,-919.314598,-222.061783,10510.924376
145.818567,-1302.362347,-592.164754,10658.965565
145.818875,-1685.410096,-666.185348,10658.965565
145.819183,-1225.752797,-1036.288319,10807.006753
145.819491,-1838.629195,-1184.329507,10658.965565
145.819799,-1915.238745,-1554.432478,10881.027347
145.820107,-1915.238745,-1628.453072,10807.006753
145.820414,-1532.190996,-1776.494261,10436.903782
145.820722,-1302.362347,-1776.494261,10362.883188
145.821030,-1225.752797,-1924.535449,9474.636058
145.821338,-612.876398,-1406.391290,9622.677246
145.821646,229.828649,-1258.350101,8882.471304
145.821954,306.438199,-962.267725,8882.471304
145.822261,1072.533697,-814.226536,8512.368333
145.822569,1378.971896,-518.144159,7920.203579
145.822875,2451.505594,-296.082377,7920.203579
145.823183,2145.067394,148.041188,7698.141797
145.823491,2068.457845,518.144159,8068.244768
145.823799,2298.286494,1036.288319,8290.306550
145.824107,2145.067394,1036.288319,8290.306550
145.824415,1915.238745,1036.288319,8734.430116
145.824723,1302.362347,888.247130,8808.450710
145.825031,1072.533697,740.205942,9474.636058
145.825339,536.266849,592.164754,9992.780217
145.825647,459.657299,222.061783,10362.883188
145.825955,-536.266849,-0.000000,11029.068536
145.826263,-306.438199,-518.144159,11621.233289
145.826571,-689.485948,-296.082377,11547.212695
145.826879,-459.657299,-0.000000,11325.150913
145.827187,0.000000,148.041188,11029.068536
145.827495,153.219100,592.164754,10584.944971
145.827804,306.438199,592.164754,10140.821405
145.828112,1608.800546,1480.411884,9696.697840
145.828420,1608.800546,1628.453072,9030.512492
145.828728,2451.505594,2220.617826,8956.491898
145.829036,2145.067394,2146.597232,8512.368333
145.829344,2145.067394,2146.597232,8808.450710
145.829652,1838.629195,1776.494261,8808.450710
145.829960,1149.143247,1406.391290,8882.471304
145.830268,306.438199,518.144159,9400.615463
145.830576,612.876398,-0.000000,9548.656652
145.830884,153.219100,-222.061783,9474.636058
145.831192,0.000000,-518.144159,9844.739029
145.831500,0.000000,-592.164754,10140.821405
145.831808,-612.876398,-740.205942,10140.821405
145.832116,-842.705048,-962.267725,10288.862594
145.832424,-612.876398,-962.267725,10436.903782
145.832732,-536.266849,-1332.370696,10584.944971
145.833040,-306.438199,-1332.370696,10955.047942
145.833348,-229.828649,-1406.391290,10881.027347
145.833656,-229.828649,-1554.432478,10362.883188
145.833964,-306.438199,-1332.370696,10288.862594
145.834272,229.828649,-1184.329507,10066.800811
145.834581,689.485948,-1110.308913,9400.615463
145.834889,1149.143247,-518.144159,9400.615463
145.835197,1685.410096,-148.041188,9252.574275
145.835505,2221.676944,-0.000000,8808.450710
145.835813,2681.334243,370.102971,8586.388927
145.836121,2757.943793,1036.288319,8586.388927
145.836429,2834.553343,1332.370696,7846.182985
145.836737,2757.943793,1554.432478,8290.306550
145.837045,2604.724693,1776.494261,8216.285956
145.837353,2451.505594,1776.494261,8660.409521
145.837661,2298.286494,1554.432478,9104.533087
145.837969,1378.971896,1258.350101,9770.718434
145.838277,1302.362347,666.185348,9918.759623
145.838585,689.485948,222.061783,10140.821405
145.838893,153.219100,-0.000000,10807.006753
145.839201,0.000000,-0.000000,10881.027347
145.839509,383.047749,-0.000000,10807.006753
145.839817,306.438199,296.082377,10807.006753
145.840125,766.095498,-74.020594,10288.862594
145.840433,1608.800546,888.247130,9992.780217
145.840741,1915.238745,1184.329507,9252.574275
145.841049,2068.457845,1702.473667,9104.533087
145.841358,1991.848295,1850.514855,8808.450710
145.841666,2145.067394,1998.556043,8660.409521
145.841974,1762.019645,1406.391290,8512.368333
145.842282,1225.752797,1554.432478,9030.512492
145.842590,842.705048,814.226536,9252.574275
145.842898,383.047749,-0.000000,9400.615463
145.843206,153.219100,-518.144159,9918.759623
145.843514,-229.828649,-814.226536,9918.759623
145.843822,-1378.971896,-888.247130,9992.780217
145.844130,-1455.581446,-1110.308913,10140.821405
145.844438,-1455.581446,-1332.370696,10214.842000
145.844746,-1608.800546,-1332.370696,10066.800811
145.845054,-1455.581446,-1406.391290,10066.800811
145.845362,-1685.410096,-1554.432478,10066.800811
145.845670,-842.705048,-1480.411884,10214.842000
145.845978,-995.924147,-1332.370696,10436.903782
145.846286,-842.705048,-1258.350101,10066.800811
145.846594,-842.705048,-1110.308913,9918.759623
145.846902,-459.657299,-1110.308913,9770.718434
145.847210,-306.438199,-1184.329507,9400.615463
145.847518,229.828649,-1110.308913,9326.594869
145.847826,1072.533697,-888.247130,8734.430116
145.848135,1302.362347,-0.000000,8882.471304
145.848443,1455.581446,296.082377,8660.409521
145.848751,2068.457845,1036.288319,8290.306550
145.849059,2068.457845,1628.453072,8216.285956
145.849367,2145.067394,1850.514855,8290.306550
145.849675,1915.238745,1924.535449,8586.388927
145.849983,1608.800546,1480.411884,8734.430116
145.850291,842.705048,1406.391290,9252.574275
145.850599,612.876398,962.267725,10066.800811
145.850907,0.000000,370.102971,10140.821405
145.851215,-536.266849,-0.000000,10807.006753
145.851523,-306.438199,-74.020594,11177.109724
145.851831,-612.876398,222.061783,11325.150913
145.852139,229.828649,-74.020594,11251.130318
145.852447,459.657299,-296.082377,10881.027347
145.852755,612.876398,296.082377,10658.965565
145.853063,612.876398,814.226536,10288.862594
145.853371,1378.971896,1184.329507,9844.739029
145.853679,1608.800546,1554.432478,9474.636058
145.853987,1455.581446,1554.432478,9104.533087
145.854295,1991.848295,1702.473667,8808.450710
145.854603,1685.410096,1554.432478,8660.409521
145.854912,1378.971896,962.267725,9030.512492
145.855220,1225.752797,518.144159,8882.471304
145.855528,842.705048,740.205942,9844.739029
145.855836,0.000000,-0.000000,9474.636058
145.856144,153.219100,-222.061783,9326.594869
145.856452,76.609550,-296.082377,9622.677246
145.856760,76.609550,-444.123565,9474.636058
145.857068,0.000000,-370.102971,9548.656652
145.857376,-383.047749,-444.123565,9770.718434
145.857684,0.000000,-888.247130,10362.883188
145.857992,0.000000,-962.267725,10140.821405
145.858300,-383.047749,-1184.329507,10436.903782
145.858608,-383.047749,-1332.370696,10362.883188
145.858916,0.000000,-1406.391290,10362.883188
145.859224,0.000000,-1480.411884,10288.862594
145.859532,0.000000,-1258.350101,9918.759623
145.859840,612.876398,-1406.391290,9992.780217
145.860148,1149.143247,-1036.288319,10066.800811
145.860456,1378.971896,-592.164754,9474.636058
145.860764,1991.848295,-222.061783,8956.491898
145.861072,2451.505594,740.205942,8660.409521
145.861380,2528.115143,1258.350101,8290.306550
145.861689,2681.334243,1628.453072,8290.306550
145.861997,2604.724693,1850.514855,8438.347739
145.862305,2528.115143,1924.535449,8438.347739
145.862613,1991.848295,1406.391290,8734.430116
145.862921,2221.676944,1332.370696,9104.533087
145.863229,1302.362347,888.247130,9474.636058
145.863537,995.924147,740.205942,9770.718434
145.863845,612.876398,592.164754,10140.821405
145.864153,306.438199,444.123565,10214.842000
145.864461,306.438199,222.061783,10584.944971
145.864769,536.266849,370.102971,10140.821405
145.865077,229.828649,1110.308913,10658.965565
145.865385,536.266849,888.247130,10066.800811
145.865693,1149.143247,1036.288319,9844.739029
145.866001,1225.752797,1776.494261,9474.636058
145.866309,1532.190996,1554.432478,9326.594869
145.866617,1532.190996,1702.473667,9030.512492
145.866925,1685.410096,888.247130,9030.512492
145.867233,1378.971896,962.267725,9400.615463
145.867541,689.485948,296.082377,9030.512492
145.867849,153.219100,-0.000000,9622.677246
145.868157,0.000000,-370.102971,9992.780217
145.868466,-459.657299,-666.185348,9992.780217
145.868774,-689.485948,-888.247130,9918.759623
145.869082,-842.705048,-1036.288319,9696.697840
145.869390,-1072.533697,-1184.329507,9474.636058
145.869698,-766.095498,-962.267725,9770.718434
145.870006,-536.266849,-1184.329507,9622.677246
145.870314,-612.876398,-814.226536,9770.718434
145.870622,-689.485948,-1036.288319,9770.718434
145.870930,-459.657299,-888.247130,9770.718434
145.871238,-612.876398,-1036.288319,9770.718434
145.871546,-459.657299,-888.247130,9770.718434
145.871854,-306.438199,-888.247130,9918.759623
145.872162,0.000000,-814.226536,9696.697840
145.872470,0.000000,-1480.411884,9474.636058
145.872778,229.828649,-1184.329507,9474.636058
145.873086,919.314598,-518.144159,9178.553681
145.873394,1149.143247,222.061783,9252.574275
145.873702,1455.581446,666.185348,8808.450710
145.874010,1455.581446,1036.288319,8882.471304
145.874318,1991.848295,1406.391290,8290.306550
145.874626,1838.629195,1628.453072,8512.368333
145.874934,1838.629195,1850.514855,8660.409521
145.875243,1838.629195,1184.329507,8956.491898
145.875551,1225.752797,1406.391290,9400.615463
145.875859,536.266849,1184.329507,9918.759623
145.876167,383.047749,592.164754,10288.862594
145.876475,0.000000,518.144159,10510.924376
145.876783,306.438199,-0.000000,11103.089130
145.877091,459.657299,-296.082377,10658.965565
145.877399,459.657299,222.061783,10658.965565
145.877707,536.266849,-0.000000,10510.924376
145.878015,459.657299,666.185348,10288.862594
145.878323,919.314598,1036.288319,9844.739029
145.878631,1225.752797,1332.370696,9622.677246
145.878939,1608.800546,1554.432478,9326.594869
145.879247,1532.190996,1628.453072,9326.594869
145.879555,1991.848295,1480.411884,9474.636058
145.879863,1302.362347,518.144159,9474.636058
145.880171,919.314598,370.102971,9474.636058
145.880479,383.047749,148.041188,9622.677246
145.880787,76.609550,-0.000000,9474.636058
145.881095,-153.219100,-0.000000,9770.718434
145.881403,-153.219100,-370.102971,9696.697840
145.881711,0.000000,-740.205942,9474.636058
145.882020,-153.219100,-814.226536,9622.677246
145.882328,-536.266849,-592.164754,9844.739029
145.882636,-459.657299,-592.164754,9918.759623
145.882944,-459.657299,-888.247130,10140.821405
145.883252,-459.657299,-888.247130,10066.800811
145.883560,-459.657299,-1110.308913,10140.821405
145.883868,0.000000,-1110.308913,10214.842000
145.884176,0.000000,-962.267725,10362.883188
145.884484,229.828649,-1184.329507,10362.883188
145.884792,842.705048,-1406.391290,9844.739029
145.885100,383.047749,-962.267725,9696.697840
145.885408,1225.752797,-592.164754,9252.574275
145.885716,1608.800546,-148.041188,9178.553681
145.886024,1762.019645,-0.000000,8808.450710
145.886332,1991.848295,740.205942,8808.450710
145.886640,2145.067394,1036.288319,8734.430116
145.886948,2528.115143,1406.391290,8512.368333
145.887256,2374.896044,1924.535449,8734.430116
145.887564,2528.115143,1924.535449,8364.327145
145.887872,2374.896044,2146.597232,8586.388927
145.888180,2145.067394,1554.432478,8956.491898
145.888488,1378.971896,1258.350101,9400.615463
145.888797,1072.533697,518.144159,9918.759623
145.889105,689.485948,444.123565,10140.821405
145.889413,766.095498,-0.000000,10362.883188
145.889721,306.438199,-518.144159,10584.944971
145.890029,0.000000,-296.082377,10510.924376
145.890337,459.657299,-0.000000,10510.924376
145.890645,612.876398,296.082377,9992.780217
145.890953,919.314598,888.247130,9918.759623
145.891261,1302.362347,1184.329507,9474.636058
145.891569,2221.676944,1332.370696,9252.574275
145.891877,1838.629195,1332.370696,8660.409521
145.892185,2068.457845,1406.391290,9178.553681
145.892493,1455.581446,1332.370696,9104.533087
145.892801,995.924147,518.144159,9326.594869
145.893109,536.266849,296.082377,9474.636058
145.893417,76.609550,-74.020594,9474.636058
145.893725,-612.876398,-518.144159,9474.636058
145.894033,-536.266849,-814.226536,9992.780217
145.894341,-842.705048,-1406.391290,9696.697840
145.894649,-842.705048,-1110.308913,9992.780217
145.894957,-766.095498,-814.226536,9992.780217
145.895265,-842.705048,-1036.288319,9844.739029
145.895574,-766.095498,-740.205942,9844.739029
145.895882,-459.657299,-740.205942,9992.780217
145.896190,0.000000,-888.247130,9844.739029
145.896498,-536.266849,-814.226536,9770.718434
145.896806,0.000000,-814.226536,9992.780217
145.897114,229.828649,-888.247130,9770.718434
145.897422,459.657299,-740.205942,9252.574275
145.897730,536.266849,-518.144159,9326.594869
145.898038,919.314598,-296.082377,9178.553681
145.898346,1225.752797,-0.000000,8808.450710
145.898654,1302.362347,296.082377,9030.512492
145.898962,1608.800546,814.226536,8956.491898
145.899270,2145.067394,1110.308913,8808.450710
145.899578,2068.457845,1554.432478,8882.471304
145.899886,1991.848295,1702.473667,8956.491898
145.900194,1685.410096,1924.535449,9252.574275
145.900502,1378.971896,1776.494261,9696.697840
145.900810,995.924147,1184.329507,9844.739029
145.901118,766.095498,666.185348,10288.862594
145.901426,612.876398,370.102971,10658.965565
145.901734,229.828649,-0.000000,10658.965565
145.902042,153.219100,296.082377,10658.965565
145.902351,306.438199,148.041188,10807.006753
145.902659,153.219100,370.102971,10510.924376
145.902967,459.657299,592.164754,10214.842000
145.903275,919.314598,740.205942,9770.718434
145.903583,1302.362347,1184.329507,9770.718434
145.903891,1532.190996,962.267725,9178.553681
145.904199,1838.629195,1480.411884,9178.553681
145.904507,1455.581446,1480.411884,8734.430116
145.904815,919.314598,1258.350101,9104.533087
145.905123,919.314598,1110.308913,9252.574275
145.905431,459.657299,444.123565,9178.553681
145.905739,153.219100,-0.000000,9400.615463
145.906047,0.000000,-148.041188,9770.718434
145.906355,0.000000,-518.144159,9622.677246
145.906663,-842.705048,-740.205942,9918.759623
145.906971,-612.876398,-888.247130,9770.718434
145.907279,-919.314598,-888.247130,9474.636058
145.907587,-766.095498,-740.205942,9844.739029
145.907895,-689.485948,-1258.350101,10066.800811
145.908203,-995.924147,-1332.370696,10066.800811
145.908511,-766.095498,-1554.432478,10362.883188
145.908819,-612.876398,-1406.391290,10362.883188
145.909128,-919.314598,-1702.473667,10214.842000
145.909436,-919.314598,-1184.329507,10066.800811
145.909744,76.609550,-1258.350101,9770.718434
145.910052,612.876398,-962.267725,9548.656652
145.910360,919.314598,-888.247130,9400.615463
145.910668,1455.581446,-296.082377,9104.533087
145.910976,1455.581446,-148.041188,8956.491898
145.911284,2374.896044,-0.000000,8808.450710
145.911592,2451.505594,888.247130,8660.409521
145.911900,2221.676944,1184.329507,8290.306550
145.912208,2528.115143,1924.535449,8142.265362
145.912516,2451.505594,1850.514855,8216.285956
145.912824,2681.334243,1998.556043,8216.285956
145.913132,2145.067394,1702.473667,8586.388927
145.913440,1838.629195,1184.329507,9474.636058
145.913748,1378.971896,814.226536,9548.656652
145.914056,383.047749,444.123565,10436.903782
145.914364,766.095498,-74.020594,10288.862594
145.914672,153.219100,148.041188,10510.924376
145.914980,306.438199,222.061783,10584.944971
145.915288,536.266849,296.082377,10510.924376
145.915596,689.485948,592.164754,10362.883188
145.915905,1225.752797,888.247130,10436.903782
145.916213,1302.362347,1184.329507,10066.800811
145.916521,1455.581446,962.267725,10066.800811
145.916829,1455.581446,1184.329507,9474.636058
145.917137,1378.971896,1554.432478,9326.594869
145.917445,1455.581446,1184.329507,9030.512492
145.917753,1072.533697,740.205942,9178.553681
145.918061,842.705048,296.082377,9326.594869
145.918369,229.828649,296.082377,9474.636058
145.918677,-306.438199,-518.144159,9474.636058
145.918985,0.000000,-740.205942,9548.656652
145.919293,-306.438199,-814.226536,9696.697840
145.919601,-766.095498,-888.247130,9844.739029
145.919909,-689.485948,-740.205942,9992.780217
145.920217,-536.266849,-962.267725,9992.780217
145.920525,-459.657299,-814.226536,10066.800811
145.920833,-459.657299,-666.185348,10214.842000
145.921141,-383.047749,-888.247130,9770.718434
145.921449,0.000000,-1332.370696,9696.697840
145.921757,0.000000,-814.226536,9992.780217
145.922065,229.828649,-888.247130,9770.718434
145.922373,76.609550,-888.247130,9474.636058
145.922682,383.047749,-814.226536,9474.636058
145.922990,689.485948,-740.205942,9474.636058
145.923298,995.924147,-222.061783,9696.697840
145.923606,1072.533697,-0.000000,9400.615463
145.923914,1838.629195,518.144159,8956.491898
145.924222,1378.971896,1036.288319,9178.553681
145.924530,1455.581446,1184.329507,8882.471304
145.924838,1685.410096,1702.473667,9104.533087
145.925146,1455.581446,1850.514855,9030.512492
145.925454,1608.800546,1554.432478,9178.553681
145.925763,1072.533697,1184.329507,9474.636058
145.926071,1072.533697,888.247130,9696.697840
145.926379,383.047749,740.205942,10288.862594
145.926687,306.438199,518.144159,10362.883188
145.926995,459.657299,444.123565,10658.965565
145.927303,0.000000,370.102971,10362.883188
145.927612,153.219100,592.164754,10510.924376
145.927920,306.438199,592.164754,9992.780217
145.928228,459.657299,814.226536,9844.739029
145.928536,766.095498,370.102971,9918.759623
145.928844,1378.971896,962.267725,9178.553681
145.929152,1532.190996,1036.288319,9474.636058
145.929461,919.314598,1554.432478,9474.636058
145.929769,1225.752797,1036.288319,9104.533087
145.930077,1072.533697,1110.308913,9326.594869
145.930385,766.095498,370.102971,9030.512492
145.930693,76.609550,370.102971,9622.677246
145.931002,0.000000,-222.061783,9622.677246
145.931310,-383.047749,-888.247130,9696.697840
145.931618,-383.047749,-592.164754,9770.718434
145.931926,-383.047749,-814.226536,9992.780217
145.932234,-919.314598,-888.247130,9844.739029
145.932542,-766.095498,-1184.329507,9770.718434
145.932851,-995.924147,-1406.391290,10140.821405
145.933159,-689.485948,-1628.453072,10288.862594
145.933467,-612.876398,-1480.411884,10288.862594
145.933775,-459.657299,-1406.391290,10140.821405
145.934083,-459.657299,-1184.329507,10066.800811
145.934391,0.000000,-1332.370696,9918.759623
145.934700,306.438199,-1036.288319,9622.677246
145.935008,689.485948,-888.247130,9400.615463
145.935316,995.924147,-666.185348,9326.594869
145.935624,1225.752797,-518.144159,9252.574275
145.935932,2221.676944,296.082377,9104.533087
145.936240,1915.238745,962.267725,9104.533087
145.936549,2221.676944,1036.288319,8438.347739
145.936857,2298.286494,1776.494261,8438.347739
145.937165,2374.896044,1998.556043,8882.471304
145.937473,2298.286494,1850.514855,8734.430116
145.937781,2145.067394,1702.473667,8882.471304
145.938089,1608.800546,1554.432478,9326.594869
145.938398,1072.533697,888.247130,9770.718434
145.938706,1302.362347,666.185348,10288.862594
145.939014,612.876398,518.144159,10584.944971
145.939322,536.266849,444.123565,10362.883188
145.939630,306.438199,592.164754,10658.965565
145.939938,229.828649,444.123565,10584.944971
145.940247,612.876398,370.102971,10510.924376
145.940555,1378.971896,370.102971,10214.842000
145.940863,1762.019645,222.061783,10362.883188
145.941171,1225.752797,518.144159,9696.697840
145.941479,1838.629195,1036.288319,9696.697840
145.941787,1915.238745,1480.411884,8882.471304
145.942096,2068.457845,1110.308913,8586.388927
145.942404,1991.848295,1406.391290,8808.450710
145.942712,1378.971896,962.267725,8882.471304
145.943020,1072.533697,518.144159,9474.636058
145.943328,766.095498,370.102971,9548.656652
145.943637,229.828649,-592.164754,9400.615463
145.943945,-919.314598,-1406.391290,9844.739029
145.944253,-995.924147,-962.267725,10140.821405
145.944561,-1149.143247,-1258.350101,9918.759623
145.944869,-1149.143247,-1258.350101,10658.965565
145.945177,-1225.752797,-1258.350101,10436.903782
145.945486,-1302.362347,-1258.350101,10436.903782
145.945794,-1532.190996,-1258.350101,10140.821405
145.946102,-306.438199,-814.226536,10066.800811
145.946410,0.000000,-1406.391290,9992.780217
145.946718,-153.219100,-740.205942,9548.656652
145.947026,0.000000,-814.226536,9622.677246
145.947335,306.438199,-740.205942,9474.636058
145.947643,1072.533697,-592.164754,9326.594869
145.947951,1225.752797,-370.102971,9178.553681
145.948259,1149.143247,-296.082377,9030.512492
145.948567,2145.067394,-0.000000,9252.574275
145.948875,1762.019645,518.144159,8956.491898
145.949184,1838.629195,1406.391290,8586.388927
145.949492,1991.848295,1554.432478,8882.471304
145.949800,2221.676944,1776.494261,8660.409521
145.950108,1915.238745,1924.535449,8660.409521
145.950416,1762.019645,1554.432478,9326.594869
145.950724,919.314598,1036.288319,9622.677246
145.951033,842.705048,666.185348,10362.883188
145.951341,-383.047749,518.144159,10510.924376
145.951649,-459.657299,296.082377,10732.986159
145.951957,-383.047749,-0.000000,11103.089130
145.952265,-306.438199,-0.000000,10955.047942
145.952573,76.609550,-0.000000,10658.965565
145.952882,0.000000,222.061783,10807.006753
145.953190,0.000000,222.061783,10066.800811
145.953498,1378.971896,740.205942,9992.780217
145.953806,1455.581446,1110.308913,9548.656652
145.954114,1838.629195,1480.411884,8882.471304
145.954422,1685.410096,1702.473667,8438.347739
145.954731,1915.238745,1998.556043,8586.388927
145.955039,1608.800546,1702.473667,8882.471304
145.955347,1762.019645,962.267725,8882.471304
145.955655,383.047749,296.082377,9030.512492
145.955963,229.828649,-0.000000,9474.636058
145.956272,-689.485948,-444.123565,9992.780217
145.956580,-766.095498,-962.267725,10066.800811
145.956888,-1149.143247,-1184.329507,9918.759623
145.957196,-1225.752797,-1184.329507,10214.842000
145.957504,-1225.752797,-1110.308913,10510.924376
145.957812,-1072.533697,-1110.308913,10732.986159
145.958121,-842.705048,-888.247130,10658.965565
145.958429,-229.828649,-1406.391290,10584.944971
145.958737,-689.485948,-1406.391290,10140.821405
145.959045,-306.438199,-1110.308913,9992.780217
145.959353,0.000000,-1036.288319,9992.780217
145.959661,76.609550,-1258.350101,9770.718434
145.959970,689.485948,-888.247130,9474.636058
145.960278,1072.533697,-296.082377,9622.677246
145.960586,1149.143247,-0.000000,9252.574275
145.960894,2068.457845,-0.000000,8882.471304
145.961202,2298.286494,740.205942,8512.368333
145.961510,2451.505594,1184.329507,8290.306550
145.961819,2528.115143,1702.473667,8290.306550
145.962127,2451.505594,1924.535449,8142.265362
145.962435,2145.067394,1776.494261,8364.327145
145.962743,2528.115143,1924.535449,8586.388927
145.963051,2221.676944,1776.494261,9104.533087
145.963359,1685.410096,1406.391290,9622.677246
145.963668,1149.143247,888.247130,10140.821405
145.963976,536.266849,518.144159,10214.842000
145.964284,0.000000,-0.000000,10881.027347
145.964592,0.000000,-148.041188,11029.068536
145.964900,0.000000,-444.123565,11103.089130
145.965208,153.219100,-222.061783,11029.068536
145.965517,689.485948,-370.102971,10732.986159
145.965825,919.314598,296.082377,10066.800811
145.966133,1225.752797,814.226536,10066.800811
145.966441,1915.238745,1258.350101,9474.636058
145.966749,2068.457845,1480.411884,8882.471304
145.967057,2298.286494,1924.535449,8512.368333
145.967366,1762.019645,1924.535449,8216.285956
145.967674,2374.896044,1628.453072,8290.306550
145.967982,2298.286494,1406.391290,8660.409521
145.968290,842.705048,740.205942,8734.430116
145.968598,383.047749,296.082377,9104.533087
145.968907,0.000000,-370.102971,9400.615463
145.969215,-612.876398,-888.247130,9622.677246
145.969523,-995.924147,-1332.370696,10140.821405
145.969831,-1608.800546,-1480.411884,10436.903782
145.970139,-1455.581446,-1554.432478,10658.965565
145.970447,-1378.971896,-1480.411884,10955.047942
145.970756,-1532.190996,-1628.453072,10955.047942
145.971064,-842.705048,-1258.350101,10288.862594
145.971372,-612.876398,-1258.350101,10214.842000
145.971680,-536.266849,-1258.350101,9992.780217
145.971988,-229.828649,-1110.308913,10140.821405
145.972296,0.000000,-814.226536,10066.800811
145.972605,766.095498,-592.164754,9474.636058
145.972913,689.485948,-814.226536,9326.594869
145.973221,1762.019645,-666.185348,9178.553681
145.973529,1532.190996,296.082377,8882.471304
145.973837,1762.019645,518.144159,8808.450710
145.974145,1915.238745,814.226536,8364.327145
145.974454,2068.457845,1258.350101,8142.265362
145.974762,2451.505594,1554.432478,8290.306550
145.975070,2145.067394,1776.494261,8808.450710
145.975378,2374.896044,1776.494261,9400.615463
145.975686,2145.067394,1776.494261,9326.594869
145.975994,1378.971896,1332.370696,9400.615463
145.976303,766.095498,1110.308913,9844.739029
145.976611,459.657299,740.205942,10362.883188
145.976919,0.000000,370.102971,10881.027347
145.977227,0.000000,-370.102971,11029.068536
145.977535,0.000000,-222.061783,11251.130318
145.977843,459.657299,-0.000000,10881.027347
145.978152,306.438199,370.102971,10362.883188
145.978460,306.438199,814.226536,10436.903782
145.978768,919.314598,962.267725,10066.800811
145.979076,1378.971896,1258.350101,9622.677246
145.979384,1455.581446,1702.473667,9400.615463
145.979692,1685.410096,1850.514855,9400.615463
145.980001,1455.581446,1184.329507,8956.491898
145.980309,1378.971896,740.205942,9622.677246
145.980617,383.047749,518.144159,9400.615463
145.980925,0.000000,666.185348,9252.574275
145.981233,-612.876398,222.061783,9474.636058
145.981542,-383.047749,-0.000000,9696.697840
145.981850,-766.095498,-592.164754,9696.697840
145.982158,-1072.533697,-1036.288319,10066.800811
145.982466,-1072.533697,-1110.308913,10214.842000
145.982774,-766.095498,-1258.350101,10214.842000
145.983082,-459.657299,-1184.329507,10584.944971
145.983391,-919.314598,-888.247130,10288.862594
145.983699,-689.485948,-1110.308913,9992.780217
145.984007,-459.657299,-1110.308913,10066.800811
145.984315,0.000000,-1036.288319,10140.821405
145.984623,-536.266849,-1184.329507,9770.718434
145.984931,153.219100,-1110.308913,9918.759623
145.985240,459.657299,-814.226536,9918.759623
145.985548,842.705048,-296.082377,9252.574275
145.985856,1378.971896,-74.020594,9252.574275
145.986164,1915.238745,222.061783,8882.471304
145.986472,1991.848295,666.185348,8290.306550
145.986780,2298.286494,1332.370696,8364.327145
145.987089,2757.943793,1184.329507,8660.409521
145.987397,2221.676944,1332.370696,8808.450710
145.987705,2298.286494,1776.494261,9252.574275
145.988013,2374.896044,1702.473667,9178.553681
145.988321,1685.410096,1258.350101,9030.512492
145.988629,1225.752797,1184.329507,9474.636058
145.988938,1072.533697,666.185348,9918.759623
145.989246,612.876398,666.185348,10214.842000
145.989554,689.485948,148.041188,10658.965565
145.989862,0.000000,-0.000000,10288.862594
145.990170,383.047749,148.041188,10510.924376
145.990478,536.266849,592.164754,10362.883188
145.990787,919.314598,740.205942,10066.800811
145.991095,1378.971896,888.247130,9622.677246
145.991403,1455.581446,1036.288319,9474.636058
145.991711,1608.800546,1406.391290,9252.574275
145.992019,1838.629195,888.247130,9178.553681
145.992327,1838.629195,1184.329507,9178.553681
145.992636,919.314598,962.267725,9178.553681
145.992944,842.705048,666.185348,9252.574275
145.993252,536.266849,148.041188,9400.615463
145.993560,306.438199,-148.041188,9400.615463
145.993868,-229.828649,-592.164754,9474.636058
145.994177,-536.266849,-740.205942,9696.697840
145.994485,-229.828649,-962.267725,10140.821405
145.994793,-1378.971896,-1258.350101,10066.800811
145.995101,-536.266849,-1332.370696,10214.842000
145.995409,-842.705048,-962.267725,9992.780217
145.995717,-919.314598,-1110.308913,10066.800811
145.996026,-689.485948,-1110.308913,10288.862594
145.996334,-459.657299,-1110.308913,9918.759623
145.996642,-229.828649,-1184.329507,9992.780217
145.996950,76.609550,-1332.370696,10140.821405
145.997258,459.657299,-1184.329507,9548.656652
145.997566,306.438199,-666.185348,9770.718434
145.997875,919.314598,-222.061783,9104.533087
145.998183,1608.800546,-74.020594,9104.533087
145.998491,1838.629195,370.102971,8660.409521
145.998799,1991.848295,740.205942,8512.368333
145.999107,2298.286494,1110.308913,8734.430116
145.999415,1762.019645,1480.411884,8734.430116
145.999724,2451.505594,1258.350101,9030.512492
146.000032,1915.238745,1628.453072,9030.512492
146.000340,1302.362347,1480.411884,9400.615463
146.000648,1072.533697,1258.350101,9622.677246
146.000956,766.095498,962.267725,10140.821405
146.001264,459.657299,370.102971,10510.924376
146.001573,536.266849,592.164754,10658.965565
146.001881,612.876398,296.082377,10881.027347
146.002189,229.828649,-0.000000,10881.027347
146.002497,536.266849,-0.000000,10288.862594
146.002805,612.876398,666.185348,10140.821405
146.003113,1072.533697,962.267725,9770.718434
146.003422,1302.362347,1184.329507,9696.697840
146.003730,1532.190996,1406.391290,9474.636058
146.004038,1302.362347,1554.432478,9400.615463
146.004346,1685.410096,1702.473667,9178.553681
146.004654,1302.362347,1332.370696,9030.512492
146.004962,1149.143247,962.267725,9474.636058
146.005271,612.876398,740.205942,9548.656652
146.005579,153.219100,592.164754,9696.697840
146.005887,-306.438199,-0.000000,9622.677246
146.006195,-536.266849,-222.061783,9548.656652
146.006503,-612.876398,-962.267725,9474.636058
146.006812,-995.924147,-1110.308913,9918.759623
146.007120,-1302.362347,-1036.288319,10066.800811
146.007428,-1149.143247,-1110.308913,10362.883188
146.007736,-1149.143247,-1036.288319,10140.821405
146.008044,-995.924147,-1258.350101,10288.862594
146.008352,-1225.752797,-1332.370696,10436.903782
146.008661,-919.314598,-1258.350101,9992.780217
146.008969,-689.485948,-1480.411884,10362.883188
146.009277,-536.266849,-1924.535449,9770.718434
146.009585,0.000000,-1702.473667,9548.656652
146.009893,459.657299,-1184.329507,9400.615463
146.010201,1149.143247,-592.164754,9326.594869
146.010510,1302.362347,-222.061783,8956.491898
146.010818,1838.629195,148.041188,8438.347739
146.011126,1991.848295,518.144159,8290.306550
146.011434,2451.505594,740.205942,8068.244768
146.011742,2221.676944,962.267725,8586.388927
146.012050,2451.505594,1480.411884,8808.450710
146.012359,2528.115143,1776.494261,8734.430116
146.012667,2221.676944,1924.535449,8734.430116
146.012975,1838.629195,1998.556043,8882.471304
146.013283,1685.410096,1406.391290,9326.594869
146.013591,1302.362347,888.247130,9696.697840
146.013899,459.657299,148.041188,9918.759623
146.014208,153.219100,296.082377,10510.924376
146.014516,0.000000,-0.000000,10881.027347
146.014824,-536.266849,296.082377,10881.027347
146.015132,459.657299,148.041188,10658.965565
146.015440,919.314598,370.102971,10436.903782
146.015748,1149.143247,740.205942,10214.842000
146.016057,1225.752797,1110.308913,9696.697840
146.016365,1455.581446,1258.350101,9844.739029
146.016673,1915.238745,1110.308913,9474.636058
146.016981,1991.848295,1258.350101,8586.388927
146.017289,1762.019645,1554.432478,9252.574275
146.017597,1608.800546,1332.370696,9104.533087
146.017906,1302.362347,962.267725,9030.512492
146.018214,995.924147,592.164754,8956.491898
146.018522,383.047749,666.185348,9400.615463
146.018830,-153.219100,-444.123565,9844.739029
146.019138,-229.828649,-740.205942,9918.759623
146.019447,-1149.143247,-1110.308913,10288.862594
146.019755,-612.876398,-1258.350101,9992.780217
146.020063,-995.924147,-1332.370696,10214.842000
146.020371,-995.924147,-962.267725,10362.883188
146.020679,-689.485948,-962.267725,10362.883188
146.020987,-536.266849,-962.267725,10066.800811
146.021296,-995.924147,-1036.288319,10140.821405
146.021604,-229.828649,-1184.329507,9992.780217
146.021912,0.000000,-888.247130,9992.780217
146.022220,76.609550,-296.082377,9548.656652
146.022528,459.657299,-222.061783,9548.656652
146.022836,842.705048,-148.041188,9474.636058
146.023145,995.924147,-148.041188,8956.491898
146.023453,1532.190996,-0.000000,9104.533087
146.023761,1608.800546,-0.000000,9326.594869
146.024069,1455.581446,592.164754,9030.512492
146.024377,1991.848295,1110.308913,8956.491898
146.024685,1685.410096,1258.350101,8956.491898
146.024993,1915.238745,1480.411884,9104.533087
146.025301,1915.238745,1554.432478,9104.533087
146.025609,1532.190996,1184.329507,9474.636058
146.025918,1455.581446,740.205942,9696.697840
146.026226,1225.752797,962.267725,9844.739029
146.026534,536.266849,592.164754,10214.842000
146.026842,612.876398,-0.000000,10732.986159
146.027150,766.095498,370.102971,10436.903782
146.027458,459.657299,148.041188,10214.842000
146.027766,536.266849,370.102971,9844.739029
146.028074,919.314598,740.205942,9992.780217
146.028382,995.924147,888.247130,9548.656652
146.028691,995.924147,592.164754,9400.615463
146.028999,1532.190996,1036.288319,9400.615463
146.029307,1149.143247,1480.411884,9030.512492
146.029615,1455.581446,1554.432478,9178.553681
146.029923,1072.533697,1036.288319,9178.553681
146.030231,383.047749,518.144159,9400.615463
146.030539,0.000000,370.102971,9474.636058
146.030847,-153.219100,-74.020594,9918.759623
146.031156,-459.657299,-518.144159,10214.842000
146.031464,-1072.533697,-666.185348,10214.842000
146.031772,-1149.143247,-518.144159,9992.780217
146.032080,-1302.362347,-740.205942,10214.842000
146.032388,-919.314598,-814.226536,9696.697840
146.032696,-919.314598,-666.185348,10140.821405
146.033004,-842.705048,-1036.288319,10214.842000
146.033312,-919.314598,-814.226536,10214.842000
146.033620,-842.705048,-1184.329507,9992.780217
146.033929,-612.876398,-1332.370696,9844.739029
146.034237,-689.485948,-1036.288319,9918.759623
146.034545,-689.485948,-666.185348,9992.780217
146.034853,306.438199,-666.185348,9918.759623
146.035161,766.095498,-666.185348,9474.636058
146.035469,1072.533697,-370.102971,9252.574275
146.035777,1378.971896,-0.000000,8956.491898
146.036085,1685.410096,296.082377,9030.512492
146.036393,2145.067394,222.061783,8512.368333
146.036702,1991.848295,1332.370696,8512.368333
146.037010,2451.505594,1554.432478,8290.306550
146.037318,2451.505594,1850.514855,8438.347739
146.037626,2451.505594,1850.514855,8586.388927
146.037934,1991.848295,1702.473667,8956.491898
146.038242,1762.019645,1332.370696,9030.512492
146.038550,1072.533697,888.247130,9548.656652
146.038858,1302.362347,296.082377,10214.842000
146.039167,459.657299,370.102971,10214.842000
146.039475,306.438199,-0.000000,11029.068536
146.039783,306.438199,-0.000000,10510.924376
146.040091,459.657299,296.082377,10510.924376
146.040399,536.266849,222.061783,10436.903782
146.040707,1072.533697,518.144159,10066.800811
146.041015,1302.362347,666.185348,9918.759623
146.041323,1532.190996,1036.288319,9770.718434
146.041631,1762.019645,1110.308913,9548.656652
146.041940,1762.019645,1184.329507,9252.574275
146.042248,1608.800546,1036.288319,8882.471304
146.042556,1455.581446,1110.308913,8882.471304
146.042864,1302.362347,666.185348,9104.533087
146.043172,842.705048,592.164754,9178.553681
146.043480,689.485948,-0.000000,9326.594869
146.043788,536.266849,-0.000000,9400.615463
146.044096,-306.438199,-444.123565,9770.718434
146.044404,-536.266849,-740.205942,9770.718434
146.044713,-689.485948,-888.247130,9770.718434
146.045021,-995.924147,-888.247130,9918.759623
146.045329,-1072.533697,-962.267725,10214.842000
146.045637,-842.705048,-1184.329507,10584.944971
146.045945,-1532.190996,-1258.350101,10288.862594
146.046253,-612.876398,-1110.308913,10140.821405
146.046561,-383.047749,-962.267725,10436.903782
146.046869,-306.438199,-1184.329507,9770.718434
146.047178,-229.828649,-888.247130,9696.697840
146.047486,229.828649,-962.267725,9622.677246
146.047794,536.266849,-592.164754,9474.636058
146.048102,842.705048,-370.102971,9326.594869
146.048410,1378.971896,-222.061783,9104.533087
146.048718,1608.800546,370.102971,8956.491898
146.049026,1915.238745,518.144159,8364.327145
146.049334,2221.676944,1036.288319,8808.450710
146.049642,2145.067394,1258.350101,8586.388927
146.049951,1991.848295,1406.391290,8734.430116
146.050259,1991.848295,1628.453072,8956.491898
146.050567,1762.019645,1258.350101,9326.594869
146.050875,1608.800546,814.226536,9474.636058
146.051183,1149.143247,592.164754,9696.697840
146.051491,1072.533697,296.082377,9992.780217
146.051799,536.266849,370.102971,10436.903782
146.052107,459.657299,666.185348,10510.924376
146.052416,459.657299,370.102971,10362.883188
146.052724,459.657299,518.144159,10066.800811
146.053032,919.314598,962.267725,10288.862594
146.053340,1302.362347,1036.288319,9696.697840
146.053648,1149.143247,1036.288319,10214.842000
146.053956,842.705048,1258.350101,9918.759623
146.054264,1072.533697,1036.288319,9548.656652
146.054572,919.314598,1184.329507,9474.636058
146.054880,842.705048,962.267725,9622.677246
146.055189,536.266849,666.185348,9548.656652
146.055497,153.219100,-0.000000,10214.842000
146.055805,-306.438199,-0.000000,10066.800811
146.056113,0.000000,-222.061783,9770.718434
146.056421,-153.219100,-518.144159,9696.697840
146.056729,-459.657299,-444.123565,9696.697840
146.057037,-612.876398,-444.123565,9622.677246
146.057345,-612.876398,-518.144159,9770.718434
146.057653,-842.705048,-740.205942,9844.739029
146.057962,-536.266849,-370.102971,10140.821405
146.058270,-842.705048,-1036.288319,10288.862594
146.058578,-766.095498,-1332.370696,9992.780217
146.058886,0.000000,-1406.391290,9918.759623
146.059194,-612.876398,-1258.350101,9918.759623
146.059502,-153.219100,-1036.288319,9918.759623
146.059810,76.609550,-962.267725,9770.718434
146.060118,459.657299,-814.226536,9622.677246
146.060427,995.924147,-592.164754,9474.636058
146.060735,1149.143247,-444.123565,9178.553681
146.061043,1685.410096,370.102971,9252.574275
146.061351,2145.067394,814.226536,8956.491898
146.061659,2145.067394,1036.288319,8586.388927
146.061967,2451.505594,1480.411884,8364.327145
146.062275,2451.505594,1776.494261,8290.306550
146.062583,2451.505594,1998.556043,8216.285956
146.062891,2374.896044,1924.535449,8808.450710
146.063200,2145.067394,1480.411884,8956.491898
146.063508,1685.410096,814.226536,9474.636058
146.063816,1378.971896,370.102971,10066.800811
146.064124,536.266849,444.123565,10140.821405
146.064432,306.438199,-0.000000,10881.027347
146.064740,229.828649,-148.041188,10807.006753
146.065048,153.219100,-0.000000,10807.006753
146.065356,229.828649,-74.020594,10732.986159
146.065664,1072.533697,-0.000000,10732.986159
146.065973,612.876398,370.102971,10510.924376
146.066281,1072.533697,888.247130,9622.677246
146.066589,1455.581446,1332.370696,9400.615463
146.066897,1685.410096,1702.473667,9030.512492
146.067205,1838.629195,1554.432478,8956.491898
146.067513,1685.410096,1554.432478,8808.450710
146.067821,995.924147,1184.329507,9326.594869
146.068129,689.485948,740.205942,9178.553681
146.068438,76.609550,148.041188,9326.594869
146.068746,0.000000,-0.000000,9474.636058
146.069054,-536.266849,-296.082377,9622.677246
146.069362,-766.095498,-666.185348,9770.718434
146.069670,-995.924147,-888.247130,10066.800811
146.069978,-1072.533697,-1184.329507,10140.821405
146.070286,-1225.752797,-1110.308913,10288.862594
146.070594,-1149.143247,-518.144159,10510.924376
146.070902,-995.924147,-888.247130,10436.903782
146.071211,-1072.533697,-1110.308913,10288.862594
146.071519,-612.876398,-962.267725,9992.780217
146.071827,-459.657299,-888.247130,10066.800811
146.072135,-306.438199,-814.226536,9992.780217
146.072443,153.219100,-962.267725,9622.677246
146.072751,229.828649,-888.247130,9548.656652
146.073059,383.047749,-518.144159,9622.677246
146.073367,842.705048,-370.102971,9400.615463
146.073675,1225.752797,-222.061783,8956.491898
146.073984,1455.581446,518.144159,8882.471304
146.074292,1915.238745,740.205942,8586.388927
146.074600,2298.286494,1332.370696,8660.409521
146.074908,2451.505594,1554.432478,8660.409521
146.075216,2681.334243,1628.453072,8586.388927
146.075524,2298.286494,1184.329507,8660.409521
146.075832,1915.238745,1110.308913,9178.553681
146.076140,1072.533697,962.267725,9474.636058
146.076449,689.485948,592.164754,9770.718434
146.076757,459.657299,444.123565,10214.842000
146.077065,383.047749,592.164754,10584.944971
146.077373,689.485948,444.123565,10510.924376
146.077681,612.876398,370.102971,10140.821405
146.077989,383.047749,962.267725,10362.883188
146.078297,689.485948,962.267725,10140.821405
146.078605,1149.143247,962.267725,10066.800811
146.078913,1149.143247,1406.391290,9918.759623
146.079222,919.314598,1332.370696,9696.697840
146.079530,1072.533697,1406.391290,9548.656652
146.079838,536.266849,1332.370696,9400.615463
146.080146,612.876398,888.247130,9696.697840
146.080454,229.828649,-0.000000,10288.862594
146.080762,0.000000,-296.082377,10140.821405
146.081070,-383.047749,-444.123565,9918.759623
146.081378,-766.095498,-296.082377,9770.718434
146.081686,-459.657299,-296.082377,9622.677246
146.081995,-536.266849,-518.144159,9548.656652
146.082303,76.609550,-814.226536,9696.697840
146.082611,0.000000,-592.164754,9770.718434
146.082919,-383.047749,-814.226536,9622.677246
146.083227,0.000000,-666.185348,10140.821405
146.083535,-306.438199,-1036.288319,9844.739029
146.083843,-306.438199,-1184.329507,10066.800811
146.084151,-306.438199,-1036.288319,9992.780217
146.084460,0.000000,-1110.308913,9844.739029
146.084768,306.438199,-1036.288319,9474.636058
146.085076,919.314598,-1110.308913,9400.615463
146.085384,766.095498,-1110.308913,9252.574275
146.085692,1532.190996,-222.061783,8512.368333
146.086000,1532.190996,-0.000000,8512.368333
146.086308,1762.019645,740.205942,8586.388927
146.086616,2145.067394,1184.329507,8364.327145
146.086924,2374.896044,1628.453072,8364.327145
146.087233,2374.896044,1702.473667,8438.347739
146.087541,2221.676944,1332.370696,9030.512492
146.087849,2145.067394,1776.494261,9252.574275
146.088157,1302.362347,962.267725,9178.553681
146.088465,1149.143247,666.185348,9918.759623
146.088773,1072.533697,592.164754,10214.842000
146.089081,383.047749,296.082377,10214.842000
146.089389,459.657299,148.041188,10584.944971
146.089698,995.924147,-0.000000,10658.965565
146.090006,919.314598,148.041188,10362.883188
146.090314,919.314598,-0.000000,9992.780217
146.090622,1149.143247,592.164754,10140.821405
146.090930,1225.752797,814.226536,10066.800811
146.091238,1378.971896,1110.308913,9696.697840
146.091546,1685.410096,1332.370696,9474.636058
146.091854,1608.800546,1480.411884,9104.533087
146.092162,1532.190996,1110.308913,9030.512492
146.092471,1149.143247,1110.308913,9104.533087
146.092779,1455.581446,592.164754,9400.615463
146.093087,612.876398,222.061783,9104.533087
146.093395,306.438199,592.164754,9178.553681
146.093703,76.609550,-74.020594,9474.636058
146.094011,0.000000,-444.123565,9548.656652
146.094319,-842.705048,-222.061783,9696.697840
146.094627,-919.314598,-666.185348,9992.780217
146.094935,-995.924147,-888.247130,10066.800811
146.095244,-612.876398,-1332.370696,10066.800811
146.095552,-1149.143247,-1406.391290,10584.944971
146.095860,-995.924147,-1258.350101,10436.903782
146.096168,-1072.533697,-1332.370696,10288.862594
146.096476,-842.705048,-1184.329507,10288.862594
146.096784,-383.047749,-962.267725,10214.842000
146.097092,0.000000,-1258.350101,10214.842000
146.097400,0.000000,-1184.329507,9770.718434
146.097709,612.876398,-666.185348,9696.697840
146.098017,306.438199,-666.185348,9252.574275
146.098325,1072.533697,-148.041188,9178.553681
146.098633,1608.800546,222.061783,8956.491898
146.098941,1838.629195,888.247130,8586.388927
146.099249,2298.286494,1184.329507,8364.327145
146.099557,2374.896044,1554.432478,8734.430116
146.099865,2757.943793,2072.576638,8216.285956
146.100173,2451.505594,1850.514855,8512.368333
146.100482,2298.286494,1702.473667,8882.471304
146.100790,1762.019645,1184.329507,9252.574275
146.101098,1378.971896,1258.350101,9548.656652
146.101406,919.314598,814.226536,10066.800811
146.101714,76.609550,370.102971,10288.862594
146.102022,229.828649,-0.000000,10732.986159
146.102330,306.438199,-0.000000,10436.903782
146.102638,459.657299,-0.000000,10436.903782
146.102946,459.657299,-0.000000,10732.986159
146.103255,306.438199,592.164754,10584.944971
146.103563,536.266849,814.226536,10288.862594
146.103871,842.705048,1110.308913,9992.780217
146.104179,1225.752797,1258.350101,9622.677246
146.104487,919.314598,1332.370696,9474.636058
146.104795,1072.533697,1110.308913,9400.615463
146.105103,842.705048,1406.391290,9770.718434
146.105411,383.047749,518.144159,9918.759623
146.105720,0.000000,148.041188,9844.739029
146.106028,-383.047749,-0.000000,9696.697840
146.106336,-459.657299,-0.000000,9474.636058
146.106644,-536.266849,-0.000000,9474.636058
146.106952,-689.485948,-666.185348,9474.636058
146.107260,0.000000,-592.164754,9548.656652
146.107568,-842.705048,-740.205942,9326.594869
146.107876,-919.314598,-592.164754,9548.656652
146.108184,-612.876398,-814.226536,9844.739029
146.108493,-536.266849,-888.247130,9918.759623
146.108801,-229.828649,-1036.288319,9918.759623
146.109109,-306.438199,-1258.350101,9992.780217
146.109417,76.609550,-1406.391290,9992.780217
146.109725,76.609550,-1332.370696,9992.780217
146.110033,383.047749,-1776.494261,9844.739029
146.110341,383.047749,-1110.308913,9696.697840
146.110649,919.314598,-740.205942,9400.615463
146.110957,1532.190996,-148.041188,9326.594869
146.111266,1838.629195,444.123565,8512.368333
146.111574,2298.286494,962.267725,8512.368333
146.111882,2757.943793,1332.370696,8512.368333
146.112190,2451.505594,1776.494261,8068.244768
146.112498,2757.943793,1924.535449,8660.409521
146.112806,2374.896044,1702.473667,8660.409521
146.113114,1915.238745,1554.432478,8956.491898
146.113422,1685.410096,1406.391290,9400.615463
146.113731,1072.533697,888.247130,9918.759623
146.114039,1225.752797,518.144159,9992.780217
146.114347,459.657299,370.102971,10807.006753
146.114655,689.485948,-0.000000,10807.006753
146.114963,153.219100,-0.000000,10807.006753
146.115271,459.657299,296.082377,10510.924376
146.115579,919.314598,296.082377,9992.780217
146.115887,1302.362347,962.267725,9992.780217
146.116195,1455.581446,1184.329507,9548.656652
146.116504,1991.848295,1554.432478,9474.636058
146.116812,1991.848295,1258.350101,9252.574275
146.117120,1838.629195,1406.391290,9030.512492
146.117428,2145.067394,1406.391290,9030.512492
146.117736,1302.362347,962.267725,9030.512492
146.118044,1149.143247,814.226536,9178.553681
146.118352,306.438199,296.082377,9030.512492
146.118660,0.000000,-74.020594,9548.656652
146.118968,-383.047749,-370.102971,9696.697840
146.119277,-612.876398,-666.185348,10140.821405
146.119585,-689.485948,-1110.308913,10436.903782
146.119893,-995.924147,-1258.350101,10362.883188
146.120201,-1225.752797,-1184.329507,10288.862594
146.120509,-1149.143247,-1258.350101,10510.924376
146.120817,-995.924147,-1110.308913,10510.924376
146.121125,-612.876398,-1332.370696,10362.883188
146.121433,-383.047749,-888.247130,9474.636058
146.121742,-306.438199,-1702.473667,10140.821405
146.122050,-306.438199,-1184.329507,9770.718434
146.122358,-383.047749,-888.247130,10066.800811
146.122666,612.876398,-814.226536,9770.718434
146.122974,689.485948,-444.123565,9178.553681
146.123282,1149.143247,-0.000000,9178.553681
146.123590,1532.190996,-0.000000,8438.347739
146.123898,2451.505594,740.205942,8364.327145
146.124206,2298.286494,1258.350101,8882.471304
146.124515,2068.457845,1480.411884,8290.306550
146.124823,2298.286494,1554.432478,8734.430116
146.125131,1915.238745,1628.453072,8586.388927
146.125439,1685.410096,1554.432478,9030.512492
146.125747,1378.971896,1332.370696,9178.553681
146.126055,1149.143247,1110.308913,9548.656652
146.126363,689.485948,592.164754,9918.759623
146.126671,536.266849,296.082377,10140.821405
146.126979,689.485948,296.082377,10658.965565
146.127288,536.266849,-74.020594,10066.800811
146.127596,229.828649,370.102971,10362.883188
146.127904,383.047749,518.144159,10436.903782
146.128212,536.266849,666.185348,10362.883188
146.128520,766.095498,740.205942,9992.780217
146.128828,1072.533697,888.247130,10436.903782
146.129136,995.924147,666.185348,10066.800811
146.129444,689.485948,888.247130,9548.656652
146.129752,995.924147,962.267725,9548.656652
146.130061,383.047749,666.185348,9844.739029
146.130369,229.828649,518.144159,9696.697840
146.130677,-153.219100,-0.000000,9474.636058
146.130985,-383.047749,-148.041188,9548.656652
146.131293,-536.266849,-222.061783,9474.636058
146.131601,-689.485948,-148.041188,9622.677246
146.131909,-612.876398,-814.226536,9696.697840
146.132217,-919.314598,-148.041188,9918.759623
146.132525,-995.924147,-592.164754,9400.615463
146.132833,-689.485948,-592.164754,9770.718434
146.133142,-612.876398,-962.267725,9992.780217
146.133450,-612.876398,-1184.329507,10288.862594
146.133758,-842.705048,-1332.370696,10214.842000
146.134066,-383.047749,-1480.411884,10214.842000
146.134374,0.000000,-1184.329507,10288.862594
146.134682,766.095498,-814.226536,10066.800811
146.134990,459.657299,-962.267725,9548.656652
146.135298,842.705048,-444.123565,9400.615463
146.135606,1149.143247,-370.102971,8956.491898
146.135915,1608.800546,592.164754,8956.491898
146.136223,2068.457845,592.164754,8734.430116
146.136531,2298.286494,814.226536,8586.388927
146.136839,2298.286494,1480.411884,8882.471304
146.137147,1991.848295,1924.535449,8882.471304
146.137455,1685.410096,1554.432478,8882.471304
146.137763,1685.410096,1406.391290,9178.553681
146.138071,1302.362347,1406.391290,9474.636058
146.138379,1072.533697,888.247130,9622.677246
146.138688,1072.533697,444.123565,10584.944971
146.138996,842.705048,-0.000000,10436.903782
146.139304,842.705048,-222.061783,10288.862594
146.139612,919.314598,-0.000000,10510.924376
146.139920,919.314598,-74.020594,10436.903782
146.140228,842.705048,296.082377,10214.842000
146.140536,1455.581446,370.102971,9992.780217
146.140844,1378.971896,814.226536,9770.718434
146.141152,1685.410096,592.164754,9474.636058
146.141460,1608.800546,1184.329507,9474.636058
146.141769,1608.800546,1184.329507,8882.471304
146.142077,2451.505594,1332.370696,9030.512492
146.142385,1838.629195,1480.411884,8808.450710
146.142693,1532.190996,1258.350101,8882.471304
146.143001,1072.533697,666.185348,9030.512492
146.143309,766.095498,370.102971,9326.594869
146.143617,383.047749,-0.000000,9474.636058
146.143925,-459.657299,-296.082377,9770.718434
146.144233,-536.266849,-888.247130,10140.821405
146.144542,-995.924147,-1184.329507,10288.862594
146.144850,-1072.533697,-1258.350101,10362.883188
146.145158,-1302.362347,-1184.329507,10584.944971
146.145466,-1149.143247,-1036.288319,10510.924376
146.145774,-1072.533697,-1258.350101,10510.924376
146.146082,-842.705048,-1258.350101,10288.862594
146.146390,0.000000,-1110.308913,10066.800811
146.146698,-536.266849,-1258.350101,9918.759623
146.147006,306.438199,-518.144159,9770.718434
146.147315,229.828649,-888.247130,9474.636058
146.147623,536.266849,-444.123565,9474.636058
146.147931,995.924147,-148.041188,9104.533087
146.148239,1455.581446,296.082377,8734.430116
146.148547,1608.800546,370.102971,8882.471304
146.148855,1685.410096,518.144159,8882.471304
146.149163,2298.286494,740.205942,8882.471304
146.149471,1838.629195,1184.329507,8586.388927
146.149779,1915.238745,1258.350101,8956.491898
146.150087,1838.629195,1258.350101,8808.450710
146.150396,1608.800546,1258.350101,9104.533087
146.150704,1685.410096,1184.329507,9326.594869
146.151012,1455.581446,1036.288319,9770.718434
146.151320,76.609550,370.102971,9770.718434
146.151628,689.485948,666.185348,9918.759623
146.151936,229.828649,666.185348,10214.842000
146.152244,536.266849,666.185348,10288.862594
146.152552,612.876398,518.144159,9992.780217
146.152860,536.266849,740.205942,10214.842000
146.153169,612.876398,962.267725,9992.780217
146.153477,76.609550,444.123565,10288.862594
146.153785,919.314598,1480.411884,10510.924376
146.154093,919.314598,1036.288319,9918.759623
146.154401,842.705048,1036.288319,9696.697840
146.154709,612.876398,1036.288319,9696.697840
146.155017,612.876398,888.247130,9696.697840
146.155325,229.828649,592.164754,9844.739029
146.155633,0.000000,296.082377,9918.759623
146.155942,-536.266849,-296.082377,9844.739029
146.156250,-689.485948,-370.102971,9918.759623
146.156558,-1072.533697,-296.082377,9696.697840
146.156866,-689.485948,-814.226536,9474.636058
146.157174,-689.485948,-592.164754,9622.677246
146.157482,-842.705048,-888.247130,9622.677246
146.157790,-612.876398,-518.144159,9918.759623
146.158098,-536.266849,-962.267725,9770.718434
146.158406,-612.876398,-1036.288319,9770.718434
146.158715,0.000000,-1258.350101,9918.759623
146.159023,306.438199,-1406.391290,9252.574275
146.159331,0.000000,-1036.288319,9622.677246
146.159639,766.095498,-888.247130,9622.677246
146.159947,766.095498,-740.205942,9252.574275
146.160255,842.705048,-444.123565,8956.491898
146.160563,1532.190996,-148.041188,8734.430116
146.160871,2298.286494,-74.020594,8808.450710
146.161179,1915.238745,518.144159,8734.430116
146.161487,2221.676944,592.164754,8438.347739
146.161796,2068.457845,962.267725,8808.450710
146.162104,1915.238745,1110.308913,8882.471304
146.162412,1762.019645,962.267725,9178.553681
146.162720,1378.971896,1110.308913,9400.615463
146.163028,1072.533697,740.205942,9400.615463
146.163336,1302.362347,740.205942,9770.718434
146.163644,995.924147,296.082377,10140.821405
146.163952,689.485948,444.123565,10140.821405
146.164260,842.705048,296.082377,10436.903782
146.164569,919.314598,370.102971,10140.821405
146.164877,919.314598,148.041188,9992.780217
146.165185,919.314598,444.123565,9918.759623
146.165493,2145.067394,666.185348,9918.759623
146.165801,1838.629195,1184.329507,9696.697840
146.166109,1915.238745,814.226536,9400.615463
146.166417,2145.067394,1036.288319,8882.471304
146.166725,1915.238745,1480.411884,8808.450710
146.167033,2068.457845,1554.432478,8808.450710
146.167342,2068.457845,1258.350101,8660.409521
146.167650,1532.190996,1258.350101,8734.430116
146.167958,995.924147,518.144159,9178.553681
146.168266,383.047749,-0.000000,9474.636058
146.168574,0.000000,-74.020594,9992.780217
146.168882,-153.219100,-518.144159,9918.759623
146.169190,-995.924147,-666.185348,10362.883188
146.169498,-1302.362347,-1184.329507,10362.883188
146.169806,-1608.800546,-1184.329507,10732.986159
146.170114,-1532.190996,-1258.350101,10732.986159
146.170423,-1378.971896,-1480.411884,10881.027347
146.170731,-919.314598,-1332.370696,10436.903782
146.171039,-689.485948,-1110.308913,10288.862594
146.171347,-1149.143247,-740.205942,10140.821405
146.171655,-306.438199,-888.247130,9696.697840
146.171963,153.219100,-666.185348,9622.677246
146.172271,536.266849,-592.164754,9400.615463
146.172579,842.705048,-296.082377,9326.594869
146.172887,842.705048,-518.144159,9030.512492
146.173196,1608.800546,-0.000000,8660.409521
146.173504,1455.581446,74.020594,8956.491898
146.173812,2068.457845,962.267725,8956.491898
146.174120,2068.457845,740.205942,8660.409521
146.174428,2068.457845,962.267725,8734.430116
146.174736,2068.457845,1110.308913,9178.553681
146.175044,1838.629195,1110.308913,9104.533087
146.175352,1762.019645,888.247130,9474.636058
146.175660,1685.410096,1110.308913,9474.636058
146.175969,1838.629195,740.205942,10066.800811
146.176277,766.095498,370.102971,10288.862594
146.176585,612.876398,888.247130,10140.821405
146.176893,689.485948,518.144159,10214.842000
146.177201,612.876398,518.144159,10362.883188
146.177509,689.485948,518.144159,10362.883188
146.177817,1072.533697,370.102971,10288.862594
146.178125,1225.752797,296.082377,10362.883188
146.178433,1302.362347,962.267725,10066.800811
146.178741,919.314598,1036.288319,10214.842000
146.179050,1149.143247,1258.350101,9548.656652
146.179358,1378.971896,1184.329507,9474.636058
146.179666,995.924147,1184.329507,9326.594869
146.179974,919.314598,740.205942,9326.594869
146.180282,612.876398,518.144159,9474.636058
146.180590,76.609550,370.102971,9696.697840
146.180898,-459.657299,222.061783,9696.697840
146.181206,0.000000,-222.061783,9474.636058
146.181514,-306.438199,-74.020594,9474.636058
146.181823,-229.828649,-370.102971,9770.718434
146.182131,-536.266849,-666.185348,9844.739029
146.182439,-689.485948,-814.226536,9918.759623
146.182747,-536.266849,-888.247130,10066.800811
146.183055,-766.095498,-1110.308913,10436.903782
146.183363,-306.438199,-1184.329507,9992.780217
146.183671,0.000000,-1258.350101,9474.636058
146.183979,0.000000,-814.226536,9548.656652
146.184287,0.000000,-814.226536,9474.636058
146.184596,76.609550,-740.205942,9474.636058
146.184904,536.266849,-592.164754,9474.636058
146.185212,1149.143247,-962.267725,9252.574275
146.185520,459.657299,-222.061783,9400.615463
146.185828,689.485948,296.082377,9474.636058
146.186136,1532.190996,-0.000000,9104.533087
146.186444,1378.971896,370.102971,8734.430116
146.186752,1455.581446,962.267725,8882.471304
146.187060,1532.190996,1184.329507,8734.430116
146.187368,1532.190996,1332.370696,9030.512492
146.187677,1915.238745,1258.350101,9252.574275
146.187985,1685.410096,962.267725,9326.594869
146.188293,842.705048,1184.329507,9400.615463
146.188601,842.705048,296.082377,9770.718434
146.188909,536.266849,666.185348,9918.759623
146.189217,229.828649,370.102971,10140.821405
146.189525,306.438199,296.082377,10362.883188
146.189833,689.485948,222.061783,10288.862594
146.190141,536.266849,296.082377,10066.800811
146.190450,612.876398,370.102971,10288.862594
146.190758,1072.533697,370.102971,9770.718434
146.191066,1225.752797,518.144159,9474.636058
146.191374,1378.971896,1110.308913,9548.656652
146.191682,1685.410096,1110.308913,9400.615463
146.191990,1608.800546,1406.391290,9030.512492
146.192298,1532.190996,1258.350101,8808.450710
146.192606,1302.362347,1036.288319,9030.512492
146.192914,766.095498,740.205942,9104.533087
146.193223,459.657299,222.061783,9104.533087
146.193531,76.609550,-0.000000,9548.656652
146.193839,0.000000,-74.020594,9622.677246
146.194147,-383.047749,-370.102971,9844.739029
146.194455,-689.485948,-592.164754,10214.842000
146.194763,-995.924147,-1036.288319,10436.903782
146.195071,-1149.143247,-518.144159,10732.986159
146.195379,-1072.533697,-814.226536,10658.965565
146.195687,-842.705048,-666.185348,10881.027347
146.195995,-612.876398,-1036.288319,10510.924376
146.196304,-689.485948,-888.247130,10362.883188
146.196612,-306.438199,-740.205942,10140.821405
146.196920,0.000000,-592.164754,9844.739029
146.197228,0.000000,-666.185348,9918.759623
146.197536,76.609550,-518.144159,9696.697840
146.197844,766.095498,-518.144159,8808.450710
146.198152,1762.019645,-0.000000,9326.594869
146.198460,1608.800546,444.123565,9252.574275
146.198768,1915.238745,666.185348,8882.471304
146.199077,2145.067394,814.226536,8808.450710
146.199385,2221.676944,1036.288319,8438.347739
146.199693,2451.505594,1332.370696,8956.491898
146.200001,2911.162892,1258.350101,8660.409521
146.200309,2298.286494,1184.329507,8586.388927
146.200617,2221.676944,1184.329507,9030.512492
146.200925,1532.190996,814.226536,9030.512492
146.201233,1455.581446,962.267725,9474.636058
146.201541,919.314598,592.164754,9992.780217
146.201850,689.485948,592.164754,10140.821405
146.202158,536.266849,222.061783,10288.862594
146.202466,536.266849,444.123565,10140.821405
146.202774,459.657299,370.102971,10658.965565
146.203082,459.657299,-0.000000,10436.903782
146.203390,306.438199,222.061783,10140.821405
146.203698,612.876398,592.164754,10436.903782
146.204006,689.485948,592.164754,10288.862594
146.204314,766.095498,592.164754,9844.739029
146.204623,459.657299,518.144159,9622.677246
146.204931,766.095498,148.041188,9696.697840
146.205239,689.485948,296.082377,9696.697840
146.205547,383.047749,-0.000000,9474.636058
146.205855,229.828649,-74.020594,9400.615463
146.206163,306.438199,-0.000000,9326.594869
146.206471,-153.219100,148.041188,9030.512492
146.206779,0.000000,-0.000000,9030.512492
146.207087,0.000000,-222.061783,9252.574275
146.207395,0.000000,-222.061783,9252.574275
146.207704,-766.095498,-518.144159,9474.636058
146.208012,0.000000,-666.185348,9622.677246
146.208320,-306.438199,-740.205942,9696.697840
146.208628,-536.266849,-888.247130,9918.759623
146.208936,-383.047749,-962.267725,9918.759623
146.209244,-536.266849,-1184.329507,10066.800811
146.209552,-383.047749,-1110.308913,9992.780217
146.209860,-459.657299,-814.226536,9548.656652
146.210168,153.219100,-518.144159,10140.821405
146.210477,536.266849,-814.226536,9622.677246
146.210785,766.095498,-444.123565,9400.615463
146.211093,919.314598,222.061783,9178.553681
146.211401,1302.362347,518.144159,9104.533087
146.211709,1608.800546,740.205942,9178.553681
146.212017,919.314598,518.144159,8512.368333
146.212325,1608.800546,1036.288319,9178.553681
146.212633,1455.581446,1258.350101,9030.512492
146.212941,1608.800546,1628.453072,9400.615463
146.213250,1072.533697,888.247130,9326.594869
146.213558,1072.533697,814.226536,9326.594869
146.213866,1072.533697,444.123565,9992.780217
146.214174,842.705048,518.144159,10066.800811
146.214482,689.485948,370.102971,10140.821405
146.214790,919.314598,-0.000000,9918.759623
146.215098,919.314598,518.144159,10140.821405
146.215406,1455.581446,148.041188,9770.718434
146.215714,995.924147,592.164754,9918.759623
146.216022,995.924147,592.164754,9622.677246
146.216331,1608.800546,962.267725,9400.615463
146.216639,1838.629195,1110.308913,9326.594869
146.216947,1915.238745,1184.329507,9178.553681
146.217255,1685.410096,1184.329507,9400.615463
146.217563,1378.971896,1184.329507,9252.574275
146.217871,995.924147,962.267725,9252.574275
146.218179,766.095498,592.164754,9252.574275
146.218487,306.438199,444.123565,9622.677246
146.218795,229.828649,-0.000000,9474.636058
146.219104,0.000000,-222.061783,9696.697840
146.219412,-766.095498,-296.082377,9474.636058
146.219720,-306.438199,-888.247130,10214.842000
146.220028,-1225.752797,-814.226536,10362.883188
146.220336,-536.266849,-666.185348,10362.883188
146.220644,-842.705048,-814.226536,10510.924376
146.220952,-766.095498,-740.205942,10510.924376
146.221260,-459.657299,-888.247130,10288.862594
146.221568,-383.047749,-962.267725,10288.862594
146.221877,0.000000,-1036.288319,10288.862594
146.222185,153.219100,-1332.370696,9844.739029
146.222493,229.828649,-1036.288319,9918.759623
146.222801,612.876398,-740.205942,9400.615463
146.223109,1225.752797,-74.020594,9400.615463
146.223417,1302.362347,-74.020594,8882.471304
146.223725,1532.190996,370.102971,8660.409521
146.224033,1991.848295,888.247130,8512.368333
146.224341,2298.286494,1184.329507,8216.285956
146.224649,2374.896044,1332.370696,8290.306550
146.224958,2528.115143,1332.370696,8216.285956
146.225266,2757.943793,1406.391290,8438.347739
146.225574,1838.629195,1406.391290,8882.471304
146.225882,1685.410096,1110.308913,9252.574275
146.226190,1225.752797,962.267725,9474.636058
146.226498,919.314598,518.144159,9770.718434
146.226806,995.924147,370.102971,10066.800811
146.227114,536.266849,296.082377,10732.986159
146.227422,306.438199,-0.000000,10436.903782
146.227730,383.047749,-74.020594,10436.903782
146.228038,229.828649,370.102971,10436.903782
146.228346,229.828649,370.102971,10362.883188
146.228655,153.219100,370.102971,10362.883188
146.228963,229.828649,296.082377,10584.944971
146.229271,536.266849,518.144159,10510.924376
146.229579,689.485948,-0.000000,10436.903782
146.229887,612.876398,370.102971,10362.883188
146.230195,0.000000,296.082377,9696.697840
146.230503,153.219100,444.123565,9770.718434
146.230811,153.219100,370.102971,9474.636058
146.231119,76.609550,296.082377,9030.512492
146.231427,383.047749,444.123565,8956.491898
146.231735,76.609550,296.082377,9252.574275
146.232043,306.438199,-0.000000,8956.491898
146.232351,76.609550,-0.000000,9104.533087
146.232659,-153.219100,-222.061783,9252.574275
146.232967,-383.047749,-444.123565,9548.656652
146.233275,-689.485948,-666.185348,9696.697840
146.233583,-536.266849,-740.205942,10214.842000
146.233892,-766.095498,-1110.308913,10140.821405
146.234200,-689.485948,-962.267725,10510.924376
146.234508,-459.657299,-1184.329507,10288.862594
146.234816,306.438199,-962.267725,10140.821405
146.235124,383.047749,-592.164754,9770.718434
146.235432,612.876398,-740.205942,9326.594869
146.235740,766.095498,-148.041188,9178.553681
146.236048,1302.362347,-0.000000,9326.594869
146.236356,1685.410096,370.102971,9104.533087
146.236664,1838.629195,592.164754,8882.471304
146.236972,1991.848295,370.102971,8512.368333
146.237280,1685.410096,888.247130,8660.409521
146.237588,1838.629195,1258.350101,9030.512492
146.237896,1762.019645,1110.308913,9252.574275
146.238204,1685.410096,814.226536,9252.574275
146.238512,1225.752797,814.226536,9400.615463
146.238820,995.924147,814.226536,9622.677246
146.239129,1225.752797,444.123565,9918.759623
146.239437,689.485948,-0.000000,9696.697840
146.239745,689.485948,370.102971,9992.780217
146.240053,995.924147,666.185348,10288.862594
146.240361,1149.143247,592.164754,9844.739029
146.240669,1149.143247,740.205942,9770.718434
146.240977,1225.752797,888.247130,9696.697840
146.241285,1608.800546,814.226536,9696.697840
146.241593,1685.410096,1110.308913,9474.636058
146.241901,1991.848295,1110.308913,9178.553681
146.242209,1685.410096,1184.329507,9474.636058
146.242517,1608.800546,1184.329507,9178.553681
146.242825,1378.971896,888.247130,9030.512492
146.243133,1378.971896,1036.288319,9252.574275
146.243441,842.705048,666.185348,9104.533087
146.243749,153.219100,592.164754,9400.615463
146.244058,0.000000,-0.000000,9474.636058
146.244366,-383.047749,-592.164754,10214.842000
146.244674,-1072.533697,-592.164754,10288.862594
146.244982,-842.705048,-592.164754,10732.986159
146.245290,-1149.143247,-888.247130,10584.944971
146.245598,-1455.581446,-1110.308913,10658.965565
146.245906,-1072.533697,-1184.329507,10881.027347
146.246214,-766.095498,-1036.288319,10732.986159
146.246522,-383.047749,-1036.288319,10436.903782
146.246830,76.609550,-1036.288319,10140.821405
146.247138,0.000000,-1184.329507,9770.718434
146.247446,153.219100,-1036.288319,9400.615463
146.247754,536.266849,-296.082377,9178.553681
146.248062,919.314598,-296.082377,8734.430116
146.248370,1378.971896,-0.000000,8512.368333
146.248678,2221.676944,666.185348,8364.327145
146.248986,2221.676944,888.247130,8438.347739
146.249295,2451.505594,962.267725,8290.306550
146.249603,1838.629195,1406.391290,8364.327145
146.249911,2298.286494,1258.350101,8364.327145
146.250219,1991.848295,1628.453072,8586.388927
146.250527,2145.067394,1406.391290,8882.471304
146.250835,1608.800546,1184.329507,9104.533087
146.251143,1378.971896,814.226536,9326.594869
146.251451,919.314598,814.226536,9696.697840
146.251759,612.876398,-0.000000,10140.821405
146.252067,689.485948,-0.000000,10807.006753
146.252375,0.000000,-148.041188,11103.089130
146.252683,0.000000,-0.000000,10807.006753
146.252991,0.000000,-0.000000,10807.006753
146.253299,76.609550,-0.000000,10658.965565
146.253607,0.000000,296.082377,10732.986159
146.253915,306.438199,370.102971,10288.862594
146.254223,383.047749,444.123565,10140.821405
146.254532,1149.143247,296.082377,9622.677246
146.254840,766.095498,666.185348,9400.615463
146.255148,995.924147,962.267725,9400.615463
146.255456,766.095498,962.267725,9104.533087
146.255764,459.657299,1036.288319,9104.533087
146.256072,383.047749,518.144159,9104.533087
146.256380,459.657299,518.144159,8882.471304
146.256688,536.266849,518.144159,9252.574275
146.256996,153.219100,-0.000000,9178.553681
146.257304,-459.657299,-148.041188,9474.636058
146.257612,-689.485948,-148.041188,9770.718434
146.257920,-842.705048,-518.144159,9992.780217
146.258228,-689.485948,-666.185348,9992.780217
146.258536,-459.657299,-962.267725,10214.842000
146.258844,-1302.362347,-1628.453072,10362.883188
146.259152,-689.485948,-1998.556043,10066.800811
146.259461,-459.657299,-1406.391290,9844.739029
146.259769,-153.219100,-1110.308913,9918.759623
146.260077,0.000000,-740.205942,9770.718434
146.260385,612.876398,-592.164754,9622.677246
146.260693,842.705048,-296.082377,9104.533087
146.261001,766.095498,-0.000000,9252.574275
146.261309,1149.143247,-0.000000,9030.512492
146.261617,1762.019645,592.164754,9030.512492
146.261925,2068.457845,518.144159,8586.388927
146.262233,1838.629195,962.267725,8734.430116
146.262541,2068.457845,1110.308913,8586.388927
146.262849,2068.457845,1184.329507,8734.430116
146.263157,2068.457845,1184.329507,8882.471304
146.263465,2221.676944,1110.308913,9104.533087
146.263773,1685.410096,518.144159,9474.636058
146.264081,1072.533697,592.164754,9992.780217
146.264389,1532.190996,222.061783,10066.800811
146.264698,1072.533697,370.102971,9918.759623
146.265006,1149.143247,518.144159,9770.718434
146.265314,1149.143247,666.185348,9548.656652
146.265622,1302.362347,740.205942,9770.718434
146.265930,1302.362347,518.144159,9622.677246
146.266238,1915.238745,666.185348,9622.677246
146.266546,1532.190996,888.247130,9326.594869
146.266854,1455.581446,814.226536,9696.697840
146.267162,1378.971896,962.267725,9474.636058
146.267470,1225.752797,1036.288319,9400.615463
146.267778,689.485948,888.247130,9548.656652
146.268086,536.266849,518.144159,9696.697840
146.268394,306.438199,222.061783,10140.821405
146.268702,76.609550,-0.000000,9844.739029
146.269010,-536.266849,-0.000000,9770.718434
146.269318,-536.266849,-296.082377,9770.718434
146.269626,-536.266849,-518.144159,10140.821405
146.269935,-842.705048,-518.144159,10140.821405
146.270243,-1072.533697,-370.102971,10214.842000
146.270551,-842.705048,-740.205942,10140.821405
146.270859,-842.705048,-888.247130,10214.842000
146.271167,-689.485948,-1258.350101,10362.883188
146.271475,-612.876398,-296.082377,10510.924376
146.271783,-995.924147,-1184.329507,9918.759623
146.272091,-459.657299,-1110.308913,9992.780217
146.272399,0.000000,-666.185348,9844.739029
146.272707,306.438199,-444.123565,9474.636058
146.273015,612.876398,-296.082377,9104.533087
146.273323,1455.581446,-0.000000,9252.574275
146.273631,1455.581446,222.061783,9030.512492
146.273939,1838.629195,148.041188,8586.388927
146.274247,1915.238745,592.164754,8290.306550
146.274555,2145.067394,1332.370696,8364.327145
146.274864,2145.067394,1258.350101,8734.430116
146.275172,2145.067394,1332.370696,9104.533087
146.275480,1532.190996,1332.370696,8808.450710
146.275788,1378.971896,592.164754,9622.677246
146.276096,1685.410096,740.205942,9918.759623
146.276404,842.705048,444.123565,10066.800811
146.276712,383.047749,-74.020594,10658.965565
146.277020,459.657299,-0.000000,10510.924376
146.277328,306.438199,-0.000000,10510.924376
146.277636,612.876398,-0.000000,10362.883188
146.277944,1072.533697,370.102971,10510.924376
146.278252,612.876398,296.082377,9992.780217
146.278560,1455.581446,962.267725,9992.780217
146.278868,1149.143247,1036.288319,9622.677246
146.279176,1072.533697,1184.329507,9326.594869
146.279484,1455.581446,1332.370696,9178.553681
146.279792,1225.752797,1554.432478,8956.491898
146.280101,1302.362347,962.267725,9400.615463
146.280409,842.705048,814.226536,9178.553681
146.280717,919.314598,592.164754,9474.636058
146.281025,76.609550,296.082377,9548.656652
146.281333,0.000000,-148.041188,9252.574275
146.281641,-766.095498,-0.000000,9770.718434
146.281949,-689.485948,-370.102971,9696.697840
146.282257,-459.657299,-444.123565,9770.718434
146.282565,-842.705048,-666.185348,9844.739029
146.282873,-766.095498,-814.226536,10140.821405
146.283181,-612.876398,-1036.288319,9918.759623
146.283489,-766.095498,-1406.391290,10288.862594
146.283797,-383.047749,-1554.432478,9770.718434
146.284105,-306.438199,-1480.411884,9844.739029
146.284413,-229.828649,-888.247130,9918.759623
146.284721,153.219100,-592.164754,9770.718434
146.285029,459.657299,-740.205942,9474.636058
146.285338,919.314598,-444.123565,9178.553681
146.285646,995.924147,-444.123565,9030.512492
146.285954,1685.410096,-0.000000,9252.574275
146.286262,1608.800546,-0.000000,9326.594869
146.286570,1762.019645,518.144159,8734.430116
146.286878,2068.457845,1110.308913,8882.471304
146.287186,2145.067394,1258.350101,8512.368333
146.287494,2068.457845,1332.370696,8586.388927
146.287802,2145.067394,1480.411884,9104.533087
146.288110,1455.581446,888.247130,9326.594869
146.288418,1455.581446,518.144159,9400.615463
146.288726,1302.362347,148.041188,10066.800811
146.289034,229.828649,296.082377,10362.883188
146.289342,229.828649,-0.000000,10362.883188
146.289650,383.047749,-0.000000,10510.924376
146.289958,383.047749,-0.000000,10362.883188
146.290267,919.314598,370.102971,10288.862594
146.290575,1072.533697,518.144159,10510.924376
146.290883,842.705048,592.164754,9992.780217
146.291191,1915.238745,1110.308913,9474.636058
146.291499,2068.457845,1332.370696,8882.471304
146.291807,2145.067394,1554.432478,8882.471304
146.292115,2068.457845,1776.494261,8734.430116
146.292423,1991.848295,1924.535449,8882.471304
146.292731,1532.190996,888.247130,8586.388927
146.293039,919.314598,888.247130,9178.553681
146.293347,842.705048,-0.000000,9474.636058
146.293655,0.000000,-74.020594,9548.656652
146.293963,-766.095498,-296.082377,10288.862594
146.294271,-1225.752797,-814.226536,10214.842000
146.294579,-1608.800546,-962.267725,10732.986159
146.294887,-1455.581446,-1110.308913,10881.027347
146.295195,-1302.362347,-1110.308913,10658.965565
146.295504,-1225.752797,-1332.370696,10881.027347
146.295812,-919.314598,-1480.411884,10881.027347
146.296120,-766.095498,-1406.391290,10584.944971
146.296428,-995.924147,-1036.288319,10214.842000
146.296736,-306.438199,-1036.288319,9918.759623
146.297044,0.000000,-666.185348,9770.718434
146.297352,229.828649,-518.144159,9474.636058
146.297660,842.705048,-370.102971,9252.574275
146.297968,1149.143247,-74.020594,9252.574275
146.298276,1455.581446,-0.000000,8734.430116
146.298584,1762.019645,296.082377,8512.368333
146.298892,2221.676944,1184.329507,8734.430116
146.299200,2221.676944,1480.411884,8364.327145
146.299508,2374.896044,1406.391290,8290.306550
146.299816,2221.676944,1776.494261,8290.306550
146.300124,2451.505594,1702.473667,8586.388927
146.300432,1915.238745,1184.329507,9178.553681
146.300741,1225.752797,814.226536,9178.553681
146.301049,1378.971896,814.226536,10214.842000
146.301357,689.485948,370.102971,10584.944971
146.301665,459.657299,-0.000000,10510.924376
146.301973,153.219100,222.061783,10658.965565
146.302281,383.047749,-0.000000,10807.006753
146.302589,0.000000,-0.000000,10807.006753
146.302897,459.657299,-0.000000,10955.047942
146.303205,1149.143247,-0.000000,10955.047942
146.303513,459.657299,444.123565,10140.821405
146.303821,1072.533697,1036.288319,9696.697840
146.304129,1685.410096,1332.370696,9696.697840
146.304437,1378.971896,1480.411884,9474.636058
146.304745,1302.362347,1480.411884,9104.533087
146.305053,919.314598,962.267725,9178.553681
146.305361,1378.971896,666.185348,9252.574275
146.305670,459.657299,444.123565,9474.636058
146.305978,0.000000,-0.000000,9474.636058
146.306286,0.000000,-0.000000,9178.553681
146.306594,-306.438199,-148.041188,9400.615463
146.306902,-459.657299,-296.082377,9474.636058
146.307210,-459.657299,-518.144159,9474.636058
146.307518,-536.266849,-592.164754,9622.677246
146.307826,-612.876398,-518.144159,9918.759623
146.308134,-153.219100,-1184.329507,9770.718434
146.308442,-766.095498,-740.205942,10362.883188
146.308750,-459.657299,-814.226536,10140.821405
146.309058,-229.828649,-1110.308913,9844.739029
146.309366,-229.828649,-814.226536,9844.739029
146.309674,153.219100,-592.164754,9992.780217
146.309982,536.266849,-888.247130,9770.718434
146.310290,0.000000,-518.144159,9474.636058
146.310598,1072.533697,-296.082377,9474.636058
146.310907,1532.190996,-148.041188,9178.553681
146.311215,1685.410096,148.041188,9030.512492
146.311523,2068.457845,592.164754,8734.430116
146.311831,2298.286494,1036.288319,8586.388927
146.312139,2374.896044,1258.350101,8438.347739
146.312447,2451.505594,888.247130,8660.409521
146.312755,2298.286494,1184.329507,8734.430116
146.313063,1762.019645,1480.411884,9326.594869
146.313371,1455.581446,962.267725,9770.718434
146.313679,919.314598,518.144159,9844.739029
146.313987,689.485948,222.061783,10288.862594
146.314295,459.657299,-0.000000,10214.842000
146.314603,536.266849,-0.000000,10436.903782
146.314911,459.657299,-148.041188,10658.965565
146.315219,612.876398,-0.000000,10436.903782
146.315527,1072.533697,148.041188,9696.697840
146.315835,1532.190996,962.267725,9622.677246
146.316144,1838.629195,1110.308913,9178.553681
146.316452,1991.848295,1480.411884,9030.512492
146.316760,2068.457845,1628.453072,8956.491898
146.317068,1915.238745,1554.432478,8956.491898
146.317376,1532.190996,1628.453072,9178.553681
146.317684,919.314598,1036.288319,9104.533087
146.317992,536.266849,814.226536,9400.615463
146.318300,-306.438199,296.082377,9474.636058
146.318608,-689.485948,-0.000000,9844.739029
146.318916,-995.924147,-370.102971,10510.924376
146.319224,-1378.971896,-814.226536,10362.883188
146.319532,-1762.019645,-592.164754,10955.047942
146.319840,-1378.971896,-1110.308913,10436.903782
146.320148,-1532.190996,-962.267725,10955.047942
146.320456,-842.705048,-1036.288319,10510.924376
146.320764,-842.705048,-592.164754,10362.883188
146.321073,-766.095498,-518.144159,10362.883188
146.321381,-536.266849,-740.205942,10066.800811
146.321689,-383.047749,-814.226536,9992.780217
146.321997,153.219100,-740.205942,9696.697840
146.322305,76.609550,-888.247130,9400.615463
146.322613,1072.533697,-592.164754,9326.594869
146.322921,1378.971896,-296.082377,9178.553681
146.323229,1532.190996,-74.020594,9104.533087
146.323537,1838.629195,-0.000000,8512.368333
146.323845,2068.457845,740.205942,8660.409521
146.324153,2374.896044,888.247130,8438.347739
146.324461,2298.286494,1184.329507,8512.368333
146.324769,2528.115143,1332.370696,8290.306550
146.325077,2681.334243,1110.308913,8290.306550
146.325385,2451.505594,1406.391290,9252.574275
146.325693,1762.019645,1036.288319,9400.615463
146.326001,1149.143247,666.185348,9548.656652
146.326309,383.047749,518.144159,10214.842000
146.326617,612.876398,148.041188,10362.883188
146.326925,229.828649,222.061783,10510.924376
146.327233,306.438199,-0.000000,11029.068536
146.327541,306.438199,-296.082377,11103.089130
146.327849,536.266849,-0.000000,10732.986159
146.328157,766.095498,444.123565,10288.862594
146.328465,919.314598,740.205942,10066.800811
146.328773,1302.362347,1184.329507,9622.677246
146.329081,1302.362347,1258.350101,9400.615463
146.329389,1838.629195,1702.473667,9104.533087
146.329697,1532.190996,1110.308913,9030.512492
146.330005,1149.143247,1036.288319,9252.574275
146.330313,842.705048,296.082377,9030.512492
146.330621,459.657299,296.082377,9474.636058
146.330929,0.000000,-148.041188,9400.615463
146.331237,-536.266849,-296.082377,9622.677246
146.331545,-612.876398,-222.061783,9770.718434
146.331853,-536.266849,-666.185348,9622.677246
146.332161,-842.705048,-370.102971,9918.759623
146.332469,-842.705048,-666.185348,9918.759623
146.332777,-306.438199,-1110.308913,9622.677246
146.333085,-536.266849,-814.226536,9696.697840
146.333393,-383.047749,-814.226536,9992.780217
146.333701,-536.266849,-888.247130,10066.800811
146.334009,-383.047749,-962.267725,10066.800811
146.334317,0.000000,-592.164754,10140.821405
146.334625,0.000000,-1258.350101,10066.800811
146.334933,536.266849,-888.247130,9770.718434
146.335241,306.438199,-740.205942,9474.636058
146.335549,689.485948,-444.123565,9400.615463
146.335857,1149.143247,-0.000000,9178.553681
146.336165,1378.971896,296.082377,9104.533087
146.336473,1838.629195,592.164754,8956.491898
146.336781,2451.505594,888.247130,8808.450710
146.337089,2145.067394,1332.370696,8956.491898
146.337397,1915.238745,1554.432478,8956.491898
146.337705,1455.581446,1258.350101,9178.553681
146.338013,1762.019645,1332.370696,9474.636058
146.338321,1378.971896,888.247130,9474.636058
146.338629,1302.362347,740.205942,9622.677246
146.338937,995.924147,370.102971,10214.842000
146.339245,995.924147,-0.000000,10214.842000
146.339553,459.657299,-222.061783,10288.862594
146.339861,842.705048,-0.000000,10066.800811
146.340169,1072.533697,370.102971,9992.780217
146.340477,1378.971896,592.164754,9696.697840
146.340785,1532.190996,740.205942,9622.677246
146.341093,1762.019645,1036.288319,9474.636058
146.341401,1762.019645,1332.370696,9178.553681
146.341709,2145.067394,1480.411884,9326.594869
146.342017,1915.238745,1406.391290,9326.594869
146.342325,1915.238745,1110.308913,9178.553681
146.342633,1302.362347,962.267725,8882.471304
146.342941,766.095498,814.226536,9474.636058
146.343249,229.828649,-0.000000,9696.697840
146.343557,-383.047749,-0.000000,9770.718434
146.343865,-689.485948,-444.123565,10214.842000
146.344173,-842.705048,-1110.308913,10066.800811
146.344481,-1608.800546,-1036.288319,10510.924376
146.344789,-1378.971896,-1258.350101,10732.986159
146.345097,-1149.143247,-1406.391290,10658.965565
146.345405,-1225.752797,-1110.308913,10362.883188
146.345713,-919.314598,-888.247130,10658.965565
146.346021,-766.095498,-740.205942,10288.862594
146.346329,-383.047749,-814.226536,9918.759623
146.346637,0.000000,-888.247130,9474.636058
146.346945,0.000000,-444.123565,9400.615463
146.347253,689.485948,-518.144159,9400.615463
146.347561,919.314598,-444.123565,9104.533087
146.347869,1149.143247,-518.144159,8808.450710
146.348177,1302.362347,-74.020594,8660.409521
146.348485,1532.190996,-0.000000,8734.430116
146.348793,1915.238745,296.082377,8808.450710
146.349101,1991.848295,592.164754,8586.388927
146.349409,1991.848295,814.226536,8734.430116
146.349717,2145.067394,1258.350101,8808.450710
146.350025,2221.676944,1258.350101,8808.450710
146.350333,1991.848295,1628.453072,9252.574275
146.350641,1532.190996,1258.350101,9252.574275
146.350949,1378.971896,1036.288319,9622.677246
146.351257,919.314598,592.164754,9918.759623
146.351565,612.876398,592.164754,10214.842000
146.351873,536.266849,-0.000000,10584.944971
146.352181,306.438199,-0.000000,10881.027347
146.352489,306.438199,-0.000000,10658.965565
146.352797,0.000000,222.061783,10881.027347
146.353105,229.828649,222.061783,10807.006753
146.353413,229.828649,444.123565,10510.924376
146.353721,1455.581446,888.247130,10362.883188
146.354029,1378.971896,888.247130,9992.780217
146.354337,1378.971896,1406.391290,9474.636058
146.354645,1532.190996,1258.350101,9326.594869
146.354953,1302.362347,1184.329507,9030.512492
146.355261,689.485948,1110.308913,9326.594869
146.355569,536.266849,592.164754,9178.553681
146.355877,76.609550,370.102971,9178.553681
146.356185,0.000000,-0.000000,9400.615463
146.356493,-383.047749,-0.000000,9252.574275
146.356801,0.000000,-0.000000,9178.553681
146.357109,0.000000,-296.082377,9844.739029
146.357417,-919.314598,-444.123565,9622.677246
146.357725,-919.314598,-666.185348,10214.842000
146.358033,-1072.533697,-888.247130,10362.883188
146.358341,-1149.143247,-1036.288319,10214.842000
146.358649,-536.266849,-1184.329507,10140.821405
146.358957,-842.705048,-740.205942,10658.965565
146.359265,-153.219100,-1332.370696,10362.883188
146.359573,-306.438199,-1036.288319,9696.697840
146.359881,-229.828649,-740.205942,9770.718434
146.360189,306.438199,-814.226536,9178.553681
146.360497,766.095498,-592.164754,9326.594869
146.360805,1072.533697,-444.123565,9178.553681
146.361113,1225.752797,222.061783,9178.553681
146.361421,2221.676944,222.061783,9030.512492
146.361729,1455.581446,222.061783,8734.430116
146.362037,2068.457845,444.123565,8882.471304
146.362345,2145.067394,962.267725,8734.430116
146.362653,2068.457845,1332.370696,8660.409521
146.362961,2068.457845,1406.391290,8660.409521
146.363269,1838.629195,1332.370696,8882.471304
146.363577,1762.019645,1258.350101,9326.594869
146.363885,1991.848295,740.205942,9326.594869
146.364193,1378.971896,962.267725,9326.594869
146.364501,1455.581446,518.144159,9622.677246
146.364809,919.314598,592.164754,9992.780217
146.365117,919.314598,-0.000000,9918.759623
146.365425,919.314598,222.061783,10066.800811
146.365733,919.314598,444.123565,9992.780217
146.366041,1072.533697,444.123565,10362.883188
146.366349,1149.143247,592.164754,10066.800811
146.366657,1072.533697,666.185348,9918.759623
146.366965,1685.410096,888.247130,9474.636058
146.367273,1608.800546,1036.288319,8956.491898
146.367581,1302.362347,962.267725,9252.574275
146.367889,1072.533697,888.247130,9474.636058
146.368197,612.876398,740.205942,9622.677246
146.368505,0.000000,222.061783,9474.636058
146.368813,-153.219100,-74.020594,9474.636058
146.369121,-612.876398,-296.082377,9992.780217
146.369429,-1072.533697,-518.144159,10140.821405
146.369737,-995.924147,-666.185348,10140.821405
146.370045,-1225.752797,-666.185348,10066.800811
146.370353,-1225.752797,-814.226536,10362.883188
146.370661,-766.095498,-814.226536,10362.883188
146.370969,-459.657299,-740.205942,10436.903782
146.371277,0.000000,-1332.370696,9696.697840
146.371585,0.000000,-1258.350101,9844.739029
146.371893,0.000000,-1554.432478,9770.718434
146.372201,383.047749,-740.205942,9622.677246
146.372509,383.047749,-666.185348,9548.656652
146.372817,842.705048,-370.102971,9178.553681
146.373125,1072.533697,-74.020594,9252.574275
146.373433,1149.143247,-370.102971,8956.491898
146.373741,1838.629195,222.061783,8808.450710
146.374049,1685.410096,592.164754,8586.388927
146.374357,2068.457845,888.247130,8882.471304
146.374665,2145.067394,1480.411884,8734.430116
146.374973,2298.286494,1554.432478,8734.430116
146.375281,1991.848295,1776.494261,8956.491898
146.375589,2145.067394,1406.391290,9252.574275
146.375897,1455.581446,1184.329507,9548.656652
146.376205,919.314598,888.247130,10066.800811
146.376513,306.438199,962.267725,10436.903782
146.376821,383.047749,740.205942,10807.006753
146.377129,306.438199,518.144159,10658.965565
146.377437,76.609550,148.041188,10510.924376
146.377745,0.000000,222.061783,10584.944971
146.378053,76.609550,74.020594,10658.965565
146.378361,383.047749,370.102971,10584.944971
146.378669,689.485948,-0.000000,10436.903782
146.378977,1072.533697,592.164754,9770.718434
146.379285,1149.143247,666.185348,9548.656652
146.379593,1378.971896,962.267725,9474.636058
146.379901,1302.362347,1110.308913,9030.512492
146.380208,1149.143247,1036.288319,8882.471304
146.380516,1149.143247,888.247130,8882.471304
146.380824,919.314598,222.061783,9104.533087
146.381132,689.485948,296.082377,9104.533087
146.381440,0.000000,-0.000000,9326.594869
146.381748,0.000000,-0.000000,9326.594869
146.382056,-766.095498,-518.144159,9622.677246
146.382364,-1302.362347,-740.205942,9770.718434
146.382672,-1149.143247,-1036.288319,9992.780217
146.382980,-919.314598,-1036.288319,10214.842000
146.383288,-612.876398,-1110.308913,10288.862594
146.383596,-612.876398,-1480.411884,9992.780217
146.383904,-229.828649,-1332.370696,9992.780217
146.384212,-306.438199,-888.247130,9770.718434
146.384520,-153.219100,-1036.288319,9548.656652
146.384828,0.000000,-888.247130,9770.718434
146.385136,0.000000,-888.247130,9474.636058
146.385444,459.657299,-592.164754,9400.615463
146.385752,766.095498,-222.061783,9622.677246
146.386060,1225.752797,-74.020594,9474.636058
146.386368,1302.362347,-74.020594,8734.430116
146.386676,1838.629195,370.102971,8956.491898
146.386984,1915.238745,1110.308913,8660.409521
146.387292,1915.238745,1258.350101,8734.430116
146.387600,2145.067394,1406.391290,8734.430116
146.387908,2298.286494,1258.350101,8586.388927
146.388216,2221.676944,1258.350101,8734.430116
146.388524,1991.848295,1110.308913,9104.533087
146.388832,1455.581446,888.247130,9474.636058
146.389140,995.924147,666.185348,9474.636058
146.389448,689.485948,296.082377,9992.780217
146.389756,459.657299,296.082377,10510.924376
146.390064,306.438199,-0.000000,10362.883188
146.390372,689.485948,148.041188,9992.780217
146.390680,1149.143247,518.144159,10288.862594
146.390988,2068.457845,518.144159,9918.759623
146.391296,1685.410096,666.185348,9918.759623
146.391604,1685.410096,1258.350101,9770.718434
146.391912,1608.800546,1406.391290,9326.594869
146.392220,1455.581446,1258.350101,9474.636058
146.392528,1149.143247,1554.432478,9474.636058
146.392836,612.876398,1036.288319,9548.656652
146.393144,0.000000,666.185348,9474.636058
146.393452,76.609550,-0.000000,9400.615463
146.393760,0.000000,-148.041188,9696.697840
146.394068,-612.876398,-666.185348,10436.903782
146.394376,-1072.533697,-1036.288319,9770.718434
146.394684,-1072.533697,-888.247130,10214.842000
146.394992,-1149.143247,-666.185348,10288.862594
146.395300,-842.705048,-888.247130,10066.800811
146.395608,-689.485948,-962.267725,10214.842000
146.395916,76.609550,-740.205942,9770.718434
146.396224,306.438199,-666.185348,9918.759623
146.396532,76.609550,-740.205942,9696.697840
146.396840,306.438199,-888.247130,9474.636058
146.397148,306.438199,-814.226536,9474.636058
146.397456,306.438199,-740.205942,9474.636058
146.397764,919.314598,-888.247130,9178.553681
146.398072,1302.362347,-370.102971,9326.594869
146.398380,1455.581446,-296.082377,9030.512492
146.398688,1685.410096,-0.000000,8956.491898
146.398996,1838.629195,592.164754,8586.388927
146.399304,1991.848295,1036.288319,8734.430116
146.399612,2374.896044,1332.370696,8512.368333
146.399920,2298.286494,1702.473667,8734.430116
146.400228,2221.676944,1480.411884,8956.491898
146.400536,1532.190996,1332.370696,9326.594869
146.400844,1608.800546,1406.391290,10288.862594
146.401152,842.705048,296.082377,10066.800811
146.401460,229.828649,518.144159,10288.862594
146.401768,0.000000,-0.000000,10807.006753
146.402076,0.000000,-74.020594,10732.986159
146.402384,76.609550,-74.020594,10955.047942
146.402692,459.657299,148.041188,10955.047942
146.403000,306.438199,-0.000000,10584.944971
146.403308,995.924147,296.082377,10214.842000
146.403616,1378.971896,666.185348,10140.821405
146.403924,1455.581446,1184.329507,9474.636058
146.404232,1685.410096,1554.432478,9178.553681
146.404540,1608.800546,1406.391290,9030.512492
146.404848,1455.581446,1480.411884,8956.491898
146.405156,1072.533697,962.267725,9030.512492
146.405464,153.219100,666.185348,9104.533087
146.405772,229.828649,592.164754,9326.594869
146.406080,153.219100,-0.000000,9326.594869
146.406388,-306.438199,-0.000000,9622.677246
146.406696,-612.876398,-296.082377,9474.636058
146.407004,-689.485948,-666.185348,9474.636058
146.407312,-689.485948,-666.185348,9844.739029
146.407620,-995.924147,-814.226536,9918.759623
146.407928,-1149.143247,-1036.288319,10436.903782
146.408236,-1378.971896,-296.082377,10881.027347
146.408544,-766.095498,-1554.432478,10436.903782
146.408852,-919.314598,-1110.308913,10362.883188
146.409160,-766.095498,-1110.308913,10288.862594
146.409468,-536.266849,-888.247130,10214.842000
146.409776,-153.219100,-888.247130,9992.780217
146.410084,0.000000,-666.185348,9548.656652
146.410392,919.314598,-888.247130,9252.574275
146.410700,1149.143247,-148.041188,8808.450710
146.411008,1991.848295,370.102971,8882.471304
146.411316,1991.848295,592.164754,8512.368333
146.411624,1915.238745,1036.288319,8364.327145
146.411932,2298.286494,1406.391290,8142.265362
146.412240,2145.067394,1776.494261,8142.265362
146.412548,2145.067394,1776.494261,8660.409521
146.412856,1915.238745,1776.494261,8734.430116
146.413164,1532.190996,1406.391290,9326.594869
146.413472,1149.143247,888.247130,9844.739029
146.413780,536.266849,666.185348,9992.780217
146.414088,383.047749,296.082377,10288.862594
146.414396,153.219100,-0.000000,10584.944971
146.414704,76.609550,-0.000000,10584.944971
146.415012,306.438199,-148.041188,10658.965565
146.415320,612.876398,-0.000000,10658.965565
146.415628,689.485948,-148.041188,10362.883188
146.415936,1072.533697,814.226536,10362.883188
146.416244,1455.581446,814.226536,9770.718434
146.416552,1685.410096,1184.329507,9474.636058
146.416860,1685.410096,1332.370696,9400.615463
146.417168,1915.238745,1554.432478,9030.512492
146.417476,1455.581446,1406.391290,9178.553681
146.417784,1225.752797,962.267725,9104.533087
146.418092,766.095498,962.267725,9474.636058
146.418400,306.438199,444.123565,9474.636058
146.418708,-229.828649,-0.000000,9474.636058
146.419016,-459.657299,-296.082377,9696.697840
146.419324,-842.705048,-444.123565,9770.718434
146.419632,0.000000,-592.164754,9770.718434
146.419940,-1378.971896,-888.247130,9696.697840
146.420248,-919.314598,-888.247130,10436.903782
146.420556,-1072.533697,-962.267725,9992.780217
146.420864,-1378.971896,-962.267725,10066.800811
146.421172,-689.485948,-1258.350101,10436.903782
146.421480,-536.266849,-1258.350101,9918.759623
146.421788,-306.438199,-1332.370696,10288.862594
146.422096,76.609550,-1110.308913,9918.759623
146.422404,459.657299,-1258.350101,9548.656652
146.422712,842.705048,-1036.288319,9474.636058
146.423020,1072.533697,-592.164754,8586.388927
146.423328,1838.629195,-222.061783,8734.430116
146.423636,2374.896044,444.123565,8512.368333
146.423944,2604.724693,888.247130,8290.306550
146.424252,2604.724693,1110.308913,8216.285956
146.424560,2987.772442,1480.411884,8142.265362
146.424868,2681.334243,1332.370696,7994.224174
146.425176,2451.505594,1998.556043,8882.471304
146.425484,2451.505594,1628.453072,8586.388927
146.425792,1225.752797,1036.288319,8956.491898
146.426100,1149.143247,740.205942,9918.759623
146.426408,689.485948,222.061783,10288.862594
146.426716,306.438199,-0.000000,10807.006753
146.427024,153.219100,-74.020594,10807.006753
146.427332,0.000000,-222.061783,10881.027347
146.427640,229.828649,-222.061783,10881.027347
146.427948,842.705048,-148.041188,10584.944971
146.428256,766.095498,370.102971,10362.883188
146.428564,919.314598,888.247130,9992.780217
146.428872,1072.533697,1184.329507,9622.677246
146.429180,1378.971896,1406.391290,9104.533087
146.429488,2068.457845,1628.453072,9030.512492
146.429796,1302.362347,1702.473667,8734.430116
146.430104,1915.238745,1406.391290,9178.553681
146.430412,995.924147,740.205942,9326.594869
146.430720,-76.609550,666.185348,9548.656652
146.431028,76.609550,148.041188,9474.636058
146.431336,-383.047749,-0.000000,9696.697840
146.431644,-383.047749,-74.020594,9696.697840
146.431952,-612.876398,-222.061783,9696.697840
146.432260,-766.095498,-740.205942,9770.718434
146.432568,-919.314598,-370.102971,10140.821405
146.432876,-919.314598,-740.205942,10140.821405
146.433184,-995.924147,-1036.288319,10214.842000
146.433492,-1149.143247,-1258.350101,10436.903782
146.433800,-1225.752797,-1258.350101,10362.883188
146.434108,-766.095498,-1184.329507,10288.862594
146.434416,-229.828649,-1110.308913,10288.862594
146.434724,-383.047749,-1110.308913,10436.903782
146.435032,0.000000,-1258.350101,9474.636058
146.435340,689.485948,-814.226536,9474.636058
146.435648,842.705048,-222.061783,8882.471304
146.435956,1225.752797,148.041188,8882.471304
146.436264,1532.190996,592.164754,8512.368333
146.436572,2145.067394,740.205942,8660.409521
146.436880,2298.286494,1184.329507,8290.306550
146.437188,2145.067394,1480.411884,8512.368333
146.437496,2145.067394,1554.432478,8586.388927
146.437804,1991.848295,1480.411884,8808.450710
146.438112,1608.800546,1110.308913,9030.512492
146.438420,1225.752797,1036.288319,9474.636058
146.438728,919.314598,740.205942,9622.677246
146.439036,536.266849,370.102971,9992.780217
146.439344,1149.143247,296.082377,10288.862594
146.439652,383.047749,-74.020594,10140.821405
146.439960,383.047749,-222.061783,10807.006753
146.440268,229.828649,814.226536,10881.027347
146.440576,383.047749,148.041188,10436.903782
146.440884,842.705048,666.185348,10288.862594
146.441192,1149.143247,1184.329507,9844.739029
146.441500,1455.581446,1332.370696,9252.574275
146.441808,1685.410096,1480.411884,9104.533087
146.442116,1378.971896,1184.329507,8660.409521
146.442424,1838.629195,1110.308913,8882.471304
146.442732,1225.752797,592.164754,8956.491898
146.443040,766.095498,518.144159,9178.553681
146.443348,76.609550,222.061783,9400.615463
146.443656,-306.438199,-0.000000,9622.677246
146.443964,-612.876398,-518.144159,9770.718434
146.444272,-842.705048,-814.226536,9992.780217
146.444580,-1225.752797,-1258.350101,10362.883188
146.444888,-766.095498,-888.247130,10436.903782
146.445197,-1302.362347,-1406.391290,10584.944971
146.445505,-1149.143247,-1110.308913,10288.862594
146.445813,-995.924147,-1036.288319,10288.862594
146.446121,-612.876398,-1036.288319,10066.800811
146.446429,-459.657299,-888.247130,9992.780217
146.446737,153.219100,-1110.308913,9918.759623
146.447045,842.705048,-962.267725,9474.636058
146.447353,459.657299,-1184.329507,9474.636058
146.447661,1378.971896,-592.164754,8956.491898
146.447969,1455.581446,-370.102971,8734.430116
146.448277,1838.629195,-0.000000,8586.388927
146.448585,2221.676944,518.144159,8512.368333
146.448893,2221.676944,888.247130,8364.327145
146.449201,2604.724693,740.205942,8290.306550
146.449509,2681.334243,1184.329507,8586.388927
146.449817,2221.676944,1184.329507,8438.347739
146.450125,1762.019645,1332.370696,9030.512492
146.450433,1838.629195,1184.329507,9178.553681
146.450741,1685.410096,888.247130,9548.656652
146.451049,919.314598,740.205942,10066.800811
146.451357,689.485948,296.082377,10362.883188
146.451665,459.657299,222.061783,10288.862594
146.451973,459.657299,-74.020594,10584.944971
146.452281,153.219100,-0.000000,11103.089130
146.452589,306.438199,-222.061783,10955.047942
146.452897,459.657299,-0.000000,10584.944971
146.453205,536.266849,518.144159,9992.780217
146.453513,919.314598,814.226536,9992.780217
146.453821,1302.362347,1036.288319,9548.656652
146.454129,1685.410096,1258.350101,9400.615463
146.454437,1762.019645,1406.391290,8956.491898
146.454745,1991.848295,1480.411884,9178.553681
146.455053,1225.752797,1406.391290,8956.491898
146.455361,1149.143247,1184.329507,8956.491898
146.455669,383.047749,740.205942,9178.553681
146.455977,0.000000,222.061783,9252.574275
146.456285,-306.438199,148.041188,9474.636058
146.456593,-229.828649,-518.144159,9622.677246
146.456901,-995.924147,-592.164754,9992.780217
146.457209,-1225.752797,-1036.288319,10658.965565
146.457517,-1608.800546,-888.247130,10510.924376
146.457825,-1378.971896,-962.267725,10362.883188
146.458133,-919.314598,-1036.288319,10658.965565
146.458441,-919.314598,-1036.288319,10214.842000
146.458749,-689.485948,-1036.288319,10140.821405
146.459057,-612.876398,-1184.329507,10362.883188
146.459365,-995.924147,-1110.308913,9844.739029
146.459673,459.657299,-666.185348,9770.718434
146.459981,0.000000,-518.144159,9474.636058
146.460289,842.705048,-74.020594,9326.594869
146.460597,1225.752797,-0.000000,9030.512492
146.460905,1302.362347,222.061783,8956.491898
146.461213,1532.190996,740.205942,8956.491898
146.461521,1762.019645,1258.350101,9252.574275
146.461829,1685.410096,962.267725,8882.471304
146.462137,1838.629195,962.267725,9104.533087
146.462445,2221.676944,1036.288319,8660.409521
146.462753,1762.019645,1332.370696,9178.553681
146.463061,1838.629195,1036.288319,9326.594869
146.463369,1225.752797,1110.308913,9474.636058
146.463677,1225.752797,888.247130,9696.697840
146.463985,766.095498,370.102971,9844.739029
146.464293,995.924147,592.164754,10066.800811
146.464601,995.924147,518.144159,9770.718434
146.464909,1302.362347,222.061783,10214.842000
146.465217,1149.143247,592.164754,9918.759623
146.465525,842.705048,444.123565,9770.718434
146.465833,1225.752797,962.267725,9992.780217
146.466141,1302.362347,962.267725,9548.656652
146.466449,1378.971896,888.247130,9548.656652
146.466757,1378.971896,888.247130,9696.697840
146.467065,1915.238745,1332.370696,9400.615463
146.467373,1225.752797,1184.329507,9400.615463
146.467681,1149.143247,1036.288319,9326.594869
146.467989,306.438199,444.123565,9326.594869
146.468297,0.000000,296.082377,9474.636058
146.468605,-76.609550,-74.020594,9770.718434
146.468913,-612.876398,-518.144159,10140.821405
146.469221,-1072.533697,-814.226536,10214.842000
146.469529,-1455.581446,-1184.329507,10140.821405
146.469837,-1149.143247,-1036.288319,10214.842000
146.470145,-1225.752797,-1110.308913,10288.862594
146.470453,-1149.143247,-1036.288319,10288.862594
146.470761,-919.314598,-1036.288319,9992.780217
146.471069,153.219100,-1110.308913,9992.780217
146.471377,0.000000,-888.247130,9622.677246
146.471685,306.438199,-592.164754,9770.718434
146.471993,0.000000,-1036.288319,9178.553681
146.472301,919.314598,-518.144159,9030.512492
146.472609,919.314598,-518.144159,9030.512492
146.472917,1149.143247,-0.000000,8808.450710
146.473225,1455.581446,148.041188,8956.491898
146.473533,1608.800546,518.144159,9178.553681
146.473841,1838.629195,518.144159,8734.430116
146.474149,2145.067394,518.144159,8808.450710
146.474457,2068.457845,962.267725,8956.491898
146.474765,1455.581446,814.226536,9252.574275
146.475073,1302.362347,814.226536,9326.594869
146.475381,1302.362347,962.267725,9400.615463
146.475690,919.314598,888.247130,9622.677246
146.475998,995.924147,814.226536,10214.842000
146.476306,229.828649,592.164754,10584.944971
146.476614,842.705048,222.061783,10658.965565
146.476922,229.828649,370.102971,10584.944971
146.477230,229.828649,518.144159,10658.965565
146.477538,612.876398,444.123565,10288.862594
146.477846,842.705048,370.102971,10140.821405
146.478154,842.705048,1036.288319,9992.780217
146.478462,1302.362347,1184.329507,9844.739029
146.478770,1532.190996,1554.432478,9548.656652
146.479078,1915.238745,1406.391290,9326.594869
146.479386,2451.505594,1332.370696,9252.574275
146.479694,1838.629195,1554.432478,9400.615463
146.480002,1455.581446,1258.350101,9326.594869
146.480310,842.705048,592.164754,9474.636058
146.480618,612.876398,296.082377,9474.636058
146.480926,306.438199,-0.000000,9474.636058
146.481234,153.219100,-222.061783,10066.800811
146.481542,-306.438199,-444.123565,10140.821405
146.481850,-383.047749,-666.185348,10066.800811
146.482158,-1149.143247,-814.226536,10140.821405
146.482466,-995.924147,-962.267725,10436.903782
146.482774,-1072.533697,-1036.288319,10288.862594
146.483082,-1149.143247,-1184.329507,10584.944971
146.483390,-306.438199,-1110.308913,10362.883188
146.483698,-612.876398,-962.267725,9844.739029
146.484006,0.000000,-1110.308913,9918.759623
146.484314,0.000000,-740.205942,9696.697840
146.484622,153.219100,-518.144159,9770.718434
146.484930,612.876398,-296.082377,9400.615463
146.485238,995.924147,-148.041188,8956.491898
146.485546,1378.971896,-0.000000,9104.533087
146.485854,1685.410096,-148.041188,9104.533087
146.486162,1838.629195,148.041188,8808.450710
146.486470,2298.286494,-0.000000,8512.368333
146.486778,2145.067394,592.164754,8882.471304
146.487086,1915.238745,814.226536,8808.450710
146.487394,1915.238745,888.247130,8956.491898
146.487702,1838.629195,888.247130,9030.512492
146.488010,1455.581446,1036.288319,9252.574275
146.488318,1532.190996,814.226536,9696.697840
146.488626,1455.581446,592.164754,9622.677246
146.488934,995.924147,370.102971,9696.697840
146.489242,689.485948,296.082377,10140.821405
146.489550,995.924147,222.061783,10140.821405
146.489858,536.266849,370.102971,9992.780217
146.490166,1072.533697,666.185348,9918.759623
146.490474,842.705048,592.164754,9696.697840
146.490782,1455.581446,814.226536,9548.656652
146.491090,1685.410096,1036.288319,9548.656652
146.491398,1838.629195,1184.329507,9400.615463
146.491706,1532.190996,1258.350101,9400.615463
146.492014,1455.581446,1332.370696,9104.533087
146.492322,1149.143247,1110.308913,9252.574275
146.492630,689.485948,814.226536,9474.636058
146.492938,229.828649,222.061783,9548.656652
146.493246,153.219100,-0.000000,9696.697840
146.493554,-459.657299,-148.041188,9844.739029
146.493862,-689.485948,-74.020594,10066.800811
146.494170,-689.485948,-444.123565,10510.924376
146.494478,-1225.752797,-1110.308913,9992.780217
146.494786,-1149.143247,-1110.308913,10362.883188
146.495094,-1532.190996,-1036.288319,10288.862594
146.495402,-1072.533697,-888.247130,10510.924376
146.495710,-306.438199,-1332.370696,10288.862594
146.496018,-689.485948,-1036.288319,10140.821405
146.496326,-306.438199,-962.267725,9992.780217
146.496634,0.000000,-740.205942,9844.739029
146.496942,229.828649,-444.123565,9474.636058
146.497250,383.047749,-518.144159,9252.574275
146.497558,842.705048,-296.082377,9104.533087
146.497866,1072.533697,-222.061783,8956.491898
146.498174,1378.971896,-0.000000,8882.471304
146.498482,1378.971896,-148.041188,8882.471304
146.498790,1608.800546,222.061783,9030.512492
146.499098,1762.019645,962.267725,9400.615463
146.499406,1838.629195,1036.288319,9178.553681
146.499714,1915.238745,1258.350101,8808.450710
146.500022,1915.238745,1332.370696,9178.553681
146.500330,1685.410096,1480.411884,9252.574275
146.500638,1149.143247,1406.391290,9992.780217
146.500946,1532.190996,592.164754,9844.739029
146.501254,1149.143247,666.185348,10436.903782
146.501562,612.876398,518.144159,10288.862594
146.501870,153.219100,518.144159,10510.924376
146.502178,229.828649,148.041188,10732.986159
146.502486,612.876398,148.041188,10584.944971
146.502794,995.924147,444.123565,10140.821405
146.503102,1302.362347,740.205942,9918.759623
146.503410,1072.533697,814.226536,9622.677246
146.503718,1838.629195,1110.308913,9844.739029
146.504026,1915.238745,1258.350101,9252.574275
146.504334,1608.800546,1258.350101,9030.512492
146.504642,1455.581446,1480.411884,9178.553681
146.504950,1225.752797,1184.329507,9474.636058
146.505258,689.485948,740.205942,9104.533087
146.505566,536.266849,296.082377,9474.636058
146.505875,536.266849,370.102971,9474.636058
146.506183,-229.828649,-0.000000,9770.718434
146.506491,-612.876398,-222.061783,9548.656652
146.506799,-842.705048,-444.123565,9770.718434
146.507107,-1072.533697,-740.205942,9696.697840
146.507415,-995.924147,-740.205942,10140.821405
146.507723,-766.095498,-1036.288319,10066.800811
146.508031,-689.485948,-888.247130,10214.842000
146.508339,-459.657299,-888.247130,10288.862594
146.508647,-383.047749,-1258.350101,10066.800811
146.508955,-383.047749,-962.267725,10288.862594
146.509263,-383.047749,-1332.370696,9992.780217
146.509571,-153.219100,-888.247130,9696.697840
146.509879,153.219100,-888.247130,9696.697840
146.510187,842.705048,-740.205942,9400.615463
146.510495,689.485948,-518.144159,9252.574275
146.510803,1685.410096,-592.164754,8734.430116
146.511111,1685.410096,222.061783,8882.471304
146.511419,1915.238745,666.185348,8660.409521
146.511727,1915.238745,814.226536,8512.368333
146.512035,1991.848295,1036.288319,8586.388927
146.512343,2145.067394,1332.370696,8512.368333
146.512651,2145.067394,1702.473667,8586.388927
146.512959,2298.286494,1258.350101,8808.450710
146.513267,1762.019645,888.247130,8882.471304
146.513575,1378.971896,740.205942,9400.615463
146.513883,919.314598,740.205942,10066.800811
146.514191,919.314598,592.164754,10362.883188
146.514499,459.657299,370.102971,10362.883188
146.514807,536.266849,370.102971,10362.883188
146.515115,459.657299,296.082377,10140.821405
146.515423,1302.362347,444.123565,9992.780217
146.515731,689.485948,888.247130,10140.821405
146.516039,1225.752797,888.247130,9696.697840
146.516347,1532.190996,1036.288319,9622.677246
146.516655,1455.581446,1184.329507,9474.636058
146.516963,1532.190996,1406.391290,9548.656652
146.517271,1225.752797,1184.329507,9548.656652
146.517579,919.314598,962.267725,9326.594869
146.517887,842.705048,518.144159,9400.615463
146.518195,536.266849,148.041188,9548.656652
146.518503,153.219100,-148.041188,9770.718434
146.518811,-306.438199,-222.061783,9622.677246
146.519119,-383.047749,-592.164754,9696.697840
146.519427,-612.876398,-740.205942,9918.759623
146.519735,-919.314598,-740.205942,10214.842000
146.520043,-842.705048,-1258.350101,9918.759623
146.520351,-766.095498,-1258.350101,10362.883188
146.520659,-842.705048,-814.226536,10510.924376
146.520967,-306.438199,-962.267725,9918.759623
146.521275,-612.876398,-1110.308913,9844.739029
146.521583,76.609550,-814.226536,9696.697840
146.521891,76.609550,-888.247130,9474.636058
146.522199,76.609550,-666.185348,9474.636058
146.522507,1455.581446,-1036.288319,9178.553681
146.522815,1302.362347,-592.164754,9030.512492
146.523123,1915.238745,-444.123565,8882.471304
146.523431,2145.067394,-370.102971,9104.533087
146.523739,1685.410096,148.041188,8882.471304
146.524047,1685.410096,518.144159,8660.409521
146.524355,1762.019645,888.247130,8808.450710
146.524663,1915.238745,1184.329507,8734.430116
146.524971,1838.629195,1480.411884,9252.574275
146.525279,1915.238745,1406.391290,8734.430116
146.525587,2145.067394,1110.308913,9252.574275
146.525895,1455.581446,814.226536,9696.697840
146.526203,766.095498,814.226536,9992.780217
146.526511,612.876398,518.144159,10362.883188
146.526819,383.047749,370.102971,10732.986159
146.527127,536.266849,148.041188,10807.006753
146.527435,459.657299,222.061783,10955.047942
146.527743,689.485948,-74.020594,10288.862594
146.528051,995.924147,592.164754,10658.965565
146.528359,1149.143247,888.247130,10140.821405
146.528667,1378.971896,1184.329507,9770.718434
146.528975,1532.190996,1258.350101,9474.636058
146.529283,1838.629195,1702.473667,9326.594869
146.529591,1838.629195,1702.473667,8882.471304
146.529899,1455.581446,1184.329507,8882.471304
146.530207,766.095498,814.226536,8882.471304
146.530515,842.705048,962.267725,9178.553681
146.530823,76.609550,740.205942,9548.656652
146.531131,0.000000,296.082377,9548.656652
146.531439,-536.266849,-148.041188,9622.677246
146.531747,-766.095498,-74.020594,9844.739029
146.532055,-1072.533697,-592.164754,10066.800811
146.532364,-459.657299,-1332.370696,10362.883188
146.532672,-1378.971896,-1332.370696,10658.965565
146.532980,-1685.410096,-1258.350101,10807.006753
146.533288,-919.314598,-1776.494261,11029.068536
146.533596,-995.924147,-1406.391290,10584.944971
146.533904,-995.924147,-1258.350101,10288.862594
146.534212,-766.095498,-1332.370696,9992.780217
146.534520,-306.438199,-1110.308913,9696.697840
146.534828,689.485948,-1406.391290,9770.718434
146.535136,1072.533697,-1036.288319,9474.636058
146.535444,1149.143247,-1036.288319,9030.512492
146.535752,1532.190996,-0.000000,8882.471304
146.536060,1915.238745,-0.000000,8660.409521
146.536368,2068.457845,740.205942,8512.368333
146.536676,2298.286494,1258.350101,8512.368333
146.536984,2451.505594,1480.411884,8364.327145
146.537292,2757.943793,1258.350101,8438.347739
146.537600,2528.115143,1480.411884,8512.368333
146.537908,2298.286494,1110.308913,8734.430116
146.538216,919.314598,1258.350101,9178.553681
146.538525,1378.971896,814.226536,9400.615463
146.538833,1149.143247,666.185348,9844.739029
146.539141,612.876398,666.185348,10214.842000
146.539449,306.438199,-0.000000,10436.903782
146.539757,459.657299,222.061783,10510.924376
146.540065,689.485948,-0.000000,10807.006753
146.540373,766.095498,-148.041188,10955.047942
146.540681,306.438199,148.041188,10732.986159
146.540989,842.705048,740.205942,10214.842000
146.541297,1378.971896,888.247130,9770.718434
146.541605,1608.800546,1258.350101,9474.636058
146.541913,1838.629195,1258.350101,9400.615463
146.542221,1838.629195,1184.329507,9326.594869
146.542529,1685.410096,1406.391290,9252.574275
146.542837,1302.362347,1258.350101,9178.553681
146.543145,842.705048,518.144159,9178.553681
146.543453,536.266849,148.041188,9252.574275
146.543761,0.000000,148.041188,9326.594869
146.544069,0.000000,-74.020594,9474.636058
146.544377,-459.657299,-444.123565,9474.636058
146.544686,-689.485948,-666.185348,10066.800811
146.544994,-1149.143247,-1036.288319,10214.842000
146.545302,-1225.752797,-888.247130,10214.842000
146.545610,-842.705048,-888.247130,10288.862594
146.545918,-842.705048,-888.247130,10362.883188
146.546226,-689.485948,-1258.350101,10288.862594
146.546534,-612.876398,-1036.288319,10288.862594
146.546842,-459.657299,-1332.370696,9992.780217
146.547150,0.000000,-1332.370696,9770.718434
146.547458,689.485948,-962.267725,9770.718434
146.547766,229.828649,-814.226536,9770.718434
146.548074,766.095498,-888.247130,8956.491898
146.548382,1532.190996,-222.061783,8882.471304
146.548690,1685.410096,370.102971,8364.327145
146.548998,2145.067394,888.247130,8734.430116
146.549306,2451.505594,1184.329507,8438.347739
146.549614,2528.115143,1332.370696,8364.327145
146.549922,2374.896044,1554.432478,8808.450710
146.550230,2528.115143,1628.453072,8882.471304
146.550539,1302.362347,1406.391290,9326.594869
146.550847,1455.581446,1184.329507,9770.718434
146.551155,1072.533697,888.247130,9844.739029
146.551463,612.876398,592.164754,10066.800811
146.551771,459.657299,444.123565,10510.924376
146.552079,689.485948,-0.000000,10807.006753
146.552387,383.047749,-0.000000,10881.027347
146.552695,229.828649,-0.000000,10658.965565
146.553003,459.657299,444.123565,10658.965565
146.553311,612.876398,592.164754,10214.842000
146.553619,1072.533697,1110.308913,10140.821405
146.553927,1532.190996,1110.308913,9696.697840
146.554235,1762.019645,1406.391290,9326.594869
146.554543,1378.971896,1184.329507,9326.594869
146.554851,1302.362347,1184.329507,9622.677246
146.555159,995.924147,962.267725,9696.697840
146.555467,229.828649,740.205942,9474.636058
146.555775,76.609550,370.102971,9326.594869
146.556083,76.609550,370.102971,9400.615463
146.556391,-459.657299,-0.000000,9400.615463
146.556700,-612.876398,-74.020594,9474.636058
146.557008,-995.924147,-370.102971,9770.718434
146.557316,-995.924147,-740.205942,9844.739029
146.557624,-1455.581446,-962.267725,10214.842000
146.557932,-1378.971896,-1258.350101,10732.986159
146.558240,-1378.971896,-1258.350101,10510.924376
146.558548,-1072.533697,-1702.473667,10510.924376
146.558856,-1225.752797,-1628.453072,10510.924376
146.559164,-1149.143247,-1776.494261,10288.862594
146.559472,-306.438199,-1406.391290,10436.903782
146.559780,306.438199,-1184.329507,9696.697840
146.560088,612.876398,-1110.308913,9474.636058
146.560396,1378.971896,-666.185348,9326.594869
146.560704,1608.800546,-222.061783,8586.388927
146.561012,1915.238745,296.082377,8438.347739
146.561320,2451.505594,814.226536,8438.347739
146.561628,2528.115143,1184.329507,8364.327145
146.561936,2528.115143,1406.391290,7846.182985
146.562244,2681.334243,1628.453072,8290.306550
146.562552,2987.772442,1258.350101,9030.512492
146.562861,1838.629195,1628.453072,8512.368333
146.563169,1838.629195,1332.370696,9252.574275
146.563477,1302.362347,1184.329507,9474.636058
146.563785,995.924147,888.247130,9696.697840
146.564093,766.095498,592.164754,10436.903782
146.564401,842.705048,518.144159,10140.821405
146.564709,842.705048,-0.000000,10807.006753
146.565017,766.095498,-0.000000,10436.903782
146.565325,459.657299,148.041188,10955.047942
146.565633,689.485948,370.102971,10436.903782
146.565941,1072.533697,444.123565,10066.800811
146.566249,1302.362347,1110.308913,9770.718434
146.566557,1762.019645,1036.288319,9474.636058
146.566865,2068.457845,1480.411884,9474.636058
146.567173,2068.457845,1554.432478,9178.553681
146.567481,1915.238745,1258.350101,8882.471304
146.567789,1455.581446,888.247130,8808.450710
146.568097,1302.362347,740.205942,9030.512492
146.568405,612.876398,518.144159,9252.574275
146.568713,76.609550,-0.000000,9178.553681
146.569022,0.000000,-0.000000,9252.574275
146.569330,-842.705048,-1036.288319,9770.718434
146.569638,-1225.752797,-1110.308913,9622.677246
146.569946,-1149.143247,-1184.329507,10436.903782
146.570254,-1532.190996,-1406.391290,10658.965565
146.570562,-1532.190996,-1110.308913,10140.821405
146.570870,-1072.533697,-1184.329507,10362.883188
146.571178,-919.314598,-1258.350101,9992.780217
146.571486,-459.657299,-1110.308913,10214.842000
146.571794,0.000000,-1554.432478,9844.739029
146.572102,-459.657299,-888.247130,9992.780217
146.572410,153.219100,-1332.370696,9548.656652
146.572718,766.095498,-740.205942,9326.594869
146.573026,919.314598,-296.082377,9252.574275
146.573334,1149.143247,-148.041188,9104.533087
146.573642,1762.019645,370.102971,8660.409521
146.573950,1838.629195,666.185348,8734.430116
146.574258,2145.067394,1184.329507,8882.471304
146.574566,2221.676944,1480.411884,8142.265362
146.574874,2221.676944,1480.411884,8142.265362
146.575183,2145.067394,1998.556043,8438.347739
146.575491,1762.019645,1480.411884,8808.450710
146.575799,1225.752797,1480.411884,9548.656652
146.576107,689.485948,962.267725,9992.780217
146.576415,306.438199,666.185348,10436.903782
146.576723,-153.219100,-0.000000,11103.089130
146.577031,76.609550,-148.041188,11473.192101
146.577339,-459.657299,-666.185348,11177.109724
146.577647,-306.438199,-148.041188,10955.047942
146.577955,76.609550,-74.020594,10732.986159
146.578263,689.485948,444.123565,10436.903782
146.578571,1149.143247,666.185348,10140.821405
146.578879,1455.581446,1184.329507,9992.780217
146.579187,1532.190996,1406.391290,9104.533087
146.579495,1991.848295,1554.432478,8956.491898
146.579803,2374.896044,1406.391290,8956.491898
146.580111,1455.581446,1628.453072,8808.450710
146.580419,1072.533697,1110.308913,9030.512492
146.580727,612.876398,592.164754,9104.533087
146.581035,0.000000,-0.000000,9474.636058
146.581344,-536.266849,-148.041188,9918.759623
146.581652,-766.095498,-814.226536,9622.677246
