#time,accel_x,accel_y,accel_z
464.691725,-133.998066,-937.986459,-9571.290400
464.694485,-95.712904,-957.129040,-9762.716208
464.697245,-95.712904,-823.130974,-9686.145885
464.700006,-248.853550,325.423874,-10107.282662
464.702766,38.285162,2431.107762,-9896.714274
464.705526,-114.855485,4134.797453,-9284.151688
464.708286,-57.427742,4957.928427,-10088.140082
464.711047,-191.425808,5991.627790,-8709.874264
464.713807,-95.712904,2220.539373,-10490.134278
464.716567,440.279358,-3024.527766,-9188.438784
464.719328,-708.275490,-6546.762634,-8384.450390
464.722088,-57.427742,-10930.413637,-11562.118803
464.724848,-172.283227,-10585.847182,-8384.450390
464.727609,861.416136,-1186.840010,-10241.280728
464.730369,-1339.980656,1110.269686,-8767.302006
464.733129,669.990328,-1914.258080,-10872.985894
464.735890,-325.423874,-574.277424,-9131.011042
464.738650,267.996131,-1837.687757,-8920.442653
464.741410,-440.279358,-880.558717,-11313.265253
464.744170,76.570323,-1339.980656,-7676.174901
464.746847,-153.140646,-899.701298,-10432.706536
464.749523,-172.283227,-593.420005,-9609.575562
464.752199,-38.285162,-1225.125171,-9284.151688
464.754876,-114.855485,-1665.404530,-10336.993632
464.757552,-57.427742,-1780.260014,-9513.862658
464.760228,-153.140646,-1416.550979,-9360.722011
464.762904,-133.998066,-861.416136,-10126.425243
464.765581,-133.998066,-440.279358,-9513.862658
464.768257,-38.285162,-401.994197,-9150.153622
464.770933,-95.712904,-708.275490,-10241.280728
464.773610,-76.570323,-1033.699363,-9513.862658
464.776286,-153.140646,-1244.267752,-9533.005238
464.778962,-76.570323,-1512.263883,-10298.708470
464.781638,-133.998066,-1359.123237,-8920.442653
464.784315,-0.000000,-1225.125171,-9667.003304
464.786991,-95.712904,-650.847747,-10049.854920
464.789667,-95.712904,-344.566454,-9188.438784
464.792344,-95.712904,-153.140646,-10202.995566
464.795020,-76.570323,-478.564520,-9513.862658
464.797696,-19.142581,-899.701298,-9533.005238
464.800372,-153.140646,-1225.125171,-10068.997501
464.803049,-19.142581,-1397.408398,-9418.149754
464.805725,-153.140646,-1282.552914,-9513.862658
464.808401,-57.427742,-1091.127106,-9954.142016
464.811078,-57.427742,-784.845813,-9456.434915
464.813754,-153.140646,-497.707101,-9686.145885
464.816430,-133.998066,-535.992262,-9743.573627
464.819106,-38.285162,-555.134843,-9437.292334
464.821783,-114.855485,-746.560651,-9801.001370
464.824459,-95.712904,-1148.554848,-9609.575562
464.827135,-76.570323,-1225.125171,-9341.579430
464.829812,-38.285162,-1263.410333,-9858.429112
464.832431,-114.855485,-1129.412267,-9609.575562
464.835050,-57.427742,-1397.408398,-9552.147819
464.837669,-114.855485,-1186.840010,-9801.001370
464.840288,-57.427742,-669.990328,-9724.431046
464.842907,-133.998066,-535.992262,-9552.147819
464.845527,-95.712904,-440.279358,-9839.286531
464.848146,-95.712904,-497.707101,-9418.149754
464.850765,-133.998066,-555.134843,-9762.716208
464.853384,-133.998066,-976.271621,-9858.429112
464.856003,-57.427742,-1301.695494,-9322.436850
464.858623,-114.855485,-1129.412267,-9915.856854
464.861242,-153.140646,-1014.556782,-9724.431046
464.863861,-76.570323,-765.703232,-9513.862658
464.866480,-38.285162,-593.420005,-9820.143950
464.869099,-57.427742,-535.992262,-9628.718142
464.871718,-172.283227,-689.132909,-9609.575562
464.874338,-95.712904,-1052.841944,-9801.001370
464.876957,-114.855485,-1129.412267,-9418.149754
464.879576,-95.712904,-1225.125171,-9743.573627
464.882195,-133.998066,-1339.980656,-9647.860723
464.884814,-114.855485,-1244.267752,-9552.147819
464.887434,-57.427742,-1263.410333,-9724.431046
464.890053,-76.570323,-957.129040,-9858.429112
464.892672,-38.285162,-689.132909,-9609.575562
464.895291,-57.427742,-669.990328,-9552.147819
464.897910,-95.712904,-497.707101,-9839.286531
464.900530,-38.285162,-574.277424,-9475.577496
464.903149,-133.998066,-784.845813,-9686.145885
464.905768,-38.285162,-1052.841944,-9839.286531
464.908387,-38.285162,-1263.410333,-9437.292334
464.911006,-95.712904,-1359.123237,-9781.858789
464.913625,-38.285162,-1225.125171,-9609.575562
464.916245,-133.998066,-803.988394,-9609.575562
464.918864,-172.283227,-612.562586,-9628.718142
464.921483,-76.570323,-516.849682,-9609.575562
464.924102,-57.427742,-612.562586,-9858.429112
464.926721,-95.712904,-689.132909,-9628.718142
464.929341,-114.855485,-899.701298,-9513.862658
464.931960,-133.998066,-1129.412267,-9686.145885
464.934579,-57.427742,-1205.982590,-9667.003304
464.937161,-114.855485,-1282.552914,-9513.862658
464.939743,-114.855485,-1186.840010,-9686.145885
464.942325,-172.283227,-1186.840010,-9571.290400
464.944907,-133.998066,-899.701298,-9686.145885
464.947489,-133.998066,-440.279358,-9896.714274
464.950071,-0.000000,-306.281293,-9628.718142
464.952653,-38.285162,-287.138712,-9820.143950
464.955235,-153.140646,-803.988394,-9628.718142
464.957817,-76.570323,-1205.982590,-9513.862658
464.960399,-153.140646,-1282.552914,-9858.429112
464.962981,-95.712904,-1378.265818,-9647.860723
464.965563,-133.998066,-1301.695494,-9609.575562
464.968145,-133.998066,-957.129040,-9743.573627
464.970727,-0.000000,-382.851616,-9686.145885
464.973309,-76.570323,-325.423874,-9724.431046
464.975891,-76.570323,-593.420005,-9552.147819
464.978473,-114.855485,-823.130974,-9781.858789
464.981055,-76.570323,-1148.554848,-9667.003304
464.983637,-114.855485,-1397.408398,-9494.720077
464.986219,-76.570323,-1378.265818,-9762.716208
464.988801,-95.712904,-1129.412267,-9686.145885
464.991383,-133.998066,-689.132909,-9705.288466
464.993965,-57.427742,-478.564520,-9456.434915
464.996547,-38.285162,-172.283227,-9647.860723
464.999129,-38.285162,-363.709035,-9628.718142
465.001711,-76.570323,-612.562586,-9552.147819
465.004293,-172.283227,-995.414202,-9647.860723
465.006875,-95.712904,-1263.410333,-9743.573627
465.009457,-57.427742,-1435.693560,-9494.720077
465.012039,-0.000000,-1263.410333,-9667.003304
465.014621,-38.285162,-1148.554848,-9571.290400
465.017203,-153.140646,-1148.554848,-9686.145885
465.019785,-19.142581,-708.275490,-9513.862658
465.022367,-114.855485,-440.279358,-9590.432981
465.024949,-57.427742,-478.564520,-9839.286531
465.027531,-19.142581,-708.275490,-9552.147819
465.030113,-133.998066,-880.558717,-9379.864592
465.032695,-114.855485,-1110.269686,-9973.284597
465.035277,-114.855485,-1378.265818,-9705.288466
465.037859,-0.000000,-1378.265818,-9437.292334
465.040420,-95.712904,-1454.836141,-10126.425243
465.042981,-76.570323,-1205.982590,-9552.147819
465.045542,-38.285162,-842.273555,-9437.292334
465.048103,-57.427742,-344.566454,-9839.286531
465.050664,-76.570323,-133.998066,-9724.431046
465.053225,-0.000000,-363.709035,-9360.722011
465.055786,-133.998066,-669.990328,-9762.716208
465.058347,-57.427742,-1071.984525,-9647.860723
465.060908,-0.000000,-1416.550979,-9533.005238
465.063469,-95.712904,-1359.123237,-9781.858789
465.066030,-38.285162,-1186.840010,-9743.573627
465.068592,-114.855485,-727.418070,-9590.432981
465.071153,-133.998066,-287.138712,-9781.858789
465.073714,-57.427742,-497.707101,-9456.434915
465.076275,-133.998066,-650.847747,-9552.147819
465.078836,-76.570323,-861.416136,-9724.431046
465.081397,-114.855485,-1244.267752,-9609.575562
465.083958,-133.998066,-1416.550979,-9647.860723
465.086519,-172.283227,-1493.121302,-9877.571693
465.089080,-0.000000,-1378.265818,-9628.718142
465.091641,-114.855485,-1167.697429,-9686.145885
465.094202,-76.570323,-976.271621,-9820.143950
465.096763,-76.570323,-478.564520,-9456.434915
465.099324,-0.000000,-306.281293,-9724.431046
465.101886,-114.855485,-191.425808,-9781.858789
465.104447,-133.998066,-631.705166,-9360.722011
465.107008,-0.000000,-1186.840010,-9762.716208
465.109569,-114.855485,-1359.123237,-9839.286531
465.112130,-133.998066,-1339.980656,-9628.718142
465.114691,-114.855485,-1301.695494,-9571.290400
465.117252,-133.998066,-1071.984525,-9647.860723
465.119813,-95.712904,-516.849682,-9954.142016
465.122374,-95.712904,-421.136778,-9303.294269
465.124935,-114.855485,-401.994197,-9552.147819
465.127496,-114.855485,-535.992262,-9915.856854
465.130057,-76.570323,-976.271621,-9437.292334
465.132618,-95.712904,-1244.267752,-9686.145885
465.135180,-76.570323,-1359.123237,-9743.573627
465.137741,-114.855485,-1301.695494,-9647.860723
465.140302,-38.285162,-1301.695494,-9628.718142
465.142847,-38.285162,-995.414202,-9839.286531
465.145393,-95.712904,-708.275490,-9705.288466
465.147938,-76.570323,-497.707101,-9609.575562
465.150484,-57.427742,-382.851616,-9647.860723
465.153030,-0.000000,-363.709035,-9590.432981
465.155575,-172.283227,-631.705166,-9552.147819
465.158121,-114.855485,-1052.841944,-9839.286531
465.160666,-172.283227,-1397.408398,-9513.862658
465.163212,-57.427742,-1359.123237,-9724.431046
465.165757,-133.998066,-1301.695494,-9896.714274
465.168303,-133.998066,-1014.556782,-9533.005238
465.170848,-57.427742,-574.277424,-9647.860723
465.173394,-95.712904,-459.421939,-9533.005238
465.175940,-38.285162,-344.566454,-9667.003304
465.178485,-76.570323,-650.847747,-9513.862658
465.181031,-95.712904,-1033.699363,-9724.431046
465.183576,-95.712904,-1378.265818,-9705.288466
465.186122,-95.712904,-1473.978722,-9533.005238
465.188667,-38.285162,-1435.693560,-9781.858789
465.191213,-76.570323,-1359.123237,-9475.577496
465.193758,-153.140646,-1014.556782,-9820.143950
465.196304,-38.285162,-689.132909,-9781.858789
465.198850,-114.855485,-287.138712,-9628.718142
465.201395,-57.427742,-267.996131,-9667.003304
465.203941,-0.000000,-459.421939,-9552.147819
465.206486,-114.855485,-631.705166,-9590.432981
465.209032,-76.570323,-1052.841944,-9973.284597
465.211577,-95.712904,-1435.693560,-9552.147819
465.214123,-57.427742,-1493.121302,-9667.003304
465.216668,-57.427742,-1282.552914,-9781.858789
465.219214,-153.140646,-746.560651,-9724.431046
465.221760,-38.285162,-344.566454,-9667.003304
465.224305,-95.712904,-133.998066,-9475.577496
465.226851,-95.712904,-172.283227,-9724.431046
465.229396,-19.142581,-784.845813,-9628.718142
465.231942,-133.998066,-1225.125171,-9513.862658
465.234487,-114.855485,-1454.836141,-9820.143950
465.237033,-133.998066,-1397.408398,-9705.288466
465.239578,-76.570323,-1244.267752,-9552.147819
465.242124,-95.712904,-1129.412267,-9647.860723
465.244497,-114.855485,-1071.984525,-9628.718142
465.246881,-38.285162,-708.275490,-9609.575562
465.249265,-57.427742,-516.849682,-9667.003304
465.251649,-114.855485,-440.279358,-9801.001370
465.254033,-114.855485,-574.277424,-9628.718142
465.256417,-38.285162,-803.988394,-9705.288466
465.258801,-114.855485,-1052.841944,-9628.718142
465.261185,-133.998066,-1320.838075,-9647.860723
465.263569,-133.998066,-1301.695494,-9647.860723
465.265953,-114.855485,-1263.410333,-9781.858789
465.268337,-95.712904,-1071.984525,-9628.718142
465.270721,-133.998066,-535.992262,-9667.003304
465.273105,-76.570323,-325.423874,-9686.145885
465.275489,-76.570323,-306.281293,-9647.860723
465.277873,-76.570323,-803.988394,-9533.005238
465.280257,-0.000000,-1244.267752,-9590.432981
465.282641,-114.855485,-1454.836141,-9839.286531
465.285025,-133.998066,-1473.978722,-9533.005238
465.287409,-38.285162,-1569.691626,-9667.003304
465.289793,-76.570323,-1282.552914,-9839.286531
465.292177,-76.570323,-765.703232,-9762.716208
465.294561,-19.142581,-401.994197,-9552.147819
465.296945,-95.712904,-57.427742,-9628.718142
465.299329,-133.998066,-95.712904,-9628.718142
465.301713,-76.570323,-210.568389,-9781.858789
465.304097,-114.855485,-1071.984525,-9609.575562
465.306481,-38.285162,-1550.549045,-9379.864592
465.308865,-57.427742,-1454.836141,-9724.431046
465.311249,-95.712904,-1454.836141,-9820.143950
465.313633,-133.998066,-1454.836141,-9437.292334
465.316017,-95.712904,-593.420005,-9552.147819
465.318401,-38.285162,-95.712904,-9839.286531
465.320785,-114.855485,-76.570323,-9762.716208
465.323169,-19.142581,-593.420005,-9475.577496
465.325553,-76.570323,-1071.984525,-9571.290400
465.327938,-133.998066,-1186.840010,-9724.431046
465.330322,-95.712904,-1473.978722,-9552.147819
465.332706,-95.712904,-1550.549045,-9571.290400
465.335090,-0.000000,-1454.836141,-9399.007173
465.337474,-133.998066,-1052.841944,-9839.286531
465.339907,-76.570323,-650.847747,-9877.571693
465.342341,-95.712904,-535.992262,-9437.292334
465.344774,-133.998066,-248.853550,-9686.145885
465.347208,-19.142581,-344.566454,-9724.431046
465.349641,-172.283227,-650.847747,-9667.003304
465.352075,-57.427742,-1052.841944,-9858.429112
465.354508,-57.427742,-1320.838075,-9379.864592
465.356942,-172.283227,-1244.267752,-9667.003304
465.359375,-76.570323,-1167.697429,-9858.429112
465.361809,-133.998066,-937.986459,-9590.432981
465.364242,-76.570323,-689.132909,-9609.575562
465.366676,-19.142581,-478.564520,-9743.573627
465.369109,-76.570323,-574.277424,-9590.432981
465.371543,-95.712904,-746.560651,-9513.862658
465.373976,-95.712904,-1110.269686,-9839.286531
465.376410,-76.570323,-1091.127106,-9724.431046
465.378843,-133.998066,-1454.836141,-9513.862658
465.381277,-95.712904,-1301.695494,-9686.145885
465.383710,-76.570323,-1282.552914,-9705.288466
465.386144,-76.570323,-1071.984525,-9705.288466
465.388578,-153.140646,-669.990328,-9801.001370
465.391011,-57.427742,-516.849682,-9628.718142
465.393445,-95.712904,-114.855485,-9781.858789
465.395878,-76.570323,-248.853550,-9667.003304
465.398312,-95.712904,-689.132909,-9686.145885
465.400745,-95.712904,-1014.556782,-9590.432981
465.403179,-114.855485,-1244.267752,-9686.145885
465.405612,-76.570323,-1550.549045,-9686.145885
465.408046,-133.998066,-1320.838075,-9705.288466
465.410479,-153.140646,-899.701298,-9839.286531
465.412913,-95.712904,-689.132909,-9341.579430
465.415346,-133.998066,-382.851616,-9590.432981
465.417780,-114.855485,-497.707101,-9896.714274
465.420213,-95.712904,-612.562586,-9513.862658
465.422647,-114.855485,-995.414202,-9686.145885
465.425080,-95.712904,-1378.265818,-9667.003304
465.427514,-153.140646,-1320.838075,-9533.005238
465.429947,-57.427742,-1454.836141,-9781.858789
465.432381,-133.998066,-1301.695494,-9896.714274
465.434814,-153.140646,-1033.699363,-9533.005238
465.437281,-0.000000,-612.562586,-9705.288466
465.439747,-114.855485,-248.853550,-9686.145885
465.442213,-57.427742,-210.568389,-9513.862658
465.444680,-95.712904,-497.707101,-9533.005238
465.447146,-133.998066,-918.843878,-9820.143950
465.449612,-114.855485,-1205.982590,-9686.145885
465.452079,-133.998066,-1378.265818,-9647.860723
465.454545,-38.285162,-1512.263883,-9743.573627
465.457011,-191.425808,-1110.269686,-9667.003304
465.459478,-133.998066,-708.275490,-9628.718142
465.461944,-0.000000,-497.707101,-9781.858789
465.464410,-133.998066,-306.281293,-9609.575562
465.466877,-114.855485,-574.277424,-9609.575562
465.469343,-76.570323,-784.845813,-9590.432981
465.471809,-133.998066,-1091.127106,-9762.716208
465.474276,-76.570323,-1359.123237,-9552.147819
465.476742,-133.998066,-1416.550979,-9628.718142
465.479208,-57.427742,-1359.123237,-9686.145885
465.481675,-114.855485,-976.271621,-9724.431046
465.484141,-38.285162,-803.988394,-9609.575562
465.486607,-114.855485,-612.562586,-9571.290400
465.489074,-95.712904,-363.709035,-9801.001370
465.491540,-57.427742,-593.420005,-9322.436850
465.494006,-38.285162,-823.130974,-9590.432981
465.496472,-57.427742,-1033.699363,-9839.286531
465.498939,-76.570323,-1282.552914,-9494.720077
465.501405,-95.712904,-1454.836141,-9705.288466
465.503871,-133.998066,-1167.697429,-9743.573627
465.506338,-133.998066,-937.986459,-9590.432981
465.508804,-38.285162,-708.275490,-9705.288466
465.511270,-95.712904,-574.277424,-9456.434915
465.513737,-95.712904,-382.851616,-9934.999435
465.516203,-95.712904,-535.992262,-9686.145885
465.518669,-76.570323,-957.129040,-9513.862658
465.521136,-95.712904,-1263.410333,-9686.145885
465.523602,-153.140646,-1339.980656,-9743.573627
465.526068,-133.998066,-1320.838075,-9590.432981
465.528535,-76.570323,-1397.408398,-9590.432981
465.531001,-114.855485,-1033.699363,-9590.432981
465.533467,-57.427742,-650.847747,-9609.575562
465.535955,-114.855485,-421.136778,-9877.571693
465.538442,-57.427742,-382.851616,-9686.145885
465.540930,-114.855485,-631.705166,-9379.864592
465.543417,-133.998066,-727.418070,-9820.143950
465.545905,-38.285162,-1071.984525,-9896.714274
465.548392,-133.998066,-1359.123237,-9341.579430
465.550880,-38.285162,-1435.693560,-9705.288466
465.553367,-114.855485,-1129.412267,-9877.571693
465.555855,-95.712904,-784.845813,-9437.292334
465.558342,-38.285162,-612.562586,-9762.716208
465.560830,-95.712904,-440.279358,-9724.431046
465.563317,-76.570323,-401.994197,-9628.718142
465.565805,-95.712904,-727.418070,-9896.714274
465.568292,-153.140646,-1205.982590,-9571.290400
465.570780,-19.142581,-1512.263883,-9475.577496
465.573267,-210.568389,-1301.695494,-9934.999435
465.575755,-57.427742,-1435.693560,-9667.003304
465.578242,-114.855485,-1282.552914,-9418.149754
465.580730,-114.855485,-689.132909,-9915.856854
465.583217,-133.998066,-325.423874,-9628.718142
465.585705,-114.855485,-363.709035,-9533.005238
465.588192,-19.142581,-382.851616,-9801.001370
465.590680,-57.427742,-574.277424,-9667.003304
465.593167,-172.283227,-1052.841944,-9552.147819
465.595655,-76.570323,-1473.978722,-9533.005238
465.598142,-76.570323,-1378.265818,-9590.432981
465.600630,-114.855485,-1225.125171,-9762.716208
465.603117,-95.712904,-1052.841944,-9743.573627
465.605605,-95.712904,-535.992262,-9475.577496
465.608092,-19.142581,-325.423874,-9647.860723
465.610580,-133.998066,-172.283227,-9743.573627
465.613067,-133.998066,-612.562586,-9686.145885
465.615555,-38.285162,-976.271621,-9437.292334
465.618042,-38.285162,-1225.125171,-9762.716208
465.620530,-133.998066,-1454.836141,-9686.145885
465.623018,-114.855485,-1397.408398,-9494.720077
465.625505,-19.142581,-1454.836141,-9552.147819
465.627993,-114.855485,-1071.984525,-9762.716208
465.630480,-38.285162,-746.560651,-9705.288466
465.632968,-0.000000,-535.992262,-9647.860723
465.635471,-38.285162,-325.423874,-9743.573627
465.637975,-172.283227,-382.851616,-9590.432981
465.640479,-76.570323,-708.275490,-9686.145885
465.642983,-95.712904,-957.129040,-9801.001370
465.645487,-172.283227,-1244.267752,-9437.292334
465.647990,-0.000000,-1416.550979,-9781.858789
465.650494,-0.000000,-1148.554848,-9667.003304
465.652998,-172.283227,-727.418070,-9724.431046
465.655502,-153.140646,-535.992262,-9762.716208
465.658006,-76.570323,-497.707101,-9628.718142
465.660510,-76.570323,-612.562586,-9571.290400
465.663013,-38.285162,-765.703232,-9667.003304
465.665517,-38.285162,-1071.984525,-9590.432981
465.668021,-172.283227,-1205.982590,-9724.431046
465.670525,-76.570323,-1416.550979,-9667.003304
465.673029,-76.570323,-1263.410333,-9609.575562
465.675533,-38.285162,-1244.267752,-9533.005238
465.678036,-287.138712,-976.271621,-9781.858789
465.680540,-95.712904,-784.845813,-9705.288466
465.683044,-133.998066,-650.847747,-9456.434915
465.685548,-95.712904,-344.566454,-9686.145885
465.688052,-172.283227,-133.998066,-9705.288466
465.690556,-114.855485,-574.277424,-9399.007173
465.693059,-95.712904,-1052.841944,-9801.001370
465.695563,-114.855485,-1205.982590,-9609.575562
465.698067,-76.570323,-1110.269686,-9686.145885
465.700571,-95.712904,-1416.550979,-9705.288466
465.703075,-38.285162,-1167.697429,-9571.290400
465.705578,-76.570323,-765.703232,-9705.288466
465.708082,-38.285162,-440.279358,-9590.432981
465.710586,-38.285162,-497.707101,-9705.288466
465.713090,-76.570323,-689.132909,-9533.005238
465.715594,-76.570323,-976.271621,-9762.716208
465.718098,-133.998066,-1225.125171,-9743.573627
465.720601,-95.712904,-1378.265818,-9609.575562
465.723105,-172.283227,-1531.406464,-9571.290400
465.725609,-133.998066,-1301.695494,-9686.145885
465.728113,-95.712904,-1014.556782,-9724.431046
465.730617,-38.285162,-650.847747,-9552.147819
465.733121,-76.570323,-172.283227,-9781.858789
465.735635,-95.712904,-95.712904,-9609.575562
465.738149,-95.712904,-497.707101,-9647.860723
465.740664,-38.285162,-976.271621,-9552.147819
465.743178,-76.570323,-1167.697429,-9647.860723
465.745692,-76.570323,-1359.123237,-9724.431046
465.748207,-114.855485,-1512.263883,-9647.860723
465.750721,-172.283227,-1225.125171,-9705.288466
465.753235,-76.570323,-727.418070,-9513.862658
465.755750,-57.427742,-344.566454,-9628.718142
465.758264,-172.283227,-267.996131,-9667.003304
465.760778,-38.285162,-497.707101,-9533.005238
465.763293,-57.427742,-842.273555,-9781.858789
465.765807,-172.283227,-1205.982590,-9705.288466
465.768322,-57.427742,-1550.549045,-9571.290400
465.770836,-114.855485,-1435.693560,-9667.003304
465.773350,-95.712904,-1359.123237,-9724.431046
465.775865,-172.283227,-1167.697429,-9686.145885
465.778379,-95.712904,-784.845813,-9801.001370
465.780893,-0.000000,-497.707101,-9571.290400
465.783408,-76.570323,-172.283227,-9724.431046
465.785922,-153.140646,-344.566454,-9456.434915
465.788436,-114.855485,-746.560651,-9513.862658
465.790951,-153.140646,-957.129040,-10049.854920
465.793465,-57.427742,-1282.552914,-9590.432981
465.795979,-95.712904,-1493.121302,-9571.290400
465.798494,-95.712904,-1339.980656,-9628.718142
465.801008,-133.998066,-1033.699363,-9724.431046
465.803522,-38.285162,-535.992262,-9686.145885
465.806037,-57.427742,-133.998066,-9533.005238
465.808551,-114.855485,-325.423874,-9628.718142
465.811066,-38.285162,-669.990328,-9743.573627
465.813580,-133.998066,-995.414202,-9647.860723
465.816094,-95.712904,-1378.265818,-9781.858789
465.818609,-172.283227,-1550.549045,-9628.718142
465.821123,-133.998066,-1378.265818,-9705.288466
465.823637,-95.712904,-1263.410333,-9820.143950
465.826152,-95.712904,-1014.556782,-9647.860723
465.828666,-95.712904,-574.277424,-9609.575562
465.831180,-38.285162,-401.994197,-9667.003304
465.833695,-95.712904,-306.281293,-9667.003304
465.836216,-76.570323,-401.994197,-9609.575562
465.838737,-38.285162,-823.130974,-9628.718142
465.841258,-153.140646,-1205.982590,-9820.143950
465.843779,-114.855485,-1416.550979,-9494.720077
465.846300,-133.998066,-1473.978722,-9743.573627
465.848821,-133.998066,-1301.695494,-9609.575562
465.851342,-38.285162,-995.414202,-9590.432981
465.853863,-172.283227,-631.705166,-9628.718142
465.856384,-57.427742,-459.421939,-9705.288466
465.858905,-133.998066,-382.851616,-9705.288466
465.861426,-38.285162,-650.847747,-9743.573627
465.863947,-19.142581,-1052.841944,-9686.145885
465.866469,-153.140646,-1282.552914,-9686.145885
465.868990,-114.855485,-1473.978722,-9647.860723
465.871511,-76.570323,-1493.121302,-9667.003304
465.874032,-95.712904,-1301.695494,-9533.005238
465.876553,-172.283227,-918.843878,-9743.573627
465.879074,-114.855485,-535.992262,-9781.858789
465.881595,-57.427742,-516.849682,-9399.007173
465.884116,-114.855485,-133.998066,-9705.288466
465.886637,-38.285162,-382.851616,-9647.860723
465.889158,-95.712904,-842.273555,-9533.005238
465.891679,-114.855485,-1167.697429,-9647.860723
465.894200,-95.712904,-1339.980656,-9724.431046
465.896721,-57.427742,-1397.408398,-9762.716208
465.899242,-153.140646,-1359.123237,-9724.431046
465.901763,-172.283227,-918.843878,-9667.003304
465.904284,-57.427742,-267.996131,-9571.290400
465.906806,-172.283227,19.142581,-9647.860723
465.909327,-38.285162,-229.710970,-9647.860723
465.911848,-76.570323,-669.990328,-9513.862658
465.914369,-76.570323,-1205.982590,-9762.716208
465.916890,-76.570323,-1435.693560,-9667.003304
465.919411,-172.283227,-1607.976787,-9590.432981
465.921932,-114.855485,-1550.549045,-9628.718142
465.924453,-95.712904,-1205.982590,-9973.284597
465.926974,-114.855485,-957.129040,-9590.432981
465.929495,-76.570323,-459.421939,-9609.575562
465.932016,-153.140646,-229.710970,-9781.858789
465.934537,-76.570323,-267.996131,-9533.005238
465.936982,-38.285162,-555.134843,-9781.858789
465.939426,-76.570323,-1071.984525,-9820.143950
465.941871,-38.285162,-1435.693560,-9360.722011
465.944315,-133.998066,-1493.121302,-9743.573627
465.946759,-76.570323,-1320.838075,-9839.286531
465.949204,-95.712904,-937.986459,-9571.290400
465.951648,-0.000000,-631.705166,-9724.431046
465.954093,-76.570323,-325.423874,-9571.290400
465.956537,-19.142581,-382.851616,-9609.575562
465.958982,-38.285162,-555.134843,-9647.860723
465.961426,-114.855485,-1033.699363,-9533.005238
465.963871,-76.570323,-1320.838075,-9609.575562
465.966315,-38.285162,-1493.121302,-9724.431046
465.968759,-133.998066,-1550.549045,-9667.003304
465.971204,-76.570323,-1454.836141,-9552.147819
465.973648,-114.855485,-1033.699363,-9762.716208
465.976093,-76.570323,-497.707101,-9686.145885
465.978537,-57.427742,-114.855485,-9456.434915
465.980982,-95.712904,-19.142581,-9877.571693
465.983426,-0.000000,-229.710970,-9513.862658
465.985871,-57.427742,-784.845813,-9705.288466
465.988315,-114.855485,-1205.982590,-9954.142016
465.990759,-38.285162,-1569.691626,-9360.722011
465.993204,-38.285162,-1588.834206,-9781.858789
465.995648,-153.140646,-1359.123237,-9667.003304
465.998093,-95.712904,-995.414202,-9571.290400
466.000537,-0.000000,-401.994197,-9705.288466
466.002982,-95.712904,-133.998066,-9552.147819
466.005426,-19.142581,-172.283227,-9724.431046
466.007871,-38.285162,-689.132909,-9475.577496
466.010315,-172.283227,-1205.982590,-9686.145885
466.012759,-95.712904,-1359.123237,-9858.429112
466.015204,-95.712904,-1550.549045,-9552.147819
466.017648,-38.285162,-1416.550979,-9609.575562
466.020093,-95.712904,-1263.410333,-9820.143950
466.022537,-153.140646,-1014.556782,-9609.575562
466.024982,-57.427742,-727.418070,-9533.005238
466.027426,-38.285162,-401.994197,-9705.288466
466.029871,-172.283227,-133.998066,-9762.716208
466.032315,-38.285162,-306.281293,-9513.862658
466.034787,-133.998066,-631.705166,-9513.862658
466.037259,-95.712904,-899.701298,-9915.856854
466.039731,-76.570323,-1301.695494,-9571.290400
466.042203,-133.998066,-1397.408398,-9705.288466
466.044675,-114.855485,-1416.550979,-9858.429112
466.047147,-114.855485,-937.986459,-9552.147819
466.049619,-114.855485,-421.136778,-9724.431046
466.052091,-76.570323,-133.998066,-9705.288466
466.054563,-76.570323,-267.996131,-9533.005238
466.057035,-133.998066,-727.418070,-9686.145885
466.059507,-172.283227,-1186.840010,-9686.145885
466.061979,-95.712904,-1569.691626,-9552.147819
466.064451,-133.998066,-1627.119368,-9705.288466
466.066923,-153.140646,-1473.978722,-9762.716208
466.069395,-133.998066,-1186.840010,-9513.862658
466.071867,-38.285162,-880.558717,-9686.145885
466.074339,-153.140646,-401.994197,-9705.288466
466.076811,-114.855485,-382.851616,-9705.288466
466.079283,-38.285162,-306.281293,-9686.145885
466.081755,-133.998066,-650.847747,-9513.862658
466.084227,-114.855485,-937.986459,-9877.571693
466.086699,-38.285162,-1244.267752,-9475.577496
466.089171,-133.998066,-1301.695494,-9647.860723
466.091643,-95.712904,-1282.552914,-9743.573627
466.094115,-114.855485,-1167.697429,-9609.575562
466.096587,-76.570323,-612.562586,-9858.429112
466.099059,-38.285162,-401.994197,-9494.720077
466.101531,-76.570323,-440.279358,-9533.005238
466.104003,-38.285162,-516.849682,-9896.714274
466.106475,-114.855485,-708.275490,-9647.860723
466.108947,-95.712904,-1244.267752,-9590.432981
466.111419,-133.998066,-1435.693560,-9896.714274
466.113891,-76.570323,-1397.408398,-9820.143950
466.116363,-76.570323,-1397.408398,-9609.575562
466.118835,-153.140646,-1148.554848,-9686.145885
466.121307,-19.142581,-631.705166,-9705.288466
466.123779,-133.998066,-306.281293,-9513.862658
466.126251,-95.712904,-267.996131,-9686.145885
466.128723,-172.283227,-382.851616,-9628.718142
466.131195,-0.000000,-650.847747,-9590.432981
466.133687,-114.855485,-1052.841944,-9801.001370
466.136179,-153.140646,-1416.550979,-9533.005238
466.138670,-38.285162,-1435.693560,-9781.858789
466.141162,-172.283227,-1473.978722,-9552.147819
466.143654,-114.855485,-1052.841944,-9743.573627
466.146146,-76.570323,-478.564520,-9801.001370
466.148638,-76.570323,-114.855485,-9590.432981
466.151130,-38.285162,-248.853550,-9571.290400
466.153622,-57.427742,-631.705166,-9533.005238
466.156113,-133.998066,-937.986459,-9781.858789
466.158605,-153.140646,-1416.550979,-9724.431046
466.161097,-133.998066,-1761.117434,-9437.292334
466.163589,-153.140646,-1588.834206,-9801.001370
466.166081,-76.570323,-1205.982590,-9762.716208
466.168573,-114.855485,-937.986459,-9552.147819
466.171065,-76.570323,-669.990328,-9590.432981
466.173557,-133.998066,-363.709035,-9667.003304
466.176048,-133.998066,-95.712904,-9839.286531
466.178540,-38.285162,-401.994197,-9341.579430
466.181032,-172.283227,-669.990328,-9647.860723
466.183524,-133.998066,-1071.984525,-9915.856854
466.186016,-114.855485,-1473.978722,-9533.005238
466.188508,-38.285162,-1435.693560,-9724.431046
466.191000,-172.283227,-1282.552914,-9705.288466
466.193492,-114.855485,-803.988394,-9743.573627
466.195983,-95.712904,-421.136778,-9533.005238
466.198475,-133.998066,-306.281293,-9571.290400
466.200967,-57.427742,-363.709035,-9686.145885
466.203459,-114.855485,-574.277424,-9667.003304
466.205951,-172.283227,-1091.127106,-9456.434915
466.208443,-38.285162,-1416.550979,-9839.286531
466.210935,-133.998066,-1416.550979,-9590.432981
466.213426,-153.140646,-1493.121302,-9475.577496
466.215918,-38.285162,-1454.836141,-9820.143950
466.218410,-57.427742,-1033.699363,-9705.288466
466.220902,-114.855485,-325.423874,-9552.147819
466.223394,-133.998066,0.000000,-9743.573627
466.225886,-153.140646,-57.427742,-9743.573627
466.228378,-76.570323,-555.134843,-9590.432981
466.230870,-57.427742,-1186.840010,-9743.573627
466.233378,-114.855485,-1454.836141,-9724.431046
466.235886,-153.140646,-1607.976787,-9590.432981
466.238394,-76.570323,-1627.119368,-9724.431046
466.240901,-133.998066,-1110.269686,-9647.860723
466.243409,-95.712904,-516.849682,-9667.003304
466.245917,-76.570323,-114.855485,-9590.432981
466.248425,-95.712904,-95.712904,-9705.288466
466.250933,-38.285162,-497.707101,-9571.290400
466.253441,-38.285162,-957.129040,-9743.573627
466.255949,-76.570323,-1320.838075,-9686.145885
466.258457,-133.998066,-1646.261949,-9590.432981
466.260965,-133.998066,-1627.119368,-9667.003304
466.263473,-38.285162,-1473.978722,-9820.143950
466.265981,-133.998066,-1014.556782,-9609.575562
466.268489,-38.285162,-689.132909,-9647.860723
466.270996,-57.427742,-210.568389,-9590.432981
466.273504,-57.427742,-114.855485,-9513.862658
466.276012,-0.000000,-172.283227,-9686.145885
466.278520,-95.712904,-669.990328,-9762.716208
466.281028,-95.712904,-1244.267752,-9513.862658
466.283536,-57.427742,-1607.976787,-9609.575562
466.286044,-114.855485,-1397.408398,-9839.286531
466.288552,-153.140646,-1454.836141,-9456.434915
466.291060,-172.283227,-1091.127106,-9705.288466
466.293568,-133.998066,-287.138712,-9858.429112
466.296076,-19.142581,19.142581,-9494.720077
466.298583,-114.855485,-306.281293,-9628.718142
466.301091,-57.427742,-803.988394,-9801.001370
466.303599,-57.427742,-1148.554848,-9494.720077
466.306107,-95.712904,-1454.836141,-9781.858789
466.308615,-172.283227,-1588.834206,-9513.862658
466.311123,-172.283227,-1397.408398,-9571.290400
466.313631,-114.855485,-1378.265818,-9609.575562
466.316139,-114.855485,-1052.841944,-9762.716208
466.318647,-57.427742,-497.707101,-9667.003304
466.321155,-38.285162,-248.853550,-9552.147819
466.323663,-114.855485,-57.427742,-9820.143950
466.326170,-57.427742,-440.279358,-9494.720077
466.328678,-133.998066,-669.990328,-9513.862658
466.331186,-133.998066,-1167.697429,-9858.429112
466.333705,-114.855485,-1588.834206,-9513.862658
466.336224,-114.855485,-1512.263883,-9667.003304
466.338744,-133.998066,-1167.697429,-9762.716208
466.341263,-172.283227,-880.558717,-9571.290400
466.343782,-19.142581,-459.421939,-9686.145885
466.346301,-57.427742,-191.425808,-9533.005238
466.348820,-76.570323,-172.283227,-9705.288466
466.351339,-57.427742,-689.132909,-9743.573627
466.353858,-95.712904,-1244.267752,-9647.860723
466.356377,-95.712904,-1359.123237,-9724.431046
466.358896,-172.283227,-1435.693560,-9609.575562
466.361415,-38.285162,-1550.549045,-9609.575562
466.363935,-95.712904,-1416.550979,-9609.575562
466.366454,-133.998066,-957.129040,-9801.001370
466.368973,-76.570323,-382.851616,-9686.145885
466.371492,-114.855485,-57.427742,-9609.575562
466.374011,-76.570323,-153.140646,-9686.145885
466.376530,-57.427742,-593.420005,-9494.720077
466.379049,-114.855485,-1110.269686,-9667.003304
466.381568,-133.998066,-1378.265818,-9820.143950
466.384087,-95.712904,-1569.691626,-9533.005238
466.386606,-57.427742,-1588.834206,-9513.862658
466.389125,-76.570323,-1205.982590,-9858.429112
466.391645,-76.570323,-650.847747,-9801.001370
466.394164,-114.855485,-133.998066,-9571.290400
466.396683,-19.142581,-114.855485,-9609.575562
466.399202,-57.427742,-421.136778,-9705.288466
466.401721,-38.285162,-765.703232,-9667.003304
466.404240,-95.712904,-1320.838075,-9590.432981
466.406759,-114.855485,-1607.976787,-9552.147819
466.409278,-95.712904,-1531.406464,-9686.145885
466.411797,-38.285162,-1378.265818,-9590.432981
466.414316,-172.283227,-976.271621,-9781.858789
466.416835,-19.142581,-765.703232,-9456.434915
466.419355,-76.570323,-421.136778,-9647.860723
466.421874,-57.427742,-133.998066,-9839.286531
466.424393,-76.570323,-191.425808,-9475.577496
466.426912,-57.427742,-593.420005,-9686.145885
466.429431,-38.285162,-1052.841944,-9628.718142
466.431950,-38.285162,-1320.838075,-9571.290400
466.434477,-95.712904,-1416.550979,-9647.860723
466.437004,-114.855485,-1339.980656,-9724.431046
466.439530,-172.283227,-957.129040,-9705.288466
466.442057,-95.712904,-708.275490,-9609.575562
466.444584,-76.570323,-306.281293,-9628.718142
466.447111,-95.712904,-306.281293,-9686.145885
466.449638,-38.285162,-669.990328,-9628.718142
466.452164,-57.427742,-957.129040,-9571.290400
466.454691,-38.285162,-1244.267752,-9820.143950
466.457218,-153.140646,-1512.263883,-9686.145885
466.459745,-38.285162,-1512.263883,-9743.573627
466.462272,-19.142581,-1339.980656,-9571.290400
466.464798,-172.283227,-995.414202,-9743.573627
466.467325,-172.283227,-708.275490,-9705.288466
466.469852,-0.000000,-555.134843,-9647.860723
466.472379,-133.998066,-287.138712,-9533.005238
466.474906,-95.712904,-229.710970,-9647.860723
466.477432,-153.140646,-229.710970,-9686.145885
466.479959,-57.427742,-880.558717,-9839.286531
466.482486,-57.427742,-1454.836141,-9437.292334
466.485013,-114.855485,-1512.263883,-9609.575562
466.487540,-133.998066,-1244.267752,-9858.429112
466.490066,-153.140646,-957.129040,-9781.858789
466.492593,-0.000000,-631.705166,-9590.432981
466.495120,-0.000000,-382.851616,-9437.292334
466.497647,-114.855485,-133.998066,-10088.140082
466.500174,-76.570323,-727.418070,-9418.149754
466.502700,-57.427742,-1148.554848,-9475.577496
466.505227,-114.855485,-1244.267752,-9915.856854
466.507754,-95.712904,-1531.406464,-9647.860723
466.510281,-38.285162,-1531.406464,-9437.292334
466.512808,-76.570323,-1339.980656,-9781.858789
466.515334,-153.140646,-861.416136,-9762.716208
466.517861,-95.712904,-421.136778,-9552.147819
466.520388,-95.712904,-153.140646,-9724.431046
466.522915,-76.570323,-248.853550,-9762.716208
466.525442,-57.427742,-689.132909,-9494.720077
466.527968,-133.998066,-937.986459,-9743.573627
466.530495,-114.855485,-1263.410333,-9858.429112
466.533022,-95.712904,-1435.693560,-9609.575562
466.535494,-76.570323,-1244.267752,-9609.575562
466.537966,-133.998066,-899.701298,-9743.573627
466.540438,-76.570323,-727.418070,-9705.288466
466.542910,-0.000000,-401.994197,-9437.292334
466.545381,-95.712904,-440.279358,-9647.860723
466.547853,-133.998066,-612.562586,-9686.145885
466.550325,-114.855485,-995.414202,-9513.862658
466.552797,-76.570323,-1301.695494,-9743.573627
466.555269,-76.570323,-1320.838075,-9705.288466
466.557741,-133.998066,-1282.552914,-9513.862658
466.560213,-133.998066,-1263.410333,-9743.573627
466.562685,-76.570323,-1282.552914,-9705.288466
466.565157,-57.427742,-937.986459,-9628.718142
466.567629,-0.000000,-650.847747,-9724.431046
466.570101,-95.712904,-363.709035,-9724.431046
466.572572,-95.712904,-382.851616,-9628.718142
466.575044,-19.142581,-421.136778,-9667.003304
466.577516,-95.712904,-746.560651,-9724.431046
466.579988,-76.570323,-1167.697429,-9533.005238
466.582460,-76.570323,-1244.267752,-9628.718142
466.584932,-76.570323,-1454.836141,-9762.716208
466.587404,-19.142581,-1263.410333,-9571.290400
466.589876,-153.140646,-650.847747,-9877.571693
466.592348,-38.285162,-401.994197,-9360.722011
466.594820,-95.712904,-421.136778,-9628.718142
466.597292,-95.712904,-593.420005,-9686.145885
466.599764,-172.283227,-976.271621,-9647.860723
466.602235,-57.427742,-1263.410333,-9513.862658
466.604707,-133.998066,-1378.265818,-9743.573627
466.607179,-95.712904,-1339.980656,-9781.858789
466.609651,-19.142581,-1359.123237,-9341.579430
466.612123,-95.712904,-1033.699363,-9839.286531
466.614595,-133.998066,-689.132909,-9781.858789
466.617067,-0.000000,-401.994197,-9456.434915
466.619539,-76.570323,-114.855485,-9801.001370
466.622011,-133.998066,-344.566454,-9494.720077
466.624483,-57.427742,-708.275490,-9475.577496
466.626955,-153.140646,-1225.125171,-9858.429112
466.629426,-76.570323,-1416.550979,-9628.718142
466.631898,-114.855485,-1473.978722,-9801.001370
466.634391,-133.998066,-1320.838075,-9609.575562
466.636884,-153.140646,-995.414202,-9820.143950
466.639377,-133.998066,-555.134843,-9513.862658
466.641869,-57.427742,-363.709035,-9533.005238
466.644362,-76.570323,-287.138712,-9743.573627
466.646855,-57.427742,-650.847747,-9341.579430
466.649348,-57.427742,-976.271621,-9571.290400
466.651840,-95.712904,-1263.410333,-9686.145885
466.654333,-114.855485,-1607.976787,-9667.003304
466.656826,-153.140646,-1607.976787,-9628.718142
466.659319,-114.855485,-1550.549045,-9686.145885
466.661811,-38.285162,-1091.127106,-9743.573627
466.664304,-153.140646,-306.281293,-9647.860723
466.666797,-19.142581,-57.427742,-9571.290400
466.669290,-95.712904,57.427742,-9724.431046
466.671782,-76.570323,-325.423874,-9437.292334
466.674275,-76.570323,-1071.984525,-9552.147819
466.676768,-133.998066,-1225.125171,-10049.854920
466.679261,-114.855485,-1799.402595,-9341.579430
466.681753,-153.140646,-1722.832272,-9628.718142
466.684246,-76.570323,-1225.125171,-10145.567824
466.686739,-133.998066,-842.273555,-9628.718142
466.689232,-38.285162,-287.138712,-9513.862658
466.691724,-0.000000,38.285162,-9494.720077
466.694217,-153.140646,0.000000,-9839.286531
466.696710,-133.998066,-689.132909,-9437.292334
466.699203,-76.570323,-1359.123237,-9322.436850
466.701696,-114.855485,-1607.976787,-9686.145885
466.704188,-95.712904,-1588.834206,-9896.714274
466.706681,-38.285162,-1607.976787,-9379.864592
466.709174,-172.283227,-1167.697429,-9686.145885
466.711667,-38.285162,-593.420005,-9743.573627
466.714159,-95.712904,-172.283227,-9533.005238
466.716652,-76.570323,-229.710970,-9705.288466
466.719145,-76.570323,-382.851616,-9877.571693
466.721638,-95.712904,-669.990328,-9552.147819
466.724130,-76.570323,-1091.127106,-9552.147819
466.726623,-114.855485,-1205.982590,-9858.429112
466.729116,-114.855485,-1397.408398,-9513.862658
466.731609,-38.285162,-1263.410333,-9552.147819
466.734117,-57.427742,-918.843878,-9877.571693
466.736625,-114.855485,-612.562586,-9494.720077
466.739134,-76.570323,-382.851616,-9647.860723
466.741642,-57.427742,-440.279358,-9820.143950
466.744150,-114.855485,-535.992262,-9456.434915
466.746659,-133.998066,-803.988394,-9724.431046
466.749167,-114.855485,-1225.125171,-9762.716208
466.751675,-76.570323,-1493.121302,-9533.005238
466.754184,-95.712904,-1531.406464,-9571.290400
466.756692,-38.285162,-1473.978722,-9801.001370
466.759200,-114.855485,-1244.267752,-9686.145885
466.761709,-133.998066,-803.988394,-9571.290400
466.764217,-76.570323,-421.136778,-9781.858789
466.766725,-114.855485,19.142581,-9609.575562
466.769234,-0.000000,-344.566454,-9552.147819
466.771742,-38.285162,-823.130974,-9513.862658
466.774250,-95.712904,-937.986459,-9820.143950
466.776759,-133.998066,-1454.836141,-9494.720077
466.779267,-153.140646,-1569.691626,-9801.001370
466.781775,-133.998066,-1359.123237,-9705.288466
466.784284,-38.285162,-1148.554848,-9552.147819
466.786792,-76.570323,-516.849682,-9954.142016
466.789300,-38.285162,-172.283227,-9303.294269
466.791809,-0.000000,-153.140646,-9552.147819
466.794317,-38.285162,-421.136778,-9915.856854
466.796825,-114.855485,-1014.556782,-9360.722011
466.799334,-95.712904,-1550.549045,-9628.718142
466.801842,-114.855485,-1550.549045,-9801.001370
466.804350,-95.712904,-1512.263883,-9781.858789
466.806859,-76.570323,-1588.834206,-9475.577496
466.809367,-19.142581,-1129.412267,-9705.288466
466.811875,-133.998066,-363.709035,-9801.001370
466.814384,-76.570323,-38.285162,-9628.718142
466.816892,-38.285162,-76.570323,-9667.003304
466.819400,-133.998066,-421.136778,-9475.577496
466.821909,-19.142581,-803.988394,-9705.288466
466.824417,-153.140646,-1205.982590,-9820.143950
466.826925,-76.570323,-1588.834206,-9437.292334
466.829434,-95.712904,-1397.408398,-9724.431046
466.831942,-153.140646,-1205.982590,-9858.429112
466.834463,-172.283227,-937.986459,-9494.720077
466.836984,-76.570323,-325.423874,-9628.718142
466.839506,-76.570323,-153.140646,-9705.288466
466.842027,-57.427742,-306.281293,-9533.005238
466.844548,-57.427742,-957.129040,-9265.009107
466.847069,-172.283227,-1244.267752,-9877.571693
466.849590,-76.570323,-1435.693560,-9667.003304
466.852112,-114.855485,-1569.691626,-9571.290400
466.854633,-95.712904,-1339.980656,-9724.431046
466.857154,-95.712904,-1186.840010,-9552.147819
466.859675,-0.000000,-976.271621,-9628.718142
466.862196,-57.427742,-421.136778,-9801.001370
466.864718,-95.712904,-153.140646,-9590.432981
466.867239,-172.283227,-133.998066,-9494.720077
466.869760,-114.855485,-478.564520,-9801.001370
466.872281,-57.427742,-957.129040,-9552.147819
466.874802,-133.998066,-1091.127106,-9724.431046
466.877324,-57.427742,-1435.693560,-9628.718142
466.879845,-114.855485,-1493.121302,-9667.003304
466.882366,-0.000000,-1416.550979,-9590.432981
466.884887,-57.427742,-708.275490,-9839.286531
466.887409,-95.712904,-133.998066,-9552.147819
466.889930,-38.285162,-363.709035,-9513.862658
466.892451,-57.427742,-497.707101,-9877.571693
466.894972,-153.140646,-842.273555,-9858.429112
466.897493,-38.285162,-1282.552914,-9513.862658
466.900015,-133.998066,-1531.406464,-9743.573627
466.902536,-76.570323,-1435.693560,-9781.858789
466.905057,-38.285162,-1359.123237,-9590.432981
466.907578,-114.855485,-1033.699363,-9705.288466
466.910099,-76.570323,-650.847747,-9724.431046
466.912621,-95.712904,-612.562586,-9437.292334
466.915142,-95.712904,-363.709035,-9686.145885
466.917663,-95.712904,-535.992262,-9513.862658
466.920184,-76.570323,-631.705166,-9647.860723
466.922706,-114.855485,-957.129040,-9628.718142
466.925227,-57.427742,-1225.125171,-9609.575562
466.927748,-38.285162,-1071.984525,-9705.288466
466.930269,-133.998066,-1167.697429,-9762.716208
466.932790,-114.855485,-976.271621,-9743.573627
466.935321,-57.427742,-669.990328,-9456.434915
466.937852,-133.998066,-516.849682,-9647.860723
466.940383,-76.570323,-421.136778,-9724.431046
466.942913,-133.998066,-803.988394,-9609.575562
466.945444,-57.427742,-995.414202,-9571.290400
466.947975,-57.427742,-1129.412267,-9934.999435
466.950506,-76.570323,-1416.550979,-9399.007173
466.953037,-95.712904,-1339.980656,-9801.001370
466.955567,-114.855485,-1244.267752,-9571.290400
466.958098,-95.712904,-937.986459,-9552.147819
466.960629,-95.712904,-669.990328,-9839.286531
466.963160,-57.427742,-440.279358,-9475.577496
466.965690,-76.570323,-267.996131,-9667.003304
466.968221,-76.570323,-267.996131,-9647.860723
466.970752,-95.712904,-823.130974,-9360.722011
466.973283,-133.998066,-976.271621,-9801.001370
466.975814,-114.855485,-1052.841944,-9533.005238
466.978344,-19.142581,-1435.693560,-9705.288466
466.980875,-38.285162,-1359.123237,-9609.575562
466.983406,-133.998066,-1014.556782,-9705.288466
466.985937,-76.570323,-555.134843,-9705.288466
466.988467,-114.855485,-535.992262,-9379.864592
466.990998,-76.570323,-401.994197,-9820.143950
466.993529,-76.570323,-765.703232,-9724.431046
466.996060,-172.283227,-937.986459,-9609.575562
466.998591,-38.285162,-1263.410333,-9686.145885
467.001121,-76.570323,-1397.408398,-9628.718142
467.003652,-133.998066,-1378.265818,-9628.718142
467.006183,-114.855485,-1263.410333,-9820.143950
467.008714,-114.855485,-1110.269686,-9475.577496
467.011244,-38.285162,-535.992262,-9743.573627
467.013775,-38.285162,-401.994197,-9781.858789
467.016306,-76.570323,-325.423874,-9552.147819
467.018837,-95.712904,-459.421939,-9590.432981
467.021368,-95.712904,-861.416136,-9686.145885
467.023898,-95.712904,-1052.841944,-9781.858789
467.026429,-76.570323,-1435.693560,-9628.718142
467.028960,-38.285162,-1378.265818,-9820.143950
467.031491,-57.427742,-1148.554848,-9724.431046
467.034021,-38.285162,-746.560651,-9647.860723
467.036559,-133.998066,-382.851616,-9705.288466
467.039096,-38.285162,-153.140646,-9647.860723
467.041633,-172.283227,-325.423874,-9571.290400
467.044170,-95.712904,-803.988394,-9609.575562
467.046708,-57.427742,-1320.838075,-9609.575562
467.049245,-133.998066,-1378.265818,-9609.575562
467.051782,-153.140646,-1473.978722,-9743.573627
467.054319,-133.998066,-1416.550979,-9647.860723
467.056857,-153.140646,-1225.125171,-9628.718142
467.059394,-0.000000,-803.988394,-9781.858789
467.061931,-38.285162,-401.994197,-9590.432981
467.064468,-57.427742,-114.855485,-9513.862658
467.067006,-133.998066,-153.140646,-9609.575562
467.069543,-114.855485,-708.275490,-9609.575562
467.072080,-57.427742,-1225.125171,-9399.007173
467.074617,-133.998066,-1454.836141,-9934.999435
467.077155,-76.570323,-1359.123237,-9609.575562
467.079692,-76.570323,-1454.836141,-9533.005238
467.082229,-114.855485,-1263.410333,-9781.858789
467.084766,-114.855485,-421.136778,-9781.858789
467.087304,-76.570323,-306.281293,-9188.438784
467.089841,-153.140646,-172.283227,-9781.858789
467.092378,-57.427742,-535.992262,-9820.143950
467.094915,-114.855485,-918.843878,-9456.434915
467.097453,-76.570323,-1339.980656,-9705.288466
467.099990,-114.855485,-1435.693560,-9801.001370
467.102527,-95.712904,-1454.836141,-9552.147819
467.105064,-57.427742,-1301.695494,-9743.573627
467.107602,-172.283227,-976.271621,-9647.860723
467.110139,-57.427742,-612.562586,-9609.575562
467.112676,-114.855485,-478.564520,-9705.288466
467.115213,-133.998066,-459.421939,-9781.858789
467.117750,-76.570323,-497.707101,-9418.149754
467.120288,-76.570323,-593.420005,-9686.145885
467.122825,-114.855485,-1033.699363,-9762.716208
467.125362,-95.712904,-1359.123237,-9418.149754
467.127899,-114.855485,-1359.123237,-9820.143950
467.130437,-19.142581,-1359.123237,-9686.145885
467.132974,-133.998066,-1129.412267,-9609.575562
467.135511,-76.570323,-612.562586,-9743.573627
467.138003,-133.998066,-344.566454,-9743.573627
467.140495,-76.570323,-267.996131,-9571.290400
467.142986,-76.570323,-708.275490,-9667.003304
467.145478,-95.712904,-1033.699363,-9552.147819
467.147970,-114.855485,-1205.982590,-9743.573627
467.150462,-95.712904,-1531.406464,-9571.290400
467.152954,-95.712904,-1473.978722,-9724.431046
467.155445,-38.285162,-1416.550979,-9724.431046
467.157937,-95.712904,-1225.125171,-9743.573627
467.160429,-133.998066,-880.558717,-9743.573627
467.162921,-76.570323,-401.994197,-9475.577496
467.165412,-114.855485,-114.855485,-9839.286531
467.167904,-76.570323,-133.998066,-9494.720077
467.170396,-133.998066,-478.564520,-9437.292334
467.172888,-95.712904,-803.988394,-9801.001370
467.175379,-76.570323,-1186.840010,-9686.145885
467.177871,-76.570323,-1435.693560,-9628.718142
467.180363,-133.998066,-1473.978722,-9667.003304
467.182855,-133.998066,-842.273555,-9934.999435
467.185346,-153.140646,-478.564520,-9513.862658
467.187838,-19.142581,-689.132909,-9552.147819
467.190330,-95.712904,-459.421939,-9667.003304
467.192822,-38.285162,-555.134843,-9590.432981
467.195313,-76.570323,-937.986459,-9571.290400
467.197805,-57.427742,-1071.984525,-9647.860723
467.200297,-38.285162,-1129.412267,-9647.860723
467.202789,-76.570323,-1263.410333,-9571.290400
467.205280,-57.427742,-1225.125171,-9686.145885
467.207772,-76.570323,-1033.699363,-9801.001370
467.210264,-172.283227,-823.130974,-9647.860723
467.212756,-38.285162,-803.988394,-9647.860723
467.215248,-76.570323,-612.562586,-9686.145885
467.217739,-153.140646,-516.849682,-9628.718142
467.220231,-95.712904,-823.130974,-9609.575562
467.222723,-57.427742,-995.414202,-9609.575562
467.225215,-95.712904,-1167.697429,-9686.145885
467.227706,-57.427742,-1359.123237,-9667.003304
467.230198,-153.140646,-1167.697429,-9743.573627
467.232690,19.142581,-918.843878,-9724.431046
467.235182,-114.855485,-784.845813,-9494.720077
467.237690,-114.855485,-478.564520,-9590.432981
467.240198,-133.998066,-535.992262,-9705.288466
467.242706,-76.570323,-650.847747,-9628.718142
467.245214,-19.142581,-1052.841944,-9609.575562
467.247722,-38.285162,-1282.552914,-9743.573627
467.250230,-76.570323,-1416.550979,-9705.288466
467.252738,-95.712904,-1435.693560,-9647.860723
467.255246,-114.855485,-1339.980656,-9781.858789
467.257753,-114.855485,-1205.982590,-9647.860723
467.260261,-57.427742,-631.705166,-9686.145885
467.262769,-172.283227,-114.855485,-9724.431046
467.265277,-57.427742,-114.855485,-9475.577496
467.267785,-57.427742,-133.998066,-9533.005238
467.270293,-57.427742,-689.132909,-9820.143950
467.272801,-57.427742,-1186.840010,-9628.718142
467.275309,-38.285162,-1435.693560,-9686.145885
467.277816,-76.570323,-1588.834206,-9762.716208
467.280324,-76.570323,-1531.406464,-9628.718142
467.282832,-95.712904,-727.418070,-9781.858789
467.285340,-38.285162,-248.853550,-9590.432981
467.287848,-133.998066,-38.285162,-9647.860723
467.290356,-95.712904,-421.136778,-9456.434915
467.292864,-38.285162,-823.130974,-9705.288466
467.295372,-133.998066,-1263.410333,-9686.145885
467.297879,-76.570323,-1703.689691,-9552.147819
467.300387,-95.712904,-1569.691626,-9456.434915
467.302895,-114.855485,-1512.263883,-9839.286531
467.305403,-57.427742,-1148.554848,-9647.860723
467.307911,-133.998066,-593.420005,-9743.573627
467.310419,-114.855485,-57.427742,-9705.288466
467.312927,-19.142581,-19.142581,-9494.720077
467.315435,-76.570323,-325.423874,-9552.147819
467.317954,-38.285162,-612.562586,-9552.147819
467.320473,-38.285162,-1225.125171,-9743.573627
467.322993,-95.712904,-1665.404530,-9590.432981
467.325512,-76.570323,-1646.261949,-9647.860723
467.328031,172.283227,-1301.695494,-9934.999435
467.330550,-172.283227,-440.279358,-9667.003304
467.333070,-114.855485,19.142581,-9341.579430
467.335589,19.142581,-95.712904,-9781.858789
467.338108,-172.283227,-191.425808,-9494.720077
467.340628,-0.000000,-1014.556782,-9475.577496
467.343147,-57.427742,-1607.976787,-9647.860723
467.345666,-76.570323,-1607.976787,-9801.001370
467.348186,-76.570323,-1550.549045,-9628.718142
467.350705,-114.855485,-1397.408398,-9781.858789
467.353224,-38.285162,-1225.125171,-9552.147819
467.355743,-153.140646,-746.560651,-9705.288466
467.358263,-76.570323,-535.992262,-9667.003304
467.360782,-172.283227,-363.709035,-9456.434915
467.363301,-76.570323,-382.851616,-9801.001370
467.365821,-95.712904,-650.847747,-9494.720077
467.368340,-114.855485,-1071.984525,-9724.431046
467.370859,-76.570323,-1205.982590,-9686.145885
467.373379,-57.427742,-1454.836141,-9552.147819
467.375898,-114.855485,-1435.693560,-9667.003304
467.378417,-114.855485,-1263.410333,-9686.145885
467.380936,-153.140646,-689.132909,-9915.856854
467.383456,-38.285162,-344.566454,-9513.862658
467.385975,-76.570323,-191.425808,-9552.147819
467.388494,-114.855485,-267.996131,-9858.429112
467.391014,-38.285162,-555.134843,-9513.862658
467.393533,-76.570323,-1186.840010,-9724.431046
467.396052,-57.427742,-1512.263883,-9667.003304
467.398572,-95.712904,-1454.836141,-9494.720077
467.401091,-57.427742,-1378.265818,-9801.001370
467.403610,-114.855485,-1186.840010,-9686.145885
467.406129,-114.855485,-918.843878,-9552.147819
467.408649,-38.285162,-689.132909,-9973.284597
467.411168,-38.285162,-382.851616,-9705.288466
467.413687,-76.570323,-133.998066,-9418.149754
467.416207,-172.283227,-133.998066,-9724.431046
467.418735,-38.285162,-555.134843,-9590.432981
467.421264,-38.285162,-1129.412267,-9513.862658
467.423792,-95.712904,-1531.406464,-9858.429112
467.426321,-95.712904,-1665.404530,-9513.862658
467.428849,-114.855485,-1435.693560,-9609.575562
467.431378,-76.570323,-995.414202,-9896.714274
467.433906,-95.712904,-516.849682,-9533.005238
467.436435,-95.712904,-133.998066,-9781.858789
467.438963,-95.712904,-421.136778,-9609.575562
467.441491,-95.712904,-765.703232,-9494.720077
467.444020,-76.570323,-1014.556782,-9647.860723
467.446548,-153.140646,-1473.978722,-9667.003304
467.449077,-57.427742,-1741.974853,-9686.145885
467.451605,-38.285162,-1588.834206,-9571.290400
467.454134,-95.712904,-1339.980656,-9896.714274
467.456662,-76.570323,-708.275490,-9647.860723
467.459191,-57.427742,-19.142581,-9628.718142
467.461719,-133.998066,38.285162,-9858.429112
467.464248,-38.285162,-153.140646,-9590.432981
467.466776,-38.285162,-727.418070,-9437.292334
467.469305,-76.570323,-1052.841944,-10126.425243
467.471833,-133.998066,-1473.978722,-9456.434915
467.474362,-114.855485,-1761.117434,-9571.290400
467.476890,-76.570323,-1493.121302,-9954.142016
467.479419,-114.855485,-957.129040,-9552.147819
467.481947,-19.142581,-459.421939,-9609.575562
467.484476,-114.855485,-114.855485,-9647.860723
467.487004,-0.000000,38.285162,-9628.718142
467.489533,-133.998066,-497.707101,-9667.003304
467.492061,-95.712904,-1091.127106,-9609.575562
467.494590,-76.570323,-1378.265818,-9667.003304
467.497118,-95.712904,-1569.691626,-9934.999435
467.499646,-95.712904,-1588.834206,-9533.005238
467.502175,-0.000000,-1473.978722,-9609.575562
467.504703,-114.855485,-1071.984525,-9801.001370
467.507232,-57.427742,-593.420005,-9571.290400
467.509760,-38.285162,-57.427742,-9686.145885
467.512289,-133.998066,-95.712904,-9724.431046
467.514817,-172.283227,-325.423874,-9609.575562
467.517346,-57.427742,-880.558717,-9341.579430
467.519882,-133.998066,-1359.123237,-9820.143950
467.522419,-153.140646,-1569.691626,-9494.720077
467.524956,-57.427742,-1703.689691,-9609.575562
467.527492,-76.570323,-1244.267752,-9781.858789
467.530029,-133.998066,-708.275490,-9667.003304
467.532565,-57.427742,-267.996131,-9762.716208
467.535102,-172.283227,-114.855485,-9533.005238
467.537638,-57.427742,-191.425808,-9705.288466
467.540175,-57.427742,-708.275490,-9341.579430
467.542712,-95.712904,-1167.697429,-9781.858789
467.545248,-114.855485,-1550.549045,-9686.145885
467.547785,-172.283227,-1588.834206,-9533.005238
467.550321,-133.998066,-1550.549045,-9877.571693
467.552858,-76.570323,-1186.840010,-9667.003304
467.555394,-133.998066,-708.275490,-9724.431046
467.557931,-57.427742,-363.709035,-9705.288466
467.560468,-0.000000,-95.712904,-9513.862658
467.563004,-38.285162,-344.566454,-9686.145885
467.565541,-0.000000,-631.705166,-9705.288466
467.568077,-76.570323,-1052.841944,-9705.288466
467.570614,-114.855485,-1301.695494,-9647.860723
467.573151,-153.140646,-1454.836141,-9628.718142
467.575687,-57.427742,-1397.408398,-9667.003304
467.578224,-76.570323,-1397.408398,-9513.862658
467.580760,-76.570323,-612.562586,-9896.714274
467.583297,-133.998066,-153.140646,-9590.432981
467.585833,-57.427742,-114.855485,-9667.003304
467.588370,-38.285162,-516.849682,-9609.575562
467.590907,-38.285162,-957.129040,-9667.003304
467.593443,-114.855485,-1244.267752,-9647.860723
467.595980,-133.998066,-1607.976787,-9705.288466
467.598516,-57.427742,-1512.263883,-9628.718142
467.601053,-57.427742,-1416.550979,-9667.003304
467.603589,-114.855485,-1091.127106,-9724.431046
467.606126,-76.570323,-689.132909,-9628.718142
467.608663,-95.712904,-344.566454,-9552.147819
467.611199,-95.712904,-95.712904,-9647.860723
467.613736,-57.427742,-382.851616,-9628.718142
467.616272,-95.712904,-593.420005,-9590.432981
467.618809,-76.570323,-1129.412267,-9743.573627
467.621351,-133.998066,-1531.406464,-9437.292334
467.623894,-133.998066,-1454.836141,-9743.573627
467.626436,-57.427742,-1339.980656,-9781.858789
467.628978,-95.712904,-918.843878,-9628.718142
467.631521,-95.712904,-421.136778,-9801.001370
467.634063,-95.712904,-133.998066,-9533.005238
467.636605,-57.427742,-133.998066,-9724.431046
467.639148,-133.998066,-689.132909,-9533.005238
467.641690,-95.712904,-899.701298,-9552.147819
467.644232,-133.998066,-1263.410333,-9743.573627
467.646775,-114.855485,-1454.836141,-9571.290400
467.649317,-76.570323,-1512.263883,-9743.573627
467.651859,-57.427742,-1359.123237,-9590.432981
467.654402,-172.283227,-1110.269686,-9686.145885
467.656944,-76.570323,-555.134843,-9667.003304
467.659486,-57.427742,-133.998066,-9494.720077
467.662029,-38.285162,-153.140646,-9705.288466
467.664571,-172.283227,-210.568389,-9724.431046
467.667113,-57.427742,-727.418070,-9686.145885
467.669656,-57.427742,-1301.695494,-9571.290400
467.672198,-133.998066,-1473.978722,-9781.858789
467.674740,-57.427742,-1493.121302,-9571.290400
467.677283,-95.712904,-1416.550979,-9647.860723
467.679825,-153.140646,-880.558717,-9877.571693
467.682368,-114.855485,-421.136778,-9533.005238
467.684910,-38.285162,-248.853550,-9456.434915
467.687452,-76.570323,-191.425808,-9781.858789
467.689995,-172.283227,-574.277424,-9418.149754
467.692537,-95.712904,-1071.984525,-9609.575562
467.695079,-114.855485,-1493.121302,-9705.288466
467.697622,-38.285162,-1473.978722,-9552.147819
467.700164,-95.712904,-1493.121302,-9686.145885
467.702706,-133.998066,-1205.982590,-9743.573627
467.705249,-76.570323,-957.129040,-9628.718142
467.707791,-38.285162,-593.420005,-9820.143950
467.710333,-114.855485,-248.853550,-9494.720077
467.712876,-95.712904,-133.998066,-9513.862658
467.715418,-76.570323,-440.279358,-9801.001370
467.717960,-57.427742,-899.701298,-9571.290400
467.720503,-133.998066,-1225.125171,-9571.290400
467.723049,-153.140646,-1531.406464,-9801.001370
467.725595,-38.285162,-1512.263883,-9667.003304
467.728141,-38.285162,-1148.554848,-9801.001370
467.730687,-38.285162,-842.273555,-9896.714274
467.733233,-76.570323,-363.709035,-9533.005238
467.735779,-57.427742,-440.279358,-9590.432981
467.738326,-133.998066,-555.134843,-9743.573627
467.740872,-57.427742,-957.129040,-9705.288466
467.743418,-172.283227,-976.271621,-9552.147819
467.745964,-95.712904,-1454.836141,-9743.573627
467.748510,-57.427742,-1493.121302,-9341.579430
467.751056,-76.570323,-1378.265818,-9896.714274
467.753602,-133.998066,-1148.554848,-9762.716208
467.756148,-38.285162,-1071.984525,-9552.147819
467.758695,-95.712904,-612.562586,-9743.573627
467.761241,-76.570323,-95.712904,-9705.288466
467.763787,-38.285162,-287.138712,-9437.292334
467.766333,-114.855485,-650.847747,-9571.290400
467.768879,-38.285162,-842.273555,-9724.431046
467.771425,-19.142581,-880.558717,-9456.434915
467.773971,-57.427742,-1052.841944,-9743.573627
467.776517,-38.285162,-1148.554848,-9667.003304
467.779064,-38.285162,-1071.984525,-9552.147819
467.781610,-76.570323,-669.990328,-9743.573627
467.784156,-153.140646,-497.707101,-9590.432981
467.786702,-133.998066,-689.132909,-9724.431046
467.789248,-57.427742,-918.843878,-9609.575562
467.791794,-133.998066,-1052.841944,-9647.860723
467.794340,-95.712904,-1091.127106,-9781.858789
467.796886,-114.855485,-1148.554848,-9686.145885
467.799433,-114.855485,-976.271621,-9456.434915
467.801979,-38.285162,-1071.984525,-9724.431046
467.804525,-38.285162,-1033.699363,-9494.720077
467.807071,-38.285162,-861.416136,-9686.145885
467.809617,-133.998066,-803.988394,-9724.431046
467.812163,-114.855485,-689.132909,-9647.860723
467.814709,-19.142581,-784.845813,-9628.718142
467.817255,-172.283227,-708.275490,-9647.860723
467.819801,-57.427742,-899.701298,-9762.716208
467.822348,-172.283227,-1052.841944,-9494.720077
467.824897,-95.712904,-1186.840010,-9686.145885
467.827447,-38.285162,-1301.695494,-9647.860723
467.829997,-114.855485,-1091.127106,-9494.720077
467.832547,-76.570323,-880.558717,-9743.573627
467.835097,-133.998066,-612.562586,-9571.290400
467.837646,-38.285162,-382.851616,-9705.288466
467.840196,-19.142581,-459.421939,-9609.575562
467.842746,-57.427742,-803.988394,-9628.718142
467.845296,-133.998066,-1110.269686,-9609.575562
467.847846,-95.712904,-1359.123237,-9475.577496
467.850395,-38.285162,-1627.119368,-9609.575562
467.852945,-153.140646,-1378.265818,-9686.145885
467.855495,-57.427742,-976.271621,-9724.431046
467.858045,-114.855485,-516.849682,-9571.290400
467.860594,-38.285162,-95.712904,-9705.288466
467.863144,-76.570323,38.285162,-9686.145885
467.865694,-19.142581,-325.423874,-9513.862658
467.868244,-76.570323,-1014.556782,-9686.145885
467.870794,-0.000000,-1454.836141,-9743.573627
467.873343,-133.998066,-1569.691626,-9647.860723
467.875893,-0.000000,-1607.976787,-9877.571693
467.878443,-95.712904,-1129.412267,-9628.718142
467.880993,-114.855485,-382.851616,-9762.716208
467.883543,-38.285162,-153.140646,-9609.575562
467.886092,-114.855485,-133.998066,-9590.432981
467.888642,-95.712904,-631.705166,-9628.718142
467.891192,-95.712904,-899.701298,-9609.575562
467.893742,-57.427742,-1359.123237,-9590.432981
467.896292,-76.570323,-1435.693560,-9781.858789
467.898841,-114.855485,-1435.693560,-9686.145885
467.901391,-114.855485,-1339.980656,-9513.862658
467.903941,-114.855485,-1052.841944,-9724.431046
467.906491,-57.427742,-823.130974,-9762.716208
467.909041,-57.427742,-727.418070,-9418.149754
467.911590,-114.855485,-478.564520,-9801.001370
467.914140,-38.285162,-363.709035,-9533.005238
467.916690,-95.712904,-631.705166,-9513.862658
467.919240,-76.570323,-1052.841944,-9801.001370
467.921789,-95.712904,-1263.410333,-9360.722011
467.924339,-38.285162,-1263.410333,-9877.571693
467.926891,-76.570323,-1282.552914,-9724.431046
467.929442,-76.570323,-1110.269686,-9628.718142
467.931994,-133.998066,-631.705166,-9743.573627
467.934545,38.285162,-344.566454,-9667.003304
467.937097,-172.283227,-191.425808,-9552.147819
467.939649,-57.427742,-535.992262,-9609.575562
467.942200,-38.285162,-918.843878,-9724.431046
467.944752,-95.712904,-1263.410333,-9571.290400
467.947303,-57.427742,-1512.263883,-9647.860723
467.949855,-76.570323,-1627.119368,-9628.718142
467.952406,-76.570323,-1378.265818,-9418.149754
467.954958,-95.712904,-842.273555,-9781.858789
467.957510,-38.285162,-440.279358,-9590.432981
467.960061,-172.283227,-306.281293,-9571.290400
467.962613,-57.427742,-440.279358,-9724.431046
467.965164,-76.570323,-555.134843,-9647.860723
467.967716,-38.285162,-976.271621,-9590.432981
467.970267,-133.998066,-1263.410333,-9571.290400
467.972819,-95.712904,-1263.410333,-9647.860723
467.975370,-133.998066,-1167.697429,-9705.288466
467.977922,-114.855485,-1091.127106,-9724.431046
467.980474,-153.140646,-937.986459,-9609.575562
467.983025,-38.285162,-516.849682,-9647.860723
467.985577,-172.283227,-191.425808,-9590.432981
467.988128,-57.427742,-382.851616,-9762.716208
467.990680,-76.570323,-880.558717,-9437.292334
467.993231,-57.427742,-1244.267752,-9667.003304
467.995783,-114.855485,-1225.125171,-9667.003304
467.998335,-95.712904,-1301.695494,-9724.431046
468.000886,-38.285162,-1282.552914,-9571.290400
468.003438,-38.285162,-1091.127106,-9743.573627
468.005989,-172.283227,-57.427742,-9839.286531
468.008541,-133.998066,1263.410333,-9858.429112
468.011092,-153.140646,459.421939,-9284.151688
468.013644,-133.998066,-976.271621,-9992.427178
468.016195,-38.285162,-1167.697429,-9820.143950
468.018747,-210.568389,-842.273555,-9035.298138
468.021299,19.142581,-823.130974,-10375.278794
468.023850,-76.570323,-842.273555,-9418.149754
468.026402,-38.285162,-842.273555,-9552.147819
468.028913,-114.855485,-861.416136,-10030.712339
468.031424,-0.000000,-861.416136,-9609.575562
468.033936,-114.855485,-631.705166,-9418.149754
468.036447,-38.285162,-535.992262,-10049.854920
468.038958,-57.427742,-344.566454,-9188.438784
468.041470,-38.285162,-248.853550,-9858.429112
468.043981,-153.140646,-344.566454,-10241.280728
468.046492,-38.285162,-765.703232,-8901.300072
468.049004,-114.855485,-899.701298,-10030.712339
468.051515,-57.427742,-937.986459,-9992.427178
468.054026,-95.712904,-880.558717,-9035.298138
468.056538,-114.855485,-784.845813,-9915.856854
468.059049,-172.283227,-382.851616,-9801.001370
468.061560,-57.427742,-382.851616,-9341.579430
468.064072,-133.998066,-612.562586,-9839.286531
468.066583,-76.570323,-976.271621,-9456.434915
468.069094,-133.998066,-1454.836141,-9513.862658
468.071606,-114.855485,-1607.976787,-9992.427178
468.074117,-57.427742,-1646.261949,-9533.005238
468.076628,-95.712904,-1091.127106,-9475.577496
468.079139,-153.140646,-727.418070,-9973.284597
468.081651,-133.998066,-459.421939,-9475.577496
468.084162,-133.998066,-344.566454,-9533.005238
468.086673,-57.427742,-535.992262,-9839.286531
468.089185,-57.427742,-1052.841944,-9418.149754
468.091696,-95.712904,-1435.693560,-9647.860723
468.094207,-95.712904,-1473.978722,-9934.999435
468.096719,-76.570323,-1263.410333,-9571.290400
468.099230,-133.998066,-861.416136,-9743.573627
468.101741,-114.855485,-516.849682,-9801.001370
468.104253,-76.570323,-306.281293,-9571.290400
468.106764,-57.427742,-440.279358,-9590.432981
468.109275,-57.427742,-593.420005,-9743.573627
468.111787,-76.570323,-727.418070,-9437.292334
468.114298,-133.998066,-937.986459,-9552.147819
468.116809,-133.998066,-1129.412267,-9858.429112
468.119321,-57.427742,-1225.125171,-9571.290400
468.121832,-153.140646,-1301.695494,-9705.288466
468.124343,38.285162,-1301.695494,-9743.573627
468.126855,-57.427742,-1071.984525,-9456.434915
468.129377,-133.998066,-612.562586,-9858.429112
468.131899,-172.283227,-401.994197,-9705.288466
468.134421,-38.285162,-459.421939,-9475.577496
468.136943,-76.570323,-440.279358,-9762.716208
468.139465,-57.427742,-1033.699363,-9781.858789
468.141987,-38.285162,-1512.263883,-9743.573627
468.144509,-57.427742,-1684.547110,-9801.001370
468.147031,-95.712904,-1359.123237,-9399.007173
468.149553,-133.998066,-784.845813,-9724.431046
468.152075,-133.998066,-382.851616,-9781.858789
468.154597,-95.712904,-325.423874,-9609.575562
468.157119,-95.712904,-363.709035,-9628.718142
468.159641,-153.140646,-459.421939,-9762.716208
468.162163,-133.998066,-957.129040,-9513.862658
468.164685,-38.285162,-1397.408398,-9667.003304
468.167207,-133.998066,-1320.838075,-9896.714274
468.169729,-172.283227,-1186.840010,-9437.292334
468.172251,-133.998066,-995.414202,-9724.431046
468.174773,-76.570323,-784.845813,-9781.858789
468.177295,-114.855485,-784.845813,-9418.149754
468.179817,-57.427742,-765.703232,-9839.286531
468.182339,-95.712904,-784.845813,-9533.005238
468.184861,-38.285162,-765.703232,-9609.575562
468.187383,-95.712904,-918.843878,-9686.145885
468.189905,-95.712904,-1033.699363,-9590.432981
468.192427,-38.285162,-1148.554848,-9667.003304
468.194949,-95.712904,-1091.127106,-9667.003304
468.197471,-95.712904,-861.416136,-9667.003304
468.199993,-76.570323,-669.990328,-9590.432981
468.202515,-133.998066,-708.275490,-9705.288466
468.205037,-95.712904,-516.849682,-9628.718142
468.207559,-95.712904,-516.849682,-9781.858789
468.210081,-95.712904,-631.705166,-9647.860723
468.212603,-76.570323,-765.703232,-9647.860723
468.215125,-38.285162,-1014.556782,-9590.432981
468.217647,-153.140646,-1378.265818,-9647.860723
468.220169,-133.998066,-1684.547110,-9609.575562
468.222691,-38.285162,-1722.832272,-9667.003304
468.225213,-153.140646,-1148.554848,-9686.145885
468.227735,-0.000000,-727.418070,-9743.573627
468.230266,-76.570323,-363.709035,-9456.434915
468.232796,-38.285162,-248.853550,-9743.573627
468.235327,-57.427742,-191.425808,-9686.145885
468.237857,-57.427742,-899.701298,-9245.866526
468.240387,-114.855485,-1263.410333,-9762.716208
468.242917,-95.712904,-1378.265818,-9877.571693
468.245447,-95.712904,-1780.260014,-9341.579430
468.247977,-0.000000,-1550.549045,-9877.571693
468.250508,-114.855485,-612.562586,-9552.147819
468.253038,-38.285162,-153.140646,-9820.143950
468.255568,-114.855485,-57.427742,-9743.573627
468.258098,-38.285162,-210.568389,-9456.434915
468.260628,-76.570323,-593.420005,-9647.860723
468.263158,-76.570323,-1052.841944,-9781.858789
468.265689,-76.570323,-1435.693560,-9418.149754
468.268219,-76.570323,-1493.121302,-9667.003304
468.270749,-114.855485,-1339.980656,-9839.286531
468.273279,-38.285162,-1167.697429,-9571.290400
468.275809,-133.998066,-765.703232,-9609.575562
468.278339,-57.427742,-401.994197,-9801.001370
468.280870,-76.570323,-401.994197,-9533.005238
468.283400,-95.712904,-459.421939,-9571.290400
468.285930,-57.427742,-708.275490,-9667.003304
468.288460,-133.998066,-1014.556782,-9686.145885
468.290990,-172.283227,-1244.267752,-9686.145885
468.293520,-57.427742,-1493.121302,-9686.145885
468.296051,-57.427742,-1129.412267,-9667.003304
468.298581,-57.427742,-1014.556782,-9820.143950
468.301111,-38.285162,-708.275490,-9360.722011
468.303641,-38.285162,-401.994197,-9724.431046
468.306171,-114.855485,-421.136778,-9571.290400
468.308701,-38.285162,-401.994197,-9590.432981
468.311232,-57.427742,-593.420005,-9686.145885
468.313762,-153.140646,-1014.556782,-9533.005238
468.316292,-0.000000,-1435.693560,-9743.573627
468.318822,-57.427742,-1550.549045,-9609.575562
468.321352,-133.998066,-1512.263883,-9667.003304
468.323882,-95.712904,-1205.982590,-9647.860723
468.326413,-57.427742,-823.130974,-9571.290400
468.328943,-114.855485,-382.851616,-9647.860723
468.331440,-38.285162,-440.279358,-9533.005238
468.333937,-95.712904,-516.849682,-9686.145885
468.336434,-38.285162,-765.703232,-9628.718142
468.338931,-76.570323,-1129.412267,-9494.720077
468.341427,-114.855485,-1512.263883,-9877.571693
468.343924,-38.285162,-1531.406464,-9437.292334
468.346421,-133.998066,-937.986459,-9973.284597
468.348918,-95.712904,-784.845813,-9628.718142
468.351415,-57.427742,-631.705166,-9265.009107
468.353912,-114.855485,-325.423874,-9992.427178
468.356409,-114.855485,-459.421939,-9724.431046
468.358906,-38.285162,-535.992262,-9379.864592
468.361403,-57.427742,-746.560651,-9839.286531
468.363900,-133.998066,-1033.699363,-9820.143950
468.366397,-114.855485,-1339.980656,-9456.434915
468.368894,-38.285162,-1665.404530,-9628.718142
468.371391,-76.570323,-1397.408398,-9724.431046
468.373888,-38.285162,-1014.556782,-9743.573627
468.376385,-114.855485,-727.418070,-9667.003304
468.378882,-76.570323,-401.994197,-9609.575562
468.381379,-38.285162,-344.566454,-9743.573627
468.383876,-95.712904,-382.851616,-9571.290400
468.386373,-38.285162,-746.560651,-9552.147819
468.388870,-57.427742,-1244.267752,-9762.716208
468.391367,-76.570323,-1607.976787,-9628.718142
468.393863,-76.570323,-1588.834206,-9647.860723
468.396360,-38.285162,-1129.412267,-9801.001370
468.398857,-76.570323,-669.990328,-9705.288466
468.401354,-133.998066,-344.566454,-9513.862658
468.403851,-57.427742,-382.851616,-9743.573627
468.406348,-172.283227,-210.568389,-9781.858789
468.408845,-95.712904,-612.562586,-9571.290400
468.411342,-133.998066,-976.271621,-9494.720077
468.413839,-133.998066,-1416.550979,-9667.003304
468.416336,-57.427742,-1588.834206,-9705.288466
468.418833,-95.712904,-1454.836141,-9667.003304
468.421330,-76.570323,-1244.267752,-9628.718142
468.423827,-133.998066,-803.988394,-9743.573627
468.426324,-114.855485,-497.707101,-9686.145885
468.428821,-95.712904,-401.994197,-9724.431046
468.431332,-38.285162,-421.136778,-9552.147819
468.433844,-38.285162,-516.849682,-9781.858789
468.436355,-133.998066,-1071.984525,-9494.720077
468.438866,-0.000000,-1588.834206,-9590.432981
468.441378,-133.998066,-1244.267752,-9934.999435
468.443889,-114.855485,-1110.269686,-9801.001370
468.446401,-57.427742,-976.271621,-9609.575562
468.448912,-95.712904,-478.564520,-9686.145885
468.451424,-133.998066,-153.140646,-9724.431046
468.453935,-133.998066,-382.851616,-9647.860723
468.456446,-57.427742,-497.707101,-9418.149754
468.458958,-114.855485,-765.703232,-9590.432981
468.461469,-153.140646,-1071.984525,-9934.999435
468.463981,-133.998066,-1454.836141,-9494.720077
468.466492,-76.570323,-1607.976787,-9609.575562
468.469003,-76.570323,-1397.408398,-9896.714274
468.471515,-133.998066,-1186.840010,-9552.147819
468.474026,-38.285162,-803.988394,-9686.145885
468.476538,-153.140646,-459.421939,-9647.860723
468.479049,-133.998066,-440.279358,-9533.005238
468.481561,-95.712904,-497.707101,-9705.288466
468.484072,-57.427742,-957.129040,-9628.718142
468.486583,-95.712904,-1282.552914,-9456.434915
468.489095,-114.855485,-1339.980656,-9896.714274
468.491606,-172.283227,-1282.552914,-9494.720077
468.494118,-95.712904,-1110.269686,-9647.860723
468.496629,-57.427742,-746.560651,-9801.001370
468.499141,-95.712904,-535.992262,-9437.292334
468.501652,-95.712904,-210.568389,-9724.431046
468.504163,-95.712904,-516.849682,-9667.003304
468.506675,-57.427742,-650.847747,-9552.147819
468.509186,-95.712904,-937.986459,-9686.145885
468.511698,-133.998066,-1052.841944,-9647.860723
468.514209,-76.570323,-1282.552914,-9513.862658
468.516720,-38.285162,-1378.265818,-9724.431046
468.519232,-76.570323,-1091.127106,-9724.431046
468.521743,-114.855485,-937.986459,-9705.288466
468.524255,-38.285162,-803.988394,-9437.292334
468.526766,-76.570323,-631.705166,-9743.573627
468.529278,-133.998066,-535.992262,-9628.718142
468.531800,-133.998066,-746.560651,-9724.431046
468.534323,-133.998066,-976.271621,-9475.577496
468.536846,-95.712904,-1225.125171,-9858.429112
468.539369,-114.855485,-1186.840010,-10068.997501
468.541892,-19.142581,-1684.547110,-9131.011042
468.544415,-76.570323,-899.701298,-9628.718142
468.546937,-57.427742,-267.996131,-9724.431046
468.549460,-133.998066,-95.712904,-9590.432981
468.551983,-172.283227,-516.849682,-9686.145885
468.554506,-38.285162,-535.992262,-9533.005238
468.557029,-38.285162,-516.849682,-9781.858789
468.559552,-153.140646,-1033.699363,-9801.001370
468.562074,-38.285162,-1473.978722,-9379.864592
468.564597,-0.000000,-1359.123237,-9724.431046
468.567120,-153.140646,-1148.554848,-9896.714274
468.569643,-57.427742,-1263.410333,-9533.005238
468.572166,-95.712904,-899.701298,-9552.147819
468.574688,-153.140646,-689.132909,-9877.571693
468.577211,-57.427742,-574.277424,-9609.575562
468.579734,-57.427742,-516.849682,-9571.290400
468.582257,-114.855485,-803.988394,-9820.143950
468.584780,-38.285162,-1148.554848,-9667.003304
468.587303,-133.998066,-1205.982590,-9743.573627
468.589825,-95.712904,-1359.123237,-9705.288466
468.592348,-76.570323,-1091.127106,-9552.147819
468.594871,-0.000000,-765.703232,-9820.143950
468.597394,-172.283227,-478.564520,-9724.431046
468.599917,-38.285162,-401.994197,-9705.288466
468.602440,-76.570323,-574.277424,-9552.147819
468.604962,-114.855485,-535.992262,-9724.431046
468.607485,-114.855485,-784.845813,-9590.432981
468.610008,-95.712904,-1129.412267,-9609.575562
468.612531,-95.712904,-1263.410333,-9762.716208
468.615054,-133.998066,-1416.550979,-9590.432981
468.617577,-19.142581,-1378.265818,-9762.716208
468.620099,-76.570323,-1110.269686,-9609.575562
468.622622,-57.427742,-861.416136,-9590.432981
468.625145,-114.855485,-593.420005,-9705.288466
468.627668,-57.427742,-784.845813,-9494.720077
468.630191,-95.712904,-918.843878,-9743.573627
468.632722,-114.855485,-746.560651,-9781.858789
468.635254,-38.285162,-918.843878,-9418.149754
468.637786,-172.283227,-1052.841944,-9762.716208
468.640317,-133.998066,-861.416136,-9686.145885
468.642849,-172.283227,-823.130974,-9628.718142
468.645381,-38.285162,-918.843878,-9628.718142
468.647912,-57.427742,-937.986459,-9609.575562
468.650444,-153.140646,-708.275490,-9705.288466
468.652976,-95.712904,-593.420005,-9801.001370
468.655507,-19.142581,-669.990328,-9494.720077
468.658039,-114.855485,-555.134843,-9552.147819
468.660570,-57.427742,-689.132909,-9801.001370
468.663102,-153.140646,-995.414202,-9418.149754
468.665634,-38.285162,-1282.552914,-9552.147819
468.668165,-76.570323,-1416.550979,-9839.286531
468.670697,-95.712904,-1301.695494,-9628.718142
468.673229,-172.283227,-1263.410333,-9724.431046
468.675760,-114.855485,-880.558717,-9686.145885
468.678292,-114.855485,-574.277424,-9609.575562
468.680823,-95.712904,-459.421939,-9647.860723
468.683355,-95.712904,-669.990328,-9743.573627
468.685887,-76.570323,-976.271621,-9571.290400
468.688418,-114.855485,-1129.412267,-9609.575562
468.690950,-172.283227,-1282.552914,-9724.431046
468.693482,-57.427742,-1129.412267,-9609.575562
468.696013,-133.998066,-842.273555,-9743.573627
468.698545,-95.712904,-727.418070,-9647.860723
468.701077,-76.570323,-689.132909,-9533.005238
468.703608,-133.998066,-459.421939,-9839.286531
468.706140,-57.427742,-631.705166,-9552.147819
468.708671,-57.427742,-880.558717,-9667.003304
468.711203,-0.000000,-1301.695494,-9762.716208
468.713735,-19.142581,-1473.978722,-9686.145885
468.716266,-95.712904,-1186.840010,-9743.573627
468.718798,-114.855485,-918.843878,-9590.432981
468.721330,-38.285162,-765.703232,-9705.288466
468.723861,-133.998066,-516.849682,-9705.288466
468.726393,-57.427742,-631.705166,-9571.290400
468.728925,-38.285162,-669.990328,-9628.718142
468.731456,-76.570323,-765.703232,-9724.431046
468.733995,-95.712904,-1110.269686,-9284.151688
468.736534,-133.998066,-1225.125171,-9743.573627
468.739072,-172.283227,-1033.699363,-10049.854920
468.741611,-153.140646,-976.271621,-9379.864592
468.744150,-19.142581,-1110.269686,-9724.431046
468.746689,-76.570323,-746.560651,-9609.575562
468.749227,-114.855485,-382.851616,-9628.718142
468.751766,-133.998066,-497.707101,-9743.573627
468.754305,-133.998066,-497.707101,-9533.005238
468.756844,-57.427742,-555.134843,-9456.434915
468.759382,-114.855485,-746.560651,-9801.001370
468.761921,-172.283227,-1225.125171,-9628.718142
468.764460,-57.427742,-1473.978722,-9456.434915
468.766999,-172.283227,-1378.265818,-9915.856854
468.769537,-76.570323,-1359.123237,-9801.001370
468.772076,-133.998066,-899.701298,-9513.862658
468.774615,-19.142581,-631.705166,-9801.001370
468.777154,-38.285162,-459.421939,-9647.860723
468.779692,-133.998066,-287.138712,-9552.147819
468.782231,-38.285162,-765.703232,-9705.288466
468.784770,-0.000000,-1148.554848,-9552.147819
468.787309,-38.285162,-1110.269686,-9609.575562
468.789847,-95.712904,-1244.267752,-9858.429112
468.792386,-76.570323,-1167.697429,-9533.005238
468.794925,-38.285162,-976.271621,-9686.145885
468.797464,-57.427742,-784.845813,-9724.431046
468.800002,-95.712904,-516.849682,-9705.288466
468.802541,-76.570323,-421.136778,-9418.149754
468.805080,-76.570323,-363.709035,-9762.716208
468.807618,-76.570323,-689.132909,-9571.290400
468.810157,-95.712904,-1148.554848,-9590.432981
468.812696,-95.712904,-1435.693560,-9973.284597
468.815235,-76.570323,-1569.691626,-9399.007173
468.817773,-172.283227,-1397.408398,-9762.716208
468.820312,-114.855485,-1071.984525,-9896.714274
468.822851,-133.998066,-842.273555,-9437.292334
468.825390,-95.712904,-440.279358,-9628.718142
468.827928,-19.142581,-478.564520,-9858.429112
468.830467,-133.998066,-306.281293,-9513.862658
468.833006,-76.570323,-631.705166,-9667.003304
468.835550,-95.712904,-1148.554848,-9456.434915
468.838094,-133.998066,-1320.838075,-9934.999435
468.840638,-133.998066,-1473.978722,-9628.718142
468.843182,-76.570323,-1512.263883,-9609.575562
468.845726,-76.570323,-937.986459,-9667.003304
468.848270,-76.570323,-497.707101,-9667.003304
468.850814,-76.570323,-267.996131,-9667.003304
468.853358,-57.427742,-287.138712,-9609.575562
468.855902,-76.570323,-210.568389,-9437.292334
468.858446,-172.283227,-650.847747,-9686.145885
468.860990,-0.000000,-1378.265818,-9801.001370
468.863534,-114.855485,-1493.121302,-9552.147819
468.866078,-38.285162,-1588.834206,-9781.858789
468.868622,-95.712904,-1454.836141,-9858.429112
468.871166,-38.285162,-1052.841944,-9686.145885
468.873709,-57.427742,-650.847747,-9533.005238
468.876253,-133.998066,-287.138712,-9801.001370
468.878797,-95.712904,-306.281293,-9628.718142
468.881341,-76.570323,-440.279358,-9628.718142
468.883885,-114.855485,-1148.554848,-9686.145885
468.886429,-153.140646,-1493.121302,-9705.288466
468.888973,-57.427742,-1493.121302,-9686.145885
468.891517,-153.140646,-1301.695494,-9743.573627
468.894061,-95.712904,-995.414202,-9628.718142
468.896605,-114.855485,-593.420005,-9647.860723
468.899149,-172.283227,-459.421939,-9705.288466
468.901693,-57.427742,-325.423874,-9628.718142
468.904237,-38.285162,-344.566454,-9513.862658
468.906781,-153.140646,-631.705166,-9686.145885
468.909325,-57.427742,-1052.841944,-9705.288466
468.911869,-57.427742,-1244.267752,-9628.718142
468.914413,-95.712904,-1493.121302,-9858.429112
468.916957,-38.285162,-1473.978722,-9762.716208
468.919501,-153.140646,-1205.982590,-9743.573627
468.922045,-95.712904,-899.701298,-9743.573627
468.924589,-38.285162,-535.992262,-9724.431046
468.927133,-95.712904,-401.994197,-9628.718142
468.929677,-114.855485,-478.564520,-9552.147819
468.932221,-95.712904,-689.132909,-9647.860723
468.934765,-0.000000,-1052.841944,-9437.292334
468.937276,-95.712904,-1167.697429,-9877.571693
468.939787,-114.855485,-1493.121302,-9858.429112
468.942298,-114.855485,-1282.552914,-9399.007173
468.944809,-76.570323,-861.416136,-9992.427178
468.947320,-114.855485,-440.279358,-9667.003304
468.949831,-57.427742,-497.707101,-9341.579430
468.952342,-76.570323,-325.423874,-9781.858789
468.954853,-114.855485,-325.423874,-9667.003304
468.957364,-95.712904,-957.129040,-9705.288466
468.959875,-153.140646,-1263.410333,-9743.573627
468.962386,-57.427742,-1339.980656,-9743.573627
468.964897,-38.285162,-1454.836141,-9571.290400
468.967408,-172.283227,-1282.552914,-9820.143950
468.969919,-0.000000,-1186.840010,-9647.860723
468.972430,-57.427742,-727.418070,-9590.432981
468.974941,-95.712904,-459.421939,-9839.286531
468.977452,-114.855485,-478.564520,-9418.149754
468.979963,-57.427742,-593.420005,-9571.290400
468.982475,-38.285162,-803.988394,-9647.860723
468.984986,-133.998066,-1148.554848,-9686.145885
468.987497,-172.283227,-1205.982590,-9647.860723
468.990008,-95.712904,-1339.980656,-9647.860723
468.992519,-114.855485,-1167.697429,-9667.003304
468.995030,-38.285162,-842.273555,-9667.003304
468.997541,-95.712904,-631.705166,-9647.860723
469.000052,-114.855485,-478.564520,-9705.288466
469.002563,-76.570323,-535.992262,-9513.862658
469.005074,-76.570323,-574.277424,-9667.003304
469.007585,-38.285162,-669.990328,-9801.001370
469.010096,-95.712904,-995.414202,-9647.860723
469.012607,-95.712904,-1320.838075,-9647.860723
469.015118,-133.998066,-1473.978722,-9801.001370
469.017629,-19.142581,-1359.123237,-9571.290400
469.020140,-114.855485,-976.271621,-9705.288466
469.022651,-153.140646,-746.560651,-9590.432981
469.025162,-38.285162,-516.849682,-9475.577496
469.027673,-19.142581,-516.849682,-9724.431046
469.030184,-19.142581,-574.277424,-9877.571693
469.032695,-38.285162,-1071.984525,-9303.294269
469.035206,-76.570323,-1244.267752,-9801.001370
469.037729,-133.998066,-1301.695494,-9877.571693
469.040251,-153.140646,-1339.980656,-9513.862658
469.042773,-57.427742,-1167.697429,-9724.431046
469.045296,-133.998066,-555.134843,-9781.858789
469.047818,-95.712904,-363.709035,-9494.720077
469.050341,-57.427742,-363.709035,-9647.860723
469.052863,-133.998066,-344.566454,-9667.003304
469.055386,-0.000000,-612.562586,-9513.862658
469.057908,-153.140646,-976.271621,-9820.143950
469.060430,-38.285162,-1473.978722,-9667.003304
469.062953,-95.712904,-1435.693560,-9628.718142
469.065475,-172.283227,-1282.552914,-9801.001370
469.067998,-76.570323,-1071.984525,-9705.288466
469.070520,-114.855485,-784.845813,-9494.720077
469.073042,-57.427742,-555.134843,-9743.573627
469.075565,-76.570323,-516.849682,-9590.432981
469.078087,-76.570323,-478.564520,-9494.720077
469.080610,-38.285162,-803.988394,-9647.860723
469.083132,-172.283227,-1091.127106,-9781.858789
469.085654,-57.427742,-1493.121302,-9571.290400
469.088177,-114.855485,-1359.123237,-9724.431046
469.090699,-114.855485,-1091.127106,-9839.286531
469.093222,-114.855485,-823.130974,-9571.290400
469.095744,-172.283227,-535.992262,-9628.718142
469.098267,-95.712904,-153.140646,-9724.431046
469.100789,-57.427742,-421.136778,-9475.577496
469.103311,-133.998066,-497.707101,-9609.575562
469.105834,-76.570323,-995.414202,-9609.575562
469.108356,-38.285162,-1378.265818,-9590.432981
469.110879,-95.712904,-1569.691626,-9820.143950
469.113401,-19.142581,-1588.834206,-9571.290400
469.115923,-95.712904,-1186.840010,-9667.003304
469.118446,-95.712904,-784.845813,-9781.858789
469.120968,-76.570323,-497.707101,-9609.575562
469.123491,-19.142581,-363.709035,-9686.145885
469.126013,-76.570323,-497.707101,-9705.288466
469.128535,-172.283227,-746.560651,-9705.288466
469.131058,-57.427742,-899.701298,-9762.716208
469.133580,-95.712904,-1301.695494,-9571.290400
469.136103,-57.427742,-1607.976787,-9609.575562
469.138634,-57.427742,-1454.836141,-9475.577496
469.141165,-114.855485,-823.130974,-10068.997501
469.143697,-76.570323,-516.849682,-9992.427178
469.146228,-57.427742,-574.277424,-9092.725880
469.148760,-57.427742,-382.851616,-9801.001370
469.151291,-76.570323,-325.423874,-9877.571693
469.153823,-114.855485,-516.849682,-9341.579430
469.156354,-38.285162,-1110.269686,-9571.290400
469.158885,-76.570323,-1320.838075,-9877.571693
469.161417,-38.285162,-1416.550979,-9705.288466
469.163948,-114.855485,-1512.263883,-9341.579430
469.166480,-38.285162,-1378.265818,-9839.286531
469.169011,-38.285162,-995.414202,-9647.860723
469.171542,-114.855485,-669.990328,-9437.292334
469.174074,-95.712904,-497.707101,-9896.714274
469.176605,-114.855485,-306.281293,-9667.003304
469.179137,-57.427742,-421.136778,-9475.577496
469.181668,-95.712904,-957.129040,-9762.716208
469.184199,-38.285162,-1473.978722,-9743.573627
469.186731,-133.998066,-1512.263883,-9571.290400
469.189262,-114.855485,-1397.408398,-9839.286531
469.191794,-95.712904,-976.271621,-9801.001370
469.194325,-95.712904,-650.847747,-9513.862658
469.196856,-133.998066,-401.994197,-9686.145885
469.199388,-133.998066,-401.994197,-9628.718142
469.201919,-95.712904,-459.421939,-9628.718142
469.204451,-172.283227,-727.418070,-9513.862658
469.206982,-76.570323,-918.843878,-9801.001370
469.209513,-76.570323,-1320.838075,-9647.860723
469.212045,-133.998066,-1435.693560,-9705.288466
469.214576,-95.712904,-1416.550979,-9724.431046
469.217108,-133.998066,-1110.269686,-9590.432981
469.219639,-95.712904,-689.132909,-9705.288466
469.222170,-0.000000,-555.134843,-9705.288466
469.224702,-114.855485,-574.277424,-9647.860723
469.227233,-57.427742,-612.562586,-9628.718142
469.229765,-57.427742,-708.275490,-9801.001370
469.232296,-95.712904,-1110.269686,-9437.292334
469.234827,-38.285162,-1263.410333,-9839.286531
469.237359,-57.427742,-1148.554848,-9858.429112
469.239862,-95.712904,-1167.697429,-9379.864592
469.242364,-57.427742,-861.416136,-9877.571693
469.244867,-133.998066,-650.847747,-9762.716208
469.247370,-95.712904,-478.564520,-9494.720077
469.249873,-95.712904,-497.707101,-9705.288466
469.252375,-114.855485,-421.136778,-9705.288466
469.254878,-76.570323,-669.990328,-9437.292334
469.257381,-95.712904,-1014.556782,-9896.714274
469.259883,-95.712904,-1435.693560,-9667.003304
469.262386,-76.570323,-1531.406464,-9494.720077
469.264889,-172.283227,-1339.980656,-9820.143950
469.267392,-76.570323,-1282.552914,-9781.858789
469.269894,-133.998066,-880.558717,-9399.007173
469.272397,-38.285162,-440.279358,-9705.288466
469.274900,-95.712904,-401.994197,-9724.431046
469.277403,-133.998066,-363.709035,-9513.862658
469.279905,-95.712904,-689.132909,-9590.432981
469.282408,-57.427742,-1052.841944,-9724.431046
469.284911,-133.998066,-1282.552914,-9456.434915
469.287413,-95.712904,-1454.836141,-9571.290400
469.289916,-76.570323,-1282.552914,-9705.288466
469.292419,-38.285162,-880.558717,-9552.147819
469.294922,-172.283227,-574.277424,-9571.290400
469.297424,-76.570323,-440.279358,-9762.716208
469.299927,-19.142581,-459.421939,-9628.718142
469.302430,-76.570323,-631.705166,-9609.575562
469.304933,-57.427742,-784.845813,-9839.286531
469.307435,-153.140646,-1071.984525,-9418.149754
469.309938,-133.998066,-1282.552914,-9628.718142
469.312441,-19.142581,-1397.408398,-9743.573627
469.314943,-153.140646,-1339.980656,-9705.288466
469.317446,-95.712904,-1205.982590,-9762.716208
469.319949,-95.712904,-784.845813,-9724.431046
469.322452,-153.140646,-535.992262,-9781.858789
469.324954,-172.283227,-459.421939,-9552.147819
469.327457,-38.285162,-555.134843,-9686.145885
469.329960,-38.285162,-746.560651,-9437.292334
469.332462,-133.998066,-976.271621,-9820.143950
469.334965,-114.855485,-1435.693560,-9743.573627
469.337468,-76.570323,-1627.119368,-9513.862658
469.339985,-133.998066,-1033.699363,-9896.714274
469.342501,-57.427742,-803.988394,-9973.284597
469.345018,-133.998066,-650.847747,-9284.151688
469.347534,-57.427742,-401.994197,-9743.573627
469.350051,-133.998066,-191.425808,-9954.142016
469.352568,-57.427742,-478.564520,-9494.720077
469.355084,-19.142581,-899.701298,-9399.007173
469.357601,-114.855485,-1052.841944,-9724.431046
469.360118,-114.855485,-1148.554848,-9686.145885
469.362634,-114.855485,-1301.695494,-9475.577496
469.365151,-114.855485,-1339.980656,-9801.001370
469.367667,-76.570323,-1052.841944,-9628.718142
469.370184,-38.285162,-899.701298,-9686.145885
469.372701,-114.855485,-727.418070,-9590.432981
469.375217,-57.427742,-593.420005,-9571.290400
469.377734,-38.285162,-612.562586,-9513.862658
469.380251,-76.570323,-727.418070,-9724.431046
469.382767,-76.570323,-1033.699363,-9705.288466
469.385284,-133.998066,-1282.552914,-9628.718142
469.387800,-95.712904,-1071.984525,-9724.431046
469.390317,-95.712904,-976.271621,-9705.288466
469.392834,-57.427742,-918.843878,-9609.575562
469.395350,-38.285162,-746.560651,-9705.288466
469.397867,-57.427742,-689.132909,-9571.290400
469.400384,-57.427742,-516.849682,-9571.290400
469.402900,-38.285162,-555.134843,-9762.716208
469.405417,-0.000000,-823.130974,-9513.862658
469.407933,-114.855485,-1148.554848,-9705.288466
469.410450,-133.998066,-1339.980656,-9820.143950
469.412967,-133.998066,-1569.691626,-9628.718142
469.415483,-133.998066,-1435.693560,-9590.432981
469.418000,-114.855485,-995.414202,-9915.856854
469.420517,-38.285162,-689.132909,-9667.003304
469.423033,-38.285162,-631.705166,-9322.436850
469.425550,-19.142581,-650.847747,-9762.716208
469.428066,-114.855485,-440.279358,-9820.143950
469.430583,-133.998066,-1014.556782,-9399.007173
469.433100,-153.140646,-1244.267752,-9820.143950
469.435616,-0.000000,-1244.267752,-9628.718142
469.438133,-76.570323,-976.271621,-9743.573627
469.440660,-133.998066,-765.703232,-10030.712339
469.443188,-76.570323,-746.560651,-9418.149754
469.445716,-19.142581,-650.847747,-9418.149754
469.448243,-114.855485,-325.423874,-10068.997501
469.450771,-133.998066,-363.709035,-9552.147819
469.453298,-38.285162,-765.703232,-9303.294269
469.455826,-114.855485,-937.986459,-9915.856854
469.458353,-95.712904,-1301.695494,-9934.999435
469.460881,-38.285162,-1684.547110,-9360.722011
469.463409,-172.283227,-1588.834206,-9839.286531
469.465936,-114.855485,-1397.408398,-9820.143950
469.468464,-76.570323,-880.558717,-9265.009107
469.470991,-95.712904,-363.709035,-9762.716208
469.473519,-76.570323,-114.855485,-9781.858789
469.476047,-57.427742,-191.425808,-9399.007173
469.478574,-57.427742,-784.845813,-9839.286531
469.481102,-57.427742,-1339.980656,-9705.288466
469.483629,-172.283227,-1569.691626,-9552.147819
469.486157,-133.998066,-1569.691626,-9839.286531
469.488684,-133.998066,-1244.267752,-9896.714274
469.491212,-76.570323,-746.560651,-9513.862658
469.493740,-57.427742,-497.707101,-9552.147819
469.496267,-114.855485,-114.855485,-9839.286531
469.498795,-57.427742,-153.140646,-9379.864592
469.501322,-57.427742,-440.279358,-9494.720077
469.503850,-95.712904,-880.558717,-9954.142016
469.506377,-95.712904,-1359.123237,-9609.575562
469.508905,-95.712904,-1780.260014,-9571.290400
469.511433,-133.998066,-1837.687757,-9762.716208
469.513960,-172.283227,-1397.408398,-9571.290400
469.516488,-76.570323,-784.845813,-9705.288466
469.519015,-114.855485,-401.994197,-9896.714274
469.521543,-38.285162,-95.712904,-9533.005238
469.524070,-38.285162,-363.709035,-9379.864592
469.526598,-114.855485,-631.705166,-9954.142016
469.529126,-133.998066,-1091.127106,-9399.007173
469.531653,-57.427742,-1512.263883,-9303.294269
469.534181,-133.998066,-1550.549045,-10049.854920
469.536708,-172.283227,-1339.980656,-9647.860723
469.539236,-95.712904,-918.843878,-9609.575562
469.541772,-38.285162,-746.560651,-9705.288466
469.544308,-57.427742,-421.136778,-9724.431046
469.546844,-19.142581,-382.851616,-9494.720077
469.549380,-95.712904,-401.994197,-9705.288466
469.551916,-19.142581,-784.845813,-9609.575562
469.554452,-57.427742,-1148.554848,-9494.720077
469.556988,-114.855485,-1435.693560,-9915.856854
469.559524,-133.998066,-1512.263883,-9781.858789
469.562060,-114.855485,-1282.552914,-9418.149754
469.564596,-76.570323,-1071.984525,-9820.143950
469.567132,-114.855485,-727.418070,-9724.431046
469.569668,-114.855485,-459.421939,-9418.149754
469.572204,-38.285162,-401.994197,-9781.858789
469.574740,-153.140646,-497.707101,-9628.718142
469.577276,-19.142581,-746.560651,-9552.147819
469.579812,-172.283227,-1052.841944,-9858.429112
469.582347,-172.283227,-1493.121302,-9686.145885
469.584883,-0.000000,-1397.408398,-9494.720077
469.587419,-133.998066,-1052.841944,-9647.860723
469.589955,-57.427742,-784.845813,-9820.143950
469.592491,-57.427742,-478.564520,-9475.577496
469.595027,-76.570323,-382.851616,-9743.573627
469.597563,-133.998066,-459.421939,-9667.003304
469.600099,-38.285162,-459.421939,-9552.147819
469.602635,-95.712904,-823.130974,-9609.575562
469.605171,-114.855485,-1091.127106,-9705.288466
469.607707,-57.427742,-1359.123237,-9724.431046
469.610243,-57.427742,-1454.836141,-9533.005238
469.612779,-114.855485,-1320.838075,-9820.143950
469.615315,-0.000000,-1225.125171,-9743.573627
469.617851,-114.855485,-823.130974,-9437.292334
469.620387,-114.855485,-421.136778,-9705.288466
469.622923,-133.998066,-440.279358,-9533.005238
469.625459,-76.570323,-459.421939,-9552.147819
469.627995,-95.712904,-669.990328,-9743.573627
469.630531,-114.855485,-1052.841944,-9399.007173
469.633067,-172.283227,-1359.123237,-9992.427178
469.635603,-95.712904,-1607.976787,-9418.149754
469.638139,-114.855485,-1263.410333,-9571.290400
469.640675,-76.570323,-803.988394,-10088.140082
469.643183,-114.855485,-612.562586,-9379.864592
469.645691,-19.142581,-421.136778,-9475.577496
469.648200,-76.570323,-287.138712,-10011.569758
469.650708,-76.570323,-459.421939,-9590.432981
469.653216,-0.000000,-937.986459,-9341.579430
469.655724,-133.998066,-1110.269686,-9915.856854
469.658233,-57.427742,-1454.836141,-9896.714274
469.660741,-172.283227,-1550.549045,-9341.579430
469.663249,-57.427742,-1378.265818,-9801.001370
469.665758,-133.998066,-957.129040,-9743.573627
469.668266,-114.855485,-765.703232,-9494.720077
469.670774,-172.283227,-440.279358,-9724.431046
469.673282,-0.000000,-497.707101,-9686.145885
469.675791,-57.427742,-535.992262,-9475.577496
469.678299,-114.855485,-880.558717,-9686.145885
469.680807,-133.998066,-1282.552914,-9781.858789
469.683315,-38.285162,-1359.123237,-9667.003304
469.685824,-57.427742,-1244.267752,-9724.431046
469.688332,-76.570323,-1110.269686,-9667.003304
469.690840,-114.855485,-727.418070,-9533.005238
469.693348,-95.712904,-478.564520,-9590.432981
469.695857,-76.570323,-421.136778,-9762.716208
469.698365,-57.427742,-478.564520,-9533.005238
469.700873,-133.998066,-823.130974,-9667.003304
469.703381,-76.570323,-1091.127106,-9839.286531
469.705890,-133.998066,-1263.410333,-9475.577496
469.708398,-57.427742,-1397.408398,-9724.431046
469.710906,-95.712904,-1263.410333,-9820.143950
469.713415,-95.712904,-1167.697429,-9513.862658
469.715923,-95.712904,-784.845813,-9686.145885
469.718431,-38.285162,-689.132909,-9705.288466
469.720939,-19.142581,-478.564520,-9437.292334
469.723448,-19.142581,-478.564520,-9667.003304
469.725956,-172.283227,-574.277424,-9781.858789
469.728464,-38.285162,-1071.984525,-9284.151688
469.730972,-76.570323,-1550.549045,-9609.575562
469.733481,-95.712904,-1282.552914,-10183.852986
469.735989,-153.140646,-1052.841944,-9475.577496
469.738497,-153.140646,-765.703232,-9934.999435
469.741005,-133.998066,-803.988394,-9513.862658
469.743527,-76.570323,-459.421939,-9647.860723
469.746048,-38.285162,-497.707101,-9705.288466
469.748570,-133.998066,-459.421939,-9647.860723
469.751091,-38.285162,-708.275490,-9513.862658
469.753613,-76.570323,-1033.699363,-9801.001370
469.756134,-133.998066,-1263.410333,-9858.429112
469.758655,-172.283227,-1397.408398,-9494.720077
469.761177,-114.855485,-1397.408398,-9915.856854
469.763698,-114.855485,-1129.412267,-9743.573627
469.766220,-133.998066,-899.701298,-9379.864592
469.768741,-76.570323,-650.847747,-9820.143950
469.771262,-95.712904,-612.562586,-9686.145885
469.773784,-114.855485,-593.420005,-9437.292334
469.776305,-57.427742,-995.414202,-9647.860723
469.778827,-95.712904,-1244.267752,-9743.573627
469.781348,-133.998066,-1378.265818,-9609.575562
469.783870,-38.285162,-1244.267752,-9609.575562
469.786391,-133.998066,-861.416136,-9743.573627
469.788912,-38.285162,-535.992262,-9609.575562
469.791434,-38.285162,-535.992262,-9456.434915
469.793955,-76.570323,-497.707101,-9762.716208
469.796477,-133.998066,-574.277424,-9647.860723
469.798998,-191.425808,-784.845813,-9533.005238
469.801519,-0.000000,-1225.125171,-9915.856854
469.804041,-76.570323,-1282.552914,-9437.292334
469.806562,-76.570323,-1225.125171,-9743.573627
469.809084,-38.285162,-1205.982590,-9820.143950
469.811605,-95.712904,-899.701298,-9456.434915
469.814127,-95.712904,-746.560651,-9896.714274
469.816648,-95.712904,-746.560651,-9647.860723
469.819169,-76.570323,-689.132909,-9513.862658
469.821691,-95.712904,-593.420005,-9647.860723
469.824212,-133.998066,-746.560651,-9781.858789
469.826734,-38.285162,-976.271621,-9379.864592
469.829255,-57.427742,-1205.982590,-9552.147819
469.831776,-114.855485,-1225.125171,-10317.851051
469.834298,-76.570323,-1416.550979,-9743.573627
469.836819,-57.427742,-1263.410333,-9245.866526
469.839341,-76.570323,-669.990328,-9973.284597
469.841862,-57.427742,-267.996131,-9667.003304
469.844394,-133.998066,-440.279358,-9379.864592
469.846925,-0.000000,-497.707101,-9915.856854
469.849456,-57.427742,-440.279358,-9437.292334
469.851988,-57.427742,-899.701298,-9705.288466
469.854519,-133.998066,-1359.123237,-9896.714274
469.857051,-76.570323,-1493.121302,-9360.722011
469.859582,-0.000000,-1416.550979,-9762.716208
469.862114,-133.998066,-1301.695494,-9896.714274
469.864645,-95.712904,-1033.699363,-9533.005238
469.867176,-57.427742,-669.990328,-9590.432981
469.869708,-38.285162,-574.277424,-9781.858789
469.872239,-57.427742,-325.423874,-9667.003304
469.874771,-76.570323,-612.562586,-9475.577496
469.877302,-76.570323,-1052.841944,-9820.143950
469.879834,-0.000000,-1359.123237,-9686.145885
469.882365,-19.142581,-1301.695494,-9533.005238
469.884896,-114.855485,-1320.838075,-9934.999435
469.887428,-95.712904,-957.129040,-9418.149754
469.889959,-57.427742,-593.420005,-9609.575562
469.892491,-133.998066,-248.853550,-9877.571693
469.895022,-95.712904,-421.136778,-9456.434915
469.897554,-114.855485,-535.992262,-9475.577496
469.900085,-114.855485,-880.558717,-9801.001370
469.902616,-95.712904,-1071.984525,-9724.431046
469.905148,-133.998066,-1263.410333,-9552.147819
469.907679,-38.285162,-1378.265818,-9724.431046
469.910211,-153.140646,-1186.840010,-9686.145885
469.912742,-133.998066,-1110.269686,-9667.003304
469.915274,-76.570323,-918.843878,-9743.573627
469.917805,-57.427742,-631.705166,-9686.145885
469.920336,-57.427742,-593.420005,-9628.718142
469.922868,-57.427742,-746.560651,-9762.716208
469.925399,-95.712904,-650.847747,-9571.290400
469.927931,-114.855485,-937.986459,-9494.720077
469.930462,-172.283227,-1033.699363,-10222.138147
469.932994,-57.427742,-1282.552914,-9590.432981
469.935525,-95.712904,-1225.125171,-9322.436850
469.938056,-95.712904,-823.130974,-10107.282662
469.940588,-95.712904,-650.847747,-9552.147819
469.943119,-76.570323,-555.134843,-9341.579430
469.945660,-19.142581,-535.992262,-9934.999435
469.948200,-133.998066,-344.566454,-9686.145885
469.950740,-95.712904,-746.560651,-9303.294269
469.953280,-133.998066,-1129.412267,-9896.714274
469.955820,-133.998066,-1282.552914,-9820.143950
469.958360,-57.427742,-1550.549045,-9322.436850
469.960901,-133.998066,-1454.836141,-9992.427178
469.963441,-57.427742,-1282.552914,-9628.718142
469.965981,-57.427742,-823.130974,-9341.579430
469.968521,-76.570323,-478.564520,-9954.142016
469.971061,-95.712904,-172.283227,-9705.288466
469.973602,-76.570323,-421.136778,-9284.151688
469.976142,-133.998066,-861.416136,-9934.999435
469.978682,-76.570323,-1301.695494,-9494.720077
469.981222,-95.712904,-1512.263883,-9647.860723
469.983762,-133.998066,-1473.978722,-9839.286531
469.986302,-76.570323,-1205.982590,-9743.573627
469.988843,-38.285162,-689.132909,-9647.860723
469.991383,-57.427742,-497.707101,-9743.573627
469.993923,-76.570323,-344.566454,-9686.145885
469.996463,-114.855485,-421.136778,-9437.292334
469.999003,-76.570323,-574.277424,-9686.145885
470.001544,-114.855485,-803.988394,-9647.860723
470.004084,-19.142581,-1301.695494,-9418.149754
470.006624,-76.570323,-1512.263883,-9858.429112
470.009164,-133.998066,-1569.691626,-9686.145885
470.011704,-57.427742,-1339.980656,-9552.147819
470.014244,-114.855485,-937.986459,-9762.716208
470.016785,-76.570323,-765.703232,-9705.288466
470.019325,-133.998066,-459.421939,-9513.862658
470.021865,-76.570323,-191.425808,-9781.858789
470.024405,-114.855485,-382.851616,-9513.862658
470.026945,-114.855485,-689.132909,-9379.864592
470.029486,-38.285162,-976.271621,-9858.429112
470.032026,-114.855485,-1263.410333,-10183.852986
470.034566,-95.712904,-1799.402595,-9418.149754
470.037106,-57.427742,-1646.261949,-9494.720077
470.039646,-172.283227,-784.845813,-10107.282662
470.042186,-133.998066,-344.566454,-9456.434915
470.044727,-95.712904,-306.281293,-9418.149754
470.047273,-57.427742,-95.712904,-9973.284597
470.049820,-38.285162,-153.140646,-9360.722011
470.052367,-153.140646,-765.703232,-9667.003304
470.054913,-76.570323,-1473.978722,-9762.716208
470.057460,-76.570323,-1856.830338,-9494.720077
470.060007,-57.427742,-1799.402595,-9743.573627
470.062553,-114.855485,-1569.691626,-9762.716208
470.065100,-95.712904,-957.129040,-9494.720077
470.067647,-76.570323,-440.279358,-9609.575562
470.070193,-114.855485,-114.855485,-9839.286531
470.072740,-76.570323,-191.425808,-9418.149754
470.075287,-38.285162,-727.418070,-9533.005238
470.077833,-95.712904,-1091.127106,-9896.714274
470.080380,-95.712904,-1435.693560,-9552.147819
470.082927,-172.283227,-1607.976787,-9552.147819
470.085473,-76.570323,-1282.552914,-10030.712339
470.088020,-153.140646,-899.701298,-9533.005238
470.090567,-133.998066,-535.992262,-9437.292334
470.093113,-76.570323,-287.138712,-9934.999435
470.095660,-133.998066,-248.853550,-9437.292334
470.098207,-38.285162,-478.564520,-9647.860723
470.100753,-153.140646,-708.275490,-9724.431046
470.103300,-133.998066,-1052.841944,-9418.149754
470.105847,-0.000000,-1435.693560,-9686.145885
470.108393,-153.140646,-1569.691626,-9858.429112
470.110940,-38.285162,-1378.265818,-9647.860723
470.113487,-133.998066,-1014.556782,-9667.003304
470.116033,-57.427742,-593.420005,-9801.001370
470.118580,-57.427742,-306.281293,-9667.003304
470.121127,-38.285162,-325.423874,-9494.720077
470.123673,-133.998066,-516.849682,-9647.860723
470.126220,-95.712904,-535.992262,-9647.860723
470.128772,-57.427742,-1244.267752,-9399.007173
470.131324,-153.140646,-1569.691626,-10164.710405
470.133875,-95.712904,-1780.260014,-9456.434915
470.136427,-38.285162,-1186.840010,-9533.005238
470.138979,-153.140646,-803.988394,-10088.140082
470.141530,-38.285162,-612.562586,-9399.007173
470.144082,-19.142581,-363.709035,-9494.720077
470.146634,-76.570323,-267.996131,-9954.142016
470.149186,-76.570323,-440.279358,-9494.720077
470.151737,-114.855485,-842.273555,-9418.149754
470.154289,-95.712904,-1225.125171,-9820.143950
470.156841,-172.283227,-1301.695494,-9667.003304
470.159392,-172.283227,-1454.836141,-9475.577496
470.161944,-95.712904,-1339.980656,-9896.714274
470.164496,-153.140646,-1071.984525,-9609.575562
470.167048,-57.427742,-823.130974,-9456.434915
470.169599,-76.570323,-535.992262,-9781.858789
470.172151,-95.712904,-344.566454,-9762.716208
470.174703,-38.285162,-459.421939,-9418.149754
470.177254,-172.283227,-784.845813,-9762.716208
470.179806,-133.998066,-1263.410333,-9628.718142
470.182358,-76.570323,-1435.693560,-9533.005238
470.184910,-95.712904,-1416.550979,-9686.145885
470.187461,-133.998066,-1071.984525,-9724.431046
470.190013,-95.712904,-708.275490,-9647.860723
470.192565,-95.712904,-574.277424,-9781.858789
470.195116,-76.570323,-401.994197,-9609.575562
470.197668,-133.998066,-401.994197,-9590.432981
470.200220,-95.712904,-631.705166,-9628.718142
470.202772,-76.570323,-995.414202,-9552.147819
470.205323,-76.570323,-1205.982590,-9686.145885
470.207875,-172.283227,-1378.265818,-9724.431046
470.210427,-95.712904,-1416.550979,-9590.432981
470.212979,-133.998066,-1148.554848,-9686.145885
470.215530,-133.998066,-899.701298,-9743.573627
470.218082,-95.712904,-727.418070,-9590.432981
470.220634,-95.712904,-555.134843,-9571.290400
470.223185,-95.712904,-497.707101,-9724.431046
470.225737,-95.712904,-459.421939,-9705.288466
470.228289,-38.285162,-1052.841944,-9399.007173
470.230811,-114.855485,-1320.838075,-9743.573627
470.233333,-172.283227,-1301.695494,-9934.999435
470.235856,-172.283227,-1359.123237,-9456.434915
470.238378,-114.855485,-1014.556782,-9647.860723
470.240901,-95.712904,-650.847747,-9686.145885
470.243423,-38.285162,-287.138712,-9437.292334
470.245945,-133.998066,-229.710970,-9858.429112
470.248468,-76.570323,-267.996131,-9571.290400
470.250990,-76.570323,-497.707101,-9475.577496
470.253513,-95.712904,-995.414202,-9647.860723
470.256035,-95.712904,-1569.691626,-9743.573627
470.258558,-95.712904,-1684.547110,-9399.007173
470.261080,-76.570323,-1588.834206,-9839.286531
470.263602,-114.855485,-1052.841944,-9724.431046
470.266125,-133.998066,-593.420005,-9418.149754
470.268647,-57.427742,-325.423874,-9954.142016
470.271170,-76.570323,-267.996131,-9552.147819
470.273692,-95.712904,-363.709035,-9571.290400
470.276214,-76.570323,-842.273555,-9609.575562
470.278737,-172.283227,-1359.123237,-9705.288466
470.281259,-76.570323,-1454.836141,-9494.720077
470.283782,-57.427742,-1493.121302,-9667.003304
470.286304,-114.855485,-1110.269686,-9915.856854
470.288826,-114.855485,-823.130974,-9437.292334
470.291349,-76.570323,-593.420005,-9552.147819
470.293871,-114.855485,-267.996131,-9992.427178
470.296394,-57.427742,-363.709035,-9456.434915
470.298916,-95.712904,-612.562586,-9743.573627
470.301438,-76.570323,-861.416136,-9724.431046
470.303961,-95.712904,-1263.410333,-9494.720077
470.306483,-172.283227,-1339.980656,-9839.286531
470.309006,-57.427742,-1493.121302,-9705.288466
470.311528,-114.855485,-1205.982590,-9456.434915
470.314051,-133.998066,-976.271621,-9724.431046
470.316573,-38.285162,-842.273555,-9552.147819
470.319095,-76.570323,-593.420005,-9571.290400
470.321618,-76.570323,-459.421939,-9724.431046
470.324140,-114.855485,-574.277424,-9571.290400
470.326663,-95.712904,-803.988394,-9533.005238
470.329185,-172.283227,-1148.554848,-9820.143950
470.331718,-76.570323,-1416.550979,-10011.569758
470.334250,-153.140646,-1301.695494,-9513.862658
470.336783,-57.427742,-1282.552914,-9571.290400
470.339315,-76.570323,-746.560651,-9647.860723
470.341848,-38.285162,-153.140646,-9590.432981
470.344381,-57.427742,-248.853550,-9686.145885
470.346913,-76.570323,-363.709035,-9705.288466
470.349446,-57.427742,-344.566454,-9571.290400
470.351978,-38.285162,-842.273555,-9628.718142
470.354511,-153.140646,-1416.550979,-9896.714274
470.357044,-153.140646,-1684.547110,-9399.007173
470.359576,-57.427742,-1914.258080,-9762.716208
470.362109,-76.570323,-1741.974853,-9858.429112
470.364641,-38.285162,-1110.269686,-9379.864592
470.367174,-76.570323,-516.849682,-9686.145885
470.369707,-95.712904,-114.855485,-9801.001370
470.372239,-57.427742,-133.998066,-9399.007173
470.374772,-95.712904,-574.277424,-9647.860723
470.377304,-38.285162,-1033.699363,-9762.716208
470.379837,-76.570323,-1416.550979,-9705.288466
470.382370,-153.140646,-1531.406464,-9590.432981
470.384902,-0.000000,-1550.549045,-9743.573627
470.387435,-95.712904,-861.416136,-9494.720077
470.389967,-95.712904,-459.421939,-9781.858789
470.392500,-57.427742,-287.138712,-9628.718142
470.395033,-57.427742,-191.425808,-9513.862658
470.397565,-38.285162,-325.423874,-9820.143950
470.400098,-133.998066,-631.705166,-9552.147819
470.402630,-38.285162,-1071.984525,-9418.149754
470.405163,-114.855485,-1320.838075,-9743.573627
470.407696,-38.285162,-1837.687757,-9781.858789
470.410228,-133.998066,-1569.691626,-9494.720077
470.412761,-57.427742,-1129.412267,-9801.001370
470.415293,-57.427742,-631.705166,-9609.575562
470.417826,-38.285162,-172.283227,-9437.292334
470.420359,-95.712904,-153.140646,-9590.432981
470.422891,-95.712904,-421.136778,-9839.286531
470.425424,-133.998066,-516.849682,-9552.147819
470.427956,-38.285162,-1205.982590,-9743.573627
470.430489,-133.998066,-1588.834206,-9839.286531
470.433030,-95.712904,-1703.689691,-9341.579430
470.435570,-172.283227,-1225.125171,-9954.142016
470.438111,-76.570323,-1148.554848,-9686.145885
470.440652,-38.285162,-650.847747,-9188.438784
470.443192,-38.285162,-95.712904,-10011.569758
470.445733,-95.712904,-57.427742,-9801.001370
470.448273,-153.140646,-248.853550,-9265.009107
470.450814,-76.570323,-746.560651,-9724.431046
470.453355,-95.712904,-1225.125171,-9724.431046
470.455895,-76.570323,-1435.693560,-9667.003304
470.458436,-172.283227,-1741.974853,-9686.145885
470.460977,-114.855485,-1550.549045,-9686.145885
470.463517,-95.712904,-957.129040,-9762.716208
470.466058,-114.855485,-631.705166,-9705.288466
470.468599,-76.570323,-516.849682,-9667.003304
470.471139,-76.570323,-363.709035,-9456.434915
470.473680,-57.427742,-421.136778,-9781.858789
470.476220,-95.712904,-957.129040,-9628.718142
470.478761,-114.855485,-1397.408398,-9418.149754
470.481302,-0.000000,-1473.978722,-9896.714274
470.483842,-95.712904,-1263.410333,-9762.716208
470.486383,-133.998066,-957.129040,-9628.718142
470.488924,-95.712904,-727.418070,-9724.431046
470.491464,-133.998066,-535.992262,-9513.862658
470.494005,-57.427742,-325.423874,-9609.575562
470.496545,-153.140646,-344.566454,-9820.143950
470.499086,-57.427742,-593.420005,-9494.720077
470.501627,-38.285162,-746.560651,-9552.147819
470.504167,-133.998066,-1225.125171,-9839.286531
470.506708,-95.712904,-1627.119368,-9628.718142
470.509249,-133.998066,-1627.119368,-9590.432981
470.511789,-38.285162,-1397.408398,-9743.573627
470.514330,-172.283227,-937.986459,-9724.431046
470.516870,-38.285162,-689.132909,-9360.722011
470.519411,-95.712904,-325.423874,-9609.575562
470.521952,-57.427742,-210.568389,-9533.005238
470.524492,-133.998066,-382.851616,-9686.145885
470.527033,-38.285162,-1052.841944,-9341.579430
470.529574,-95.712904,-1473.978722,-9686.145885
470.532114,-133.998066,-1531.406464,-9801.001370
470.534661,-114.855485,-1397.408398,-9686.145885
470.537208,-38.285162,-1225.125171,-9647.860723
470.539755,-172.283227,-516.849682,-9533.005238
470.542301,-95.712904,-287.138712,-9762.716208
470.544848,-57.427742,-363.709035,-9571.290400
470.547395,-38.285162,-229.710970,-9552.147819
470.549942,-95.712904,-459.421939,-9647.860723
470.552488,-153.140646,-765.703232,-9686.145885
470.555035,-114.855485,-1205.982590,-9571.290400
470.557582,-0.000000,-1588.834206,-9418.149754
470.560129,-114.855485,-1703.689691,-9954.142016
470.562675,-133.998066,-1435.693560,-9686.145885
470.565222,-114.855485,-1033.699363,-9590.432981
470.567769,-95.712904,-669.990328,-9820.143950
470.570316,-95.712904,-210.568389,-9513.862658
470.572862,-95.712904,-153.140646,-9724.431046
470.575409,-38.285162,-516.849682,-9609.575562
470.577956,-133.998066,-937.986459,-9456.434915
470.580503,-76.570323,-1397.408398,-9724.431046
470.583050,-38.285162,-1569.691626,-9801.001370
470.585596,-114.855485,-1493.121302,-9686.145885
470.588143,-133.998066,-1167.697429,-9533.005238
470.590690,-95.712904,-650.847747,-9686.145885
470.593237,-114.855485,-210.568389,-9628.718142
470.595783,-114.855485,-133.998066,-9494.720077
470.598330,-114.855485,-210.568389,-9647.860723
470.600877,-76.570323,-478.564520,-9590.432981
470.603424,-76.570323,-1167.697429,-9609.575562
470.605970,-95.712904,-1550.549045,-9762.716208
470.608517,-133.998066,-1588.834206,-9513.862658
470.611064,-76.570323,-1416.550979,-9781.858789
470.613611,-153.140646,-1091.127106,-9820.143950
470.616158,-95.712904,-708.275490,-9513.862658
470.618704,-114.855485,-325.423874,-9743.573627
470.621251,-114.855485,-325.423874,-9647.860723
470.623798,-114.855485,-516.849682,-9494.720077
470.626345,-133.998066,-631.705166,-9762.716208
470.628891,-172.283227,-1244.267752,-9571.290400
470.631438,-114.855485,-1761.117434,-9915.856854
470.633985,-76.570323,-1646.261949,-9379.864592
470.636537,-95.712904,-1052.841944,-9877.571693
470.639089,-133.998066,-650.847747,-9858.429112
470.641641,-114.855485,-574.277424,-9322.436850
470.644193,-57.427742,-133.998066,-9590.432981
470.646745,-76.570323,-267.996131,-9934.999435
470.649297,-57.427742,-497.707101,-9456.434915
470.651850,-172.283227,-899.701298,-9360.722011
470.654402,-38.285162,-1225.125171,-10049.854920
470.656954,-114.855485,-1339.980656,-9647.860723
470.659506,-57.427742,-1646.261949,-9303.294269
470.662058,-114.855485,-1339.980656,-10011.569758
470.664610,-76.570323,-1014.556782,-9724.431046
470.667162,-57.427742,-803.988394,-9265.009107
470.669714,-95.712904,-440.279358,-9896.714274
470.672266,-38.285162,-421.136778,-9552.147819
470.674818,-114.855485,-478.564520,-9552.147819
470.677370,-76.570323,-976.271621,-9820.143950
470.679923,-172.283227,-1244.267752,-9628.718142
470.682475,-95.712904,-1473.978722,-9494.720077
470.685027,-76.570323,-1454.836141,-9762.716208
470.687579,-57.427742,-1148.554848,-9743.573627
470.690131,-95.712904,-708.275490,-9590.432981
470.692683,-57.427742,-516.849682,-9686.145885
470.695235,-95.712904,-459.421939,-9533.005238
470.697787,-38.285162,-401.994197,-9628.718142
470.700339,-133.998066,-650.847747,-9743.573627
470.702891,-95.712904,-823.130974,-9705.288466
470.705443,-95.712904,-1225.125171,-9552.147819
470.707996,-133.998066,-1397.408398,-9839.286531
470.710548,-76.570323,-1378.265818,-9705.288466
470.713100,-38.285162,-1263.410333,-9513.862658
470.715652,-76.570323,-937.986459,-9877.571693
470.718204,-133.998066,-497.707101,-9705.288466
470.720756,-153.140646,-401.994197,-9360.722011
470.723308,-95.712904,-363.709035,-9820.143950
470.725860,-114.855485,-421.136778,-9762.716208
470.728412,-76.570323,-937.986459,-9265.009107
470.730964,-76.570323,-1512.263883,-10030.712339
470.733516,-19.142581,-1875.972918,-9341.579430
470.736069,-191.425808,-1205.982590,-9801.001370
470.738624,-153.140646,-918.843878,-10164.710405
470.741180,-76.570323,-957.129040,-9322.436850
470.743736,-38.285162,-363.709035,-9399.007173
470.746292,-76.570323,-76.570323,-10107.282662
470.748848,-76.570323,-19.142581,-9686.145885
470.751404,-57.427742,-574.277424,-9092.725880
470.753960,-76.570323,-1033.699363,-9992.427178
470.756515,-133.998066,-1339.980656,-9762.716208
470.759071,-76.570323,-1703.689691,-9188.438784
470.761627,-133.998066,-1627.119368,-10202.995566
470.764183,-172.283227,-1378.265818,-9705.288466
470.766739,-114.855485,-957.129040,-9475.577496
470.769295,-95.712904,-478.564520,-10088.140082
470.771850,-95.712904,-95.712904,-9571.290400
470.774406,-133.998066,-95.712904,-9399.007173
470.776962,-76.570323,-574.277424,-9705.288466
470.779518,-76.570323,-976.271621,-9743.573627
470.782074,-114.855485,-1397.408398,-9647.860723
470.784630,-95.712904,-1875.972918,-9858.429112
470.787186,-172.283227,-1531.406464,-9609.575562
470.789741,-95.712904,-823.130974,-9609.575562
470.792297,-95.712904,-478.564520,-9801.001370
470.794853,-95.712904,-153.140646,-9647.860723
470.797409,-95.712904,-133.998066,-9475.577496
470.799965,-153.140646,-229.710970,-9724.431046
470.802521,-57.427742,-727.418070,-9647.860723
470.805077,-76.570323,-1263.410333,-9341.579430
470.807632,-38.285162,-1684.547110,-9934.999435
470.810188,-172.283227,-1952.543242,-9781.858789
470.812744,-172.283227,-1684.547110,-9533.005238
470.815300,-38.285162,-1167.697429,-9801.001370
470.817856,-57.427742,-631.705166,-9667.003304
470.820412,-38.285162,-95.712904,-9533.005238
470.822968,-76.570323,-57.427742,-9801.001370
470.825523,-133.998066,-497.707101,-9437.292334
470.828079,-57.427742,-957.129040,-9475.577496
470.830635,-133.998066,-1397.408398,-9973.284597
470.833191,-172.283227,-1818.545176,-9705.288466
470.835747,-38.285162,-1914.258080,-9437.292334
470.838303,-57.427742,-1244.267752,-9686.145885
470.840861,-133.998066,-459.421939,-9992.427178
470.843419,-95.712904,-229.710970,-9322.436850
470.845977,-95.712904,-153.140646,-9705.288466
470.848535,-153.140646,0.000000,-9781.858789
470.851093,-114.855485,-382.851616,-9456.434915
470.853652,-114.855485,-1052.841944,-9533.005238
470.856210,-38.285162,-1531.406464,-9858.429112
470.858768,-95.712904,-1684.547110,-9590.432981
470.861326,-153.140646,-1454.836141,-9877.571693
470.863884,-57.427742,-1244.267752,-9571.290400
470.866442,-0.000000,-803.988394,-9552.147819
470.869001,-133.998066,-440.279358,-9667.003304
470.871559,-57.427742,-421.136778,-9647.860723
470.874117,-95.712904,-440.279358,-9494.720077
470.876675,-0.000000,-861.416136,-9724.431046
470.879233,-153.140646,-1148.554848,-9647.860723
470.881792,-57.427742,-1435.693560,-9686.145885
470.884350,-153.140646,-1416.550979,-9724.431046
470.886908,-172.283227,-1282.552914,-9724.431046
470.889466,-95.712904,-861.416136,-9552.147819
470.892024,-57.427742,-516.849682,-9724.431046
470.894582,-38.285162,-363.709035,-9743.573627
470.897141,-95.712904,-440.279358,-9303.294269
470.899699,-76.570323,-612.562586,-9781.858789
470.902257,-133.998066,-650.847747,-9762.716208
470.904815,-38.285162,-957.129040,-9475.577496
470.907373,-133.998066,-1205.982590,-9781.858789
470.909931,-38.285162,-1627.119368,-9724.431046
470.912490,-114.855485,-1588.834206,-9590.432981
470.915048,-95.712904,-1416.550979,-9705.288466
470.917606,-95.712904,-995.414202,-9762.716208
470.920164,-172.283227,-306.281293,-9667.003304
470.922722,-95.712904,-172.283227,-9513.862658
470.925280,-133.998066,-325.423874,-9820.143950
470.927839,-114.855485,-421.136778,-9647.860723
470.930397,-133.998066,-1110.269686,-9360.722011
470.932955,-153.140646,-1550.549045,-9934.999435
470.935513,-95.712904,-1799.402595,-9513.862658
470.938071,-38.285162,-1416.550979,-9399.007173
470.940629,-76.570323,-765.703232,-10107.282662
470.943190,-114.855485,-421.136778,-9552.147819
470.945751,-95.712904,-382.851616,-9284.151688
470.948311,-57.427742,-133.998066,-10107.282662
470.950872,-114.855485,-133.998066,-9475.577496
470.953432,-95.712904,-803.988394,-9360.722011
470.955993,-19.142581,-1167.697429,-9896.714274
470.958553,-153.140646,-1378.265818,-9667.003304
470.961114,-95.712904,-1761.117434,-9552.147819
470.963674,-133.998066,-1761.117434,-9877.571693
470.966235,-38.285162,-1282.552914,-9667.003304
470.968796,-38.285162,-727.418070,-9456.434915
470.971356,-57.427742,-133.998066,-10049.854920
470.973917,-57.427742,-114.855485,-9475.577496
470.976477,-114.855485,-344.566454,-9437.292334
470.979038,-38.285162,-880.558717,-10011.569758
470.981598,-38.285162,-1359.123237,-9379.864592
470.984159,-114.855485,-1646.261949,-9456.434915
470.986719,-76.570323,-1531.406464,-9896.714274
470.989280,-153.140646,-1301.695494,-9590.432981
470.991841,-38.285162,-918.843878,-9533.005238
470.994401,-153.140646,-535.992262,-9762.716208
470.996962,-172.283227,-287.138712,-9667.003304
470.999522,-19.142581,-325.423874,-9552.147819
471.002083,-57.427742,-593.420005,-9686.145885
471.004643,-57.427742,-727.418070,-9705.288466
471.007204,-76.570323,-1033.699363,-9533.005238
471.009764,-76.570323,-1359.123237,-9801.001370
471.012325,-172.283227,-1493.121302,-9571.290400
471.014886,-19.142581,-1397.408398,-9571.290400
471.017446,-172.283227,-976.271621,-9781.858789
471.020007,-133.998066,-746.560651,-9628.718142
471.022567,-0.000000,-612.562586,-9475.577496
471.025128,-95.712904,-363.709035,-9743.573627
471.027688,-95.712904,-133.998066,-9839.286531
