#time,accel_x,accel_y,accel_z
332.087335,766.095498,222.061783,9622.677246
332.087643,459.657299,-0.000000,9770.718434
332.087951,689.485948,-0.000000,9918.759623
332.088258,612.876398,-0.000000,9770.718434
332.088566,766.095498,296.082377,9918.759623
332.088874,842.705048,-0.000000,9326.594869
332.089182,766.095498,370.102971,9474.636058
332.089490,689.485948,296.082377,9474.636058
332.089798,689.485948,370.102971,9474.636058
332.090106,612.876398,444.123565,9696.697840
332.090414,919.314598,370.102971,9696.697840
332.090722,919.314598,-0.000000,9770.718434
332.091030,612.876398,-0.000000,9918.759623
332.091337,383.047749,-0.000000,9548.656652
332.091645,229.828649,-0.000000,9548.656652
332.091953,536.266849,370.102971,9474.636058
332.092261,536.266849,148.041188,9548.656652
332.092569,842.705048,222.061783,9548.656652
332.092877,612.876398,296.082377,9622.677246
332.093185,766.095498,222.061783,9548.656652
332.093493,153.219100,222.061783,9992.780217
332.093801,306.438199,-0.000000,9696.697840
332.094109,536.266849,296.082377,9770.718434
332.094416,612.876398,148.041188,9622.677246
332.094724,612.876398,296.082377,9474.636058
332.095032,612.876398,-222.061783,9696.697840
332.095340,536.266849,-0.000000,9918.759623
332.095648,766.095498,-0.000000,9326.594869
332.095956,536.266849,-0.000000,9622.677246
332.096264,612.876398,-0.000000,9474.636058
332.096572,459.657299,-0.000000,9474.636058
332.096880,536.266849,-0.000000,9548.656652
332.097188,766.095498,370.102971,9548.656652
332.097495,689.485948,148.041188,9918.759623
332.097803,459.657299,-0.000000,9474.636058
332.098111,1225.752797,-0.000000,9992.780217
332.098419,995.924147,-222.061783,9770.718434
332.098727,919.314598,-370.102971,9770.718434
332.099035,612.876398,-740.205942,9918.759623
332.099343,612.876398,-518.144159,9918.759623
332.099651,842.705048,-518.144159,9770.718434
332.099959,1378.971896,-222.061783,10066.800811
332.100266,1149.143247,-148.041188,9770.718434
332.100574,2068.457845,296.082377,8956.491898
332.100882,2068.457845,222.061783,8512.368333
332.101190,2374.896044,740.205942,9030.512492
332.101498,2145.067394,592.164754,9104.533087
332.101806,1915.238745,296.082377,9326.594869
332.102114,1762.019645,296.082377,9474.636058
332.102422,1455.581446,370.102971,10066.800811
332.102730,1838.629195,-0.000000,10140.821405
332.103038,2221.676944,-0.000000,9696.697840
332.103345,1302.362347,296.082377,9992.780217
332.103653,1915.238745,-0.000000,9918.759623
332.103961,2145.067394,-222.061783,10066.800811
332.104269,1915.238745,-0.000000,9992.780217
332.104577,2298.286494,222.061783,9548.656652
332.104885,2451.505594,296.082377,9474.636058
332.105193,2145.067394,222.061783,9400.615463
332.105501,2528.115143,814.226536,9844.739029
332.105809,2681.334243,444.123565,9992.780217
332.106117,2528.115143,148.041188,9474.636058
332.106424,2451.505594,296.082377,9622.677246
332.106732,2451.505594,-0.000000,9918.759623
332.107040,2757.943793,296.082377,9992.780217
332.107348,2604.724693,-148.041188,9622.677246
332.107656,2987.772442,-0.000000,9696.697840
332.107964,2528.115143,-296.082377,9992.780217
332.108272,2528.115143,-296.082377,9992.780217
332.108580,2681.334243,-74.020594,10140.821405
332.108888,2911.162892,-148.041188,9770.718434
332.109195,3217.601092,-0.000000,9844.739029
332.109503,3447.429741,-0.000000,9696.697840
332.109811,4060.306139,-0.000000,9400.615463
332.110119,4060.306139,592.164754,9252.574275
332.110427,4519.963438,592.164754,8956.491898
332.110735,4366.744339,592.164754,9400.615463
332.111043,4519.963438,370.102971,9400.615463
332.111351,4136.915689,296.082377,9252.574275
332.111659,4290.134789,148.041188,9474.636058
332.111967,4213.525239,370.102971,9696.697840
332.112274,4136.915689,-0.000000,9770.718434
332.112582,4136.915689,222.061783,9474.636058
332.112890,4596.572988,888.247130,9548.656652
332.113198,4290.134789,814.226536,8882.471304
332.113506,4519.963438,1184.329507,9178.553681
332.113814,4673.182538,1406.391290,8956.491898
332.114122,4596.572988,1258.350101,9030.512492
332.114430,4673.182538,962.267725,9104.533087
332.114738,4366.744339,1036.288319,9178.553681
332.115046,4673.182538,1406.391290,9252.574275
332.115353,3217.601092,592.164754,9474.636058
332.115661,3600.648841,592.164754,10362.883188
332.115969,2757.943793,148.041188,10510.924376
332.116277,3217.601092,370.102971,10140.821405
332.116585,2528.115143,296.082377,9844.739029
332.116893,2451.505594,592.164754,10140.821405
332.117201,2528.115143,740.205942,10066.800811
332.117509,2451.505594,444.123565,9474.636058
332.117817,2604.724693,592.164754,10066.800811
332.118125,2068.457845,-0.000000,9844.739029
332.118432,2145.067394,-148.041188,10288.862594
332.118740,1225.752797,-148.041188,9992.780217
332.119048,1302.362347,-592.164754,10436.903782
332.119356,1455.581446,-962.267725,10362.883188
332.119664,2374.896044,-1036.288319,10436.903782
332.119972,1378.971896,-1554.432478,10584.944971
332.120280,2451.505594,-1998.556043,10066.800811
332.120588,2451.505594,-1776.494261,10288.862594
332.120896,3064.381992,-1924.535449,9844.739029
332.121203,3524.039291,-1332.370696,9548.656652
332.121511,3753.867940,-666.185348,9104.533087
332.121819,4519.963438,-592.164754,9400.615463
332.122127,5286.058936,148.041188,8586.388927
332.122435,4826.401637,888.247130,8438.347739
332.122743,5362.668486,740.205942,8734.430116
332.123051,5132.839837,962.267725,8364.327145
332.123359,4826.401637,518.144159,8438.347739
332.123667,4213.525239,518.144159,8660.409521
332.123975,3830.477490,370.102971,8882.471304
332.124282,3677.258390,-148.041188,9326.594869
332.124590,3064.381992,-148.041188,9770.718434
332.124898,3140.991542,296.082377,10214.842000
332.125206,3064.381992,370.102971,9474.636058
332.125514,3677.258390,1480.411884,9178.553681
332.125822,4290.134789,2516.700203,8364.327145
332.126130,4443.353888,2812.782580,8290.306550
332.126438,4213.525239,2960.823768,8290.306550
332.126746,4903.011187,2368.659014,8956.491898
332.127054,3294.210641,1480.411884,10140.821405
332.127361,2451.505594,-222.061783,11103.089130
332.127669,1455.581446,-1850.514855,12139.377449
332.127977,459.657299,-2664.741391,13175.665768
332.128285,459.657299,-3478.967927,13471.748144
332.128593,1072.533697,-3404.947333,13397.727550
332.128901,2068.457845,-2960.823768,12287.418637
332.129209,3983.696590,-2072.576638,10510.924376
332.129517,5362.668486,-74.020594,9326.594869
332.129825,7277.907231,740.205942,8290.306550
332.130132,7354.516781,2664.741391,6513.812290
332.130440,7967.393179,3627.009116,5847.626942
332.130748,8044.002729,4441.235652,5477.523971
332.131056,6358.592633,4811.338623,5107.421000
332.131364,5669.106685,4589.276840,5995.668130
332.131672,4519.963438,3552.988522,6957.935855
332.131980,3217.601092,1998.556043,8734.430116
332.132288,2221.676944,370.102971,9696.697840
332.132596,766.095498,-962.267725,11621.233289
332.132904,76.609550,-2590.720797,12361.439231
332.133211,-383.047749,-4071.132681,13471.748144
332.133519,76.609550,-3849.070898,14211.954086
332.133827,229.828649,-4441.235652,13693.809927
332.134135,1149.143247,-3404.947333,13101.645173
332.134443,3064.381992,-2294.638420,12287.418637
332.134751,4749.792088,-1258.350101,10732.986159
332.135059,5592.497135,-0.000000,8660.409521
332.135367,6511.811733,1776.494261,7105.977043
332.135675,6588.421283,2738.761985,6291.750507
332.135983,6435.202183,3478.967927,5551.544565
332.136290,6128.763984,3849.070898,5773.606348
332.136598,5592.497135,2664.741391,6587.832884
332.136906,4596.572988,1628.453072,7550.100608
332.137214,3217.601092,-0.000000,8586.388927
332.137522,1532.190996,-1702.473667,11029.068536
332.137830,995.924147,-3775.050304,12509.480420
332.138138,0.000000,-4145.153275,13397.727550
332.138446,612.876398,-3923.091493,13323.706956
332.138754,1685.410096,-2664.741391,12139.377449
332.139062,3677.258390,-592.164754,11029.068536
332.139369,6435.202183,2072.576638,8586.388927
332.139677,6588.421283,4367.215058,5625.565159
332.139985,8350.440928,5921.647536,4737.318029
332.140293,8273.831378,6661.853478,3627.009116
332.140601,7507.735880,6735.874072,4959.379811
332.140909,6358.592633,3701.029710,7179.997637
332.141217,2528.115143,740.205942,9844.739029
332.141525,0.000000,-2516.700203,12657.521608
332.141833,-2451.505594,-3997.112087,13989.892304
332.142140,-3370.820191,-5847.626942,16950.716072
332.142448,-3830.477490,-6809.894666,17690.922014
332.142756,-1762.019645,-5551.544565,16284.530724
332.143064,612.876398,-4071.132681,13989.892304
332.143372,3064.381992,-962.267725,9178.553681
332.143680,6435.202183,2294.638420,6439.791695
332.143988,8886.707777,4441.235652,5847.626942
332.144296,9806.022374,5995.668130,4145.153275
332.144604,10112.460574,5773.606348,3552.988522
332.144912,9039.926876,5699.585753,2886.803174
332.145219,6358.592633,1850.514855,6365.771101
332.145527,3830.477490,-1406.391290,9548.656652
332.145835,536.266849,-3775.050304,11769.274478
332.146143,-1378.971896,-5255.462188,13841.851115
332.146451,-1072.533697,-5329.482782,13397.727550
332.146759,536.266849,-2960.823768,12731.542202
332.147067,3600.648841,222.061783,10436.903782
332.147375,5975.544884,2738.761985,7550.100608
332.147683,7660.954980,3701.029710,6661.853478
332.147991,8120.612279,5107.421000,5995.668130
332.148298,7354.516781,5033.400406,6439.791695
332.148606,5592.497135,3923.091493,8438.347739
332.148914,2604.724693,1258.350101,10510.924376
332.149222,153.219100,-814.226536,12435.459826
332.149530,-1838.629195,-2220.617826,13175.665768
332.149838,-3064.381992,-3182.885551,14137.933492
332.150146,-3217.601092,-3997.112087,14730.098246
332.150454,-2221.676944,-3256.906145,13175.665768
332.150762,612.876398,-1776.494261,12139.377449
332.151069,3524.039291,-1110.308913,9474.636058
332.151377,4903.011187,-222.061783,7920.203579
332.151676,5439.278036,592.164754,8216.285956
332.151984,5975.544884,1480.411884,7328.038826
332.152292,5362.668486,2738.761985,7179.997637
332.152600,4749.792088,3997.112087,7179.997637
332.152908,4366.744339,4663.297435,6513.812290
332.153215,3983.696590,5625.565159,5847.626942
332.153523,5056.230287,4441.235652,6957.935855
332.153831,4673.182538,2812.782580,7105.977043
332.154139,2757.943793,1184.329507,8216.285956
332.154447,1608.800546,-2960.823768,12361.439231
332.154755,-1225.752797,-5255.462188,14211.954086
332.155063,-3064.381992,-6143.709319,14582.057057
332.155370,-3447.429741,-6513.812290,14285.974681
332.155678,-3064.381992,-4441.235652,12583.501014
332.155986,-766.095498,-2220.617826,11769.274478
332.156294,536.266849,518.144159,9548.656652
332.156602,2528.115143,1554.432478,7994.224174
332.156910,3677.258390,3330.926739,6661.853478
332.157218,4596.572988,3108.864956,6365.771101
332.157526,4213.525239,2220.617826,6291.750507
332.157833,2911.162892,2294.638420,7994.224174
332.158141,2757.943793,-592.164754,9918.759623
332.158449,229.828649,-74.020594,8956.491898
332.158757,612.876398,-1406.391290,11103.089130
332.159065,1455.581446,148.041188,9474.636058
332.159373,2451.505594,518.144159,9770.718434
332.159681,3370.820191,-0.000000,9474.636058
332.159989,3524.039291,148.041188,7920.203579
332.160296,2681.334243,-1258.350101,9622.677246
332.160604,1455.581446,-1332.370696,9252.574275
332.160912,1608.800546,-592.164754,10288.862594
332.161220,229.828649,1184.329507,9252.574275
332.161528,995.924147,1406.391290,10066.800811
332.161836,1225.752797,2072.576638,7920.203579
332.162144,-306.438199,1628.453072,9104.533087
332.162451,306.438199,222.061783,10881.027347
332.162759,-1225.752797,-888.247130,10881.027347
332.163067,-2221.676944,-2220.617826,13249.686362
332.163375,-2987.772442,-2368.659014,12879.583391
332.163683,-2145.067394,-1480.411884,12805.562797
332.163991,-1378.971896,296.082377,10658.965565
332.164299,1762.019645,1702.473667,9844.739029
332.164607,3677.258390,2960.823768,7994.224174
332.164914,4290.134789,2812.782580,6513.812290
332.165222,4673.182538,1184.329507,7328.038826
332.165530,3294.210641,666.185348,7402.059420
332.165838,2221.676944,-740.205942,9474.636058
332.166146,995.924147,-592.164754,9104.533087
332.166454,-536.266849,-296.082377,8882.471304
332.166762,919.314598,-74.020594,9326.594869
332.167069,229.828649,1554.432478,7846.182985
332.167377,1455.581446,888.247130,9104.533087
332.167685,995.924147,-962.267725,9252.574275
332.167993,0.000000,-1480.411884,10140.821405
332.168301,-153.219100,-2590.720797,11621.233289
332.168609,-995.924147,-2220.617826,12065.356855
332.168917,-919.314598,-296.082377,11843.295072
332.169225,1225.752797,1110.308913,9622.677246
332.169532,2604.724693,3256.906145,8956.491898
332.169840,3830.477490,3404.947333,7846.182985
332.170148,4673.182538,2368.659014,7994.224174
332.170456,2987.772442,296.082377,8586.388927
332.170764,1685.410096,-1850.514855,9918.759623
332.171072,0.000000,-3552.988522,11473.192101
332.171380,-1685.410096,-3478.967927,12213.398043
332.171687,-766.095498,-2516.700203,11177.109724
332.171995,76.609550,1110.308913,8660.409521
332.172303,1762.019645,1924.535449,7994.224174
332.172611,2451.505594,2294.638420,8142.265362
332.172919,2911.162892,2590.720797,8142.265362
332.173227,1991.848295,962.267725,8512.368333
332.173535,0.000000,888.247130,9548.656652
332.173843,459.657299,1110.308913,10955.047942
332.174150,0.000000,2294.638420,9844.739029
332.174458,-229.828649,3627.009116,9474.636058
332.174766,1302.362347,3478.967927,9474.636058
332.175074,1762.019645,3108.864956,9326.594869
332.175382,1532.190996,1184.329507,10140.821405
332.175690,1149.143247,-1554.432478,10140.821405
332.175998,-1532.190996,-3478.967927,11399.171507
332.176305,-2451.505594,-5403.503377,12731.542202
332.176613,-3140.991542,-4959.379811,12879.583391
332.176921,-3140.991542,-2738.761985,11621.233289
332.177229,-1532.190996,-370.102971,9400.615463
332.177537,1225.752797,1628.453072,9474.636058
332.177845,1991.848295,2442.679609,7328.038826
332.178153,1838.629195,1924.535449,7254.018232
332.178461,1072.533697,296.082377,8142.265362
332.178768,536.266849,-296.082377,8216.285956
332.179076,-689.485948,-814.226536,11177.109724
332.179384,-1072.533697,1258.350101,9104.533087
332.179692,0.000000,1702.473667,9474.636058
332.180000,995.924147,2294.638420,9030.512492
332.180308,2451.505594,2220.617826,8660.409521
332.180616,2681.334243,296.082377,8290.306550
332.180924,306.438199,-2146.597232,8734.430116
332.181231,0.000000,-4071.132681,10807.006753
332.181539,-1455.581446,-4959.379811,11399.171507
332.181847,-2451.505594,-3849.070898,11843.295072
332.182155,-2145.067394,-1628.453072,10362.883188
332.182463,-383.047749,370.102971,9622.677246
332.182771,1149.143247,2368.659014,8808.450710
332.183079,1685.410096,3034.844362,7994.224174
332.183386,2911.162892,2368.659014,8438.347739
332.183694,766.095498,370.102971,8808.450710
332.184002,-229.828649,-0.000000,10288.862594
332.184310,0.000000,-148.041188,10658.965565
332.184618,-153.219100,1036.288319,10066.800811
332.184926,612.876398,2516.700203,9622.677246
332.185234,2298.286494,3256.906145,8808.450710
332.185542,3753.867940,2738.761985,8512.368333
332.185849,2987.772442,1184.329507,8660.409521
332.186157,2451.505594,-666.185348,8512.368333
332.186465,842.705048,-2442.679609,10288.862594
332.186773,-229.828649,-3627.009116,11769.274478
332.187081,-995.924147,-2516.700203,11029.068536
332.187389,-536.266849,-592.164754,10584.944971
332.187697,536.266849,1110.308913,9178.553681
332.188004,1838.629195,2220.617826,8438.347739
332.188312,2374.896044,2368.659014,7994.224174
332.188620,2374.896044,1258.350101,8142.265362
332.188928,689.485948,518.144159,9252.574275
332.189236,306.438199,-1110.308913,11177.109724
332.189544,-1378.971896,-370.102971,11029.068536
332.189852,-612.876398,592.164754,10732.986159
332.190160,536.266849,1998.556043,9992.780217
332.190467,1685.410096,3256.906145,9178.553681
332.190775,2298.286494,2590.720797,8956.491898
332.191083,3064.381992,962.267725,9030.512492
332.191391,1838.629195,-1258.350101,9474.636058
332.191699,459.657299,-2812.782580,10214.842000
332.192007,-919.314598,-3775.050304,11769.274478
332.192315,-1378.971896,-2664.741391,11251.130318
332.192622,153.219100,-1036.288319,10584.944971
332.192930,459.657299,1332.370696,8216.285956
332.193238,2145.067394,1776.494261,7772.162391
332.193546,1685.410096,1850.514855,7846.182985
332.193854,1302.362347,1110.308913,8364.327145
332.194162,1302.362347,-370.102971,9400.615463
332.194470,0.000000,-0.000000,9992.780217
332.194778,-229.828649,222.061783,11103.089130
332.195085,76.609550,1332.370696,9844.739029
332.195393,919.314598,3182.885551,9474.636058
332.195701,2451.505594,3330.926739,9326.594869
332.196009,3294.210641,2960.823768,8660.409521
332.196317,2528.115143,814.226536,8808.450710
332.196625,1225.752797,-2146.597232,9474.636058
332.196933,-383.047749,-3627.009116,10955.047942
332.197240,-2221.676944,-4145.153275,12139.377449
332.197548,-1455.581446,-3923.091493,11843.295072
332.197856,-1532.190996,-1850.514855,9992.780217
332.198164,0.000000,666.185348,8956.491898
332.198472,2298.286494,1628.453072,8882.471304
332.198780,1762.019645,2294.638420,7698.141797
332.199088,1991.848295,1628.453072,7994.224174
332.199396,536.266849,222.061783,8956.491898
332.199703,0.000000,148.041188,10362.883188
332.200011,-459.657299,592.164754,10807.006753
332.200319,229.828649,1628.453072,9696.697840
332.200627,766.095498,2812.782580,8438.347739
332.200935,2911.162892,3034.844362,9104.533087
332.201243,2987.772442,1924.535449,8660.409521
332.201551,1685.410096,-296.082377,8586.388927
332.201859,459.657299,-2738.761985,10214.842000
332.202166,-1532.190996,-4219.173869,11769.274478
332.202474,-2068.457845,-4811.338623,12879.583391
332.202782,-2145.067394,-3330.926739,11621.233289
332.203090,-1225.752797,-1184.329507,9400.615463
332.203398,995.924147,1110.308913,8734.430116
332.203706,1915.238745,2664.741391,7920.203579
332.204014,2068.457845,2368.659014,7920.203579
332.204321,1532.190996,1702.473667,7846.182985
332.204629,536.266849,148.041188,9030.512492
332.204937,-306.438199,444.123565,10807.006753
332.205245,-689.485948,666.185348,10362.883188
332.205553,76.609550,1702.473667,9696.697840
332.205861,919.314598,3330.926739,9252.574275
332.206169,2681.334243,2738.761985,8586.388927
332.206477,2757.943793,2146.597232,9030.512492
332.206784,1915.238745,-148.041188,9326.594869
332.207092,689.485948,-2960.823768,10510.924376
332.207400,-842.705048,-3997.112087,11325.150913
332.207708,-1455.581446,-4367.215058,12065.356855
332.208016,-1378.971896,-2516.700203,10955.047942
332.208324,153.219100,-74.020594,9474.636058
332.208632,1378.971896,1554.432478,8068.244768
332.208939,2757.943793,2960.823768,7105.977043
332.209247,2834.553343,2368.659014,7624.121203
332.209555,1838.629195,1258.350101,8142.265362
332.209863,689.485948,444.123565,9622.677246
332.210171,0.000000,-148.041188,10658.965565
332.210479,-306.438199,518.144159,10436.903782
332.210787,229.828649,1776.494261,9622.677246
332.211095,842.705048,2960.823768,10066.800811
332.211402,2221.676944,2960.823768,9104.533087
332.211710,2451.505594,1332.370696,9252.574275
332.212018,1455.581446,-888.247130,9844.739029
332.212326,-229.828649,-3256.906145,10288.862594
332.212634,-842.705048,-4219.173869,12361.439231
332.212942,-2068.457845,-4367.215058,11917.315666
332.213250,-1532.190996,-2442.679609,10658.965565
332.213557,0.000000,-0.000000,8882.471304
332.213865,1225.752797,2146.597232,7920.203579
332.214173,3064.381992,2146.597232,7920.203579
332.214481,2451.505594,2590.720797,6957.935855
332.214789,1608.800546,1110.308913,8660.409521
332.215097,842.705048,-296.082377,9696.697840
332.215405,0.000000,370.102971,10510.924376
332.215713,-153.219100,1184.329507,11029.068536
332.216020,153.219100,2516.700203,8808.450710
332.216328,689.485948,3256.906145,9400.615463
332.216636,1685.410096,3108.864956,9252.574275
332.216944,2528.115143,666.185348,9548.656652
332.217252,1302.362347,-518.144159,9696.697840
332.217560,-995.924147,-3330.926739,10881.027347
332.217868,-2068.457845,-4959.379811,13027.624579
332.218176,-1991.848295,-5181.441594,13323.706956
332.218483,-2604.724693,-2072.576638,10140.821405
332.218791,0.000000,-0.000000,9030.512492
332.219099,2681.334243,1480.411884,8956.491898
332.219407,2221.676944,2812.782580,6217.729913
332.219715,3447.429741,2220.617826,7550.100608
332.220023,2757.943793,814.226536,7994.224174
332.220331,306.438199,296.082377,8660.409521
332.220638,306.438199,222.061783,10066.800811
332.220946,-153.219100,1184.329507,9474.636058
332.221254,689.485948,2220.617826,10510.924376
332.221562,1532.190996,3478.967927,7920.203579
332.221870,2987.772442,3034.844362,8438.347739
332.222178,2451.505594,-370.102971,9252.574275
332.222486,1072.533697,-1480.411884,9474.636058
332.222794,-383.047749,-3478.967927,11399.171507
332.223101,-1302.362347,-5181.441594,12657.521608
332.223409,-2221.676944,-4367.215058,12509.480420
332.223717,-1455.581446,-1776.494261,10288.862594
332.224025,689.485948,-0.000000,9104.533087
332.224333,1532.190996,2664.741391,7550.100608
332.224641,3217.601092,2738.761985,7550.100608
332.224949,3064.381992,2368.659014,8068.244768
332.225256,1378.971896,518.144159,8438.347739
332.225564,536.266849,-222.061783,10140.821405
332.225872,-459.657299,-0.000000,10732.986159
332.226180,-766.095498,1110.308913,9918.759623
332.226488,229.828649,2368.659014,9622.677246
332.226796,2374.896044,3330.926739,8956.491898
332.227104,2451.505594,2738.761985,8216.285956
332.227412,2834.553343,666.185348,9400.615463
332.227719,1915.238745,-444.123565,9474.636058
332.228027,459.657299,-3182.885551,11103.089130
332.228335,-1149.143247,-3923.091493,11843.295072
332.228643,-1302.362347,-3108.864956,10807.006753
332.228951,-919.314598,-1850.514855,10362.883188
332.229259,153.219100,592.164754,8956.491898
332.229567,1991.848295,1554.432478,8956.491898
332.229874,2757.943793,2368.659014,8586.388927
332.230182,2068.457845,740.205942,7698.141797
332.230490,1225.752797,-0.000000,9104.533087
332.230798,0.000000,-444.123565,10436.903782
332.231106,-536.266849,296.082377,10584.944971
332.231414,-689.485948,1850.514855,9622.677246
332.231722,1378.971896,2886.803174,9400.615463
332.232030,2145.067394,3478.967927,8734.430116
332.232337,2757.943793,2886.803174,8142.265362
332.232645,2834.553343,1628.453072,8068.244768
332.232953,995.924147,-1406.391290,9474.636058
332.233261,-689.485948,-3552.988522,11177.109724
332.233569,-2068.457845,-4367.215058,11843.295072
332.233877,-2145.067394,-3108.864956,11325.150913
332.234185,-1608.800546,-1480.411884,10288.862594
332.234492,459.657299,814.226536,9178.553681
332.234800,2528.115143,2368.659014,7920.203579
332.235108,2757.943793,1924.535449,7920.203579
332.235416,2451.505594,1554.432478,7994.224174
332.235724,1072.533697,370.102971,8956.491898
332.236032,-766.095498,-370.102971,10214.842000
332.236340,-995.924147,444.123565,10362.883188
332.236648,-536.266849,2146.597232,9474.636058
332.236955,1149.143247,2664.741391,9474.636058
332.237263,1915.238745,3256.906145,8512.368333
332.237571,2757.943793,1924.535449,8512.368333
332.237879,1149.143247,-296.082377,9622.677246
332.238187,-689.485948,-2886.803174,10881.027347
332.238495,-1685.410096,-4959.379811,12805.562797
332.238803,-2911.162892,-4959.379811,13767.830521
332.239111,-2987.772442,-3923.091493,12139.377449
332.239418,-919.314598,-740.205942,9178.553681
332.239726,612.876398,1332.370696,8438.347739
332.240034,2528.115143,1850.514855,7624.121203
332.240342,2681.334243,2368.659014,7550.100608
332.240650,2374.896044,1258.350101,8290.306550
332.240958,842.705048,296.082377,8364.327145
332.241266,-383.047749,666.185348,9548.656652
332.241573,76.609550,1036.288319,11251.130318
332.241881,229.828649,2368.659014,9770.718434
332.242189,1225.752797,3775.050304,7698.141797
332.242497,2145.067394,3034.844362,8660.409521
332.242805,2221.676944,1850.514855,9474.636058
332.243113,383.047749,-222.061783,9770.718434
332.243421,76.609550,-2664.741391,11473.192101
332.243729,-2221.676944,-4737.318029,12139.377449
332.244036,-3524.039291,-4663.297435,12805.562797
332.244344,-1991.848295,-3701.029710,12805.562797
332.244652,0.000000,-296.082377,9622.677246
332.244960,1532.190996,1776.494261,8068.244768
332.245268,2911.162892,2368.659014,7402.059420
332.245576,3524.039291,2442.679609,6957.935855
332.245884,2298.286494,1406.391290,7698.141797
332.246191,383.047749,296.082377,8882.471304
332.246499,1225.752797,-370.102971,10584.944971
332.246807,229.828649,1110.308913,9104.533087
332.247115,766.095498,2368.659014,8660.409521
332.247423,2451.505594,2886.803174,9326.594869
332.247731,2987.772442,3849.070898,8142.265362
332.248039,3064.381992,1776.494261,8808.450710
332.248347,2068.457845,-148.041188,9622.677246
332.248654,459.657299,-3034.844362,10955.047942
332.248962,-1072.533697,-4071.132681,12139.377449
332.249270,-1762.019645,-4441.235652,12805.562797
332.249578,-1991.848295,-2886.803174,11917.315666
332.249886,-766.095498,-0.000000,9474.636058
332.250194,1991.848295,1702.473667,8364.327145
332.250502,2145.067394,2294.638420,7476.080014
332.250809,2451.505594,1776.494261,8808.450710
332.251117,1838.629195,592.164754,9178.553681
332.251425,536.266849,-148.041188,9992.780217
332.251733,-995.924147,-518.144159,11177.109724
332.252041,0.000000,1036.288319,10732.986159
332.252349,995.924147,2812.782580,9844.739029
332.252657,1915.238745,3627.009116,8068.244768
332.252965,3983.696590,3923.091493,7846.182985
332.253273,3294.210641,2220.617826,8068.244768
332.253580,2451.505594,-0.000000,8882.471304
332.253888,536.266849,-2294.638420,10140.821405
332.254196,-1072.533697,-3701.029710,11991.336260
332.254504,-1991.848295,-4293.194464,12583.501014
332.254812,-1685.410096,-2220.617826,10584.944971
332.255120,0.000000,-148.041188,9548.656652
332.255428,1302.362347,1554.432478,8216.285956
332.255736,2451.505594,1628.453072,8512.368333
332.256044,2911.162892,1332.370696,8290.306550
332.256352,1225.752797,148.041188,8364.327145
332.256660,76.609550,-444.123565,9992.780217
332.256968,-612.876398,-74.020594,10510.924376
332.257276,-306.438199,1406.391290,10066.800811
332.257584,76.609550,2590.720797,9178.553681
332.257892,2068.457845,3923.091493,8364.327145
332.258200,2834.553343,3256.906145,7772.162391
332.258508,2068.457845,1480.411884,8734.430116
332.258816,766.095498,-1258.350101,10510.924376
332.259124,-689.485948,-3923.091493,10955.047942
332.259432,-3140.991542,-4589.276840,12065.356855
332.259740,-2757.943793,-4515.256246,12731.542202
332.260048,-2528.115143,-2146.597232,10807.006753
332.260356,-766.095498,222.061783,9030.512492
332.260664,1302.362347,1924.535449,8364.327145
332.260971,2911.162892,2294.638420,7920.203579
332.261279,2451.505594,1998.556043,7179.997637
332.261587,1991.848295,518.144159,8290.306550
332.261895,842.705048,444.123565,9474.636058
332.262203,0.000000,1036.288319,9696.697840
332.262511,153.219100,1554.432478,9770.718434
332.262819,842.705048,2220.617826,9696.697840
332.263127,1455.581446,2664.741391,8808.450710
332.263435,1915.238745,2368.659014,8882.471304
332.263743,1915.238745,-222.061783,9696.697840
332.264051,919.314598,-1850.514855,10362.883188
332.264359,-1915.238745,-4367.215058,11769.274478
332.264667,-2145.067394,-4959.379811,12953.603985
332.264975,-2911.162892,-4071.132681,11843.295072
332.265283,-1838.629195,-1628.453072,11103.089130
332.265591,0.000000,518.144159,9252.574275
332.265899,1915.238745,2442.679609,7698.141797
332.266207,3140.991542,2738.761985,7994.224174
332.266515,2834.553343,1554.432478,7476.080014
332.266823,2298.286494,518.144159,9104.533087
332.267131,612.876398,-0.000000,9622.677246
332.267439,153.219100,370.102971,9918.759623
332.267747,842.705048,1776.494261,9844.739029
332.268054,1302.362347,2886.803174,8734.430116
332.268362,2451.505594,3330.926739,8290.306550
332.268670,3140.991542,2738.761985,8142.265362
332.268978,2911.162892,740.205942,9104.533087
332.269286,1302.362347,-1776.494261,9992.780217
332.269594,-766.095498,-3330.926739,11769.274478
332.269902,-2145.067394,-3849.070898,13027.624579
332.270210,-2451.505594,-2812.782580,11695.253884
332.270518,-1455.581446,-1110.308913,10732.986159
332.270826,153.219100,1332.370696,9252.574275
332.271134,1915.238745,2664.741391,8364.327145
332.271442,2987.772442,2146.597232,8290.306550
332.271750,2068.457845,1628.453072,8512.368333
332.272058,1225.752797,148.041188,9770.718434
332.272366,306.438199,148.041188,9844.739029
332.272674,0.000000,518.144159,10510.924376
332.272982,306.438199,2072.576638,9252.574275
332.273290,1838.629195,3330.926739,9030.512492
332.273598,3370.820191,3627.009116,8142.265362
332.273906,3294.210641,2516.700203,7624.121203
332.274214,3524.039291,296.082377,9104.533087
332.274522,1149.143247,-1776.494261,10066.800811
332.274830,-766.095498,-3849.070898,11695.253884
332.275138,-2221.676944,-4589.276840,12435.459826
332.275445,-2681.334243,-3256.906145,11769.274478
332.275753,-2068.457845,-666.185348,10140.821405
332.276061,0.000000,592.164754,9918.759623
332.276369,1762.019645,1554.432478,8512.368333
332.276677,1762.019645,1554.432478,8142.265362
332.276985,2451.505594,740.205942,8660.409521
332.277293,383.047749,-444.123565,8734.430116
332.277601,-229.828649,-148.041188,9918.759623
332.277909,-153.219100,370.102971,10140.821405
332.278217,229.828649,1850.514855,9400.615463
332.278525,2451.505594,3478.967927,8438.347739
332.278833,2681.334243,3034.844362,7624.121203
332.279141,3370.820191,2146.597232,8290.306550
332.279449,3370.820191,222.061783,9178.553681
332.279757,689.485948,-1998.556043,10436.903782
332.280065,-1685.410096,-4145.153275,11695.253884
332.280373,-2221.676944,-4737.318029,12287.418637
332.280681,-3447.429741,-3108.864956,11843.295072
332.280989,-1915.238745,-814.226536,10881.027347
332.281297,-383.047749,962.267725,9474.636058
332.281605,1225.752797,2146.597232,8882.471304
332.281913,1685.410096,1406.391290,8216.285956
332.282221,1302.362347,1110.308913,8216.285956
332.282528,919.314598,222.061783,9696.697840
332.282836,-229.828649,666.185348,9178.553681
332.283144,229.828649,1628.453072,10288.862594
332.283452,1072.533697,2294.638420,9548.656652
332.283760,1302.362347,3923.091493,7328.038826
332.284068,3217.601092,3404.947333,8660.409521
332.284376,3064.381992,1628.453072,8734.430116
332.284684,2068.457845,-1184.329507,10214.842000
332.284992,0.000000,-2590.720797,10436.903782
332.285300,-1072.533697,-4219.173869,12139.377449
332.285608,-2911.162892,-4811.338623,12805.562797
332.285916,-2911.162892,-2590.720797,12065.356855
332.286224,-536.266849,-518.144159,10584.944971
332.286532,153.219100,1998.556043,7846.182985
332.286840,2451.505594,2442.679609,8586.388927
332.287148,2757.943793,2368.659014,7846.182985
332.287456,1991.848295,1554.432478,8734.430116
332.287764,1072.533697,296.082377,9548.656652
332.288072,153.219100,296.082377,9770.718434
332.288380,0.000000,962.267725,10140.821405
332.288688,383.047749,2368.659014,9400.615463
332.288996,2834.553343,3256.906145,9030.512492
332.289304,3370.820191,3034.844362,8438.347739
332.289612,3140.991542,1406.391290,8660.409521
332.289919,2374.896044,-1110.308913,9474.636058
332.290227,766.095498,-2886.803174,10807.006753
332.290535,-995.924147,-4145.153275,11843.295072
332.290843,-1838.629195,-4145.153275,12139.377449
332.291151,-1455.581446,-2220.617826,11103.089130
332.291459,-1072.533697,-0.000000,9030.512492
332.291767,1149.143247,1850.514855,10140.821405
332.292075,2068.457845,2368.659014,8734.430116
332.292383,1302.362347,1924.535449,8512.368333
332.292691,1072.533697,888.247130,9030.512492
332.292999,-306.438199,-666.185348,10066.800811
332.293307,-306.438199,-370.102971,11251.130318
332.293615,-383.047749,740.205942,9104.533087
332.293923,1455.581446,2294.638420,8956.491898
332.294231,2451.505594,3478.967927,8364.327145
332.294539,3753.867940,2886.803174,8142.265362
332.294847,3600.648841,1480.411884,8216.285956
332.295155,2374.896044,-1184.329507,8808.450710
332.295463,536.266849,-3182.885551,10362.883188
332.295771,-689.485948,-4737.318029,11473.192101
332.296079,-2451.505594,-4293.194464,11547.212695
332.296387,-2221.676944,-2368.659014,11029.068536
332.296695,-612.876398,592.164754,9474.636058
332.297002,1072.533697,2072.576638,8290.306550
332.297310,2068.457845,2220.617826,7994.224174
332.297618,1762.019645,2368.659014,7624.121203
332.297926,1838.629195,518.144159,9178.553681
332.298234,-153.219100,222.061783,9178.553681
332.298542,-689.485948,-0.000000,10881.027347
332.298850,-842.705048,1480.411884,9918.759623
332.299158,689.485948,2368.659014,8956.491898
332.299466,2068.457845,3701.029710,8438.347739
332.299774,3064.381992,2590.720797,8216.285956
332.300082,2911.162892,592.164754,8734.430116
332.300390,1762.019645,-1702.473667,9474.636058
332.300698,459.657299,-3256.906145,10436.903782
332.301006,-1915.238745,-4367.215058,11547.212695
332.301314,-2757.943793,-4071.132681,12213.398043
332.301622,-1762.019645,-1998.556043,10955.047942
332.301930,-766.095498,370.102971,9474.636058
332.302238,842.705048,1554.432478,8882.471304
332.302546,2068.457845,2368.659014,8068.244768
332.302854,1378.971896,1480.411884,8216.285956
332.303162,459.657299,518.144159,9474.636058
332.303470,76.609550,518.144159,10436.903782
332.303778,-1149.143247,1184.329507,11177.109724
332.304086,-229.828649,1850.514855,10140.821405
332.304393,1072.533697,3552.988522,8438.347739
332.304701,2681.334243,3701.029710,8364.327145
332.305009,3370.820191,2294.638420,8438.347739
332.305317,2911.162892,518.144159,8216.285956
332.305625,1762.019645,-2146.597232,10362.883188
332.305933,-383.047749,-4367.215058,11325.150913
332.306241,-2451.505594,-4959.379811,12657.521608
332.306549,-2374.896044,-3701.029710,12361.439231
332.306857,-1838.629195,-2072.576638,10436.903782
332.307165,0.000000,888.247130,8956.491898
332.307473,1608.800546,2072.576638,9326.594869
332.307781,2987.772442,1924.535449,8512.368333
332.308089,2221.676944,1924.535449,8216.285956
332.308397,1225.752797,518.144159,9326.594869
332.308705,0.000000,296.082377,10066.800811
332.309013,-306.438199,1554.432478,10362.883188
332.309321,-306.438199,2590.720797,9918.759623
332.309629,995.924147,3775.050304,8808.450710
332.309937,2374.896044,3701.029710,7994.224174
332.310245,3217.601092,1998.556043,8882.471304
332.310553,2681.334243,-370.102971,8956.491898
332.310861,1149.143247,-1998.556043,9696.697840
332.311169,-306.438199,-4441.235652,11769.274478
332.311477,-1915.238745,-5181.441594,11991.336260
332.311784,-1838.629195,-2886.803174,11547.212695
332.312092,-995.924147,-1036.288319,9918.759623
332.312400,536.266849,1332.370696,8956.491898
332.312708,2451.505594,2368.659014,8956.491898
332.313016,3294.210641,2294.638420,8068.244768
332.313324,2221.676944,1554.432478,7994.224174
332.313632,1455.581446,296.082377,9844.739029
332.313940,0.000000,148.041188,10658.965565
332.314248,-459.657299,1406.391290,10066.800811
332.314556,0.000000,1702.473667,9548.656652
332.314864,1302.362347,3182.885551,8956.491898
332.315172,2374.896044,3478.967927,8438.347739
332.315480,2451.505594,1480.411884,8956.491898
332.315788,2451.505594,-888.247130,9252.574275
332.316096,1072.533697,-2738.761985,10362.883188
332.316404,-689.485948,-4145.153275,11621.233289
332.316712,-1378.971896,-4441.235652,11843.295072
332.317020,-1685.410096,-2812.782580,11621.233289
332.317328,-689.485948,-518.144159,9474.636058
332.317636,1149.143247,1036.288319,7846.182985
332.317944,2298.286494,1850.514855,8290.306550
332.318252,2298.286494,1036.288319,8586.388927
332.318560,842.705048,518.144159,7550.100608
332.318867,229.828649,-0.000000,9548.656652
332.319175,-612.876398,-666.185348,10436.903782
332.319483,-1455.581446,1184.329507,10214.842000
332.319791,153.219100,1702.473667,10362.883188
332.320099,1378.971896,3182.885551,8142.265362
332.320407,2068.457845,3108.864956,8216.285956
332.320715,3524.039291,1702.473667,9104.533087
332.321023,2604.724693,-0.000000,9252.574275
332.321331,766.095498,-2146.597232,9326.594869
332.321639,-459.657299,-3330.926739,9770.718434
332.321947,-1532.190996,-3849.070898,12731.542202
332.322255,-2221.676944,-2590.720797,11399.171507
332.322563,-1915.238745,-518.144159,9918.759623
332.322871,153.219100,1184.329507,9474.636058
332.323179,1838.629195,1332.370696,8364.327145
332.323487,995.924147,1184.329507,9030.512492
332.323795,536.266849,740.205942,9548.656652
332.324103,76.609550,-222.061783,10732.986159
332.324411,-842.705048,148.041188,10510.924376
332.324719,-229.828649,1924.535449,10214.842000
332.325027,1149.143247,2590.720797,10510.924376
332.325335,2221.676944,4441.235652,8216.285956
332.325643,3600.648841,3552.988522,8290.306550
332.325951,3600.648841,2072.576638,8808.450710
332.326258,2451.505594,-148.041188,8808.450710
332.326566,689.485948,-2146.597232,10807.006753
332.326874,-459.657299,-4071.132681,11695.253884
332.327182,-2374.896044,-4071.132681,11843.295072
332.327490,-2298.286494,-2960.823768,11769.274478
332.327798,-689.485948,-518.144159,9844.739029
332.328106,459.657299,666.185348,8734.430116
332.328414,1991.848295,1850.514855,8438.347739
332.328722,2374.896044,1702.473667,7772.162391
332.329030,1685.410096,888.247130,8216.285956
332.329338,766.095498,592.164754,9104.533087
332.329646,612.876398,444.123565,9696.697840
332.329954,76.609550,1480.411884,9548.656652
332.330262,1225.752797,1998.556043,9252.574275
332.330570,1685.410096,3775.050304,8438.347739
332.330878,2681.334243,2072.576638,8660.409521
332.331186,2451.505594,592.164754,9178.553681
332.331494,1455.581446,-1776.494261,9696.697840
332.331802,229.828649,-3775.050304,11103.089130
332.332110,-1838.629195,-5033.400406,12139.377449
332.332418,-1608.800546,-4737.318029,12065.356855
332.332726,-1762.019645,-2886.803174,10362.883188
332.333034,-153.219100,-0.000000,9474.636058
332.333341,1302.362347,1258.350101,8734.430116
332.333649,2757.943793,2664.741391,7402.059420
332.333957,2757.943793,2516.700203,6883.915261
332.334265,1915.238745,1258.350101,7698.141797
332.334573,1072.533697,1480.411884,8808.450710
332.334881,-229.828649,592.164754,10436.903782
332.335189,-306.438199,1850.514855,10140.821405
332.335497,842.705048,3256.906145,8882.471304
332.335805,1455.581446,3108.864956,9178.553681
332.336113,2528.115143,2368.659014,9178.553681
332.336421,2451.505594,666.185348,9178.553681
332.336729,1225.752797,-1554.432478,10140.821405
332.337037,0.000000,-3775.050304,10807.006753
332.337345,-2068.457845,-5255.462188,12361.439231
332.337653,-2145.067394,-4145.153275,13175.665768
332.337961,-1378.971896,-2146.597232,10362.883188
332.338269,-383.047749,740.205942,9400.615463
332.338577,1991.848295,2146.597232,8660.409521
332.338885,2681.334243,3034.844362,7031.956449
332.339193,2604.724693,3108.864956,7624.121203
332.339501,2068.457845,1924.535449,8142.265362
332.339809,995.924147,1110.308913,9400.615463
332.340117,459.657299,888.247130,10584.944971
332.340425,-153.219100,1628.453072,9770.718434
332.340732,306.438199,2812.782580,9252.574275
332.341040,1838.629195,2886.803174,9474.636058
332.341348,2451.505594,1924.535449,9252.574275
332.341656,2374.896044,-222.061783,9548.656652
332.341964,689.485948,-2368.659014,10140.821405
332.342272,-612.876398,-4071.132681,11103.089130
332.342580,-1915.238745,-5181.441594,12731.542202
332.342888,-2528.115143,-4367.215058,12287.418637
332.343196,-1838.629195,-1924.535449,10807.006753
332.343504,0.000000,592.164754,8882.471304
332.343812,1685.410096,2368.659014,8068.244768
332.344120,2145.067394,2738.761985,7254.018232
332.344428,2681.334243,2294.638420,8216.285956
332.344736,919.314598,1702.473667,8660.409521
332.345044,-383.047749,370.102971,10140.821405
332.345352,-995.924147,666.185348,10732.986159
332.345660,-919.314598,1998.556043,10436.903782
332.345968,0.000000,2516.700203,9474.636058
332.346276,1378.971896,3034.844362,8956.491898
332.346584,2681.334243,1776.494261,9178.553681
332.346892,1838.629195,-0.000000,8882.471304
332.347200,1838.629195,-2146.597232,9548.656652
332.347508,-229.828649,-4219.173869,11843.295072
332.347816,-1915.238745,-4737.318029,12509.480420
332.348123,-1991.848295,-3701.029710,11621.233289
332.348431,-1685.410096,-962.267725,9770.718434
332.348739,229.828649,814.226536,8882.471304
332.349047,2298.286494,2368.659014,7994.224174
332.349355,2834.553343,2590.720797,7328.038826
332.349663,1991.848295,1850.514855,7179.997637
332.349971,1378.971896,296.082377,8808.450710
332.350279,-229.828649,592.164754,10362.883188
332.350587,-612.876398,370.102971,10807.006753
332.350895,-306.438199,2368.659014,9548.656652
332.351203,919.314598,2664.741391,9104.533087
332.351511,2604.724693,3034.844362,8956.491898
332.351819,2911.162892,2072.576638,8290.306550
332.352127,2298.286494,-296.082377,9326.594869
332.352435,1302.362347,-2812.782580,10362.883188
332.352743,-919.314598,-3849.070898,11029.068536
332.353051,-1762.019645,-4663.297435,12805.562797
332.353359,-1532.190996,-3775.050304,12065.356855
332.353667,-1302.362347,-962.267725,9178.553681
332.353974,1072.533697,962.267725,9178.553681
332.354282,2987.772442,2442.679609,8142.265362
332.354590,2451.505594,1998.556043,7476.080014
332.354898,1991.848295,1332.370696,8586.388927
332.355206,1532.190996,444.123565,9030.512492
332.355514,0.000000,666.185348,9622.677246
332.355822,-383.047749,1184.329507,11325.150913
332.356130,153.219100,2368.659014,9474.636058
332.356438,1225.752797,3849.070898,8586.388927
332.356746,2757.943793,3108.864956,9474.636058
332.357054,2834.553343,1998.556043,8364.327145
332.357362,2757.943793,-148.041188,9622.677246
332.357670,1532.190996,-2960.823768,10510.924376
332.357978,-689.485948,-3478.967927,10584.944971
332.358286,-1838.629195,-4219.173869,12287.418637
332.358593,-2298.286494,-3701.029710,11991.336260
332.358901,-1225.752797,-666.185348,10214.842000
332.359209,612.876398,888.247130,9104.533087
332.359517,2298.286494,2220.617826,8660.409521
332.359825,3140.991542,1628.453072,7994.224174
332.360133,1838.629195,1554.432478,8364.327145
332.360441,919.314598,370.102971,9252.574275
332.360749,-229.828649,518.144159,9918.759623
332.361057,-766.095498,1776.494261,10066.800811
332.361365,-76.609550,2886.803174,9622.677246
332.361673,1608.800546,3849.070898,9326.594869
332.361981,2681.334243,3256.906145,8734.430116
332.362289,2681.334243,1332.370696,9252.574275
332.362597,1532.190996,-1480.411884,9918.759623
332.362905,306.438199,-2960.823768,11029.068536
332.363212,-1378.971896,-4589.276840,12287.418637
332.363520,-2451.505594,-4885.359217,12361.439231
332.363828,-2221.676944,-3256.906145,10955.047942
332.364136,-306.438199,-370.102971,9622.677246
332.364444,1455.581446,1554.432478,8438.347739
332.364752,3524.039291,2146.597232,7031.956449
332.365060,2757.943793,2368.659014,6957.935855
332.365368,2451.505594,1332.370696,7105.977043
332.365676,1225.752797,666.185348,8586.388927
332.365984,76.609550,888.247130,9622.677246
332.366292,-306.438199,1480.411884,9474.636058
332.366600,689.485948,2516.700203,9548.656652
332.366908,1378.971896,2886.803174,8882.471304
332.367216,2374.896044,1850.514855,9030.512492
332.367524,2374.896044,666.185348,9548.656652
332.367831,1302.362347,-1628.453072,10288.862594
332.368139,-153.219100,-4145.153275,11029.068536
332.368447,-1762.019645,-4737.318029,12139.377449
332.368755,-2298.286494,-4885.359217,12657.521608
332.369063,-2451.505594,-3108.864956,10732.986159
332.369371,-766.095498,-148.041188,9548.656652
332.369679,1455.581446,1776.494261,8808.450710
332.369987,2528.115143,1998.556043,7476.080014
332.370295,2451.505594,2368.659014,7328.038826
332.370603,2145.067394,1258.350101,8216.285956
332.370911,1302.362347,888.247130,8660.409521
332.371219,-612.876398,1998.556043,8290.306550
332.371527,76.609550,2220.617826,11473.192101
332.371835,612.876398,2664.741391,9622.677246
332.372143,842.705048,4219.173869,8216.285956
332.372450,2451.505594,1924.535449,10214.842000
332.372758,2528.115143,1184.329507,8290.306550
332.373066,383.047749,-1850.514855,10881.027347
332.373374,-842.705048,-3775.050304,12139.377449
332.373682,-2374.896044,-5255.462188,12731.542202
332.373990,-3294.210641,-4885.359217,13101.645173
332.374298,-2604.724693,-3330.926739,10140.821405
332.374606,-229.828649,-0.000000,9918.759623
332.374914,919.314598,1036.288319,9104.533087
332.375222,2298.286494,2220.617826,8142.265362
332.375530,2681.334243,1924.535449,7105.977043
332.375838,1915.238745,1258.350101,7846.182985
332.376146,1072.533697,962.267725,9030.512492
332.376454,919.314598,1702.473667,9104.533087
332.376762,919.314598,3034.844362,9104.533087
332.377069,1072.533697,3775.050304,8586.388927
332.377377,2604.724693,3923.091493,8364.327145
332.377685,3447.429741,2812.782580,8512.368333
332.377993,2298.286494,1258.350101,8882.471304
332.378301,1455.581446,-1258.350101,10140.821405
332.378609,-612.876398,-3627.009116,11843.295072
332.378917,-2145.067394,-4737.318029,12287.418637
332.379225,-2221.676944,-4441.235652,12509.480420
332.379533,-1838.629195,-1702.473667,10510.924376
332.379841,-459.657299,-74.020594,10362.883188
332.380149,1532.190996,1184.329507,9548.656652
332.380457,2298.286494,2072.576638,8142.265362
332.380765,1991.848295,1110.308913,8586.388927
332.381073,1072.533697,592.164754,9030.512492
332.381381,229.828649,222.061783,10066.800811
332.381688,-689.485948,1776.494261,10436.903782
332.381996,153.219100,2146.597232,9918.759623
332.382304,1685.410096,3552.988522,8364.327145
332.382612,2757.943793,4219.173869,8364.327145
332.382920,3600.648841,2516.700203,8438.347739
332.383228,2528.115143,1332.370696,8068.244768
332.383536,1532.190996,-2220.617826,10584.944971
332.383844,-306.438199,-3923.091493,10807.006753
332.384152,-1532.190996,-4367.215058,11473.192101
332.384460,-2068.457845,-3997.112087,12435.459826
332.384768,-1991.848295,-2368.659014,10214.842000
332.385076,459.657299,370.102971,9400.615463
332.385384,1608.800546,1332.370696,8808.450710
332.385692,2221.676944,1184.329507,8142.265362
332.386000,1532.190996,1258.350101,7698.141797
332.386308,1149.143247,444.123565,8660.409521
332.386615,-306.438199,444.123565,9770.718434
332.386923,-383.047749,740.205942,10362.883188
332.387231,0.000000,2220.617826,9918.759623
332.387539,536.266849,3034.844362,8808.450710
332.387847,1991.848295,3108.864956,8660.409521
332.388155,2068.457845,1776.494261,9474.636058
332.388463,1455.581446,-222.061783,9474.636058
332.388771,306.438199,-2812.782580,10732.986159
332.389079,-1302.362347,-4441.235652,12287.418637
332.389387,-2221.676944,-5107.421000,12509.480420
332.389695,-2451.505594,-3627.009116,11399.171507
332.390003,-919.314598,-1036.288319,10066.800811
332.390311,919.314598,740.205942,8956.491898
332.390619,2604.724693,1998.556043,7698.141797
332.390927,3294.210641,2738.761985,7254.018232
332.391234,2987.772442,1554.432478,7179.997637
332.391542,1991.848295,1036.288319,7846.182985
332.391850,842.705048,962.267725,9844.739029
332.392158,76.609550,1554.432478,9992.780217
332.392466,536.266849,2516.700203,9622.677246
332.392774,1532.190996,3775.050304,9326.594869
332.393082,2681.334243,3404.947333,8660.409521
332.393390,2298.286494,1776.494261,9030.512492
332.393698,1762.019645,-666.185348,10214.842000
332.394006,612.876398,-3108.864956,11103.089130
332.394314,-1532.190996,-4219.173869,12065.356855
332.394622,-1991.848295,-4737.318029,13323.706956
332.394930,-2221.676944,-2886.803174,11547.212695
332.395238,-1225.752797,-888.247130,10658.965565
332.395546,842.705048,962.267725,9696.697840
332.395853,2451.505594,1998.556043,7920.203579
332.396161,2911.162892,1628.453072,8068.244768
332.396469,1915.238745,888.247130,8364.327145
332.396777,1302.362347,666.185348,9474.636058
332.397085,536.266849,666.185348,9770.718434
332.397393,229.828649,1628.453072,10066.800811
332.397701,1149.143247,3256.906145,8586.388927
332.398009,2528.115143,4145.153275,8216.285956
332.398317,3294.210641,3552.988522,8290.306550
332.398625,4596.572988,2442.679609,8142.265362
332.398933,2451.505594,-0.000000,8734.430116
332.399241,459.657299,-2516.700203,10436.903782
332.399549,-1072.533697,-4219.173869,11991.336260
332.399857,-2528.115143,-3923.091493,12213.398043
332.400165,-3217.601092,-3108.864956,12287.418637
332.400472,-1762.019645,-1036.288319,10140.821405
332.400780,229.828649,666.185348,9474.636058
332.401088,1991.848295,888.247130,9326.594869
332.401396,1149.143247,592.164754,8364.327145
332.401704,919.314598,-74.020594,8882.471304
332.402012,0.000000,-370.102971,9770.718434
332.402320,0.000000,-148.041188,10584.944971
332.402628,0.000000,1332.370696,9844.739029
332.402936,766.095498,3330.926739,8586.388927
332.403244,2911.162892,3552.988522,8290.306550
332.403552,3753.867940,4293.194464,7254.018232
332.403860,3524.039291,2072.576638,7624.121203
332.404168,2834.553343,-518.144159,8068.244768
332.404476,689.485948,-2294.638420,9326.594869
332.404784,-1532.190996,-3923.091493,11843.295072
332.405091,-2451.505594,-4663.297435,12065.356855
332.405399,-2757.943793,-2590.720797,11029.068536
332.405707,-1455.581446,-1110.308913,9548.656652
332.406015,229.828649,518.144159,9104.533087
332.406323,1455.581446,1480.411884,9548.656652
332.406631,1302.362347,888.247130,8882.471304
332.406939,689.485948,592.164754,8290.306550
332.407247,229.828649,-148.041188,9992.780217
332.407555,-842.705048,148.041188,10362.883188
332.407863,-153.219100,1406.391290,10436.903782
332.408171,766.095498,2960.823768,9178.553681
332.408479,1991.848295,4219.173869,8512.368333
332.408787,2757.943793,2812.782580,8956.491898
332.409095,2757.943793,1110.308913,8364.327145
332.409403,1762.019645,-592.164754,9474.636058
332.409710,536.266849,-3182.885551,10955.047942
332.410018,-1685.410096,-3923.091493,11473.192101
332.410326,-2451.505594,-3701.029710,12065.356855
332.410634,-2298.286494,-2294.638420,11325.150913
332.410942,-383.047749,148.041188,9474.636058
332.411250,995.924147,1554.432478,8660.409521
332.411558,2604.724693,2220.617826,9030.512492
332.411866,2298.286494,2072.576638,7179.997637
332.412174,766.095498,1332.370696,8142.265362
332.412482,306.438199,222.061783,9992.780217
332.412790,76.609550,1258.350101,10510.924376
332.413098,0.000000,1628.453072,10584.944971
332.413406,459.657299,2960.823768,9104.533087
332.413714,2068.457845,3034.844362,9178.553681
332.414022,1762.019645,2368.659014,9104.533087
332.414329,1915.238745,518.144159,9844.739029
332.414637,459.657299,-1332.370696,9918.759623
332.414945,-919.314598,-3849.070898,12213.398043
332.415253,-1608.800546,-4441.235652,12509.480420
332.415561,-3064.381992,-3404.947333,12287.418637
332.415869,-1685.410096,-2442.679609,11843.295072
332.416177,-459.657299,-0.000000,9104.533087
332.416485,2068.457845,2072.576638,9030.512492
332.416793,2681.334243,2146.597232,7698.141797
332.417101,2451.505594,2146.597232,7031.956449
332.417409,2451.505594,1332.370696,8216.285956
332.417717,1455.581446,222.061783,9326.594869
332.418025,689.485948,1110.308913,10066.800811
332.418333,1072.533697,1628.453072,9548.656652
332.418641,2221.676944,2886.803174,8882.471304
332.418948,2528.115143,3478.967927,8512.368333
332.419256,3983.696590,2664.741391,7920.203579
332.419564,3064.381992,888.247130,8586.388927
332.419872,1762.019645,-1998.556043,9178.553681
332.420180,383.047749,-3404.947333,10955.047942
332.420488,-1455.581446,-4811.338623,12287.418637
332.420796,-2221.676944,-4219.173869,13027.624579
332.421104,-2757.943793,-2146.597232,10807.006753
332.421412,-153.219100,74.020594,10140.821405
332.421720,1685.410096,1332.370696,8512.368333
332.422028,1991.848295,2442.679609,7402.059420
332.422336,2528.115143,1628.453072,8364.327145
332.422644,2068.457845,518.144159,8512.368333
332.422952,459.657299,370.102971,9326.594869
332.423260,1149.143247,666.185348,10214.842000
332.423567,1149.143247,1702.473667,8808.450710
332.423875,1532.190996,3478.967927,8364.327145
332.424183,3217.601092,3701.029710,8142.265362
332.424491,3217.601092,2368.659014,7994.224174
332.424799,2298.286494,-74.020594,9030.512492
332.425107,919.314598,-2368.659014,10140.821405
332.425415,-459.657299,-4145.153275,10881.027347
332.425723,-1915.238745,-4885.359217,12805.562797
332.426031,-2528.115143,-3775.050304,12213.398043
332.426339,-2068.457845,-1480.411884,10436.903782
332.426647,-995.924147,370.102971,9474.636058
332.426955,1149.143247,1850.514855,8734.430116
332.427263,2068.457845,1998.556043,8142.265362
332.427571,1608.800546,1332.370696,8660.409521
332.427879,689.485948,518.144159,8808.450710
332.428186,0.000000,592.164754,10214.842000
332.428494,0.000000,962.267725,10732.986159
332.428802,153.219100,2294.638420,9548.656652
332.429110,1608.800546,3627.009116,8734.430116
332.429418,2757.943793,3404.947333,8660.409521
332.429726,3140.991542,2220.617826,8364.327145
332.430034,2911.162892,-0.000000,9030.512492
332.430342,1378.971896,-2368.659014,10140.821405
332.430650,-842.705048,-3997.112087,10362.883188
332.430958,-2451.505594,-4219.173869,11473.192101
332.431266,-2451.505594,-3404.947333,12139.377449
332.431574,-2068.457845,-1258.350101,10214.842000
332.431882,-229.828649,1184.329507,9400.615463
332.432190,1149.143247,1998.556043,8734.430116
332.432498,1302.362347,2294.638420,8808.450710
332.432805,1149.143247,962.267725,9474.636058
332.433113,0.000000,296.082377,9696.697840
332.433421,-1225.752797,296.082377,10881.027347
332.433729,-1149.143247,370.102971,11325.150913
332.434037,-383.047749,2294.638420,9400.615463
332.434345,1378.971896,3256.906145,9104.533087
332.434653,3294.210641,2590.720797,8216.285956
332.434961,3600.648841,1924.535449,8364.327145
332.435269,2528.115143,-740.205942,9400.615463
332.435577,766.095498,-2664.741391,9844.739029
332.435885,-766.095498,-4071.132681,11473.192101
332.436193,-1302.362347,-3997.112087,11843.295072
332.436501,-1838.629195,-2368.659014,10436.903782
332.436809,-536.266849,-74.020594,9178.553681
332.437117,1225.752797,1628.453072,8438.347739
332.437425,2068.457845,2368.659014,8364.327145
332.437732,2681.334243,1554.432478,7624.121203
332.438040,1378.971896,962.267725,9178.553681
332.438348,-536.266849,-222.061783,9622.677246
332.438656,-1378.971896,-74.020594,10881.027347
332.438964,-1149.143247,370.102971,10881.027347
332.439272,-919.314598,2368.659014,9918.759623
332.439580,2374.896044,2368.659014,9326.594869
332.439888,2145.067394,2960.823768,7624.121203
332.440196,2681.334243,370.102971,9474.636058
332.440504,2834.553343,-1406.391290,9474.636058
332.440812,153.219100,-2590.720797,9622.677246
332.441120,-1149.143247,-4145.153275,11325.150913
332.441428,-1762.019645,-4145.153275,11325.150913
332.441736,-1915.238745,-1480.411884,11399.171507
332.442044,766.095498,-296.082377,9844.739029
332.442351,689.485948,2294.638420,6217.729913
332.442659,2681.334243,2072.576638,8438.347739
332.442967,2757.943793,888.247130,8734.430116
332.443275,1378.971896,1776.494261,7254.018232
332.443583,612.876398,296.082377,9400.615463
332.443891,536.266849,296.082377,10362.883188
332.444199,-153.219100,1702.473667,9474.636058
332.444507,536.266849,2738.761985,9326.594869
332.444815,2757.943793,2960.823768,9918.759623
332.445123,2834.553343,2886.803174,8142.265362
332.445431,3140.991542,592.164754,9918.759623
332.445739,1532.190996,-1258.350101,9844.739029
332.446047,-229.828649,-3404.947333,10732.986159
332.446355,-1608.800546,-4219.173869,12287.418637
332.446663,-1991.848295,-3552.988522,10881.027347
332.446970,-1685.410096,-2072.576638,11103.089130
332.447278,-153.219100,-814.226536,10140.821405
332.447586,1991.848295,1702.473667,7994.224174
332.447894,2298.286494,2220.617826,8364.327145
332.448202,1915.238745,740.205942,8808.450710
332.448510,1072.533697,888.247130,8808.450710
332.448818,536.266849,592.164754,9548.656652
332.449126,-306.438199,1110.308913,10362.883188
332.449434,76.609550,1924.535449,9622.677246
332.449742,1149.143247,3404.947333,9548.656652
332.450050,1838.629195,3552.988522,9400.615463
332.450358,2987.772442,2442.679609,7994.224174
332.450666,2757.943793,1628.453072,8216.285956
332.450974,1762.019645,-962.267725,9844.739029
332.451282,153.219100,-3182.885551,10584.944971
332.451589,-1455.581446,-3701.029710,11843.295072
332.451897,-2374.896044,-4145.153275,12583.501014
332.452205,-2221.676944,-2368.659014,11029.068536
332.452513,-842.705048,-148.041188,10362.883188
332.452821,1532.190996,1184.329507,8734.430116
332.453129,1838.629195,1480.411884,8068.244768
332.453437,1532.190996,1702.473667,8216.285956
332.453745,459.657299,666.185348,8660.409521
332.454053,229.828649,444.123565,10066.800811
332.454361,0.000000,1036.288319,10214.842000
332.454669,383.047749,1702.473667,9548.656652
332.454977,919.314598,3034.844362,8882.471304
332.455285,2757.943793,3404.947333,9104.533087
332.455593,3524.039291,2442.679609,8586.388927
332.455901,3140.991542,962.267725,8290.306550
332.456209,1915.238745,-888.247130,9178.553681
332.456517,459.657299,-3182.885551,10732.986159
332.456825,-1762.019645,-4219.173869,11843.295072
332.457133,-2604.724693,-3849.070898,11547.212695
332.457441,-1378.971896,-2294.638420,10288.862594
332.457749,76.609550,-0.000000,9770.718434
332.458057,689.485948,740.205942,8142.265362
332.458365,1762.019645,1258.350101,8660.409521
332.458673,1455.581446,1258.350101,8660.409521
332.458981,612.876398,592.164754,8734.430116
332.459289,-306.438199,370.102971,9696.697840
332.459597,-766.095498,296.082377,10658.965565
332.459905,0.000000,1628.453072,9474.636058
332.460213,1149.143247,3034.844362,8586.388927
332.460521,2451.505594,3108.864956,7994.224174
332.460829,2911.162892,2146.597232,8956.491898
332.461137,2911.162892,518.144159,8882.471304
332.461445,1685.410096,-1554.432478,9326.594869
332.461753,-536.266849,-3701.029710,10584.944971
332.462061,-1225.752797,-3997.112087,11695.253884
332.462369,-1455.581446,-3849.070898,11029.068536
332.462677,-1225.752797,-1628.453072,9844.739029
332.462985,459.657299,222.061783,9104.533087
332.463293,2145.067394,1332.370696,8734.430116
332.463601,2145.067394,1924.535449,8216.285956
332.463909,1608.800546,1406.391290,8512.368333
332.464217,842.705048,1036.288319,9030.512492
332.464525,-229.828649,222.061783,10732.986159
332.464833,-459.657299,1258.350101,11251.130318
332.465141,-766.095498,2516.700203,9992.780217
332.465449,995.924147,2886.803174,9178.553681
332.465757,1762.019645,3034.844362,9104.533087
332.466065,2374.896044,2368.659014,8956.491898
332.466373,1762.019645,-74.020594,9326.594869
332.466681,536.266849,-1776.494261,10066.800811
332.466989,-1532.190996,-4145.153275,10658.965565
332.467297,-1685.410096,-4515.256246,11473.192101
332.467605,-1762.019645,-2886.803174,11769.274478
332.467913,-766.095498,-888.247130,10066.800811
332.468221,1225.752797,1258.350101,8142.265362
332.468529,2681.334243,2368.659014,7550.100608
332.468837,2834.553343,2146.597232,7402.059420
332.469145,2374.896044,1554.432478,7920.203579
332.469453,919.314598,962.267725,9104.533087
332.469761,0.000000,740.205942,10288.862594
332.470069,-1608.800546,888.247130,10288.862594
332.470377,-383.047749,2590.720797,10362.883188
332.470685,842.705048,2812.782580,9104.533087
332.470993,1532.190996,2960.823768,8808.450710
332.471301,2451.505594,962.267725,10881.027347
332.471609,2145.067394,-222.061783,8808.450710
332.471917,383.047749,-2812.782580,10881.027347
332.472225,-612.876398,-4663.297435,11769.274478
332.472533,-2068.457845,-4293.194464,12065.356855
332.472841,-1991.848295,-3256.906145,11769.274478
332.473149,-919.314598,-962.267725,9474.636058
332.473457,1149.143247,962.267725,8512.368333
332.473765,2528.115143,2146.597232,7624.121203
332.474073,2987.772442,1850.514855,7920.203579
332.474381,2221.676944,1258.350101,7994.224174
332.474689,1149.143247,962.267725,8734.430116
332.474997,-459.657299,592.164754,9992.780217
332.475305,-536.266849,1110.308913,9918.759623
332.475613,0.000000,2738.761985,9252.574275
332.475921,1302.362347,3552.988522,9622.677246
332.476229,2528.115143,3108.864956,9104.533087
332.476537,2298.286494,2146.597232,8808.450710
332.476845,2298.286494,-814.226536,9178.553681
332.477153,536.266849,-2960.823768,10140.821405
332.477461,-995.924147,-4589.276840,12065.356855
332.477769,-2451.505594,-4589.276840,12287.418637
332.478077,-2604.724693,-3330.926739,11251.130318
332.478385,-766.095498,-814.226536,9770.718434
332.478693,995.924147,1332.370696,8512.368333
332.479001,2604.724693,1628.453072,8660.409521
332.479309,2604.724693,1776.494261,7476.080014
332.479617,2834.553343,1184.329507,8438.347739
332.479925,1149.143247,296.082377,9326.594869
332.480233,0.000000,888.247130,10066.800811
332.480541,-306.438199,1554.432478,10510.924376
332.480849,383.047749,3108.864956,8438.347739
332.481157,1991.848295,3330.926739,8660.409521
332.481465,3294.210641,3108.864956,9400.615463
332.481773,4060.306139,1554.432478,8068.244768
332.482081,1608.800546,-592.164754,9992.780217
332.482389,383.047749,-3256.906145,11399.171507
332.482697,-1532.190996,-4515.256246,11399.171507
332.483005,-2451.505594,-4441.235652,13249.686362
332.483313,-1685.410096,-3108.864956,11029.068536
332.483621,-229.828649,-148.041188,8956.491898
332.483929,1838.629195,1332.370696,8586.388927
332.484237,2374.896044,1480.411884,7772.162391
332.484545,2834.553343,1554.432478,7402.059420
332.484853,1532.190996,1110.308913,8290.306550
332.485161,612.876398,592.164754,9104.533087
332.485469,-766.095498,1184.329507,9992.780217
332.485777,-383.047749,1702.473667,10510.924376
332.486085,306.438199,3404.947333,9178.553681
332.486393,2145.067394,3330.926739,8808.450710
332.486701,2911.162892,2590.720797,9178.553681
332.487009,2451.505594,962.267725,8586.388927
332.487317,1532.190996,-1480.411884,10066.800811
332.487625,-689.485948,-3552.988522,11769.274478
332.487933,-1685.410096,-4737.318029,12731.542202
332.488241,-2451.505594,-4145.153275,12287.418637
332.488549,-1225.752797,-2368.659014,10658.965565
332.488857,229.828649,-0.000000,9030.512492
332.489165,2451.505594,1480.411884,8364.327145
332.489473,2987.772442,2516.700203,7550.100608
332.489781,2528.115143,2072.576638,7624.121203
332.490089,1915.238745,888.247130,8290.306550
332.490397,153.219100,518.144159,9548.656652
332.490705,-919.314598,740.205942,9918.759623
332.491013,-766.095498,1480.411884,10584.944971
332.491321,0.000000,2590.720797,9474.636058
332.491629,1225.752797,3478.967927,9178.553681
332.491937,2528.115143,2664.741391,9474.636058
332.492245,2451.505594,814.226536,8438.347739
332.492553,1149.143247,-1258.350101,9770.718434
332.492861,0.000000,-3404.947333,10955.047942
332.493169,-1762.019645,-4219.173869,11843.295072
332.493477,-1608.800546,-3552.988522,11695.253884
332.493785,-1225.752797,-1776.494261,10214.842000
332.494093,995.924147,222.061783,8660.409521
332.494401,2528.115143,1850.514855,7624.121203
332.494709,2987.772442,1702.473667,7920.203579
332.495017,2298.286494,1110.308913,7550.100608
332.495325,1225.752797,888.247130,8216.285956
332.495633,76.609550,222.061783,10362.883188
332.495941,-1532.190996,444.123565,10436.903782
332.496249,-383.047749,1702.473667,10658.965565
332.496557,459.657299,3404.947333,9474.636058
332.496865,1838.629195,3404.947333,8882.471304
332.497173,2681.334243,2220.617826,9030.512492
332.497481,2604.724693,1110.308913,9178.553681
332.497789,766.095498,-1702.473667,9918.759623
332.498097,-1225.752797,-4071.132681,12213.398043
332.498405,-2757.943793,-4589.276840,13693.809927
332.498713,-2987.772442,-3997.112087,12213.398043
332.499021,-1149.143247,-2368.659014,10955.047942
332.499329,0.000000,-0.000000,8290.306550
332.499637,2068.457845,1480.411884,7698.141797
332.499945,2681.334243,1110.308913,8512.368333
332.500253,1915.238745,962.267725,7772.162391
332.500561,995.924147,296.082377,8438.347739
332.500869,-536.266849,444.123565,10362.883188
332.501177,0.000000,814.226536,10214.842000
332.501485,-229.828649,2442.679609,9252.574275
332.501793,1225.752797,4367.215058,9326.594869
332.502101,3294.210641,3997.112087,8438.347739
332.502409,3064.381992,3182.885551,7402.059420
332.502717,2298.286494,1110.308913,8808.450710
332.503025,842.705048,-2220.617826,10362.883188
332.503333,-1838.629195,-4145.153275,11769.274478
332.503641,-3217.601092,-5477.523971,13175.665768
332.503949,-2834.553343,-4441.235652,11991.336260
332.504257,-1378.971896,-1924.535449,9992.780217
332.504565,459.657299,296.082377,9178.553681
332.504873,2145.067394,1924.535449,7846.182985
332.505181,2911.162892,1258.350101,7920.203579
332.505489,2604.724693,1184.329507,7772.162391
332.505797,1378.971896,888.247130,7994.224174
332.506105,0.000000,-0.000000,9696.697840
332.506413,0.000000,1628.453072,10362.883188
332.506721,766.095498,2886.803174,9696.697840
332.507029,1991.848295,3849.070898,8586.388927
332.507337,2987.772442,3775.050304,7994.224174
332.507645,3447.429741,3034.844362,7698.141797
332.507953,2451.505594,-0.000000,9474.636058
332.508261,1072.533697,-2368.659014,10140.821405
332.508569,-1149.143247,-3923.091493,11769.274478
332.508877,-1762.019645,-4737.318029,13101.645173
332.509185,-2298.286494,-3552.988522,11473.192101
332.509493,-1149.143247,-1184.329507,9696.697840
332.509801,689.485948,666.185348,8734.430116
332.510109,2221.676944,1702.473667,8512.368333
332.510417,2528.115143,1702.473667,8290.306550
332.510725,1302.362347,1110.308913,7920.203579
332.511033,766.095498,-0.000000,9178.553681
332.511341,-306.438199,444.123565,9992.780217
332.511649,-459.657299,1184.329507,11029.068536
332.511957,0.000000,2590.720797,9992.780217
332.512265,2221.676944,3849.070898,9104.533087
332.512573,2681.334243,3849.070898,7846.182985
332.512881,2987.772442,2146.597232,8734.430116
332.513189,2757.943793,-518.144159,9030.512492
332.513497,459.657299,-2368.659014,9992.780217
332.513805,-1532.190996,-3849.070898,11991.336260
332.514113,-1991.848295,-4071.132681,11991.336260
332.514421,-2068.457845,-2812.782580,11547.212695
332.514729,-1149.143247,-1036.288319,10066.800811
332.515037,1455.581446,814.226536,8660.409521
332.515345,2374.896044,1628.453072,8216.285956
332.515653,2604.724693,1184.329507,7624.121203
332.515961,1762.019645,814.226536,7846.182985
332.516269,919.314598,-296.082377,9770.718434
332.516577,-536.266849,-148.041188,10955.047942
332.516885,-1149.143247,962.267725,10362.883188
332.517193,229.828649,2516.700203,9696.697840
332.517501,1532.190996,3330.926739,8586.388927
332.517809,2451.505594,3552.988522,7846.182985
332.518117,2987.772442,1554.432478,9474.636058
332.518425,1072.533697,-1332.370696,8438.347739
332.518733,-459.657299,-2516.700203,9844.739029
332.519041,-1838.629195,-4071.132681,11769.274478
332.519349,-2681.334243,-4515.256246,12657.521608
332.519657,-2451.505594,-2738.761985,11547.212695
332.519965,-842.705048,-518.144159,9548.656652
332.520273,919.314598,1480.411884,7846.182985
332.520581,2681.334243,1480.411884,9400.615463
332.520889,3370.820191,1702.473667,7402.059420
332.521197,1072.533697,2294.638420,7031.956449
332.521505,1608.800546,-666.185348,10881.027347
332.521813,-459.657299,1258.350101,9474.636058
332.522121,0.000000,1332.370696,10807.006753
332.522429,536.266849,2960.823768,9770.718434
332.522737,1915.238745,3849.070898,8882.471304
332.523045,2604.724693,2664.741391,9474.636058
332.523353,2145.067394,1702.473667,8290.306550
332.523661,2145.067394,-1702.473667,10807.006753
332.523969,-842.705048,-2960.823768,11029.068536
332.524277,-2145.067394,-4589.276840,12879.583391
332.524585,-3064.381992,-4219.173869,11843.295072
332.524893,-2834.553343,-3108.864956,11843.295072
332.525201,-383.047749,-74.020594,9992.780217
332.525509,919.314598,1332.370696,8364.327145
332.525817,2834.553343,1924.535449,8956.491898
332.526125,2528.115143,1554.432478,7105.977043
332.526433,2068.457845,962.267725,7994.224174
332.526741,612.876398,296.082377,10066.800811
332.527049,306.438199,962.267725,10066.800811
332.527357,76.609550,2294.638420,10436.903782
332.527665,1225.752797,3108.864956,8882.471304
332.527973,3140.991542,4293.194464,8142.265362
332.528281,2987.772442,3256.906145,7105.977043
332.528589,3524.039291,1184.329507,8660.409521
332.528897,1838.629195,-740.205942,8586.388927
332.529205,0.000000,-2442.679609,10807.006753
332.529513,-1915.238745,-4885.359217,11769.274478
332.529821,-2834.553343,-3627.009116,12065.356855
332.530129,-1455.581446,-2442.679609,11843.295072
332.530437,-689.485948,-0.000000,8512.368333
332.530745,1072.533697,1184.329507,9622.677246
332.531053,3064.381992,888.247130,8808.450710
332.531361,1838.629195,1332.370696,7698.141797
332.531669,1072.533697,296.082377,9252.574275
332.531977,919.314598,-0.000000,10140.821405
332.532285,-229.828649,888.247130,10140.821405
332.532593,0.000000,1998.556043,9696.697840
332.532901,1991.848295,3627.009116,8660.409521
332.533209,2911.162892,4219.173869,7624.121203
332.533517,3524.039291,2960.823768,7772.162391
332.533825,3753.867940,1184.329507,8290.306550
332.534133,1991.848295,-740.205942,8882.471304
332.534441,-536.266849,-2590.720797,10140.821405
332.534749,-2221.676944,-4737.318029,11991.336260
332.535057,-3064.381992,-4145.153275,12657.521608
332.535365,-1762.019645,-1924.535449,11177.109724
332.535673,-1072.533697,-444.123565,9548.656652
332.535981,1991.848295,1110.308913,8882.471304
332.536289,1915.238745,1702.473667,8512.368333
332.536597,1685.410096,1036.288319,8068.244768
332.536905,612.876398,-0.000000,9400.615463
332.537213,-383.047749,-148.041188,10214.842000
332.537521,-536.266849,148.041188,11103.089130
332.537829,76.609550,1554.432478,10362.883188
332.538137,842.705048,3404.947333,8660.409521
332.538445,2451.505594,3330.926739,8660.409521
332.538753,3064.381992,2368.659014,8290.306550
332.539061,2451.505594,888.247130,7994.224174
332.539369,1225.752797,-1406.391290,9696.697840
332.539677,-306.438199,-2960.823768,10658.965565
332.539985,-2298.286494,-4663.297435,12139.377449
332.540293,-2374.896044,-3997.112087,12065.356855
332.540601,-1685.410096,-1406.391290,10288.862594
332.540909,459.657299,296.082377,9474.636058
332.541217,1762.019645,1776.494261,8734.430116
332.541525,2757.943793,1924.535449,7846.182985
332.541833,1915.238745,1184.329507,7772.162391
332.542141,766.095498,296.082377,9030.512492
332.542449,0.000000,-296.082377,10066.800811
332.542757,-306.438199,592.164754,11251.130318
332.543064,-229.828649,1850.514855,11029.068536
332.543372,1762.019645,3034.844362,8882.471304
332.543680,3064.381992,3330.926739,8734.430116
332.543988,3140.991542,2738.761985,8660.409521
332.544296,2987.772442,740.205942,9030.512492
332.544604,842.705048,-1184.329507,9844.739029
332.544912,-842.705048,-3849.070898,11769.274478
332.545220,-1455.581446,-3997.112087,11917.315666
332.545528,-2987.772442,-2960.823768,11843.295072
332.545836,-995.924147,-1554.432478,10807.006753
332.546144,459.657299,592.164754,9030.512492
332.546452,2451.505594,1850.514855,9104.533087
332.546760,2451.505594,2146.597232,7624.121203
332.547068,2068.457845,1258.350101,7772.162391
332.547376,612.876398,222.061783,10140.821405
332.547684,383.047749,-0.000000,11177.109724
332.547992,-612.876398,1702.473667,11029.068536
332.548300,919.314598,2146.597232,9696.697840
332.548608,2451.505594,3923.091493,8882.471304
332.548916,3294.210641,3775.050304,7846.182985
332.549224,3524.039291,2220.617826,8438.347739
332.549532,2298.286494,370.102971,8290.306550
332.549840,842.705048,-2294.638420,10066.800811
332.550148,-1991.848295,-3849.070898,11621.233289
332.550456,-3370.820191,-4737.318029,12287.418637
332.550764,-3830.477490,-3997.112087,12509.480420
332.551072,-1608.800546,-1998.556043,11251.130318
332.551380,-229.828649,740.205942,8512.368333
332.551688,1072.533697,1406.391290,8956.491898
332.551996,3140.991542,814.226536,9844.739029
332.552304,689.485948,2146.597232,6957.935855
332.552612,995.924147,-148.041188,10436.903782
332.552920,153.219100,370.102971,10881.027347
332.553228,-612.876398,962.267725,10066.800811
332.553536,536.266849,2294.638420,9326.594869
332.553844,2911.162892,4515.256246,7254.018232
332.554152,3677.258390,3330.926739,8512.368333
332.554460,2528.115143,2146.597232,7328.038826
332.554768,2374.896044,-0.000000,8734.430116
332.555077,459.657299,-2812.782580,11103.089130
332.555385,-2221.676944,-4885.359217,11547.212695
332.555693,-3600.648841,-5477.523971,12731.542202
332.556001,-3217.601092,-3923.091493,12213.398043
332.556309,-1685.410096,-888.247130,10362.883188
332.556617,76.609550,1036.288319,8512.368333
332.556925,2911.162892,1850.514855,8734.430116
332.557233,2911.162892,1406.391290,7105.977043
332.557541,1915.238745,1702.473667,7328.038826
332.557850,1302.362347,370.102971,9918.759623
332.558158,76.609550,518.144159,9548.656652
332.558466,0.000000,1184.329507,11177.109724
332.558774,536.266849,2516.700203,9844.739029
332.559082,2757.943793,3923.091493,7994.224174
332.559390,3907.087040,3404.947333,7772.162391
332.559698,3907.087040,2368.659014,8734.430116
332.560006,3447.429741,-592.164754,8882.471304
332.560314,306.438199,-2220.617826,9474.636058
332.560623,-1608.800546,-3701.029710,12435.459826
332.560931,-2374.896044,-4737.318029,12065.356855
332.561239,-3064.381992,-2294.638420,11325.150913
332.561547,-766.095498,-222.061783,10807.006753
332.561855,612.876398,1258.350101,9400.615463
332.562163,1991.848295,2368.659014,9104.533087
332.562471,1685.410096,1776.494261,8586.388927
332.562779,919.314598,1110.308913,8808.450710
332.563087,0.000000,592.164754,11251.130318
332.563396,-689.485948,-0.000000,11991.336260
332.563704,-536.266849,1480.411884,11177.109724
332.564012,1149.143247,2294.638420,9770.718434
332.564320,2451.505594,3627.009116,8586.388927
332.564628,3753.867940,3034.844362,7698.141797
332.564936,4213.525239,1184.329507,8364.327145
332.565244,1915.238745,-222.061783,8882.471304
332.565552,459.657299,-2886.803174,9918.759623
332.565861,-1455.581446,-3775.050304,10955.047942
332.566169,-2374.896044,-3552.988522,11695.253884
332.566477,-1532.190996,-2072.576638,10362.883188
332.566785,-153.219100,-0.000000,9474.636058
332.567093,1685.410096,1480.411884,8808.450710
332.567401,2604.724693,1480.411884,7105.977043
332.567709,1838.629195,1480.411884,8068.244768
332.568017,383.047749,222.061783,8734.430116
332.568325,0.000000,-666.185348,10807.006753
332.568634,-1302.362347,-222.061783,11103.089130
332.568942,-766.095498,296.082377,11029.068536
332.569250,842.705048,1924.535449,9252.574275
332.569558,1838.629195,3256.906145,8068.244768
332.569866,3830.477490,1628.453072,8956.491898
332.570174,2987.772442,962.267725,7698.141797
332.570482,1991.848295,-888.247130,8882.471304
332.570790,0.000000,-3182.885551,10214.842000
332.571098,-1072.533697,-3775.050304,10732.986159
332.571407,-2681.334243,-3330.926739,11399.171507
332.571715,-1378.971896,-2368.659014,10584.944971
332.572023,459.657299,888.247130,8734.430116
332.572331,1608.800546,1184.329507,8808.450710
332.572639,2145.067394,1924.535449,6957.935855
332.572947,2681.334243,1554.432478,7624.121203
332.573255,1072.533697,962.267725,8660.409521
332.573563,-306.438199,518.144159,10584.944971
332.573871,-306.438199,370.102971,11029.068536
332.574180,76.609550,1850.514855,10214.842000
332.574488,995.924147,2960.823768,8882.471304
332.574796,2834.553343,3627.009116,8142.265362
332.575104,3140.991542,2368.659014,9474.636058
332.575412,2374.896044,1110.308913,9030.512492
332.575720,995.924147,-1258.350101,9104.533087
332.576028,-1149.143247,-2886.803174,10807.006753
332.576336,-2911.162892,-4589.276840,12657.521608
332.576645,-3064.381992,-3849.070898,12139.377449
332.576953,-2145.067394,-2220.617826,11251.130318
332.577261,536.266849,-0.000000,9844.739029
332.577569,1455.581446,1258.350101,7328.038826
332.577877,1915.238745,1628.453072,8438.347739
332.578185,1455.581446,1480.411884,8364.327145
332.578493,459.657299,1406.391290,8438.347739
332.578801,-229.828649,740.205942,10584.944971
332.579109,-383.047749,962.267725,10658.965565
332.579418,536.266849,1776.494261,10140.821405
332.579726,1072.533697,3775.050304,8734.430116
332.580034,3370.820191,3182.885551,8586.388927
332.580342,3294.210641,2368.659014,8438.347739
332.580650,2374.896044,740.205942,8808.450710
332.580958,919.314598,-2072.576638,9770.718434
332.581266,-842.705048,-3701.029710,10955.047942
332.581574,-2757.943793,-4293.194464,12065.356855
332.581882,-3370.820191,-4441.235652,12213.398043
332.582191,-1685.410096,-2146.597232,10584.944971
332.582499,0.000000,296.082377,9400.615463
332.582807,1991.848295,1332.370696,8142.265362
332.583115,2298.286494,1924.535449,7846.182985
332.583423,1532.190996,1406.391290,8142.265362
332.583731,689.485948,814.226536,9696.697840
332.584039,-459.657299,222.061783,11029.068536
332.584347,-919.314598,1258.350101,10288.862594
332.584655,919.314598,2220.617826,9992.780217
332.584964,2221.676944,3404.947333,8660.409521
332.585272,3294.210641,3849.070898,7698.141797
332.585580,3983.696590,2738.761985,8660.409521
332.585888,2911.162892,370.102971,8364.327145
332.586196,766.095498,-1628.453072,9030.512492
332.586504,-1302.362347,-4145.153275,11695.253884
332.586812,-2451.505594,-4737.318029,12213.398043
332.587120,-2911.162892,-3330.926739,11917.315666
332.587429,-536.266849,-1332.370696,10436.903782
332.587737,689.485948,222.061783,7994.224174
332.588045,2298.286494,1406.391290,8438.347739
332.588353,2834.553343,1850.514855,8142.265362
332.588661,2068.457845,1850.514855,7772.162391
332.588969,1149.143247,-0.000000,9474.636058
332.589277,0.000000,-222.061783,10955.047942
332.589585,-306.438199,740.205942,11103.089130
332.589893,229.828649,1998.556043,9696.697840
332.590202,1762.019645,2886.803174,9400.615463
332.590510,3064.381992,3034.844362,8512.368333
332.590818,3370.820191,2072.576638,8364.327145
332.591126,2298.286494,-666.185348,9104.533087
332.591434,459.657299,-2072.576638,9844.739029
332.591742,-689.485948,-4145.153275,11473.192101
332.592050,-2911.162892,-4293.194464,11547.212695
332.592358,-2221.676944,-3552.988522,11547.212695
332.592666,-383.047749,-1184.329507,9622.677246
332.592975,306.438199,1332.370696,7328.038826
332.593283,2604.724693,1924.535449,7846.182985
332.593591,2604.724693,2516.700203,7328.038826
332.593899,2068.457845,1554.432478,8586.388927
332.594207,1302.362347,592.164754,9548.656652
332.594515,-306.438199,1110.308913,10140.821405
332.594823,-459.657299,888.247130,10510.924376
332.595131,-229.828649,2072.576638,9770.718434
332.595439,1378.971896,3330.926739,9326.594869
332.595748,1149.143247,2812.782580,8660.409521
332.596056,4366.744339,1184.329507,10362.883188
332.596364,995.924147,-74.020594,6957.935855
332.596672,306.438199,-2960.823768,11547.212695
332.596980,-995.924147,-4441.235652,13619.789333
332.597288,-2528.115143,-3478.967927,11029.068536
332.597596,-2145.067394,-3923.091493,12361.439231
332.597904,-229.828649,296.082377,7920.203579
332.598212,2068.457845,740.205942,8808.450710
332.598521,2374.896044,2368.659014,7402.059420
332.598829,3830.477490,2294.638420,7105.977043
332.599137,2528.115143,1554.432478,7698.141797
332.599445,229.828649,740.205942,9178.553681
332.599753,0.000000,666.185348,11251.130318
332.600061,0.000000,1850.514855,10066.800811
332.600369,383.047749,2960.823768,9992.780217
332.600677,1455.581446,3182.885551,8808.450710
332.600986,2834.553343,2590.720797,9474.636058
332.601294,2528.115143,740.205942,9844.739029
332.601602,1149.143247,-1628.453072,9400.615463
332.601910,-612.876398,-3330.926739,10881.027347
332.602218,-2221.676944,-5477.523971,11917.315666
332.602526,-3294.210641,-5033.400406,13249.686362
332.602834,-3217.601092,-3108.864956,11547.212695
332.603142,-689.485948,-1184.329507,10362.883188
332.603450,1225.752797,1184.329507,8364.327145
332.603759,2681.334243,2812.782580,7772.162391
332.604067,3294.210641,2368.659014,7254.018232
332.604375,1532.190996,2368.659014,7550.100608
332.604683,842.705048,1406.391290,8882.471304
332.604991,459.657299,1332.370696,10510.924376
332.605299,-229.828649,1924.535449,9400.615463
332.605607,0.000000,3256.906145,8586.388927
332.605915,2911.162892,2738.761985,10881.027347
332.606223,1685.410096,3034.844362,7624.121203
332.606532,1608.800546,-148.041188,9696.697840
332.606840,1762.019645,-1332.370696,10066.800811
332.607148,-1149.143247,-3923.091493,11399.171507
332.607456,-2145.067394,-5551.544565,13249.686362
332.607764,-2757.943793,-4663.297435,11843.295072
332.608072,-1378.971896,-3108.864956,11547.212695
332.608380,-612.876398,-666.185348,8734.430116
332.608688,1762.019645,1702.473667,8660.409521
332.608996,3140.991542,1480.411884,7920.203579
332.609305,2834.553343,1406.391290,6957.935855
332.609613,2834.553343,1628.453072,7994.224174
332.609921,383.047749,444.123565,9178.553681
332.610229,-459.657299,592.164754,10658.965565
332.610537,-842.705048,1850.514855,9992.780217
332.610845,1302.362347,3256.906145,9252.574275
332.611153,1991.848295,3552.988522,8734.430116
332.611461,3294.210641,2812.782580,8068.244768
332.611770,3370.820191,1110.308913,8808.450710
332.612078,1762.019645,-1184.329507,8882.471304
332.612386,0.000000,-2960.823768,11473.192101
332.612694,-1915.238745,-4663.297435,13027.624579
332.613002,-2681.334243,-3849.070898,12139.377449
332.613310,-1685.410096,-2146.597232,10214.842000
332.613618,383.047749,-444.123565,9474.636058
332.613926,2145.067394,888.247130,9030.512492
332.614234,3217.601092,1332.370696,7772.162391
332.614543,2374.896044,1998.556043,7179.997637
332.614851,1302.362347,814.226536,8438.347739
332.615159,459.657299,148.041188,9696.697840
332.615467,-995.924147,888.247130,10584.944971
332.615775,0.000000,1480.411884,10807.006753
332.616083,919.314598,2516.700203,9030.512492
332.616391,2528.115143,3775.050304,8808.450710
332.616699,3753.867940,2442.679609,8956.491898
332.617007,2757.943793,1332.370696,8364.327145
332.617316,1455.581446,-1332.370696,10214.842000
332.617624,-306.438199,-3182.885551,10955.047942
332.617932,-2451.505594,-3849.070898,12139.377449
332.618240,-2604.724693,-4071.132681,13101.645173
332.618548,-1225.752797,-1850.514855,10732.986159
332.618856,0.000000,592.164754,8956.491898
332.619164,1991.848295,1332.370696,8438.347739
332.619472,2298.286494,2146.597232,6957.935855
332.619780,1991.848295,1406.391290,7698.141797
332.620089,459.657299,-0.000000,9104.533087
332.620397,-536.266849,-222.061783,10732.986159
332.620705,-1532.190996,740.205942,11103.089130
332.621013,-536.266849,1776.494261,10510.924376
332.621321,1072.533697,3182.885551,9178.553681
332.621629,2604.724693,3330.926739,8290.306550
332.621937,3217.601092,2590.720797,8734.430116
332.622245,2451.505594,740.205942,8586.388927
332.622554,306.438199,-1184.329507,9548.656652
332.622862,-1302.362347,-3627.009116,12065.356855
332.623170,-2451.505594,-4737.318029,12731.542202
332.623478,-2451.505594,-4071.132681,12139.377449
332.623786,-1838.629195,-2146.597232,10510.924376
332.624094,842.705048,740.205942,8808.450710
332.624402,3140.991542,1850.514855,7698.141797
332.624710,4136.915689,3034.844362,6587.832884
332.625018,3524.039291,2072.576638,6587.832884
332.625327,2068.457845,1332.370696,7772.162391
332.625635,612.876398,370.102971,9474.636058
332.625943,-229.828649,1702.473667,9770.718434
332.626251,0.000000,1998.556043,10732.986159
332.626559,1838.629195,3108.864956,9696.697840
332.626867,2068.457845,3404.947333,8216.285956
332.627175,2451.505594,1628.453072,9326.594869
332.627483,1302.362347,-444.123565,9548.656652
332.627791,-306.438199,-2072.576638,10362.883188
332.628100,-2068.457845,-4959.379811,12731.542202
332.628408,-3600.648841,-5403.503377,13397.727550
332.628716,-3294.210641,-4145.153275,11843.295072
332.629024,-1991.848295,-2220.617826,10955.047942
332.629332,1302.362347,148.041188,9326.594869
332.629640,2374.896044,2146.597232,7105.977043
332.629948,2987.772442,1850.514855,7846.182985
332.630256,3524.039291,1036.288319,6957.935855
332.630564,306.438199,1184.329507,6513.812290
332.630873,766.095498,-74.020594,9696.697840
332.631181,689.485948,1776.494261,9992.780217
332.631489,1072.533697,2664.741391,8882.471304
332.631797,766.095498,3997.112087,8438.347739
332.632105,3907.087040,3404.947333,8808.450710
332.632413,2987.772442,2368.659014,8808.450710
332.632721,842.705048,-0.000000,9252.574275
332.633029,689.485948,-2368.659014,10807.006753
332.633338,-2451.505594,-4589.276840,12287.418637
332.633646,-4213.525239,-5107.421000,14137.933492
332.633954,-2528.115143,-3849.070898,11991.336260
332.634262,-1225.752797,-1850.514855,10288.862594
332.634570,0.000000,-0.000000,9474.636058
332.634878,1991.848295,1406.391290,7920.203579
332.635186,2528.115143,1702.473667,8290.306550
332.635494,1302.362347,592.164754,8142.265362
332.635802,1149.143247,518.144159,8364.327145
332.636111,229.828649,1110.308913,9622.677246
332.636419,919.314598,1480.411884,10214.842000
332.636727,995.924147,3108.864956,8512.368333
332.637035,2757.943793,4737.318029,8290.306550
332.637343,3983.696590,3923.091493,8290.306550
332.637651,3524.039291,3182.885551,7179.997637
332.637959,2681.334243,370.102971,9252.574275
332.638267,0.000000,-2442.679609,10955.047942
332.638575,-1378.971896,-3775.050304,12287.418637
332.638884,-3294.210641,-4441.235652,12583.501014
332.639192,-3217.601092,-3627.009116,12139.377449
332.639500,-1225.752797,-1480.411884,10732.986159
332.639808,766.095498,666.185348,9548.656652
332.640116,2298.286494,1480.411884,8216.285956
332.640424,3524.039291,1776.494261,7772.162391
332.640732,1838.629195,888.247130,7476.080014
332.641040,995.924147,-0.000000,10288.862594
332.641348,0.000000,740.205942,9696.697840
332.641657,0.000000,1406.391290,10510.924376
332.641965,766.095498,2220.617826,9548.656652
332.642273,2298.286494,3627.009116,8586.388927
332.642581,2528.115143,2442.679609,9622.677246
332.642889,2987.772442,1924.535449,8216.285956
332.643197,2451.505594,-444.123565,9326.594869
332.643505,-153.219100,-2738.761985,10881.027347
332.643813,-1991.848295,-4441.235652,12213.398043
332.644121,-2451.505594,-4589.276840,12509.480420
332.644430,-2374.896044,-2368.659014,11029.068536
332.644738,-766.095498,-444.123565,9474.636058
332.645046,1225.752797,888.247130,8512.368333
332.645354,2298.286494,1554.432478,7402.059420
332.645662,3370.820191,1702.473667,7031.956449
332.645970,1838.629195,1480.411884,7105.977043
332.646278,536.266849,444.123565,9104.533087
332.646586,0.000000,444.123565,9844.739029
332.646895,-766.095498,1702.473667,10510.924376
332.647203,-459.657299,2368.659014,9696.697840
332.647511,1378.971896,3034.844362,9770.718434
332.647819,1762.019645,2886.803174,8882.471304
332.648127,1455.581446,962.267725,9474.636058
332.648435,306.438199,-1406.391290,9770.718434
332.648743,-1378.971896,-3552.988522,11769.274478
332.649051,-2604.724693,-4663.297435,12583.501014
332.649359,-3064.381992,-3775.050304,12213.398043
332.649668,-1838.629195,-1850.514855,11103.089130
332.649976,306.438199,-0.000000,9474.636058
332.650284,2528.115143,1628.453072,8660.409521
332.650592,3370.820191,2294.638420,7328.038826
332.650900,3983.696590,1998.556043,6809.894666
332.651208,2757.943793,1480.411884,7031.956449
332.651516,1302.362347,592.164754,9178.553681
332.651824,306.438199,740.205942,10510.924376
332.652132,153.219100,1628.453072,9918.759623
332.652441,1149.143247,2368.659014,9622.677246
332.652749,2221.676944,3701.029710,9178.553681
332.653057,2987.772442,2516.700203,8586.388927
332.653365,2451.505594,1332.370696,8660.409521
332.653673,842.705048,-740.205942,9474.636058
332.653981,-766.095498,-3108.864956,11103.089130
332.654289,-2451.505594,-4145.153275,12805.562797
332.654597,-3447.429741,-3997.112087,12805.562797
332.654905,-2298.286494,-2368.659014,11547.212695
332.655213,-689.485948,-222.061783,9918.759623
332.655521,919.314598,370.102971,9474.636058
332.655829,2221.676944,1480.411884,8068.244768
332.656137,2451.505594,1110.308913,7328.038826
332.656446,1455.581446,-148.041188,8882.471304
332.656754,689.485948,-0.000000,9400.615463
332.657062,383.047749,592.164754,9992.780217
332.657370,383.047749,1924.535449,9474.636058
332.657678,2068.457845,2590.720797,8438.347739
332.657986,2757.943793,3849.070898,7402.059420
332.658294,4213.525239,2960.823768,7772.162391
332.658602,2834.553343,1924.535449,7402.059420
332.658910,1685.410096,-518.144159,8808.450710
332.659218,-612.876398,-2664.741391,10584.944971
332.659526,-2757.943793,-3849.070898,12213.398043
332.659834,-3524.039291,-4367.215058,13249.686362
332.660142,-2757.943793,-2294.638420,10955.047942
332.660450,-612.876398,-1036.288319,10436.903782
332.660758,459.657299,296.082377,9696.697840
332.661067,1225.752797,592.164754,8882.471304
332.661375,1532.190996,740.205942,8512.368333
332.661683,306.438199,444.123565,9030.512492
332.661991,-383.047749,-222.061783,10584.944971
332.662299,0.000000,444.123565,10732.986159
332.662607,612.876398,2294.638420,9622.677246
332.662915,1685.410096,3182.885551,8586.388927
332.663223,3983.696590,3330.926739,8142.265362
332.663531,3907.087040,2886.803174,7624.121203
332.663839,3064.381992,1628.453072,7328.038826
332.664147,2068.457845,-592.164754,8956.491898
332.664455,76.609550,-2442.679609,10436.903782
332.664763,-1762.019645,-3478.967927,12065.356855
332.665071,-2451.505594,-3256.906145,12361.439231
332.665379,-1532.190996,-1332.370696,11103.089130
332.665688,306.438199,-74.020594,9918.759623
332.665996,1302.362347,1258.350101,8956.491898
332.666304,2451.505594,1628.453072,8364.327145
332.666612,1455.581446,962.267725,8142.265362
332.666920,229.828649,-0.000000,9844.739029
332.667228,0.000000,-0.000000,11103.089130
332.667536,-153.219100,-0.000000,11843.295072
332.667844,0.000000,1554.432478,10584.944971
332.668152,1685.410096,2664.741391,9104.533087
332.668460,2834.553343,2590.720797,9326.594869
332.668768,2834.553343,2368.659014,7846.182985
332.669076,2681.334243,518.144159,8808.450710
332.669384,1072.533697,-888.247130,9252.574275
332.669692,-536.266849,-3256.906145,10584.944971
332.670000,-2145.067394,-3849.070898,11843.295072
332.670308,-2221.676944,-2664.741391,11843.295072
332.670617,-1149.143247,-814.226536,10510.924376
332.670925,0.000000,1036.288319,9030.512492
332.671233,2528.115143,1776.494261,8734.430116
332.671541,2145.067394,2516.700203,7105.977043
332.671849,1915.238745,1776.494261,8364.327145
332.672157,766.095498,592.164754,8808.450710
332.672465,-1149.143247,814.226536,10066.800811
332.672773,76.609550,444.123565,11473.192101
332.673081,-383.047749,2146.597232,9104.533087
332.673389,1762.019645,2812.782580,9622.677246
332.673697,2528.115143,3108.864956,8364.327145
332.674005,3217.601092,1850.514855,8216.285956
332.674313,1838.629195,-0.000000,8438.347739
332.674621,995.924147,-1998.556043,9326.594869
332.674929,-1225.752797,-4145.153275,11769.274478
332.675238,-2757.943793,-4219.173869,12583.501014
332.675546,-2528.115143,-3923.091493,12805.562797
332.675854,-1685.410096,-1480.411884,10066.800811
332.676162,1072.533697,740.205942,9400.615463
332.676470,2681.334243,1480.411884,7402.059420
332.676778,2911.162892,2738.761985,6513.812290
332.677086,3294.210641,1776.494261,7550.100608
332.677394,995.924147,1258.350101,8068.244768
332.677702,612.876398,1036.288319,10658.965565
332.678010,-229.828649,888.247130,10584.944971
332.678318,306.438199,2368.659014,9696.697840
332.678626,1838.629195,2960.823768,9326.594869
332.678934,2604.724693,2738.761985,8438.347739
332.679242,2681.334243,1702.473667,8586.388927
332.679550,2221.676944,-148.041188,8808.450710
332.679858,0.000000,-2664.741391,10584.944971
332.680167,-1762.019645,-4071.132681,12583.501014
332.680475,-3217.601092,-4663.297435,13101.645173
332.680783,-3294.210641,-2960.823768,11843.295072
332.681091,-1532.190996,-1258.350101,11177.109724
332.681399,919.314598,740.205942,9252.574275
332.681707,2145.067394,1998.556043,7402.059420
332.682015,2681.334243,2146.597232,7031.956449
332.682323,1991.848295,1554.432478,7402.059420
332.682631,766.095498,1184.329507,9178.553681
332.682939,459.657299,592.164754,10584.944971
332.683247,229.828649,1554.432478,10066.800811
332.683555,1149.143247,2664.741391,9104.533087
332.683863,2145.067394,3478.967927,8438.347739
332.684171,3447.429741,2812.782580,8364.327145
332.684479,3294.210641,1776.494261,7476.080014
332.684788,2221.676944,-370.102971,7994.224174
332.685096,0.000000,-3108.864956,10732.986159
332.685404,-2604.724693,-5107.421000,12879.583391
332.685712,-3907.087040,-4959.379811,13101.645173
332.686020,-3370.820191,-3478.967927,12657.521608
332.686328,-1762.019645,-1332.370696,10288.862594
332.686636,459.657299,296.082377,9696.697840
332.686944,2068.457845,1480.411884,8068.244768
332.687252,2145.067394,1998.556043,7179.997637
332.687560,1532.190996,888.247130,7994.224174
332.687868,1225.752797,296.082377,9474.636058
332.688176,229.828649,444.123565,10362.883188
332.688484,76.609550,1406.391290,10436.903782
332.688792,919.314598,2590.720797,9326.594869
332.689100,2987.772442,3404.947333,8068.244768
332.689409,4213.525239,3330.926739,7476.080014
332.689717,4290.134789,1924.535449,7846.182985
332.690025,3140.991542,-0.000000,8068.244768
332.690333,76.609550,-1628.453072,9474.636058
332.690641,-689.485948,-3552.988522,11991.336260
332.690949,-2911.162892,-3182.885551,11917.315666
332.691257,-2221.676944,-2368.659014,12139.377449
332.691565,-612.876398,-518.144159,10510.924376
332.691873,689.485948,1480.411884,8882.471304
332.692181,2068.457845,1184.329507,8734.430116
332.692489,2298.286494,1110.308913,7772.162391
332.692797,612.876398,814.226536,9326.594869
332.693105,0.000000,-370.102971,10658.965565
332.693413,-1072.533697,-74.020594,11325.150913
332.693721,-1072.533697,-0.000000,11769.274478
332.694029,459.657299,1628.453072,10066.800811
332.694338,2298.286494,2220.617826,9178.553681
332.694646,3447.429741,2442.679609,7920.203579
332.694954,4519.963438,740.205942,8512.368333
332.695262,2528.115143,-148.041188,7920.203579
332.695570,842.705048,-1776.494261,9178.553681
332.695878,-459.657299,-2886.803174,11473.192101
332.696186,-1455.581446,-2368.659014,10881.027347
332.696494,-1225.752797,-1258.350101,10658.965565
332.696802,-536.266849,148.041188,9548.656652
332.697110,1915.238745,1776.494261,7772.162391
332.697418,1838.629195,1850.514855,7994.224174
332.697726,1532.190996,666.185348,8142.265362
332.698034,76.609550,1036.288319,8586.388927
332.698342,-1225.752797,-444.123565,11843.295072
332.698650,-1762.019645,-370.102971,11843.295072
332.698959,-1532.190996,740.205942,10510.924376
332.699267,-919.314598,1332.370696,11473.192101
332.699575,1685.410096,1998.556043,10066.800811
332.699883,2451.505594,2516.700203,8216.285956
332.700191,2528.115143,1036.288319,7920.203579
332.700499,2068.457845,-962.267725,8364.327145
332.700807,0.000000,-2220.617826,9918.759623
332.701115,-1455.581446,-3256.906145,11695.253884
332.701423,-1378.971896,-2442.679609,11251.130318
332.701731,-919.314598,-1184.329507,9474.636058
332.702039,612.876398,814.226536,9548.656652
332.702347,2528.115143,1480.411884,8142.265362
332.702655,2221.676944,2886.803174,6957.935855
332.702963,2374.896044,1480.411884,7846.182985
332.703271,1378.971896,444.123565,8734.430116
332.703579,-306.438199,370.102971,9918.759623
332.703888,-766.095498,-0.000000,11843.295072
332.704196,-229.828649,1258.350101,10510.924376
332.704504,842.705048,2294.638420,10362.883188
332.704812,2528.115143,2220.617826,9622.677246
332.705120,3064.381992,2146.597232,8586.388927
332.705428,2911.162892,518.144159,8216.285956
332.705736,1302.362347,-1258.350101,8956.491898
332.706044,0.000000,-2738.761985,11103.089130
332.706352,-2374.896044,-4515.256246,12139.377449
332.706660,-2757.943793,-3627.009116,12435.459826
332.706968,-1608.800546,-1850.514855,11029.068536
332.707276,459.657299,444.123565,9770.718434
332.707584,1838.629195,1628.453072,8142.265362
332.707892,2757.943793,2516.700203,7105.977043
332.708200,2451.505594,2146.597232,7254.018232
332.708509,1072.533697,1406.391290,8438.347739
332.708817,383.047749,962.267725,9844.739029
332.709125,0.000000,740.205942,10288.862594
332.709433,-459.657299,1406.391290,10436.903782
332.709741,1608.800546,2220.617826,9400.615463
332.710049,2451.505594,2516.700203,9326.594869
332.710357,2604.724693,1850.514855,8512.368333
332.710665,2681.334243,222.061783,8216.285956
332.710973,459.657299,-888.247130,9400.615463
332.711281,-1302.362347,-3701.029710,11473.192101
332.711589,-2068.457845,-4071.132681,12139.377449
332.711897,-2987.772442,-3108.864956,12065.356855
332.712205,-1149.143247,-1776.494261,11325.150913
332.712513,229.828649,-0.000000,9474.636058
332.712821,1608.800546,1702.473667,8882.471304
332.713130,1838.629195,1184.329507,7772.162391
332.713438,1762.019645,1554.432478,7550.100608
332.713746,689.485948,222.061783,9104.533087
332.714054,-229.828649,-74.020594,9918.759623
332.714362,-229.828649,1110.308913,9844.739029
332.714670,766.095498,1776.494261,9770.718434
332.714978,1455.581446,2146.597232,9178.553681
332.715286,3217.601092,2738.761985,8290.306550
332.715594,3907.087040,1850.514855,8142.265362
332.715902,2757.943793,444.123565,7994.224174
332.716210,919.314598,-1776.494261,9178.553681
332.716518,-153.219100,-3775.050304,11769.274478
332.716826,-1838.629195,-3701.029710,12139.377449
332.717134,-2068.457845,-3034.844362,11917.315666
332.717442,-766.095498,-1480.411884,10584.944971
332.717750,919.314598,666.185348,9326.594869
332.718059,1991.848295,1628.453072,7772.162391
332.718367,1991.848295,1554.432478,8216.285956
332.718675,1991.848295,666.185348,8660.409521
332.718983,-383.047749,518.144159,9474.636058
332.719291,-766.095498,-222.061783,11547.212695
332.719599,-919.314598,222.061783,11029.068536
332.719907,-536.266849,2368.659014,9770.718434
332.720215,1838.629195,3034.844362,10584.944971
332.720523,3370.820191,3034.844362,7920.203579
332.720831,3600.648841,3034.844362,7624.121203
332.721139,2681.334243,370.102971,8660.409521
332.721447,1608.800546,-1480.411884,8882.471304
332.721755,-842.705048,-2738.761985,11843.295072
332.722063,-1762.019645,-4515.256246,13027.624579
332.722371,-2221.676944,-2220.617826,10510.924376
332.722680,-459.657299,-814.226536,11177.109724
332.722988,536.266849,518.144159,8808.450710
332.723296,1838.629195,1776.494261,8290.306550
332.723604,2068.457845,1184.329507,8512.368333
332.723912,612.876398,1332.370696,7624.121203
332.724220,153.219100,-0.000000,9844.739029
332.724528,-842.705048,444.123565,10881.027347
332.724836,-1302.362347,814.226536,10807.006753
332.725144,-689.485948,2516.700203,9770.718434
332.725452,1838.629195,2220.617826,10510.924376
332.725760,2374.896044,3330.926739,8512.368333
332.726068,2987.772442,740.205942,8586.388927
332.726376,2374.896044,148.041188,8586.388927
332.726684,0.000000,-3034.844362,10066.800811
332.726992,-766.095498,-4071.132681,11695.253884
332.727300,-1762.019645,-3997.112087,11917.315666
332.727609,-1608.800546,-2812.782580,11695.253884
332.727917,-306.438199,-888.247130,9918.759623
332.728225,1991.848295,1036.288319,8512.368333
332.728533,3140.991542,1998.556043,7550.100608
332.728841,2451.505594,2664.741391,6661.853478
332.729149,1915.238745,2146.597232,7476.080014
332.729457,536.266849,888.247130,9326.594869
332.729765,-689.485948,962.267725,10288.862594
332.730073,-995.924147,1332.370696,10584.944971
332.730381,306.438199,2072.576638,11177.109724
332.730689,766.095498,2368.659014,9178.553681
332.730997,2298.286494,2072.576638,10066.800811
332.731305,1608.800546,-0.000000,10584.944971
332.731613,306.438199,-888.247130,9548.656652
332.731921,-766.095498,-3404.947333,11325.150913
332.732230,-2068.457845,-4219.173869,12583.501014
332.732538,-2528.115143,-3997.112087,12287.418637
332.732846,-2145.067394,-2146.597232,10881.027347
332.733154,306.438199,-0.000000,10140.821405
332.733462,2145.067394,1702.473667,7476.080014
332.733770,3524.039291,2960.823768,6883.915261
332.734078,3830.477490,2590.720797,7105.977043
332.734386,1455.581446,2220.617826,6513.812290
332.734694,459.657299,1184.329507,9474.636058
332.735002,76.609550,592.164754,10362.883188
332.735310,-1072.533697,1332.370696,9696.697840
332.735618,229.828649,1850.514855,10288.862594
332.735926,2068.457845,1776.494261,9918.759623
332.736234,1608.800546,1628.453072,8882.471304
332.736542,2298.286494,-74.020594,9178.553681
332.736850,995.924147,-1702.473667,9474.636058
332.737159,-1149.143247,-3701.029710,11473.192101
332.737467,-2451.505594,-4737.318029,13175.665768
332.737775,-2451.505594,-3997.112087,12805.562797
332.738083,-1838.629195,-1998.556043,11399.171507
332.738391,76.609550,-74.020594,9474.636058
332.738699,2451.505594,1554.432478,8142.265362
332.739007,2681.334243,2368.659014,7624.121203
332.739315,2604.724693,1850.514855,6587.832884
332.739623,1532.190996,1332.370696,7920.203579
332.739931,536.266849,518.144159,9918.759623
332.740239,-383.047749,444.123565,9918.759623
332.740547,383.047749,1998.556043,9844.739029
332.740855,919.314598,2960.823768,9770.718434
332.741163,3064.381992,3034.844362,8364.327145
332.741471,3983.696590,3182.885551,7772.162391
332.741780,3753.867940,962.267725,8142.265362
332.742088,1915.238745,-518.144159,8438.347739
332.742396,-229.828649,-2664.741391,11177.109724
332.742704,-1455.581446,-3775.050304,12731.542202
332.743012,-2681.334243,-3404.947333,12213.398043
332.743320,-1762.019645,-1850.514855,11991.336260
332.743628,229.828649,-814.226536,10288.862594
332.743936,1532.190996,1110.308913,8438.347739
332.744244,2221.676944,1924.535449,8364.327145
332.744552,2145.067394,1406.391290,7624.121203
332.744860,842.705048,814.226536,8142.265362
332.745168,306.438199,518.144159,9622.677246
332.745476,-919.314598,1184.329507,10066.800811
332.745784,0.000000,2516.700203,9696.697840
332.746092,1378.971896,3034.844362,9474.636058
332.746401,2374.896044,3701.029710,8364.327145
332.746709,2987.772442,2812.782580,7550.100608
332.747017,1685.410096,1184.329507,8216.285956
332.747325,229.828649,-962.267725,10288.862594
332.747633,-2374.896044,-2886.803174,11621.233289
332.747941,-3524.039291,-4589.276840,13545.768739
332.748249,-5132.839837,-4737.318029,13323.706956
332.748557,-3830.477490,-2886.803174,11917.315666
332.748865,-2145.067394,-666.185348,10658.965565
332.749173,0.000000,888.247130,9030.512492
332.749481,919.314598,1480.411884,7994.224174
332.749789,842.705048,1702.473667,6883.915261
332.750097,76.609550,814.226536,8290.306550
332.750405,-689.485948,148.041188,9326.594869
332.750713,-842.705048,666.185348,9770.718434
332.751021,-1072.533697,2072.576638,9918.759623
332.751330,995.924147,2812.782580,8586.388927
332.751638,766.095498,3775.050304,8068.244768
332.751946,1838.629195,3034.844362,8068.244768
332.752254,1378.971896,1776.494261,7254.018232
332.752562,-689.485948,-444.123565,8290.306550
332.752870,-1685.410096,-3256.906145,11325.150913
332.753178,-4136.915689,-4367.215058,12657.521608
332.753486,-5132.839837,-4737.318029,13249.686362
332.753794,-3907.087040,-3108.864956,12213.398043
332.754102,-2681.334243,-666.185348,9918.759623
332.754410,-1378.971896,666.185348,9178.553681
332.754718,1302.362347,2072.576638,7179.997637
332.755026,842.705048,2590.720797,6143.709319
332.755334,383.047749,1332.370696,7994.224174
332.755642,-842.705048,-0.000000,8586.388927
332.755951,-2451.505594,-0.000000,10584.944971
332.756259,-2757.943793,-740.205942,11547.212695
332.756567,-2298.286494,1036.288319,9696.697840
332.756875,-1378.971896,1702.473667,10807.006753
332.757183,0.000000,2146.597232,9252.574275
332.757491,612.876398,2220.617826,7550.100608
332.757799,842.705048,962.267725,8512.368333
332.758107,0.000000,-1184.329507,8512.368333
332.758415,-1991.848295,-1850.514855,9918.759623
332.758723,-2221.676944,-3256.906145,13619.789333
332.759031,-4213.525239,-2442.679609,10807.006753
332.759339,-3140.991542,-814.226536,11103.089130
332.759647,-2221.676944,370.102971,10362.883188
332.759955,-1685.410096,2442.679609,7920.203579
332.760263,536.266849,2368.659014,8512.368333
332.760572,-153.219100,3034.844362,6291.750507
332.760880,-1225.752797,1258.350101,8142.265362
332.761188,-2221.676944,370.102971,9992.780217
332.761496,-3907.087040,-518.144159,11399.171507
332.761804,-4290.134789,-1184.329507,12361.439231
332.762112,-4519.963438,-1332.370696,11917.315666
332.762420,-3217.601092,148.041188,11325.150913
332.762728,-2374.896044,962.267725,9844.739029
332.763036,-383.047749,1924.535449,9326.594869
332.763344,383.047749,2368.659014,7550.100608
332.763652,1608.800546,2294.638420,7402.059420
332.763960,459.657299,444.123565,8068.244768
332.764268,-1378.971896,-814.226536,8882.471304
332.764576,-2681.334243,-2368.659014,11843.295072
332.764884,-4060.306139,-3478.967927,11843.295072
332.765192,-4826.401637,-3552.988522,12361.439231
332.765501,-4519.963438,-3034.844362,12509.480420
332.765809,-4519.963438,-666.185348,10881.027347
332.766117,-2604.724693,1480.411884,9326.594869
332.766425,-612.876398,3330.926739,7698.141797
332.766733,766.095498,4441.235652,5847.626942
332.767041,1302.362347,4737.318029,5699.585753
332.767349,1149.143247,3849.070898,6587.832884
332.767657,-229.828649,2442.679609,8142.265362
332.767965,-1608.800546,-148.041188,10362.883188
332.768273,-3217.601092,-1406.391290,11251.130318
332.768581,-4673.182538,-3330.926739,12287.418637
332.768889,-5898.935335,-3256.906145,12509.480420
332.769197,-5209.449386,-3034.844362,12731.542202
332.769505,-3600.648841,-1480.411884,11547.212695
332.769813,-1378.971896,592.164754,9548.656652
332.770122,536.266849,1850.514855,7698.141797
332.770430,1838.629195,2960.823768,6217.729913
332.770738,1991.848295,2368.659014,6587.832884
332.771046,153.219100,1332.370696,7550.100608
332.771354,-1685.410096,-0.000000,9474.636058
332.771662,-4060.306139,-1184.329507,11029.068536
332.771970,-6205.373534,-1924.535449,12435.459826
332.772278,-6281.983084,-2516.700203,13249.686362
332.772586,-6588.421283,-2072.576638,12361.439231
332.772894,-4749.792088,-888.247130,11473.192101
332.773202,-3064.381992,370.102971,9844.739029
332.773510,-995.924147,2072.576638,7476.080014
332.773818,229.828649,3034.844362,6143.709319
332.774126,1149.143247,3552.988522,5255.462188
332.774434,1149.143247,3478.967927,5551.544565
332.774743,0.000000,2220.617826,6587.832884
332.775051,-2298.286494,222.061783,8660.409521
332.775359,-3600.648841,-1332.370696,10362.883188
332.775667,-5439.278036,-2812.782580,12953.603985
332.775975,-7048.078582,-3849.070898,14211.954086
332.776283,-6818.249932,-4737.318029,14359.995275
332.776591,-5515.887586,-4441.235652,13767.830521
332.776899,-3064.381992,-2516.700203,11621.233289
332.777207,-995.924147,222.061783,8512.368333
332.777515,766.095498,2590.720797,6513.812290
332.777823,2451.505594,4219.173869,5995.668130
332.778131,3140.991542,5699.585753,4219.173869
332.778439,2834.553343,6735.874072,3849.070898
332.778747,1455.581446,5921.647536,5551.544565
332.779055,-229.828649,3627.009116,8290.306550
332.779363,-3370.820191,444.123565,10658.965565
332.779672,-7124.688131,-2146.597232,12879.583391
332.779980,-8044.002729,-5329.482782,15544.324782
332.780288,-9806.022374,-6439.791695,16284.530724
332.780596,-8580.269578,-6587.832884,16580.613101
332.780904,-6435.202183,-5699.585753,14582.057057
332.781212,-4060.306139,-3478.967927,11547.212695
332.781520,-1149.143247,-1406.391290,8956.491898
332.781828,1302.362347,1924.535449,5921.647536
332.782136,2987.772442,3775.050304,5625.565159
332.782444,4443.353888,5329.482782,5033.400406
332.782752,4673.182538,7328.038826,3330.926739
332.783060,3524.039291,6661.853478,3478.967927
332.783368,1685.410096,4885.359217,6439.791695
332.783676,-1072.533697,3182.885551,8586.388927
332.783984,-3983.696590,444.123565,11399.171507
332.784293,-6588.421283,-2516.700203,13471.748144
332.784601,-7354.516781,-3701.029710,14285.974681
332.784909,-7431.126331,-3849.070898,14211.954086
332.785217,-6511.811733,-3182.885551,13693.809927
332.785525,-4136.915689,-2664.741391,12287.418637
332.785833,-3907.087040,-1480.411884,9400.615463
332.786141,-2068.457845,-0.000000,8512.368333
332.786449,0.000000,1332.370696,7994.224174
332.786757,153.219100,2590.720797,7254.018232
332.787065,1225.752797,2960.823768,7402.059420
332.787373,842.705048,2368.659014,7550.100608
332.787681,76.609550,1480.411884,8882.471304
332.787989,-995.924147,962.267725,9178.553681
332.788297,-1378.971896,-0.000000,10584.944971
332.788605,-2374.896044,-962.267725,11029.068536
332.788914,-3294.210641,-1184.329507,10140.821405
332.789222,-2834.553343,-814.226536,10140.821405
332.789530,-2068.457845,-666.185348,9400.615463
332.789838,-1991.848295,222.061783,8734.430116
332.790146,-842.705048,1332.370696,8290.306550
332.790454,-1072.533697,1332.370696,7846.182985
332.790762,-1608.800546,1998.556043,8512.368333
332.791070,-2604.724693,2294.638420,9178.553681
332.791378,-3370.820191,1406.391290,10288.862594
332.791686,-5439.278036,-0.000000,10807.006753
332.791994,-6128.763984,-1184.329507,12213.398043
332.792302,-7201.297681,-2664.741391,13915.871710
332.792610,-7814.174080,-3478.967927,13915.871710
332.792918,-7277.907231,-2886.803174,13767.830521
332.793226,-6128.763984,-3034.844362,11917.315666
332.793534,-4749.792088,-2294.638420,11177.109724
332.793843,-2911.162892,-888.247130,9326.594869
332.794151,-612.876398,148.041188,7846.182985
332.794459,842.705048,1628.453072,6217.729913
332.794767,1302.362347,2368.659014,5255.462188
332.795075,2451.505594,2960.823768,5477.523971
332.795383,1532.190996,3034.844362,5995.668130
332.795691,689.485948,2442.679609,6809.894666
332.795999,0.000000,1924.535449,8142.265362
332.796307,-1302.362347,518.144159,9474.636058
332.796615,-2604.724693,-814.226536,10732.986159
332.796923,-3753.867940,-962.267725,11769.274478
332.797231,-3524.039291,-1776.494261,11399.171507
332.797539,-3294.210641,-1406.391290,11621.233289
332.797847,-1991.848295,-592.164754,10584.944971
332.798155,-1762.019645,-0.000000,9400.615463
332.798464,-1378.971896,148.041188,9178.553681
332.798772,-1149.143247,1258.350101,8734.430116
332.799080,-1149.143247,1702.473667,9178.553681
332.799388,-459.657299,1332.370696,9474.636058
332.799696,-995.924147,1110.308913,9252.574275
332.800004,-1838.629195,740.205942,10140.821405
332.800312,-1915.238745,296.082377,10436.903782
332.800620,-2604.724693,-0.000000,10436.903782
332.800928,-3140.991542,-148.041188,11029.068536
332.801236,-2451.505594,-296.082377,10881.027347
332.801544,-2374.896044,-0.000000,10362.883188
332.801852,-1685.410096,518.144159,10140.821405
332.802160,-689.485948,-0.000000,9252.574275
332.802468,-383.047749,444.123565,8734.430116
332.802776,0.000000,1036.288319,8512.368333
332.803085,-689.485948,1628.453072,8586.388927
332.803393,-612.876398,1776.494261,8364.327145
332.803701,-1149.143247,1332.370696,8956.491898
332.804009,-2068.457845,962.267725,9104.533087
332.804317,-3140.991542,296.082377,9770.718434
332.804625,-4366.744339,-666.185348,10955.047942
332.804933,-4290.134789,-962.267725,11251.130318
332.805241,-3907.087040,-1184.329507,11103.089130
332.805549,-4213.525239,-1110.308913,11177.109724
332.805857,-3753.867940,-888.247130,10881.027347
332.806165,-3064.381992,-370.102971,10214.842000
332.806473,-2298.286494,-370.102971,9770.718434
332.806781,-1838.629195,-222.061783,9252.574275
332.807089,-1302.362347,-0.000000,8808.450710
332.807397,-1225.752797,296.082377,9326.594869
332.807705,-1225.752797,222.061783,9104.533087
332.808014,-842.705048,370.102971,9030.512492
332.808322,-536.266849,370.102971,8808.450710
332.808630,-229.828649,888.247130,8586.388927
332.808938,306.438199,1184.329507,8364.327145
332.809246,0.000000,1480.411884,8290.306550
332.809554,-153.219100,1332.370696,8142.265362
332.809862,0.000000,1406.391290,8438.347739
332.810170,-1225.752797,814.226536,8956.491898
332.810478,-1838.629195,740.205942,9326.594869
332.810786,-2451.505594,444.123565,9918.759623
332.811094,-2911.162892,444.123565,10436.903782
332.811402,-3447.429741,296.082377,10584.944971
332.811710,-3524.039291,444.123565,11103.089130
332.812018,-3983.696590,-0.000000,11103.089130
332.812326,-3830.477490,-74.020594,11177.109724
332.812635,-4673.182538,-148.041188,11547.212695
332.812943,-4136.915689,-148.041188,11103.089130
332.813251,-3907.087040,-296.082377,10658.965565
332.813559,-3753.867940,-0.000000,10362.883188
332.813867,-3217.601092,444.123565,9844.739029
332.814175,-2604.724693,888.247130,9474.636058
332.814483,-2834.553343,666.185348,8364.327145
332.814791,-2987.772442,666.185348,8512.368333
332.815099,-2911.162892,740.205942,8512.368333
332.815407,-3370.820191,1036.288319,8882.471304
332.815715,-3524.039291,444.123565,9178.553681
332.816023,-3677.258390,296.082377,9326.594869
332.816331,-4366.744339,-222.061783,9622.677246
332.816639,-4290.134789,-518.144159,9696.697840
332.816947,-4673.182538,-592.164754,10510.924376
332.817256,-4060.306139,-888.247130,10066.800811
332.817564,-4443.353888,-962.267725,9770.718434
332.817872,-4213.525239,-814.226536,9770.718434
332.818180,-4060.306139,-740.205942,9474.636058
332.818488,-3600.648841,-296.082377,9326.594869
332.818796,-3370.820191,-370.102971,9326.594869
332.819104,-3447.429741,-592.164754,9474.636058
332.819412,-3217.601092,-888.247130,9918.759623
332.819720,-2911.162892,-1036.288319,9992.780217
332.820028,-2834.553343,-814.226536,9918.759623
332.820336,-2298.286494,-1184.329507,10288.862594
332.820644,-2221.676944,-1184.329507,10436.903782
332.820952,-1685.410096,-1184.329507,10362.883188
332.821260,-1225.752797,-1110.308913,9844.739029
332.821568,-383.047749,-0.000000,9400.615463
332.821876,0.000000,666.185348,8438.347739
332.822185,766.095498,1258.350101,7698.141797
332.822493,1762.019645,2368.659014,7179.997637
332.822801,1762.019645,2886.803174,6587.832884
332.823109,1608.800546,3478.967927,6587.832884
332.823417,995.924147,3478.967927,7031.956449
332.823725,0.000000,3330.926739,7698.141797
332.824033,-306.438199,2664.741391,8808.450710
332.824341,-1838.629195,1406.391290,9992.780217
332.824649,-3064.381992,1036.288319,11473.192101
332.824957,-4060.306139,222.061783,12361.439231
332.825265,-4903.011187,-740.205942,12731.542202
332.825573,-5515.887586,-1258.350101,13027.624579
332.825881,-4903.011187,-1776.494261,13397.727550
332.826189,-4903.011187,-1406.391290,11843.295072
332.826497,-4903.011187,-1628.453072,12213.398043
332.826806,-2834.553343,-1332.370696,12287.418637
332.827114,-3370.820191,-148.041188,10214.842000
332.827422,-2221.676944,-888.247130,10584.944971
332.827730,-1378.971896,-0.000000,9030.512492
332.828038,-1149.143247,-0.000000,9030.512492
332.828346,-612.876398,444.123565,9030.512492
332.828654,0.000000,1628.453072,7994.224174
332.828962,612.876398,1554.432478,8882.471304
332.829270,689.485948,1776.494261,6957.935855
332.829578,1072.533697,3034.844362,6809.894666
332.829886,766.095498,2960.823768,6809.894666
332.830194,536.266849,2886.803174,7328.038826
332.830502,-766.095498,2590.720797,7994.224174
332.830810,-1685.410096,1406.391290,9104.533087
332.831118,-2987.772442,-222.061783,9992.780217
332.831427,-4903.011187,-666.185348,10955.047942
332.831735,-5362.668486,-2368.659014,12731.542202
332.832043,-6435.202183,-2590.720797,11917.315666
332.832351,-6358.592633,-3108.864956,13323.706956
332.832659,-6205.373534,-3330.926739,13027.624579
332.832967,-5592.497135,-3034.844362,12139.377449
332.833275,-4673.182538,-2664.741391,11843.295072
332.833583,-3064.381992,-2442.679609,11177.109724
332.833891,-2451.505594,-814.226536,10140.821405
332.834199,-842.705048,222.061783,8142.265362
332.834507,1149.143247,2368.659014,6957.935855
332.834815,1991.848295,4367.215058,5329.482782
332.835123,3294.210641,5329.482782,4441.235652
332.835431,2834.553343,5773.606348,3775.050304
332.835739,2528.115143,4737.318029,5403.503377
332.836047,919.314598,3478.967927,6957.935855
332.836356,-1991.848295,1776.494261,8660.409521
332.836664,-3600.648841,-370.102971,11473.192101
332.836972,-5592.497135,-2738.761985,13101.645173
332.837280,-7201.297681,-4737.318029,14656.077652
332.837588,-8273.831378,-5995.668130,14508.036463
332.837896,-7660.954980,-6217.729913,15100.201217
332.838204,-6511.811733,-4959.379811,13693.809927
332.838512,-4826.401637,-2664.741391,10881.027347
332.838820,-2451.505594,-222.061783,9992.780217
332.839128,0.000000,2738.761985,7031.956449
332.839436,1915.238745,5033.400406,5773.606348
332.839744,3524.039291,6735.874072,4145.153275
332.840052,3447.429741,6957.935855,3627.009116
332.840360,1608.800546,5107.421000,5995.668130
332.840668,-1072.533697,2368.659014,8290.306550
332.840977,-3677.258390,-740.205942,10955.047942
332.841285,-6358.592633,-4145.153275,13767.830521
332.841593,-7967.393179,-6513.812290,14582.057057
332.841901,-8810.098227,-7105.977043,15026.180623
332.842209,-7660.954980,-7402.059420,14211.954086
332.842517,-5669.106685,-4737.318029,11991.336260
332.842825,-2451.505594,-740.205942,8660.409521
332.843133,459.657299,2146.597232,7105.977043
332.843441,2987.772442,5329.482782,5255.462188
332.843749,5056.230287,7698.141797,3404.947333
332.844057,5592.497135,8216.285956,3330.926739
332.844365,4060.306139,7994.224174,4145.153275
332.844673,1149.143247,4811.338623,6957.935855
332.844981,-2451.505594,962.267725,11473.192101
332.845289,-6128.763984,-2368.659014,14804.118840
332.845598,-9576.193725,-5921.647536,16654.633695
332.845906,-10495.508323,-7476.080014,18061.024985
332.846214,-10112.460574,-6365.771101,16580.613101
332.846522,-7048.078582,-4737.318029,14211.954086
332.846830,-2911.162892,-1110.308913,10066.800811
332.847138,0.000000,1924.535449,6735.874072
332.847446,1685.410096,3997.112087,5329.482782
332.847754,3140.991542,5995.668130,4145.153275
332.848062,3217.601092,5847.626942,5033.400406
332.848370,1991.848295,3923.091493,6661.853478
332.848678,-995.924147,1776.494261,9104.533087
332.848986,-5439.278036,-0.000000,9918.759623
332.849294,-5515.887586,-2294.638420,14582.057057
332.849602,-8044.002729,-3034.844362,13545.768739
332.849910,-7048.078582,-2294.638420,13175.665768
332.850218,-3524.039291,-1628.453072,12287.418637
332.850527,-689.485948,1850.514855,7550.100608
332.850835,2604.724693,1110.308913,8438.347739
332.851143,4290.134789,1332.370696,5625.565159
332.851451,4290.134789,444.123565,6513.812290
332.851759,3677.258390,-296.082377,7698.141797
332.852067,76.609550,-74.020594,7254.018232
332.852375,-1149.143247,-444.123565,10584.944971
332.852683,-2068.457845,-666.185348,10584.944971
332.852991,-1991.848295,370.102971,10807.006753
332.853299,-2145.067394,-370.102971,10362.883188
332.853607,-1915.238745,-74.020594,10732.986159
332.853915,-1685.410096,-888.247130,11325.150913
332.854223,-2757.943793,-1776.494261,11473.192101
332.854531,-2221.676944,-2812.782580,11843.295072
332.854839,-2451.505594,-2812.782580,9918.759623
332.855148,-2681.334243,-1850.514855,10288.862594
332.855456,-1608.800546,296.082377,9252.574275
332.855764,919.314598,2442.679609,7105.977043
332.856072,3064.381992,5107.421000,5551.544565
332.856380,3600.648841,5477.523971,4071.132681
332.856688,3830.477490,5033.400406,5329.482782
332.856996,2604.724693,3256.906145,8586.388927
332.857304,1225.752797,296.082377,10288.862594
332.857612,-1455.581446,-1332.370696,10807.006753
332.857920,-4136.915689,-3627.009116,13767.830521
332.858228,-4826.401637,-4589.276840,14656.077652
332.858536,-4979.620737,-3330.926739,14508.036463
332.858844,-3217.601092,-2072.576638,13175.665768
332.859152,-1225.752797,-814.226536,9474.636058
332.859460,229.828649,814.226536,8512.368333
332.859769,995.924147,518.144159,8586.388927
332.860077,1455.581446,666.185348,9252.574275
332.860385,1225.752797,1184.329507,8364.327145
332.860693,-306.438199,1628.453072,7402.059420
332.861001,536.266849,1702.473667,8882.471304
332.861309,306.438199,2220.617826,9178.553681
332.861617,1149.143247,2812.782580,8290.306550
332.861925,1455.581446,3923.091493,7031.956449
332.862233,2145.067394,1924.535449,8882.471304
332.862541,536.266849,148.041188,9696.697840
332.862849,459.657299,-1036.288319,10510.924376
332.863157,-612.876398,-1850.514855,11251.130318
332.863465,-1149.143247,-1850.514855,11103.089130
332.863773,-1149.143247,-1924.535449,11103.089130
332.864081,-536.266849,-1258.350101,12139.377449
332.864389,459.657299,-518.144159,10288.862594
332.864698,536.266849,814.226536,7994.224174
332.865006,1225.752797,592.164754,8734.430116
332.865314,689.485948,-962.267725,9918.759623
332.865622,-459.657299,-1702.473667,11325.150913
332.865930,-919.314598,-1184.329507,11103.089130
332.866238,-766.095498,-74.020594,9474.636058
332.866546,229.828649,1110.308913,9104.533087
332.866854,1915.238745,2368.659014,9178.553681
332.867162,3830.477490,3404.947333,7402.059420
332.867470,4060.306139,3775.050304,6069.688724
332.867778,4060.306139,2738.761985,5773.606348
332.868086,2834.553343,1036.288319,7994.224174
