#time,accel_x,accel_y,accel_z
854.752106,-172.283227,-880.558717,-9628.718142
854.754784,-133.998066,-803.988394,-9647.860723
854.757461,-95.712904,-880.558717,-9743.573627
854.760138,-114.855485,-899.701298,-9667.003304
854.762816,-38.285162,-861.416136,-9571.290400
854.765493,-133.998066,-880.558717,-9667.003304
854.768170,-57.427742,-880.558717,-9667.003304
854.770848,-95.712904,-918.843878,-9743.573627
854.773525,-95.712904,-823.130974,-9571.290400
854.776202,-76.570323,-880.558717,-9628.718142
854.778880,-114.855485,-918.843878,-9628.718142
854.781557,-95.712904,-957.129040,-9686.145885
854.784234,-133.998066,-918.843878,-9628.718142
854.786912,-57.427742,-918.843878,-9628.718142
854.789589,-114.855485,-918.843878,-9743.573627
854.792267,-133.998066,-899.701298,-9494.720077
854.794944,-57.427742,-995.414202,-9265.009107
854.797621,153.140646,-1473.978722,-9571.290400
854.800299,76.570323,-1569.691626,-9456.434915
854.802976,-95.712904,-3349.951640,-8805.587168
854.805653,-516.849682,-5513.063270,-10030.712339
854.808331,-0.000000,-10183.852986,-8441.878133
854.811008,-574.277424,-10030.712339,-11428.120738
854.813685,-153.140646,-8901.300072,-9820.143950
854.816363,612.562586,-5206.781978,-6010.770371
854.819040,-727.418070,1741.974853,-13304.093656
854.821717,-746.560651,3866.801322,-9820.143950
854.824395,-153.140646,1110.269686,-5666.203917
854.827016,1435.693560,-5474.778109,-10547.562021
854.829637,-1607.976787,-4938.785846,-12653.245909
854.832259,153.140646,-11294.122672,-8193.024582
854.834880,-19.142581,-11313.265253,-8805.587168
854.837501,803.988394,-5034.498750,-10872.985894
854.840123,-1378.265818,2526.820666,-11026.126541
854.842744,-516.849682,1895.115499,-9226.723946
854.845365,899.701298,-1473.978722,-9169.296203
854.847987,-0.000000,-363.709035,-10011.569758
854.850608,-95.712904,-4364.508422,-11083.554283
854.853229,-19.142581,-7867.600709,-7867.600709
854.855850,2986.242605,-10662.417506,-8977.870395
854.858472,-5264.209720,2048.256146,-15696.916256
854.861093,2507.678085,-382.851616,-4345.365842
854.863714,1263.410333,1205.982590,-8843.872330
854.866336,-3981.656806,7963.313613,-12117.253646
854.868957,4326.223261,823.130974,-9667.003304
854.871578,-3407.379382,2679.961312,-9494.720077
854.874200,669.990328,-5570.491013,-6451.049730
854.876821,842.273555,-7293.323285,-10777.272990
854.879442,-1646.261949,-4287.938099,-12787.243974
854.882064,3235.096155,-5168.496816,-6068.198114
854.884685,-3866.801322,2756.531635,-8537.591037
854.887306,-995.414202,4211.367776,-14797.214958
854.889927,2660.818731,3177.668413,-4192.225195
854.892549,-2526.820666,3522.234867,-12021.540742
854.895170,1205.982590,-2794.816797,-10547.562021
854.897791,-593.420005,-4728.217458,-5723.631659
854.900413,-440.279358,-5379.065205,-12902.099459
854.903034,3560.520029,-7523.034254,-10222.138147
854.905655,-4996.213589,4230.510357,-6087.340694
854.908277,4728.217458,-1225.125171,-11887.542677
854.910578,-4536.791650,5532.205851,-10490.134278
854.912880,3828.516160,-535.992262,-2029.113565
854.915181,-957.129040,-1052.841944,-18013.168533
854.917483,-5034.498750,899.701298,-8709.874264
854.919784,6412.764568,-8901.300072,-6029.912952
854.922086,-3866.801322,-918.843878,-9973.284597
854.924387,-133.998066,-2813.959378,-14644.074312
854.926689,3732.803256,-2067.398726,-4115.654872
854.928990,-5647.061336,4345.365842,-11408.978157
854.931292,1052.841944,229.710970,-15046.068509
854.933593,4747.360038,-1052.841944,-7791.030386
854.935895,-1856.830338,2067.398726,-306.281293
854.938196,-1895.115499,-1607.976787,-20865.413072
854.940498,1205.982590,-4268.795518,-5647.061336
854.942799,-421.136778,-2660.818731,-3005.385186
854.945101,-382.851616,-2622.533570,-20233.707906
854.947402,-133.998066,38.285162,-306.281293
854.949704,1339.980656,-95.712904,-9609.575562
854.952005,-1895.115499,1799.402595,-16922.041427
854.954307,-248.853550,1646.261949,-3005.385186
854.956608,-1033.699363,1186.840010,-9226.723946
854.958910,3751.945837,-4900.500685,-12634.103328
854.961211,-3158.525832,-1895.115499,-11581.261384
854.963513,-1129.412267,-1856.830338,-5340.780043
854.965814,2852.244539,-5149.354235,-15237.494317
854.968116,-2584.248408,1875.972918,-5398.207786
854.970417,1282.552914,-325.423874,-11906.685258
854.972719,421.136778,803.988394,-8116.454259
854.975020,-861.416136,1129.412267,-10317.851051
854.977322,5187.639397,-2431.107762,-11925.827838
854.979623,-6738.188442,3349.951640,-382.851616
854.981925,937.986459,-4307.080680,-11179.267187
854.984226,459.421939,-5455.635528,-18185.451760
854.986528,-4747.360038,880.558717,1301.695494
854.988829,7044.469734,-5072.783912,-13227.523333
854.991131,-1952.543242,1014.556782,-13648.660110
854.993432,-248.853550,1359.123237,-1703.689691
854.995734,1033.699363,-459.421939,-14797.214958
854.998035,-3847.658741,3369.094221,-11179.267187
855.000337,4173.082614,-2947.957443,-3809.373579
855.002761,-3005.385186,-363.709035,-13476.376883
855.005185,2967.100024,-3713.660675,-11179.267187
855.007609,-1473.978722,-1378.265818,-1033.699363
855.010033,-1761.117434,-1129.412267,-17496.318851
855.012458,1799.402595,-3637.090352,-10107.282662
855.014882,-1301.695494,2048.256146,-5091.926493
855.017306,2718.246474,-2660.818731,-16788.043362
855.019730,-1263.410333,287.138712,-3637.090352
855.022154,325.423874,-1244.267752,-11255.837510
855.024578,-1110.269686,-612.562586,-12174.681389
855.027003,95.712904,-1033.699363,-5245.067139
855.029427,899.701298,-2679.961312,-11428.120738
855.031851,-2124.826469,114.855485,-11676.974288
855.034275,1244.267752,-2143.969050,-5283.352301
855.036699,191.425808,-1320.838075,-13629.517530
855.039123,-535.992262,-248.853550,-8403.592971
855.041547,1301.695494,-1225.125171,-8939.585234
855.043972,-957.129040,-57.427742,-12959.527202
855.046396,708.275490,-976.271621,-8805.587168
855.048820,-3005.385186,2450.250342,-10624.132344
855.051244,2813.959378,-4326.223261,-9399.007173
855.053668,650.847747,-2507.678085,-11925.827838
855.056092,-2813.959378,880.558717,-6297.909083
855.058517,-38.285162,-937.986459,-12634.103328
855.060941,1378.265818,-2163.111630,-10643.274925
855.063365,-2105.683888,1512.263883,-5704.489078
855.065789,-382.851616,-382.851616,-11849.257515
855.068213,440.279358,-555.134843,-10949.556218
855.070637,-401.994197,-210.568389,-8231.309744
855.073061,-1856.830338,995.414202,-10049.854920
855.075486,2009.970984,-2105.683888,-11447.263318
855.077910,-191.425808,-2565.105827,-5417.350366
855.080334,-2163.111630,-1052.841944,-13361.521398
855.082758,3847.658741,-3598.805190,-6719.045861
855.085182,-2986.242605,3847.658741,-10700.702667
855.087606,3924.229064,-2833.101958,-12519.247843
855.090031,-4058.227130,2392.822600,-2086.541307
855.092455,2833.101958,-2986.242605,-16328.621422
855.094879,-363.709035,-1665.404530,-5436.492947
855.097303,-1703.689691,-325.423874,-10202.995566
855.099792,1722.832272,-3560.520029,-12653.245909
855.102281,-1282.552914,133.998066,-7235.895542
855.104770,593.420005,-1971.685822,-9226.723946
855.107259,880.558717,-1856.830338,-12366.107197
855.109748,-765.703232,287.138712,-6623.332957
855.112237,-1684.547110,1244.267752,-11619.546546
855.114726,612.562586,-325.423874,-14031.511726
855.117215,1110.269686,-267.996131,-229.710970
855.119704,842.273555,-3101.098090,-16003.197549
855.122193,-1052.841944,-1110.269686,-4211.367776
855.124682,1990.828403,-3273.381317,-7044.469734
855.127171,-2641.676150,784.845813,-14165.509792
855.129660,1703.689691,-1741.974853,-8403.592971
855.132149,-574.277424,114.855485,-7771.887805
855.134638,2258.824534,-1933.400661,-11255.837510
855.137127,-4594.219392,1914.258080,-12538.390424
855.139616,-57.427742,38.285162,-6431.907149
855.142105,3713.660675,-3196.810994,-12232.109131
855.144594,-7235.895542,4345.365842,-6699.903280
855.147083,6546.762634,-6317.051664,-12500.105262
855.149572,-1703.689691,-1588.834206,-9092.725880
855.152061,-2794.816797,421.136778,-8307.880067
855.154550,3330.809059,-4192.225195,-11753.544611
855.157039,-3560.520029,1856.830338,-6508.477472
855.159528,2029.113565,-2718.246474,-12882.956878
855.162017,-1569.691626,-306.281293,-2794.816797
855.164506,-3005.385186,2565.105827,-19755.143386
855.166995,5130.211654,-2622.533570,-3464.807125
855.169484,-5379.065205,3541.377448,-8767.302006
855.171973,2507.678085,-3139.383251,-15888.342064
855.174462,2277.967115,-3349.951640,-3598.805190
855.176951,-4670.789715,497.707101,-7389.036189
855.179440,3483.949706,-4536.791650,-17764.314982
855.181929,-1397.408398,267.996131,-4441.078746
855.184418,-574.277424,516.849682,-6795.616184
855.186907,535.992262,-1167.697429,-18013.168533
855.189396,306.281293,401.994197,-823.130974
855.191885,-2584.248408,2009.970984,-12136.396227
855.194374,1512.263883,-2124.826469,-13074.382686
855.196863,-1167.697429,-535.992262,-1607.976787
855.199217,-1799.402595,-1263.410333,-16347.764003
855.201580,1703.689691,-3885.943902,-6125.625856
855.203942,-1454.836141,-2431.107762,-10949.556218
855.206305,4498.506488,-3694.518094,-16386.049165
855.208667,765.703232,1225.125171,229.710970
855.211030,-3483.949706,4421.936165,-7925.028451
855.213392,5130.211654,-3330.809059,-19984.854355
855.215755,-2373.680019,1416.550979,-440.279358
855.218117,-2450.250342,325.423874,-10490.134278
855.220480,8882.157491,-8403.592971,-21841.684693
855.222843,-10126.425243,5436.492947,11160.124606
855.225205,2373.680019,-5417.350366,-19391.434350
855.227568,2565.105827,-5991.627790,-22837.098894
855.229930,-4211.367776,2469.392923,5493.920690
855.232293,3541.377448,-4019.941968,-24885.355040
855.234655,-5053.641331,4192.225195,-11351.550414
855.237018,2258.824534,-267.996131,4460.221326
855.239381,-57.427742,38.285162,-21439.690496
855.241743,-2699.103893,708.275490,-8939.585234
855.244106,7293.323285,-6699.903280,2220.539373
855.246468,-4728.217458,-1320.838075,-18625.731118
855.248831,-3101.098090,421.136778,-13418.949141
855.251193,4498.506488,-3579.662610,-3177.668413
855.253556,-3828.516160,2354.537438,-14739.787216
855.255919,1550.549045,-497.707101,-8920.442653
855.258281,-401.994197,478.564520,-5417.350366
855.260644,-1301.695494,287.138712,-12193.823970
855.263006,842.273555,-2450.250342,-13208.380752
855.265369,-1378.265818,-516.849682,-2239.681954
855.267731,1761.117434,-3885.943902,-16692.330458
855.270094,-344.566454,-2143.969050,-4938.785846
855.272457,1933.400661,-1301.695494,-9724.431046
855.274819,-7140.182638,5953.342629,-15065.211090
855.277182,7503.891674,-3369.094221,-4173.082614
855.279544,-4096.512291,1761.117434,-9016.155557
855.281907,-401.994197,-306.281293,-13897.513661
855.284269,2584.248408,-4249.652938,-9820.143950
855.286632,-2239.681954,-899.701298,-5455.635528
855.288994,1110.269686,-5015.356170,-15352.349802
855.291357,-574.277424,-1110.269686,-7159.325219
855.293803,516.849682,-823.130974,-5149.354235
855.296248,-382.851616,0.000000,-16500.904650
855.298693,172.283227,2124.826469,-8288.737486
855.301139,478.564520,1052.841944,-6623.332957
855.303584,-2507.678085,-76.570323,-15486.347867
855.306030,191.425808,-2660.818731,-6776.473603
855.308475,612.562586,-3311.666478,-7235.895542
855.310921,-1856.830338,-3005.385186,-13342.378818
855.313366,3101.098090,-4345.365842,-7733.602643
855.315812,-574.277424,210.568389,-2392.822600
855.318257,-3235.096155,3617.947771,-22530.817602
855.320703,4575.076811,-669.990328,-2794.816797
855.323148,-3828.516160,3560.520029,-7006.184573
855.325594,-95.712904,-325.423874,-19046.867896
855.328039,2947.957443,-3369.094221,-842.273555
855.330485,-3043.670347,-440.279358,-9265.009107
855.332930,1167.697429,-6068.198114,-17860.027886
855.335376,-631.705166,-2411.965181,-5934.200048
855.337821,1397.408398,-3158.525832,-13227.523333
855.340267,-2239.681954,2890.529701,-12021.540742
855.342712,2526.820666,574.277424,-4709.074877
855.345158,-1052.841944,2392.822600,-11064.411702
855.347603,-1646.261949,2105.683888,-13208.380752
855.350049,2258.824534,-1129.412267,-2986.242605
855.352494,-248.853550,823.130974,-11772.687192
855.354940,-4192.225195,4632.504554,-14931.213024
855.357385,3139.383251,784.845813,-842.273555
855.359830,-3292.523898,6163.911018,-16654.045296
855.362276,1014.556782,2545.963246,-11983.255581
855.364721,2124.826469,765.703232,1473.978722
855.367167,-2890.529701,4460.221326,-16481.762069
855.369612,1359.123237,2239.681954,-14395.220762
855.372058,-669.990328,-133.998066,1282.552914
855.374503,746.560651,-3062.812928,-14892.927862
855.376949,-1263.410333,3254.238736,-11868.400096
855.379394,229.710970,3483.949706,-3847.658741
855.381840,-19.142581,1761.117434,-14912.070443
855.384285,-1741.974853,4153.940034,-11198.409768
855.386731,1588.834206,2373.680019,-2373.680019
855.389176,-995.414202,3062.812928,-16060.625291
855.391673,-803.988394,2679.961312,-10279.565890
855.394171,1205.982590,669.990328,-4555.934230
855.396668,-1435.693560,880.558717,-12634.103328
855.399165,-76.570323,248.853550,-13189.238171
855.401662,497.707101,1473.978722,-3790.230998
855.404159,-497.707101,1780.260014,-12672.388490
855.406657,210.568389,-1665.404530,-12710.673651
855.409154,-880.558717,918.843878,-5417.350366
855.411651,229.710970,-1071.984525,-13725.230434
855.414148,-172.283227,1741.974853,-10222.138147
855.416645,478.564520,5608.776174,-5513.063270
855.419143,-95.712904,8614.161360,-13150.953010
855.421640,-172.283227,10394.421374,-9131.011042
855.424137,459.421939,7082.754896,-7331.608446
855.426634,-650.847747,1818.545176,-12404.392358
855.429131,-267.996131,-3847.658741,-9379.864592
855.431629,421.136778,-3081.955509,-9169.296203
855.434126,-440.279358,-3828.516160,-11217.552349
855.436623,-612.562586,95.712904,-10413.563955
855.439120,727.418070,3617.947771,-8135.596840
855.441617,-19.142581,6527.620053,-9820.143950
855.444115,-516.849682,9265.009107,-11983.255581
855.446612,2086.541307,5972.485210,-8882.157491
855.449109,-1703.689691,440.279358,-11179.267187
855.451606,803.988394,-3330.809059,-13265.808494
855.454103,-2143.969050,229.710970,344.566454
855.456601,2641.676150,-2565.105827,-18491.733053
855.459098,-3024.527766,2277.967115,-8116.454259
855.461595,1818.545176,3005.385186,-1646.261949
855.464092,-229.710970,3522.234867,-16864.613685
855.466589,-1665.404530,3675.375514,-7982.456194
855.469087,1914.258080,-2392.822600,-6451.049730
855.471584,-1722.832272,-2871.387120,-11428.120738
855.474081,-95.712904,-5225.924558,-13974.083984
855.476578,76.570323,-4977.071008,-1780.260014
855.479075,-535.992262,-2086.541307,-11964.113000
855.481573,555.134843,-363.709035,-13993.226565
855.484070,574.277424,2182.254211,-3024.527766
855.486567,-440.279358,1741.974853,-17496.318851
855.489064,1148.554848,287.138712,-7810.172966
855.491481,-957.129040,-593.420005,-5934.200048
855.493897,-3177.668413,-2469.392923,-15620.345933
855.496314,4039.084549,-6719.045861,-12921.242040
855.498730,-995.414202,-1607.976787,5168.496816
855.501147,-1684.547110,-516.849682,-22760.528571
855.503563,995.414202,-1167.697429,-8365.307810
855.505980,-746.560651,3196.810994,-3120.240670
855.508396,2411.965181,325.423874,-15888.342064
855.510813,-2660.818731,2143.969050,-4594.219392
855.513229,2526.820666,-3790.230998,-7944.171032
855.515646,-1703.689691,-1914.258080,-13380.663979
855.518062,-689.132909,-3388.236802,-11294.122672
855.520479,-1110.269686,-2488.535504,-7235.895542
855.522896,1933.400661,-1627.119368,-15409.777544
855.525312,-2411.965181,2641.676150,-4134.797453
855.527729,1493.121302,1091.127106,-13552.947206
855.530145,-746.560651,1186.840010,-9533.005238
855.532562,267.996131,803.988394,-5953.342629
855.534978,-1531.406464,-861.416136,-16060.625291
855.537395,535.992262,-3388.236802,-2182.254211
855.539811,2258.824534,-5513.063270,-13840.085918
855.542228,-2124.826469,-1397.408398,-11102.696864
855.544644,-459.421939,-1703.689691,-6929.614250
855.547061,574.277424,-1205.982590,-8709.874264
855.549477,-2048.256146,2048.256146,-11791.829773
855.551894,1320.838075,421.136778,-8748.159426
855.554310,-76.570323,937.986459,-8384.450390
855.556727,-899.701298,-957.129040,-12346.964616
855.559143,516.849682,-2335.394858,-8767.302006
855.561560,-5111.069074,-344.566454,-11485.548480
855.563976,4077.369710,-5072.783912,-8729.016845
855.566393,325.423874,-1856.830338,-4632.504554
855.568809,-1646.261949,-153.140646,-16730.615619
855.571226,-535.992262,497.707101,-4632.504554
855.573642,803.988394,-133.998066,-10356.136213
855.576059,344.566454,363.709035,-13208.380752
855.578476,-555.134843,-191.425808,-7140.182638
855.580892,765.703232,-1607.976787,-8652.446522
855.583309,7312.465866,-8154.739421,-3885.943902
855.585725,-5321.637462,-344.566454,-20559.131779
855.588202,-5474.778109,3081.955509,-10911.271056
855.590678,6125.625856,-2335.394858,8614.161360
855.593154,-5034.498750,2622.533570,-23717.657611
855.595631,-1493.121302,1110.269686,-4881.358104
855.598107,7657.032320,-5436.492947,689.132909
855.600584,-8767.302006,4153.940034,-20884.555653
855.603060,4804.787781,-4766.502619,-14261.222696
855.605537,-1818.545176,-708.275490,7503.891674
855.608013,-153.140646,-1110.269686,-20865.413072
855.610490,2297.109696,-3349.951640,-13572.089787
855.612966,-6297.909083,4728.217458,3560.520029
855.615443,3388.236802,-2354.537438,-17706.887240
855.617919,-1244.267752,-382.851616,-12366.107197
855.620395,-3905.086483,2009.970984,-593.420005
855.622872,6872.186507,-6451.049730,-16309.478842
855.625348,-5225.924558,2258.824534,-8173.882002
855.627825,3426.521963,-3388.236802,-3101.098090
855.630301,-3196.810994,1167.697429,-16673.187877
855.632778,1473.978722,-1473.978722,-6106.483275
855.635254,2335.394858,-3560.520029,-5225.924558
855.637731,-3330.809059,1320.838075,-20003.996936
855.640207,1933.400661,-842.273555,-3924.229064
855.642684,-2277.967115,803.988394,-4345.365842
855.645160,153.140646,-3598.805190,-22339.391794
855.647636,267.996131,-1225.125171,-2182.254211
855.650113,2029.113565,-2679.961312,-5493.920690
855.652589,-3254.238736,823.130974,-18836.299507
855.655066,1856.830338,-555.134843,-3943.371645
855.657542,-2086.541307,2584.248408,-5934.200048
855.660019,2699.103893,-2737.389054,-17611.174336
855.662495,-1990.828403,38.285162,-5302.494882
855.664972,1359.123237,-2009.970984,-7159.325219
855.667448,-4019.941968,669.990328,-11600.403965
855.669925,2163.111630,-2450.250342,-8671.589102
855.672401,-2737.389054,-1205.982590,-8671.589102
855.674877,1684.547110,-1722.832272,-13648.660110
855.677354,248.853550,516.849682,-4402.793584
855.679830,-918.843878,1071.984525,-13380.663979
855.682307,861.416136,-669.990328,-9628.718142
855.684783,-1875.972918,1454.836141,-7657.032320
855.687300,287.138712,-1282.552914,-8059.026517
855.689817,957.129040,-3694.518094,-12997.812363
855.692333,-1244.267752,-1359.123237,-6853.043926
855.694850,3254.238736,-4192.225195,-8595.018779
855.697367,-4421.936165,1895.115499,-14471.791085
855.699884,382.851616,-1684.547110,-7905.885870
855.702400,4192.225195,-3464.807125,-7178.467800
855.704917,-3617.947771,2967.100024,-12270.394293
855.707434,3847.658741,-2545.963246,-9188.438784
855.709951,-4996.213589,3713.660675,-6948.756830
855.712467,2699.103893,-3388.236802,-8020.741355
855.714984,114.855485,-3177.668413,-14490.933666
855.717501,-2048.256146,-1722.832272,-6278.766502
855.720017,3292.523898,-4287.938099,-9092.725880
855.722534,-3866.801322,1627.119368,-11600.403965
855.725051,2354.537438,-153.140646,-8078.169098
855.727568,-382.851616,650.847747,-8365.307810
855.730084,57.427742,1167.697429,-10872.985894
855.732601,401.994197,-421.136778,-9284.151688
855.735118,-823.130974,287.138712,-9226.723946
855.737634,-995.414202,-1033.699363,-12480.962682
855.740151,3464.807125,-5704.489078,-6240.481341
855.742668,-2009.970984,-2871.387120,-15256.636898
855.745185,-133.998066,-1397.408398,-6814.758765
855.747701,1263.410333,-306.281293,-5359.922624
855.750218,-1799.402595,1493.121302,-16634.902715
855.752735,-421.136778,1205.982590,-6948.756830
855.755251,957.129040,153.140646,-9245.866526
855.757768,555.134843,-708.275490,-10681.560086
855.760285,-2220.539373,-669.990328,-7963.313613
855.762802,2450.250342,-3024.527766,-8422.735552
855.765318,-5915.057467,2660.818731,-19066.010477
855.767835,-803.988394,-669.990328,3503.092286
855.770352,11006.983960,-8958.727814,-10738.987829
855.772869,-11045.269122,4192.225195,-15964.912387
855.775385,1244.267752,-440.279358,-5493.920690
855.777902,2852.244539,-1971.685822,-8173.882002
855.780419,-8078.169098,4153.940034,-14203.794954
855.782935,2986.242605,-2354.537438,-12595.818166
855.785452,3617.947771,-2775.674216,727.418070
855.787907,-6240.481341,2603.390989,-16079.767872
855.790361,6508.477472,-5570.491013,-13380.663979
855.792815,-2048.256146,421.136778,-995.414202
855.795270,727.418070,-1971.685822,-5589.633594
855.797724,1799.402595,-4632.504554,-18778.871765
855.800178,-8824.729749,4039.084549,-16615.760134
855.802633,5685.346498,-1301.695494,5838.487144
855.805087,-1282.552914,1703.689691,-18185.451760
855.807541,-2909.672282,2545.963246,-14471.791085
855.809996,2411.965181,-1129.412267,-76.570323
855.812450,-1263.410333,-1167.697429,-12059.825904
855.814905,-1225.125171,-2373.680019,-11121.839445
855.817359,2928.814862,-4173.082614,-1607.976787
855.819813,-2565.105827,440.279358,-12385.249778
855.822268,1282.552914,-2029.113565,-18300.307245
855.824722,2718.246474,-937.986459,3847.658741
855.827176,-3349.951640,1684.547110,-18606.588538
855.829631,-306.281293,-114.855485,-15103.496251
855.832085,1493.121302,-784.845813,5398.207786
855.834540,-2431.107762,-1033.699363,-18836.299507
855.836994,1244.267752,-3139.383251,-13284.951075
855.839448,1167.697429,-2947.957443,555.134843
855.841903,-1435.693560,-535.992262,-16749.758200
855.844357,1129.412267,-1875.972918,-13897.513661
855.846811,-306.281293,1952.543242,1703.689691
855.849266,-306.281293,-803.988394,-18281.164664
855.851720,-803.988394,-267.996131,-7197.610381
855.854175,2431.107762,-459.421939,-2660.818731
855.856629,-3809.373579,-708.275490,-19046.867896
855.859083,1588.834206,-2794.816797,-7044.469734
855.861538,3637.090352,-4364.508422,-4096.512291
855.863992,-6029.912952,3426.521963,-14395.220762
855.866446,5398.207786,-4594.219392,-12557.533005
855.868901,-2947.957443,3503.092286,-1684.547110
855.871355,3158.525832,-3311.666478,-12557.533005
855.873809,-1454.836141,-765.703232,-17304.893043
855.876264,-1550.549045,574.277424,535.992262
855.878718,1493.121302,-2660.818731,-13801.800757
855.881173,-823.130974,114.855485,-12672.388490
855.883627,-1397.408398,-325.423874,-2641.676150
855.886127,-229.710970,-2813.959378,-20099.709840
855.888627,1780.260014,-2813.959378,-10241.280728
855.891127,-440.279358,823.130974,-57.427742
855.893627,-1282.552914,248.853550,-20693.129845
855.896127,880.558717,-382.851616,-4938.785846
855.898628,-593.420005,-267.996131,-4077.369710
855.901128,-3560.520029,497.707101,-22052.253082
855.903628,899.701298,-191.425808,669.990328
855.906128,2297.109696,-3866.801322,-8461.020714
855.908628,-1110.269686,-1473.978722,-22530.817602
855.911128,-1761.117434,-650.847747,3196.810994
855.913628,2852.244539,-3675.375514,-14969.498186
855.916128,-2488.535504,478.564520,-14701.502054
855.918628,1282.552914,1263.410333,-842.273555
855.921128,19.142581,650.847747,-14529.218827
855.923628,-421.136778,57.427742,-7389.036189
855.926129,-3579.662610,957.129040,-7140.182638
855.928629,4670.789715,-5895.914886,-15294.922059
855.931129,-1588.834206,-440.279358,-2890.529701
855.933629,344.566454,-2392.822600,-15964.912387
855.936129,1110.269686,-1244.267752,-6929.614250
855.938629,-1875.972918,1435.693560,-9839.286531
855.941129,1129.412267,-191.425808,-10604.989763
855.943629,-976.271621,1091.127106,-9915.856854
855.946129,2009.970984,-861.416136,-7982.456194
855.948629,-4115.654872,765.703232,-9533.005238
855.951129,1263.410333,-3790.230998,-15658.631094
855.953630,-1225.125171,-1263.410333,-995.414202
855.956130,1186.840010,-3503.092286,-14012.369146
855.958630,918.843878,-2105.683888,-12940.384621
855.961130,-3005.385186,1550.549045,-3254.238736
855.963630,4728.217458,-3464.807125,-14816.357539
855.966130,-3158.525832,823.130974,-8231.309744
855.968630,803.988394,-2909.672282,-8154.739421
855.971130,555.134843,-5953.342629,-11083.554283
855.973630,-1378.265818,-5398.207786,-11236.694930
855.976130,918.843878,-6948.756830,-4900.500685
855.978630,-1397.408398,-4479.363907,-16462.619488
855.981131,-38.285162,-4517.649069,-7178.467800
855.983631,1493.121302,-2986.242605,-4287.938099
855.986162,-708.275490,1320.838075,-15409.777544
855.988693,650.847747,-3330.809059,-10279.565890
855.991225,-325.423874,-5359.922624,-1990.828403
855.993756,535.992262,-4536.791650,-14969.498186
855.996287,-1301.695494,-5800.201982,-11274.980091
855.998819,153.140646,-5359.922624,-6470.192310
856.001350,-191.425808,-5532.205851,-11906.685258
856.003881,-153.140646,-3751.945837,-8709.874264
856.006413,95.712904,650.847747,-9647.860723
856.008944,-248.853550,-1569.691626,-9111.868461
856.011476,-114.855485,-3598.805190,-9360.722011
856.014007,267.996131,-5245.067139,-8212.167163
856.016538,-76.570323,-5819.344563,-10738.987829
856.019070,-210.568389,-5111.069074,-10624.132344
856.021601,-401.994197,76.570323,-7197.610381
856.024132,535.992262,-1186.840010,-9992.427178
856.026664,-191.425808,-1416.550979,-11313.265253
856.029195,191.425808,-2335.394858,-7389.036189
856.031726,-459.421939,-4900.500685,-9781.858789
856.034258,421.136778,-8231.309744,-8786.444587
856.036789,-555.134843,-9877.571693,-9073.583299
856.039320,-229.710970,-8173.882002,-10375.278794
856.041852,-765.703232,-2143.969050,-10336.993632
856.044383,459.421939,-880.558717,-8958.727814
856.046914,-861.416136,1627.119368,-10834.700733
856.049446,669.990328,-1033.699363,-6336.194245
856.051977,1799.402595,-3349.951640,-11408.978157
856.054509,-2201.396792,-5264.209720,-10470.991698
856.057040,459.421939,-9973.284597,-4096.512291
856.059571,210.568389,-6642.475538,-12614.960747
856.062103,-2239.681954,-5149.354235,-13036.097525
856.064634,1952.543242,-6585.047795,-1990.828403
856.067165,38.285162,-440.279358,-12863.814298
856.069697,-593.420005,2928.814862,-11906.685258
856.072228,-287.138712,-842.273555,-6029.912952
856.074759,-210.568389,-5589.633594,-12174.681389
856.077291,-19.142581,-7791.030386,-9820.143950
856.079822,3062.812928,-8709.874264,-7580.461997
856.082353,-6431.907149,497.707101,-15677.773675
856.084885,2660.818731,-3464.807125,-9073.583299
856.087364,2641.676150,1052.841944,-4249.652938
856.089843,-4383.651003,8537.591037,-16022.340130
856.092322,4479.363907,478.564520,-11562.118803
856.094802,-2756.531635,2584.248408,-861.416136
856.097281,229.710970,-3541.377448,-18089.738856
856.099760,-19.142581,-4747.360038,-7293.323285
856.102239,-1416.550979,-4651.647134,-4747.360038
856.104718,440.279358,-4019.941968,-15448.062706
856.107198,-1148.554848,57.427742,-7810.172966
856.109677,1454.836141,1339.980656,-9667.003304
856.112156,-1435.693560,3081.955509,-13610.374949
856.114635,3330.809059,-363.709035,-5111.069074
856.117115,-2545.963246,1244.267752,-9762.716208
856.119594,-1933.400661,-1091.127106,-16864.613685
856.122073,3713.660675,-5532.205851,-1780.260014
856.124552,-4230.510357,-516.849682,-9954.142016
856.127031,1454.836141,-3522.234867,-18874.584669
856.129511,2143.969050,-593.420005,478.564520
856.131990,-5474.778109,6202.196179,-15677.773675
856.134469,3426.521963,-401.994197,-12193.823970
856.136948,1837.687757,-1818.545176,-689.132909
856.139428,-3158.525832,-823.130974,-14510.076246
856.141907,1684.547110,-6087.340694,-13189.238171
856.144386,-1761.117434,-2852.244539,-2565.105827
856.146865,4115.654872,-4804.787781,-16692.330458
856.149344,-2986.242605,3579.662610,-5838.487144
856.151824,1071.984525,2354.537438,-8212.167163
856.154303,3024.527766,-1091.127106,-14127.224630
856.156782,-5149.354235,3598.805190,-7905.885870
856.159261,76.570323,-172.283227,-8499.305875
856.161740,4555.934230,-7140.182638,-10968.698798
856.164220,-4421.936165,-1665.404530,-8365.307810
856.166699,1990.828403,-5264.209720,-10700.702667
856.169178,-2105.683888,-1148.554848,-7427.321350
856.171657,-1339.980656,1875.972918,-14892.927862
856.174137,3464.807125,248.853550,-7369.893608
856.176616,-1454.836141,4249.652938,-6853.043926
856.179095,-574.277424,784.845813,-15103.496251
856.181574,325.423874,-1416.550979,-6431.907149
856.184053,1799.402595,-4938.785846,-8633.303941
856.186571,-5111.069074,-1225.125171,-19200.008542
856.189087,3962.514226,-5283.352301,-2143.969050
856.191603,-497.707101,-2201.396792,-10432.706536
856.194120,-3637.090352,3330.809059,-13552.947206
856.196636,3828.516160,-344.566454,-8020.741355
856.199152,-1837.687757,3637.090352,-4441.078746
856.201668,-1263.410333,57.427742,-15007.783347
856.204185,6431.907149,-4096.512291,-13820.943338
856.206701,-9533.005238,3483.949706,8537.591037
856.209217,4307.080680,-7963.313613,-25746.771176
856.211734,-765.703232,-4689.932296,-10183.852986
856.214250,-3005.385186,-708.275490,7580.461997
856.216766,2297.109696,-4077.369710,-29269.006043
856.219282,-1741.974853,2871.387120,-12902.099459
856.221799,631.705166,2775.674216,2794.816797
856.224315,-1512.263883,880.558717,-23966.511162
856.226831,-2086.541307,2622.533570,-3215.953574
856.229347,8135.596840,-8039.883936,-5455.635528
856.231864,-9552.147819,1971.685822,-23219.950510
856.234380,5111.069074,-6527.620053,-2928.814862
856.236896,-1148.554848,-2526.820666,-7695.317482
856.239412,-2182.254211,133.998066,-17458.033690
856.241929,2048.256146,-727.418070,-3407.379382
856.244445,-3617.947771,4613.361973,-5838.487144
856.246961,2641.676150,-535.992262,-18970.297573
856.249478,-899.701298,2182.254211,-1186.840010
856.251994,-899.701298,-459.421939,-10126.425243
856.254510,2201.396792,-4938.785846,-19736.000805
856.257026,382.851616,-4785.645200,7274.180704
856.259543,-2277.967115,-1971.685822,-25804.198918
856.262059,2679.961312,-2928.814862,-5398.207786
856.264575,-2431.107762,2431.107762,-555.134843
856.267091,1167.697429,57.427742,-22147.965986
856.269608,-1129.412267,2450.250342,-2967.100024
856.272124,-287.138712,803.988394,-5264.209720
856.274640,861.416136,-2029.113565,-20750.557587
856.277157,-1780.260014,-899.701298,-861.416136
856.279673,1741.974853,-5359.922624,-7657.032320
856.282189,114.855485,-3311.666478,-22396.819536
856.284705,-880.558717,114.855485,2699.103893
856.287248,421.136778,-937.986459,-10700.702667
856.289791,1952.543242,-1990.828403,-19716.858224
856.292334,-3560.520029,4058.227130,-1110.269686
856.294876,1186.840010,267.996131,-10107.282662
856.297419,-4000.799387,1684.547110,-14988.640766
856.299962,6814.758765,-5781.059402,3503.092286
856.302504,-4287.938099,-1512.263883,-18855.442088
856.305047,1473.978722,-2641.676150,-9399.007173
856.307590,1263.410333,-2450.250342,-4498.506488
856.310133,-1952.543242,1052.841944,-14165.509792
856.312675,1282.552914,-153.140646,-11753.544611
856.315218,-1225.125171,1588.834206,-2009.970984
856.317761,803.988394,-306.281293,-12136.396227
856.320304,-3215.953574,899.701298,-16462.619488
856.322846,1665.404530,-861.416136,-229.710970
856.325389,172.283227,-2928.814862,-16386.049165
856.327932,-133.998066,-2737.389054,-6853.043926
856.330475,-38.285162,-2450.250342,-7848.458128
856.333017,631.705166,-2029.113565,-13131.810429
856.335560,-1531.406464,861.416136,-3598.805190
856.338103,1741.974853,-1225.125171,-10298.708470
856.340646,-2048.256146,1320.838075,-12404.392358
856.343188,1435.693560,-1895.115499,-6604.190376
856.345731,-1244.267752,-593.420005,-5570.491013
856.348274,-2545.963246,-153.140646,-18989.440154
856.350816,3694.518094,-3139.383251,-2201.396792
856.353359,-3483.949706,1378.265818,-9226.723946
856.355902,3330.809059,-4000.799387,-15582.060771
856.358445,-2009.970984,880.558717,-4134.797453
856.360987,746.560651,-995.414202,-9705.288466
856.363530,-574.277424,-765.703232,-14682.359474
856.366073,-1110.269686,784.845813,-3981.656806
856.368616,1665.404530,-1780.260014,-10777.272990
856.371158,-2124.826469,-1225.125171,-12040.683323
856.373701,1722.832272,-1454.836141,-9131.011042
856.376244,-899.701298,1033.699363,-6144.768437
856.378787,-1933.400661,2067.398726,-15543.775610
856.381329,3579.662610,-2909.672282,-6125.625856
856.383872,-1129.412267,-937.986459,-10968.698798
856.386415,-842.273555,-574.277424,-10796.415571
856.388976,995.414202,-2048.256146,-9073.583299
856.391537,-1684.547110,-555.134843,-7312.465866
856.394097,535.992262,-3177.668413,-12863.814298
856.396658,-1569.691626,-803.988394,-8671.589102
856.399219,5800.201982,-4115.654872,-10738.987829
856.401780,-1875.972918,1301.695494,-6317.051664
856.404341,-4230.510357,4766.502619,-8346.165229
856.406902,4651.647134,-2967.100024,-18396.020149
856.409463,-842.273555,38.285162,1837.687757
856.412024,-497.707101,-3215.953574,-16941.184008
856.414585,1722.832272,-4134.797453,-9743.573627
856.417145,-1780.260014,-1435.693560,-4134.797453
856.419706,38.285162,-1454.836141,-14471.791085
856.422267,-76.570323,-38.285162,-8997.012976
856.424828,401.994197,746.560651,-6106.483275
856.427389,2603.390989,-1052.841944,-10432.706536
856.429950,-4843.072942,3196.810994,-15065.211090
856.432511,3369.094221,-2029.113565,-4153.940034
856.435072,574.277424,-2163.111630,-11408.978157
856.437633,-3694.518094,325.423874,-11504.691061
856.440193,2622.533570,-4823.930362,-8193.024582
856.442754,-2967.100024,248.853550,-8269.594906
856.445315,1818.545176,-2641.676150,-12921.242040
856.447876,1971.685822,-1071.984525,-9207.581365
856.450437,-2545.963246,2392.822600,-8154.739421
856.452998,3426.521963,-3120.240670,-14165.509792
856.455559,2411.965181,-842.273555,-8250.452325
856.458120,-10164.710405,6144.768437,-1397.408398
856.460681,6087.340694,-8231.309744,-23660.229869
856.463242,440.279358,-3503.092286,-7714.460062
856.465802,-3809.373579,861.416136,612.562586
856.468363,2545.963246,-4613.361973,-25899.911822
856.470924,-2603.390989,2852.244539,-8001.598774
856.473485,-57.427742,957.129040,3809.373579
856.476046,1531.406464,-2029.113565,-25976.482146
856.478607,-3732.803256,2201.396792,-5627.918755
856.481168,3177.668413,-2794.816797,-1416.550979
856.483729,-1167.697429,-229.710970,-22798.813733
856.486290,-363.709035,-784.845813,-2699.103893
856.488850,-0.000000,-3158.525832,-14644.074312
856.491362,-1665.404530,-2201.396792,-16194.623357
856.493873,4938.785846,-3158.525832,3369.094221
856.496384,-6623.332957,4670.789715,-17745.172402
856.498895,4077.369710,-1416.550979,-9437.292334
856.501406,-1761.117434,937.986459,-3694.518094
856.503917,57.427742,0.000000,-14414.363342
856.506428,440.279358,-2258.824534,-10317.851051
856.508939,-1378.265818,-95.712904,-1665.404530
856.511451,3043.670347,-4039.084549,-19123.438219
856.513962,-2220.539373,-937.986459,-746.560651
856.516473,-1665.404530,-172.283227,-11236.694930
856.518984,1205.982590,-3215.953574,-16577.474973
856.521495,-1971.685822,1780.260014,-3962.514226
856.524006,4000.799387,-2507.678085,-9245.866526
856.526517,-3579.662610,2871.387120,-7944.171032
856.529029,3426.521963,-3407.379382,-8269.594906
856.531540,-1607.976787,-689.132909,-6374.479406
856.534051,-3713.660675,574.277424,-15256.636898
856.536562,5321.637462,-5819.344563,-4307.080680
856.539073,-3292.523898,1397.408398,-12614.960747
856.541584,765.703232,-1684.547110,-9820.143950
856.544095,210.568389,-918.843878,-4364.508422
856.546606,-1684.547110,133.998066,-14586.646570
856.549118,1875.972918,-1110.269686,-6278.766502
856.551629,-4517.649069,2239.681954,-11083.554283
856.554140,5053.641331,-4096.512291,-13342.378818
856.556651,133.998066,-3503.092286,-8078.169098
856.559162,-3101.098090,1225.125171,-5551.348432
856.561673,842.273555,-842.273555,-11964.113000
856.564184,995.414202,344.566454,-4498.506488
856.566695,-3330.809059,2201.396792,-8843.872330
856.569207,2143.969050,-2450.250342,-13591.232368
856.571718,-1435.693560,-535.992262,-3694.518094
856.574229,1263.410333,-3407.379382,-14088.939469
856.576740,-3005.385186,-382.851616,-8365.307810
856.579251,3292.523898,-4517.649069,-10336.993632
856.581762,-1473.978722,-210.568389,-7963.313613
856.584273,-803.988394,1148.554848,-12117.253646
856.586784,2201.396792,-363.709035,-6585.047795
856.589296,-2124.826469,2411.965181,-10011.569758
856.591832,-1473.978722,497.707101,-14146.367211
856.594368,5264.209720,-2182.254211,-4881.358104
856.596905,-3349.951640,2067.398726,-8307.880067
856.599441,708.275490,306.281293,-14242.080115
856.601978,-2220.539373,2239.681954,-4785.645200
856.604514,5493.920690,-1110.269686,-7982.456194
856.607051,-5398.207786,7101.897477,-17764.314982
856.609587,2488.535504,4843.072942,-2507.678085
856.612124,440.279358,4364.508422,-15199.209155
856.614660,-3273.381317,3177.668413,-8882.157491
856.617197,3426.521963,-4000.799387,-7771.887805
856.619733,-2507.678085,2947.957443,-12653.245909
856.622269,555.134843,-1741.974853,-10949.556218
856.624806,191.425808,153.140646,-5111.069074
856.627342,-19.142581,3579.662610,-12212.966550
856.629879,-19.142581,5359.922624,-12710.673651
856.632415,287.138712,4058.227130,-4785.645200
856.634952,-363.709035,2852.244539,-11638.689126
856.637488,-478.564520,1416.550979,-10164.710405
856.640025,133.998066,1033.699363,-6068.198114
856.642561,-57.427742,-76.570323,-12557.533005
856.645097,-574.277424,937.986459,-10509.276859
856.647634,612.562586,1512.263883,-6738.188442
856.650170,-593.420005,2431.107762,-12098.111066
856.652707,382.851616,-1052.841944,-9647.860723
856.655243,-440.279358,-114.855485,-8805.587168
856.657780,-267.996131,-459.421939,-10528.419440
856.660316,229.710970,-133.998066,-9169.296203
856.662853,-114.855485,3694.518094,-9437.292334
856.665389,-0.000000,6068.198114,-10260.423309
856.667925,-153.140646,10164.710405,-10451.849117
856.670462,497.707101,7848.458128,-7389.036189
856.672998,-267.996131,5513.063270,-10088.140082
856.675535,-19.142581,-287.138712,-10872.985894
856.678071,-248.853550,-3522.234867,-9322.436850
856.680608,-172.283227,-6183.053598,-8097.311678
856.683144,-114.855485,-1607.976787,-11619.546546
856.685681,-57.427742,1990.828403,-9265.009107
856.688217,-1397.408398,7082.754896,-10241.280728
856.690753,1684.547110,6680.760699,-12653.245909
856.693308,-114.855485,6087.340694,-4651.647134
856.695862,-459.421939,6163.911018,-11810.972354
856.698416,1761.117434,918.843878,-9628.718142
856.700971,-2258.824534,-1416.550979,-10643.274925
856.703525,382.851616,-3981.656806,-9590.432981
856.706079,-344.566454,-267.996131,-10853.843314
856.708633,2277.967115,-708.275490,-6144.768437
856.711188,-3426.521963,3235.096155,-12155.538808
856.713742,2890.529701,555.134843,-11696.116869
856.716296,-19.142581,765.703232,-6183.053598
856.718850,-1454.836141,114.855485,-13265.808494
856.721405,1454.836141,-4919.643266,-8863.014910
856.723959,-1378.265818,-2373.680019,-5206.781978
856.726513,880.558717,-3349.951640,-15256.636898
856.729068,-210.568389,-2182.254211,-9131.011042
856.731622,229.710970,-95.712904,-7810.172966
856.734176,-1339.980656,2507.678085,-12327.822035
856.736730,-421.136778,2967.100024,-9609.575562
856.739285,2220.539373,-593.420005,-1320.838075
856.741839,-1320.838075,-1110.269686,-18530.018214
856.744393,-4785.645200,-1339.980656,-8709.874264
856.746947,7810.172966,-7695.317482,-8575.876198
856.749502,-3483.949706,516.849682,-6297.909083
856.752056,-1225.125171,-421.136778,-9284.151688
856.754610,287.138712,-57.427742,-9035.298138
856.757165,-363.709035,880.558717,-7465.606512
856.759719,-306.281293,191.425808,-12806.386555
856.762273,-1301.695494,344.566454,-5991.627790
856.764827,2526.820666,-3101.098090,-9322.436850
856.767382,-1320.838075,-2488.535504,-14510.076246
856.769936,-2756.531635,172.283227,-9054.440718
856.772490,5111.069074,-5340.780043,-5800.201982
856.775044,-2469.392923,976.271621,-11983.255581
856.777599,-631.705166,918.843878,-11408.978157
856.780153,2947.957443,-995.414202,-6948.756830
856.782707,-4307.080680,3024.527766,-13074.382686
856.785262,3081.955509,-1971.685822,-7312.465866
856.787816,-2048.256146,-880.558717,-8480.163294
856.790370,2009.970984,-3847.658741,-12500.105262
856.792924,2277.967115,-3254.238736,-3675.375514
856.795492,-4326.223261,133.998066,-13610.374949
856.798060,2718.246474,-3005.385186,-12117.253646
856.800628,-1703.689691,574.277424,-4402.793584
856.803196,689.132909,325.423874,-11638.689126
856.805764,-631.705166,459.421939,-13591.232368
856.808332,-267.996131,689.132909,-1627.119368
856.810900,861.416136,-1569.691626,-11925.827838
856.813468,-2182.254211,-880.558717,-13246.665914
856.816036,1339.980656,-2469.392923,-5876.772306
856.818604,76.570323,-1588.834206,-11313.265253
856.821172,-3158.525832,19.142581,-8480.163294
856.823739,4536.791650,-5091.926493,-12595.818166
856.826307,-2067.398726,1454.836141,-784.845813
856.828875,267.996131,-689.132909,-14605.789150
856.831443,2201.396792,-1761.117434,-7159.325219
856.834011,-3598.805190,2603.390989,-8633.303941
856.836579,2641.676150,-2660.818731,-10011.569758
856.839147,-516.849682,-1454.836141,-12825.529136
856.841715,4326.223261,-6336.194245,995.414202
856.844283,-5895.914886,1071.984525,-27929.025387
856.846851,-3771.088418,3426.521963,-2201.396792
856.849419,7925.028451,-4441.078746,5857.629725
856.851987,-5283.352301,2622.533570,-25899.911822
856.854555,-1531.406464,2756.531635,-5130.211654
856.857122,4536.791650,-4441.078746,2679.961312
856.859690,-3809.373579,-918.843878,-24598.216328
856.862258,-459.421939,-2220.539373,-12021.540742
856.864826,1780.260014,-2641.676150,-2756.531635
856.867394,-1761.117434,-1531.406464,-20023.139517
856.869962,1990.828403,-2526.820666,-5206.781978
856.872530,-153.140646,1033.699363,-4421.936165
856.875098,-5532.205851,1799.402595,-22013.967920
856.877666,5379.065205,-2277.967115,-7331.608446
856.880234,-3790.230998,3694.518094,3158.525832
856.882802,19.142581,-1856.830338,-24043.081485
856.885370,-555.134843,-861.416136,-4536.791650
856.887938,727.418070,-2545.963246,-2603.390989
856.890505,-1339.980656,-2986.242605,-23353.948576
856.893073,-19.142581,-1454.836141,-4441.078746
856.895641,5091.926493,-3349.951640,-1722.832272
856.898218,-4823.930362,1607.976787,-21975.682758
856.900795,-1493.121302,2354.537438,-8346.165229
856.903372,2986.242605,-3139.383251,-4115.654872
856.905949,-4096.512291,957.129040,-21956.540178
856.908526,2105.683888,-1320.838075,-3847.658741
856.911103,306.281293,-1971.685822,-4613.361973
856.913680,-2584.248408,-650.847747,-20176.280163
856.916257,1990.828403,-2565.105827,-2737.389054
856.918834,-1627.119368,478.564520,-8709.874264
856.921411,1014.556782,-1933.400661,-16922.041427
856.923988,803.988394,842.273555,-4441.078746
856.926565,-2699.103893,1320.838075,-5800.201982
856.929142,631.705166,-2143.969050,-19410.576931
856.931719,-287.138712,-1167.697429,-4441.078746
856.934296,1627.119368,-2507.678085,-4536.791650
856.936873,-2507.678085,133.998066,-17955.740790
856.939450,2794.816797,-3407.379382,-5532.205851
856.942027,-4881.358104,3943.371645,-11045.269122
856.944604,2756.531635,-1799.402595,-9896.714274
856.947181,-153.140646,-344.566454,-5800.201982
856.949758,-325.423874,-937.986459,-15314.064640
856.952335,1301.695494,-1703.689691,-6661.618118
856.954911,-3311.666478,-114.855485,-6967.899411
856.957488,191.425808,-3541.377448,-15926.627226
856.960065,2431.107762,-2086.541307,-6527.620053
856.962642,-2584.248408,1282.552914,-5915.057467
856.965219,2545.963246,-2163.111630,-19180.865962
856.967796,-1722.832272,1301.695494,-3292.523898
856.970373,918.843878,38.285162,-9265.009107
856.972950,689.132909,-2584.248408,-12940.384621
856.975527,-1435.693560,-842.273555,-7523.034254
856.978104,1435.693560,-3292.523898,-9533.005238
856.980681,-2048.256146,-1607.976787,-11370.692995
856.983258,-650.847747,-1607.976787,-9016.155557
856.985835,2986.242605,-3981.656806,-9896.714274
856.988412,-1665.404530,2507.678085,-8843.872330
856.990989,957.129040,631.705166,-10030.712339
856.993566,-248.853550,2335.394858,-10356.136213
856.996143,-957.129040,1301.695494,-11581.261384
856.998720,2048.256146,-1933.400661,-2239.681954
857.001302,-57.427742,-4230.510357,-18281.164664
857.003885,-2373.680019,-2392.822600,-7771.887805
857.006468,2565.105827,-4938.785846,-4900.500685
857.009050,-2718.246474,-440.279358,-15333.207221
857.011633,2871.387120,-803.988394,-8863.014910
857.014215,-4957.928427,3905.086483,-3694.518094
857.016798,4728.217458,-1569.691626,-19697.715643
857.019380,-3732.803256,3503.092286,-823.130974
857.021963,1531.406464,-1550.549045,-13150.953010
857.024546,-2105.683888,-2124.826469,-16558.332392
857.027128,2699.103893,-5321.637462,4039.084549
857.029711,1014.556782,-5225.924558,-17534.604013
857.032293,-4536.791650,-57.427742,-14892.927862
857.034876,4096.512291,-2163.111630,1799.402595
857.037458,19.142581,1454.836141,-12902.099459
857.040041,-3024.527766,4153.940034,-16271.193680
857.042624,2335.394858,-612.562586,-2488.535504
857.045206,-1359.123237,57.427742,-8575.876198
857.047789,-823.130974,-2297.109696,-17668.602078
857.050371,3924.229064,-4957.928427,-880.558717
857.052954,-5072.783912,593.420005,-9839.286531
857.055536,3407.379382,-2890.529701,-15907.484645
857.058119,-1493.121302,1665.404530,-2105.683888
857.060702,4211.367776,-5245.067139,-2928.814862
857.063284,-4039.084549,1454.836141,-33231.520269
857.065867,2584.248408,2009.970984,6259.623922
857.068449,-3407.379382,3426.521963,-4957.928427
857.071032,-842.273555,-937.986459,-19180.865962
857.073614,191.425808,-1952.543242,-8461.020714
857.076197,2450.250342,-3311.666478,-2833.101958
857.078780,-4421.936165,-1818.545176,-24655.644070
857.081362,1205.982590,-1722.832272,-708.275490
857.083945,-382.851616,-689.132909,-3981.656806
857.086527,-1435.693560,-57.427742,-24425.933101
857.089110,1856.830338,-459.421939,-535.992262
857.091692,-2947.957443,2660.818731,-6680.760699
857.094275,2565.105827,-2622.533570,-14931.213024
857.096858,-4804.787781,2124.826469,1263.410333
857.099440,3598.805190,-5800.201982,-21841.684693
857.102023,-4115.654872,248.853550,-6049.055533
857.104608,3005.385186,-3943.371645,-2565.105827
857.107194,-1263.410333,-1665.404530,-19659.430482
857.109779,-1339.980656,2526.820666,-6757.331022
857.112365,4919.643266,-3062.812928,-3809.373579
857.114950,-3694.518094,2239.681954,-17228.322720
857.117535,401.994197,-957.129040,-9552.147819
857.120121,-114.855485,-114.855485,-1205.982590
857.122706,-1167.697429,-1856.830338,-18223.736922
857.125292,3617.947771,-3962.514226,-6259.623922
857.127877,-5838.487144,3196.810994,-4058.227130
857.130463,3005.385186,-2813.959378,-19869.998870
857.133048,-880.558717,535.992262,-1263.410333
857.135634,421.136778,-1780.260014,-13801.800757
857.138219,535.992262,-1244.267752,-11026.126541
857.140805,-803.988394,-440.279358,-4441.078746
857.143390,784.845813,-1282.552914,-12787.243974
857.145975,-957.129040,-842.273555,-11466.405899
857.148561,1091.127106,-114.855485,-3809.373579
857.151146,-1952.543242,-267.996131,-14050.654307
857.153732,-1531.406464,-899.701298,-9054.440718
857.156317,3637.090352,-3943.371645,-8039.883936
857.158903,-6087.340694,2928.814862,-3426.521963
857.161488,5666.203917,-5838.487144,-19755.143386
857.164074,-765.703232,-306.281293,-3043.670347
857.166659,1320.838075,-1741.974853,-11332.407834
857.169245,-1914.258080,-76.570323,-16979.469170
857.171830,421.136778,172.283227,2067.398726
857.174415,-1186.840010,-650.847747,-18836.299507
857.177001,1454.836141,-2048.256146,-8384.450390
857.179586,-3809.373579,899.701298,-1512.263883
857.182172,1722.832272,-4153.940034,-19812.571128
857.184757,-1033.699363,306.281293,-6240.481341
857.187343,2584.248408,-2277.967115,-2143.969050
857.189928,-918.843878,-803.988394,-20348.563390
857.192514,-995.414202,803.988394,-5742.774240
857.195099,2584.248408,-1359.123237,-3024.527766
857.197685,-3215.953574,287.138712,-21592.831142
857.200270,1205.982590,-1301.695494,-1875.972918
857.202855,-1320.838075,-669.990328,-6987.041992
857.205441,1263.410333,-2469.392923,-17955.740790
857.208029,-344.566454,-1301.695494,6297.909083
857.210616,133.998066,-976.271621,-18721.444022
857.213204,1837.687757,-1895.115499,-10107.282662
857.215791,-631.705166,-76.570323,-4441.078746
857.218379,-497.707101,-440.279358,-12174.681389
857.220967,248.853550,-2086.541307,-12021.540742
857.223554,-918.843878,325.423874,-3024.527766
857.226142,440.279358,-2048.256146,-14452.648504
857.228729,-1339.980656,-382.851616,-10470.991698
857.231317,-2182.254211,210.568389,-3158.525832
857.233904,3847.658741,-6183.053598,-16309.478842
857.236492,-3885.943902,229.710970,-5953.342629
857.239079,2450.250342,-5761.916821,-8805.587168
857.241667,-727.418070,-6144.768437,-4019.941968
857.244255,478.564520,-8288.737486,-17228.322720
857.246842,-669.990328,-6125.625856,-4498.506488
857.249430,976.271621,-4287.938099,-8537.591037
857.252017,-306.281293,-19.142581,-17668.602078
857.254605,-1588.834206,287.138712,-3101.098090
857.257192,1531.406464,-6202.196179,-8786.444587
857.259780,172.283227,-4268.795518,-13859.228499
857.262368,-1818.545176,-3196.810994,-7599.604578
857.264955,1014.556782,-7331.608446,-8116.454259
857.267543,-784.845813,-6489.334891,-12366.107197
857.270130,-555.134843,-2947.957443,-8346.165229
857.272718,861.416136,-3273.381317,-8556.733618
857.275305,-1703.689691,-2833.101958,-12825.529136
857.277893,1359.123237,-1933.400661,-5915.057467
857.280480,-516.849682,-612.562586,-9265.009107
857.283068,-765.703232,-3196.810994,-13112.667848
857.285656,-38.285162,-5838.487144,-4919.643266
857.288243,-210.568389,-6680.760699,-9475.577496
