#time,accel_x,accel_y,accel_z
707.856711,229.710970,497.707101,-9896.714274
707.859386,-19.142581,4192.225195,-9571.290400
707.862062,153.140646,5149.354235,-8977.870395
707.864737,-210.568389,5130.211654,-10662.417506
707.867413,248.853550,2545.963246,-8154.739421
707.870088,210.568389,516.849682,-11696.116869
707.872763,-1263.410333,-4058.227130,-7235.895542
707.875439,823.130974,-9399.007173,-8441.878133
707.878114,-497.707101,-9781.858789,-13055.240106
707.880790,-210.568389,-7829.315547,-7389.036189
707.883465,-631.705166,976.271621,-10222.138147
707.886141,957.129040,-1167.697429,-9016.155557
707.888816,-516.849682,-918.843878,-10528.419440
707.891492,-57.427742,-918.843878,-8977.870395
707.894167,229.710970,-3196.810994,-9016.155557
707.896793,-880.558717,-4709.074877,-9762.716208
707.899418,-0.000000,-7733.602643,-8575.876198
707.902044,-57.427742,-10738.987829,-9169.296203
707.904670,-1129.412267,-8537.591037,-11428.120738
707.907296,-516.849682,-4326.223261,-8595.018779
707.909921,363.709035,-3579.662610,-10796.415571
707.912547,1071.984525,3254.238736,-12270.394293
707.915173,1091.127106,4460.221326,-2699.103893
707.917798,-2411.965181,3675.375514,-11849.257515
707.920424,2679.961312,-4517.649069,-10987.841379
707.923050,-2373.680019,-1416.550979,-4996.213589
707.925676,-727.418070,-4096.512291,-15046.068509
707.928301,95.712904,-3560.520029,-8499.305875
707.930927,-497.707101,-1741.974853,-6604.190376
707.933553,-267.996131,306.281293,-14682.359474
707.936178,57.427742,1818.545176,-4441.078746
707.938804,-76.570323,2239.681954,-11160.124606
707.941430,-363.709035,19.142581,-12021.540742
707.944056,-325.423874,-459.421939,-7178.467800
707.946681,631.705166,-2967.100024,-9552.147819
707.949307,-1186.840010,-2871.387120,-12940.384621
707.951933,382.851616,-2450.250342,-7427.321350
707.954558,-133.998066,-1627.119368,-9705.288466
707.957184,-899.701298,1301.695494,-13112.667848
707.959810,95.712904,2411.965181,-6814.758765
707.962436,-57.427742,1627.119368,-8193.024582
707.965061,631.705166,-2201.396792,-11983.255581
707.967687,-344.566454,-1339.980656,-8365.307810
707.970313,248.853550,-4230.510357,-7618.747158
707.972938,-267.996131,-3732.803256,-13246.665914
707.975564,287.138712,-2565.105827,-5379.065205
707.978190,38.285162,516.849682,-12653.245909
707.980815,-421.136778,937.986459,-9992.427178
707.983441,478.564520,823.130974,-7427.321350
707.986067,133.998066,-784.845813,-8958.727814
707.988693,-746.560651,-229.710970,-12576.675586
707.991318,823.130974,-3713.660675,-5359.922624
707.993944,-765.703232,-2794.816797,-11887.542677
707.996570,191.425808,-2488.535504,-11006.983960
707.999195,-229.710970,-229.710970,-7829.315547
708.001784,-631.705166,-708.275490,-10777.272990
708.004375,535.992262,574.277424,-10719.845248
708.006966,-765.703232,1895.115499,-7791.030386
708.009557,-57.427742,344.566454,-11217.552349
708.012148,-191.425808,-535.992262,-6757.331022
708.014738,-344.566454,-1952.543242,-9724.431046
708.017329,-0.000000,-2794.816797,-12078.968485
708.019920,-593.420005,-1569.691626,-8365.307810
708.022511,-114.855485,-1052.841944,-9418.149754
708.025102,-382.851616,229.710970,-11657.831707
708.027693,-401.994197,1665.404530,-8480.163294
708.030284,19.142581,95.712904,-9245.866526
708.032875,-57.427742,114.855485,-10738.987829
708.035466,650.847747,-2143.969050,-7006.184573
708.038057,-784.845813,-1512.263883,-11887.542677
708.040648,-1033.699363,-2297.109696,-8633.303941
708.043239,1244.267752,-1473.978722,-8537.591037
708.045830,-535.992262,-1416.550979,-10892.128475
708.048420,-765.703232,-593.420005,-10279.565890
708.051011,574.277424,-1780.260014,-5608.776174
708.053602,-535.992262,-57.427742,-14950.355605
708.056193,-574.277424,-57.427742,-7140.182638
708.058784,2201.396792,-1512.263883,-7140.182638
708.061375,-1205.982590,-823.130974,-11600.403965
708.063966,325.423874,-478.564520,-10662.417506
708.066557,248.853550,-3235.096155,-5666.203917
708.069148,-957.129040,-2450.250342,-13380.663979
708.071739,689.132909,-2565.105827,-9399.007173
708.074330,-440.279358,555.134843,-8078.169098
708.076921,-114.855485,-287.138712,-11542.976222
708.079512,-1263.410333,2029.113565,-10815.558152
708.082103,803.988394,976.271621,-5876.772306
708.084693,-38.285162,-1014.556782,-12921.242040
708.087284,-957.129040,-1971.685822,-6623.332957
708.089875,401.994197,-3388.236802,-8250.452325
708.092466,-497.707101,-1473.978722,-14318.650438
708.095057,-918.843878,172.283227,-7963.313613
708.097648,1531.406464,-1110.269686,-7197.610381
708.100239,-1435.693560,1359.123237,-13399.806560
708.102830,-1091.127106,2852.244539,-10260.423309
708.105403,1359.123237,-593.420005,-4957.928427
708.107977,-1033.699363,-631.705166,-14682.359474
708.110550,248.853550,-3522.234867,-7599.604578
708.113124,344.566454,-3120.240670,-8135.596840
708.115698,-612.562586,-3139.383251,-11887.542677
708.118271,-38.285162,-727.418070,-8499.305875
708.120845,-861.416136,-669.990328,-6183.053598
708.123418,-248.853550,-153.140646,-13016.954944
708.125992,-95.712904,-593.420005,-8537.591037
708.128565,-957.129040,2182.254211,-9035.298138
708.131139,3445.664544,-2124.826469,-5627.918755
708.133712,-2009.970984,38.285162,-12710.673651
708.136286,-421.136778,-3101.098090,-8001.598774
708.138859,1952.543242,-3120.240670,-9858.429112
708.141433,-2105.683888,-957.129040,-9016.155557
708.144006,-382.851616,-746.560651,-11830.114934
708.146580,1971.685822,-2220.539373,-5915.057467
708.149153,-1493.121302,1110.269686,-12270.394293
708.151727,57.427742,-803.988394,-10643.274925
708.154300,191.425808,-612.562586,-7714.460062
708.156874,-497.707101,57.427742,-10585.847182
708.159447,-172.283227,-574.277424,-11408.978157
708.162021,229.710970,-1071.984525,-7925.028451
708.164595,-210.568389,-1071.984525,-11332.407834
708.167168,-1359.123237,133.998066,-12614.960747
708.169742,2067.398726,-803.988394,-8595.018779
708.172315,727.418070,19.142581,-8748.159426
708.174889,-4441.078746,1339.980656,-10107.282662
708.177462,4173.082614,-4268.795518,-7944.171032
708.180036,-2565.105827,-937.986459,-8863.014910
708.182609,-1033.699363,-861.416136,-13304.093656
708.185183,2411.965181,-2986.242605,-8193.024582
708.187756,-1607.976787,1263.410333,-9035.298138
708.190330,133.998066,-1129.412267,-11255.837510
708.192903,765.703232,459.421939,-9934.999435
708.195477,-459.421939,248.853550,-5934.200048
708.198050,114.855485,-1607.976787,-13763.515595
708.200624,-248.853550,-2871.387120,-6393.621987
708.203197,210.568389,-2220.539373,-10949.556218
708.205771,-229.710970,-2469.392923,-11121.839445
708.208328,133.998066,-1052.841944,-7331.608446
708.210884,57.427742,-899.701298,-9360.722011
708.213441,-1339.980656,2297.109696,-13016.954944
708.215997,2201.396792,-1359.123237,-4441.078746
708.218554,-1454.836141,-478.564520,-12059.825904
708.221111,172.283227,-2143.969050,-10394.421374
708.223667,95.712904,-1627.119368,-7408.178770
708.226224,-76.570323,-2411.965181,-10394.421374
708.228780,210.568389,-2163.111630,-12155.538808
708.231337,-2124.826469,1244.267752,-8307.880067
708.233894,2143.969050,57.427742,-9973.284597
708.236450,-1454.836141,2048.256146,-11772.687192
708.239007,727.418070,995.414202,-7637.889739
708.241563,287.138712,-1780.260014,-12308.679454
708.244120,-2335.394858,-363.709035,-10566.704602
708.246677,1837.687757,-3292.523898,-8154.739421
708.249233,-1320.838075,-1512.263883,-10202.995566
708.251790,114.855485,-976.271621,-11485.548480
708.254346,153.140646,-937.986459,-6661.618118
708.256903,-19.142581,708.275490,-11255.837510
708.259460,153.140646,-76.570323,-9667.003304
708.262016,-172.283227,325.423874,-9131.011042
708.264573,-19.142581,-1818.545176,-8461.020714
708.267129,-38.285162,-1493.121302,-11236.694930
708.269686,-19.142581,-2928.814862,-7542.176835
708.272243,-401.994197,-1741.974853,-11236.694930
708.274799,267.996131,-1607.976787,-9475.577496
708.277356,-76.570323,440.279358,-9590.432981
708.279912,976.271621,-2124.826469,-8575.876198
708.282469,-861.416136,-229.710970,-10872.985894
708.285026,689.132909,-2009.970984,-7676.174901
708.287582,-95.712904,363.709035,-10968.698798
708.290126,-440.279358,-957.129040,-8901.300072
708.292670,669.990328,-1990.828403,-9437.292334
708.295214,1359.123237,-1990.828403,-10298.708470
708.297758,-2584.248408,1895.115499,-11868.400096
708.300301,1071.984525,-880.558717,-6374.479406
708.302845,-325.423874,-57.427742,-12002.398162
708.305389,-1033.699363,-133.998066,-10260.423309
708.307933,478.564520,-2201.396792,-9035.298138
708.310477,-861.416136,-1071.984525,-9686.145885
708.313020,306.281293,-2163.111630,-10892.128475
708.315564,-631.705166,287.138712,-9379.864592
708.318108,57.427742,267.996131,-11121.839445
708.320652,-401.994197,784.845813,-9820.143950
708.323196,-38.285162,-76.570323,-8059.026517
708.325740,-38.285162,-957.129040,-12327.822035
708.328283,-401.994197,-1895.115499,-7848.458128
708.330827,612.562586,-1761.117434,-9667.003304
708.333371,-401.994197,-2201.396792,-10107.282662
708.335915,-287.138712,-57.427742,-10509.276859
708.338459,95.712904,-1148.554848,-6833.901346
708.341002,306.281293,-976.271621,-11121.839445
708.343546,38.285162,-2603.390989,-9820.143950
708.346090,-57.427742,-1339.980656,-8135.596840
708.348634,-363.709035,-1301.695494,-9896.714274
708.351178,76.570323,-57.427742,-11351.550414
708.353721,325.423874,-1091.127106,-5187.639397
708.356265,2526.820666,-2182.254211,-12461.820101
708.358809,-3464.807125,1627.119368,-8748.159426
708.361353,918.843878,-267.996131,-9035.298138
708.363897,421.136778,-2239.681954,-8824.729749
708.366441,-2029.113565,-842.273555,-12193.823970
708.368984,1741.974853,-3732.803256,-8059.026517
708.371528,-1914.258080,76.570323,-9858.429112
708.374072,555.134843,-1359.123237,-11868.400096
708.376616,-440.279358,574.277424,-7044.469734
708.379160,-76.570323,823.130974,-11504.691061
708.381703,-114.855485,76.570323,-10394.421374
708.384247,-363.709035,-133.998066,-8212.167163
708.386791,382.851616,-2545.963246,-10336.993632
708.389335,-650.847747,-1397.408398,-9456.434915
708.391874,133.998066,-2086.541307,-8575.876198
708.394412,-38.285162,-899.701298,-11140.982026
708.396951,-1378.265818,1033.699363,-10241.280728
708.399490,1301.695494,-516.849682,-8288.737486
708.402028,-631.705166,-803.988394,-9877.571693
708.404567,-153.140646,-133.998066,-10547.562021
708.407106,727.418070,-1837.687757,-7140.182638
708.409644,-995.414202,-344.566454,-12653.245909
708.412183,1512.263883,-2277.967115,-8269.594906
708.414722,-38.285162,95.712904,-8537.591037
708.417260,-1014.556782,-1914.258080,-9686.145885
708.419799,2794.816797,-4115.654872,-9705.288466
708.422337,-3177.668413,995.414202,-7791.030386
708.424876,1014.556782,-287.138712,-13514.662045
708.427415,-765.703232,-861.416136,-5742.774240
708.429953,-19.142581,-1282.552914,-11753.544611
708.432492,287.138712,-2545.963246,-10145.567824
708.435031,-746.560651,95.712904,-7503.891674
708.437569,1091.127106,-2297.109696,-11485.548480
708.440108,-1531.406464,229.710970,-9973.284597
708.442647,440.279358,-669.990328,-7848.458128
708.445185,-267.996131,-325.423874,-12193.823970
708.447724,-440.279358,-38.285162,-9245.866526
708.450263,248.853550,-918.843878,-8403.592971
708.452801,-631.705166,-1014.556782,-12098.111066
708.455340,-0.000000,-1914.258080,-8518.448456
708.457879,-153.140646,-363.709035,-9399.007173
708.460417,-363.709035,-459.421939,-11045.269122
708.462956,267.996131,-478.564520,-8920.442653
708.465495,-1244.267752,-459.421939,-8958.727814
708.468033,631.705166,-689.132909,-12882.956878
708.470572,-325.423874,-746.560651,-7752.745224
708.473111,-76.570323,-612.562586,-9341.579430
708.475649,535.992262,-2297.109696,-10394.421374
708.478188,-765.703232,-114.855485,-9590.432981
708.480727,2335.394858,-3790.230998,-7771.887805
708.483265,-1110.269686,-631.705166,-10987.841379
708.485804,-574.277424,-459.421939,-10509.276859
708.488343,344.566454,1033.699363,-7044.469734
708.490881,-746.560651,-191.425808,-11562.118803
708.493415,-344.566454,-287.138712,-9686.145885
708.495948,1263.410333,-3541.377448,-5934.200048
708.498481,-784.845813,-3139.383251,-14184.652373
708.501015,95.712904,-3158.525832,-4421.936165
708.503548,-153.140646,-976.271621,-10432.706536
708.506081,-0.000000,-76.570323,-12519.247843
708.508615,-133.998066,2392.822600,-7101.897477
708.511148,191.425808,555.134843,-8939.585234
708.513681,-574.277424,363.709035,-13150.953010
708.516215,19.142581,-880.558717,-6393.621987
708.518748,-267.996131,-2431.107762,-11064.411702
708.521281,-325.423874,-2794.816797,-11332.407834
708.523815,-248.853550,-2105.683888,-7312.465866
708.526348,-363.709035,-1607.976787,-11140.982026
708.528881,-95.712904,-937.986459,-11179.267187
708.531415,574.277424,2105.683888,-8116.454259
708.533948,57.427742,1875.972918,-8288.737486
708.536481,-823.130974,1148.554848,-13380.663979
708.539015,574.277424,-1320.838075,-5130.211654
708.541548,-574.277424,-1301.695494,-12308.679454
708.544082,57.427742,-2737.389054,-11140.982026
708.546615,-727.418070,-2622.533570,-6125.625856
708.549148,1091.127106,-4996.213589,-10394.421374
708.551682,-957.129040,76.570323,-11830.114934
708.554215,593.420005,-440.279358,-6795.616184
708.556748,95.712904,1186.840010,-11447.263318
708.559282,-38.285162,708.275490,-7848.458128
708.561815,287.138712,1033.699363,-9896.714274
708.564348,-95.712904,-1990.828403,-9667.003304
708.566882,-325.423874,-2699.103893,-9494.720077
708.569415,19.142581,-3541.377448,-9092.725880
708.571948,-516.849682,-2316.252277,-11734.402030
708.574482,-38.285162,-2220.539373,-7771.887805
708.577015,-95.712904,-172.283227,-11045.269122
708.579548,-306.281293,1263.410333,-9207.581365
708.582082,-535.992262,1856.830338,-9628.718142
708.584615,650.847747,-1378.265818,-9934.999435
708.587148,-1933.400661,957.129040,-11638.689126
708.589682,2182.254211,-2163.111630,-5895.914886
708.592215,-1359.123237,-2239.681954,-11791.829773
708.594627,-38.285162,-3177.668413,-11198.409768
708.597038,191.425808,-1990.828403,-7159.325219
708.599450,-842.273555,535.992262,-11868.400096
708.601861,95.712904,746.560651,-10202.995566
708.604272,574.277424,1378.265818,-6355.336826
708.606684,363.709035,38.285162,-11791.829773
708.609095,-1186.840010,708.275490,-11485.548480
708.611507,401.994197,-2105.683888,-4402.793584
708.613918,-382.851616,-2641.676150,-14184.652373
708.616330,-76.570323,-2813.959378,-8422.735552
708.618741,267.996131,-2048.256146,-8709.874264
708.621153,-38.285162,-1952.543242,-10394.421374
708.623564,-440.279358,1129.412267,-9781.858789
708.625976,746.560651,-287.138712,-7695.317482
708.628387,-689.132909,440.279358,-11447.263318
708.630799,574.277424,-1378.265818,-8097.311678
708.633210,-153.140646,-421.136778,-9322.436850
708.635622,-497.707101,-3043.670347,-9743.573627
708.638033,229.710970,-2794.816797,-10413.563955
708.640445,-19.142581,-1875.972918,-9054.440718
708.642856,-325.423874,650.847747,-10815.558152
708.645268,976.271621,-842.273555,-7274.180704
708.647679,-1646.261949,1493.121302,-12346.964616
708.650091,2450.250342,-2258.824534,-6719.045861
708.652502,-1493.121302,19.142581,-11274.980091
708.654914,191.425808,-2986.242605,-9667.003304
708.657325,191.425808,-2890.529701,-8690.731683
708.659737,-344.566454,-1052.841944,-10528.419440
708.662148,-555.134843,114.855485,-11868.400096
708.664560,1033.699363,-555.134843,-6738.188442
708.666971,-248.853550,650.847747,-9781.858789
708.669383,-1627.119368,2373.680019,-14069.796888
708.671794,516.849682,-210.568389,-4862.215523
708.674206,555.134843,-1665.404530,-11198.409768
708.676617,-1167.697429,-2239.681954,-10987.841379
708.679029,344.566454,-2852.244539,-8327.022648
708.681440,478.564520,-3713.660675,-8269.594906
708.683852,-459.421939,-363.709035,-10528.419440
708.686263,344.566454,-306.281293,-7695.317482
708.688675,-1627.119368,1703.689691,-9858.429112
708.691124,689.132909,-1071.984525,-10413.563955
708.693574,114.855485,133.998066,-10375.278794
708.696024,-803.988394,-38.285162,-8250.452325
708.698474,2545.963246,-2794.816797,-9379.864592
708.700924,-1607.976787,-1856.830338,-7523.034254
708.703374,-267.996131,-1320.838075,-13284.951075
708.705824,880.558717,-2297.109696,-7714.460062
708.708274,-1129.412267,-650.847747,-7829.315547
708.710724,1282.552914,-2316.252277,-12270.394293
708.713174,-1205.982590,1110.269686,-9379.864592
708.715624,114.855485,-57.427742,-7255.038123
708.718074,114.855485,-746.560651,-12212.966550
708.720523,-382.851616,-880.558717,-7503.891674
708.722973,631.705166,-1339.980656,-9992.427178
708.725423,-38.285162,-2545.963246,-9628.718142
708.727873,-918.843878,-1052.841944,-10853.843314
708.730323,-708.275490,229.710970,-9705.288466
708.732773,191.425808,172.283227,-9992.427178
708.735223,-267.996131,-114.855485,-9131.011042
708.737673,-708.275490,-114.855485,-10490.134278
708.740123,784.845813,-612.562586,-9820.143950
708.742573,-650.847747,-1110.269686,-9379.864592
708.745023,-95.712904,-976.271621,-9494.720077
708.747473,555.134843,-2431.107762,-9513.862658
708.749922,-1454.836141,-19.142581,-11006.983960
708.752372,1550.549045,-2871.387120,-7446.463931
708.754822,-1435.693560,363.709035,-10068.997501
708.757272,784.845813,-899.701298,-9781.858789
708.759722,-76.570323,-248.853550,-9647.860723
708.762172,-976.271621,-555.134843,-8422.735552
708.764622,918.843878,19.142581,-11887.542677
708.767072,-76.570323,-1186.840010,-5761.916821
708.769522,-267.996131,-2316.252277,-10949.556218
708.771972,880.558717,-3981.656806,-10241.280728
708.774422,-880.558717,-210.568389,-8078.169098
708.776872,957.129040,-2335.394858,-9533.005238
708.779321,-1186.840010,-76.570323,-11581.261384
708.781771,344.566454,-287.138712,-7389.036189
708.784221,612.562586,401.994197,-10375.278794
708.786671,287.138712,-689.132909,-9207.581365
708.789147,-1148.554848,248.853550,-10222.138147
708.791623,-287.138712,-1110.269686,-7771.887805
708.794099,344.566454,-1359.123237,-11236.694930
708.796575,-459.421939,-1971.685822,-8575.876198
708.799050,-478.564520,-1339.980656,-10643.274925
708.801526,535.992262,-1339.980656,-9418.149754
708.804002,-784.845813,153.140646,-10011.569758
708.806478,-95.712904,19.142581,-9475.577496
708.808954,-459.421939,325.423874,-9456.434915
708.811430,823.130974,-153.140646,-10375.278794
708.813906,-114.855485,-823.130974,-8039.883936
708.816381,-803.988394,-287.138712,-10604.989763
708.818857,1091.127106,-3081.955509,-10394.421374
708.821333,-689.132909,-1339.980656,-9035.298138
708.823809,-172.283227,-2201.396792,-8901.300072
708.826285,593.420005,-612.562586,-11351.550414
708.828761,-708.275490,-133.998066,-8135.596840
708.831236,114.855485,-153.140646,-10834.700733
708.833712,382.851616,-1339.980656,-9073.583299
708.836188,-631.705166,459.421939,-9379.864592
708.838664,803.988394,-2565.105827,-9303.294269
708.841140,-650.847747,-1282.552914,-10604.989763
708.843616,-76.570323,-2009.970984,-7140.182638
708.846092,-57.427742,-1282.552914,-11026.126541
708.848567,-210.568389,-1607.976787,-9150.153622
708.851043,-363.709035,-535.992262,-10834.700733
708.853519,669.990328,-153.140646,-8327.022648
708.855995,497.707101,612.562586,-9150.153622
708.858471,-1205.982590,191.425808,-11006.983960
708.860947,2718.246474,-1990.828403,-11447.263318
708.863423,-765.703232,823.130974,-7389.036189
708.865898,-1550.549045,-650.847747,-11370.692995
708.868374,3292.523898,-5015.356170,-8231.309744
708.870850,-4134.797453,516.849682,-8403.592971
708.873326,1052.841944,-2373.680019,-16003.197549
708.875802,-574.277424,325.423874,-5742.774240
708.878278,-191.425808,650.847747,-8709.874264
708.880754,-957.129040,1052.841944,-15180.066574
708.883229,57.427742,1378.265818,-5302.494882
708.885705,1225.125171,-2105.683888,-8097.311678
708.888200,-1646.261949,-1263.410333,-16098.910453
708.890694,1110.269686,-4058.227130,-3254.238736
708.893188,842.273555,-3732.803256,-10528.419440
708.895683,-1473.978722,-1167.697429,-12997.812363
708.898177,-574.277424,1914.258080,-6738.188442
708.900672,-95.712904,172.283227,-10643.274925
708.903166,-1359.123237,1435.693560,-12595.818166
708.905660,1627.119368,-2143.969050,-7063.612315
708.908155,-1531.406464,727.418070,-10528.419440
708.910649,2067.398726,-3598.805190,-9111.868461
708.913143,-1263.410333,-1722.832272,-8231.309744
708.915638,440.279358,-3120.240670,-11083.554283
708.918132,38.285162,-421.136778,-9743.573627
708.920627,-459.421939,-574.277424,-7274.180704
708.923121,880.558717,-803.988394,-12653.245909
708.925615,-95.712904,631.705166,-9016.155557
708.928110,-1722.832272,1473.978722,-8231.309744
708.930604,2124.826469,-2890.529701,-10451.849117
708.933099,-2545.963246,-76.570323,-10068.997501
708.935593,823.130974,-2641.676150,-10700.702667
708.938087,-1416.550979,-842.273555,-9322.436850
708.940582,114.855485,-1129.412267,-8977.870395
708.943076,-957.129040,440.279358,-12346.964616
708.945571,1033.699363,1282.552914,-7695.317482
708.948065,-191.425808,1952.543242,-9781.858789
708.950559,-957.129040,4039.084549,-11944.970419
708.953054,918.843878,1569.691626,-5685.346498
708.955548,-459.421939,3598.805190,-11676.974288
708.958042,-325.423874,2641.676150,-11600.403965
708.960537,478.564520,1933.400661,-5838.487144
708.963031,-669.990328,2450.250342,-11466.405899
708.965526,-76.570323,1493.121302,-12098.111066
708.968020,38.285162,784.845813,-6297.909083
708.970514,-306.281293,440.279358,-11026.126541
708.973009,-76.570323,-1454.836141,-9820.143950
708.975503,-612.562586,114.855485,-8690.731683
708.977998,-229.710970,-535.992262,-11217.552349
708.980492,57.427742,248.853550,-9801.001370
708.982986,267.996131,4689.932296,-8824.729749
708.985481,-555.134843,7848.458128,-10336.993632
708.987990,153.140646,10930.413637,-11140.982026
708.990499,1473.978722,6814.758765,-6317.051664
708.993008,-918.843878,2986.242605,-9245.866526
708.995517,1129.412267,-2756.531635,-14567.503989
708.998026,-823.130974,-4058.227130,-4364.508422
709.000535,-1435.693560,-7657.032320,-8575.876198
709.003044,880.558717,-8288.737486,-16615.760134
709.005553,-1052.841944,-1435.693560,-2737.389054
709.008062,727.418070,172.283227,-12614.960747
709.010571,-1244.267752,6412.764568,-9284.151688
709.013080,765.703232,4881.358104,-4402.793584
709.015589,191.425808,1952.543242,-13801.800757
709.018098,-1110.269686,-2986.242605,-6948.756830
709.020608,1703.689691,-7312.465866,-9877.571693
709.023117,-2124.826469,-5417.350366,-10853.843314
709.025626,1741.974853,-6029.912952,-10911.271056
709.028135,-1665.404530,-1110.269686,-6680.760699
709.030644,95.712904,4613.361973,-13036.097525
709.033153,689.132909,4134.797453,-8786.444587
709.035662,-708.275490,4881.358104,-7810.172966
709.038171,593.420005,421.136778,-11887.542677
709.040680,-842.273555,-746.560651,-10394.421374
709.043189,114.855485,-6336.194245,-5895.914886
709.045698,-746.560651,-7140.182638,-12940.384621
709.048207,765.703232,-5513.063270,-8269.594906
709.050716,-459.421939,1244.267752,-8480.163294
709.053225,229.710970,2641.676150,-12251.251712
709.055734,-325.423874,5225.924558,-7082.754896
709.058243,1531.406464,3292.523898,-9073.583299
709.060752,-478.564520,1282.552914,-11906.685258
709.063261,-689.132909,-3541.377448,-4843.072942
709.065770,746.560651,-6661.618118,-14184.652373
709.068279,-880.558717,-6106.483275,-8939.585234
709.070788,-708.275490,-3464.807125,-9265.009107
709.073297,440.279358,-631.705166,-11581.261384
709.075806,-1301.695494,3924.229064,-9628.718142
709.078315,574.277424,3809.373579,-8461.020714
709.080824,-382.851616,1933.400661,-4268.795518
709.083333,2565.105827,-2143.969050,-14012.369146
709.085842,-2679.961312,-1856.830338,-10241.280728
709.088361,612.562586,-4115.654872,-3847.658741
709.090881,1033.699363,-5876.772306,-15160.923994
709.093400,-2718.246474,1359.123237,-10394.421374
709.095920,2009.970984,-38.285162,-5225.924558
709.098439,-401.994197,1799.402595,-13150.953010
709.100958,-1607.976787,2201.396792,-10662.417506
709.103478,1263.410333,1607.976787,-7178.467800
709.105997,-382.851616,-937.986459,-9188.438784
709.108516,-976.271621,-2526.820666,-12863.814298
709.111036,861.416136,-4383.651003,-6431.907149
709.113555,-574.277424,-1493.121302,-10681.560086
709.116074,-38.285162,-2775.674216,-11810.972354
709.118594,-57.427742,-363.709035,-7350.751027
709.121113,229.710970,937.986459,-9647.860723
709.123633,-861.416136,2756.531635,-13725.230434
709.126152,516.849682,-287.138712,-4651.647134
709.128671,784.845813,-1971.685822,-9743.573627
709.131191,-1741.974853,-1282.552914,-12404.392358
709.133710,803.988394,-3005.385186,-8652.446522
709.136229,1435.693560,-4287.938099,-6719.045861
709.138749,-2086.541307,-401.994197,-12787.243974
709.141268,1263.410333,-976.271621,-10662.417506
709.143787,-19.142581,-114.855485,-6049.055533
709.146307,-287.138712,1186.840010,-11313.265253
709.148826,133.998066,497.707101,-10758.130410
709.151346,-229.710970,-172.283227,-7446.463931
709.153865,-114.855485,-2737.389054,-9686.145885
709.156384,-1454.836141,-1052.841944,-12461.820101
709.158904,823.130974,-2718.246474,-8480.163294
709.161423,708.275490,-2009.970984,-12327.822035
709.163942,-1359.123237,19.142581,-7159.325219
709.166462,1033.699363,1703.689691,-10834.700733
709.168981,-727.418070,1990.828403,-9858.429112
709.171500,-574.277424,593.420005,-9150.153622
709.174020,689.132909,-2469.392923,-8786.444587
709.176539,-1129.412267,-133.998066,-12040.683323
709.179059,727.418070,-3349.951640,-8805.587168
709.181578,-612.562586,-2718.246474,-7925.028451
709.184097,-401.994197,-2029.113565,-12002.398162
709.186617,76.570323,497.707101,-10547.562021
709.189143,-19.142581,210.568389,-5359.922624
709.191669,631.705166,-248.853550,-11734.402030
709.194195,-1033.699363,937.986459,-10356.136213
709.196721,2890.529701,-2143.969050,-8671.589102
709.199247,-2813.959378,-1186.840010,-9341.579430
709.201773,-133.998066,-2239.681954,-12098.111066
709.204299,2048.256146,-3445.664544,-6489.334891
709.206826,-2450.250342,19.142581,-10758.130410
709.209352,1301.695494,-2335.394858,-10930.413637
709.211878,57.427742,153.140646,-7503.891674
709.214404,-727.418070,1148.554848,-10126.425243
709.216930,191.425808,-1569.691626,-11121.839445
709.219456,-1129.412267,19.142581,-7695.317482
709.221982,1512.263883,-2048.256146,-10604.989763
709.224508,-880.558717,-937.986459,-10930.413637
709.227034,-937.986459,-1359.123237,-7542.176835
709.229561,1244.267752,-746.560651,-11887.542677
709.232087,-1627.119368,210.568389,-9609.575562
709.234613,861.416136,-727.418070,-10260.423309
709.237139,-210.568389,-1493.121302,-7810.172966
709.239665,-191.425808,957.129040,-11887.542677
709.242191,210.568389,-248.853550,-8039.883936
709.244717,-1703.689691,-325.423874,-10145.567824
709.247243,784.845813,-3177.668413,-11696.116869
709.249769,-191.425808,133.998066,-8422.735552
709.252296,-191.425808,-1110.269686,-7963.313613
709.254822,-38.285162,-1665.404530,-13227.523333
709.257348,2507.678085,-3790.230998,-2488.535504
709.259874,-2852.244539,727.418070,-13284.951075
709.262400,1952.543242,-2641.676150,-13572.089787
709.264926,-1607.976787,899.701298,-5895.914886
709.267452,440.279358,842.273555,-8193.024582
709.269978,-957.129040,38.285162,-13686.945272
709.272504,363.709035,-727.418070,-3809.373579
709.275031,-0.000000,-2239.681954,-11715.259450
709.277557,-1320.838075,-2603.390989,-11791.829773
709.280083,612.562586,-3828.516160,-6278.766502
709.282609,421.136778,-3158.525832,-10566.704602
709.285135,-708.275490,650.847747,-9686.145885
709.287661,823.130974,899.701298,-8977.870395
709.290193,-1052.841944,899.701298,-10011.569758
709.292726,459.421939,535.992262,-9839.286531
709.295258,-191.425808,-401.994197,-8863.014910
709.297790,-478.564520,-2297.109696,-11370.692995
709.300322,287.138712,-4211.367776,-8671.589102
709.302855,-57.427742,-803.988394,-9552.147819
709.305387,-842.273555,-842.273555,-9686.145885
709.307919,172.283227,-918.843878,-12346.964616
709.310451,-267.996131,-401.994197,-5379.065205
709.312984,95.712904,1531.406464,-13361.521398
709.315516,-287.138712,574.277424,-9016.155557
709.318048,-382.851616,-229.710970,-8748.159426
709.320580,1493.121302,-3790.230998,-9284.151688
709.323113,-1722.832272,114.855485,-11868.400096
709.325645,918.843878,-2794.816797,-8690.731683
709.328177,-880.558717,-899.701298,-9456.434915
709.330709,133.998066,-287.138712,-9111.868461
709.333242,114.855485,459.421939,-10394.421374
709.335774,-287.138712,-497.707101,-7905.885870
709.338306,-114.855485,-995.414202,-10030.712339
709.340838,-459.421939,-2143.969050,-10126.425243
709.343370,1167.697429,-3598.805190,-10241.280728
709.345903,-497.707101,-823.130974,-5915.057467
709.348435,248.853550,-440.279358,-11906.685258
709.350967,-38.285162,76.570323,-9743.573627
709.353499,-574.277424,38.285162,-7657.032320
709.356032,784.845813,-2392.822600,-11006.983960
709.358564,-401.994197,-1435.693560,-9169.296203
709.361096,191.425808,-1799.402595,-9801.001370
709.363628,19.142581,-2009.970984,-9801.001370
709.366161,38.285162,287.138712,-9533.005238
709.368693,-823.130974,-421.136778,-8154.739421
709.371225,-95.712904,-842.273555,-14280.365277
709.373757,-191.425808,-1378.265818,-5417.350366
709.376290,-191.425808,631.705166,-12021.540742
709.378822,612.562586,-1837.687757,-9609.575562
709.381354,-1493.121302,133.998066,-8748.159426
709.383886,516.849682,-2679.961312,-11619.546546
709.386419,-1148.554848,1761.117434,-9513.862658
709.388951,555.134843,-593.420005,-8327.022648
709.391487,-1110.269686,76.570323,-12193.823970
709.394022,669.990328,-1799.402595,-7867.600709
709.396558,-727.418070,363.709035,-11332.407834
709.399094,57.427742,-1799.402595,-8882.157491
709.401629,-421.136778,-669.990328,-9418.149754
709.404165,172.283227,-1282.552914,-9475.577496
709.406701,-0.000000,-363.709035,-11140.982026
709.409236,-287.138712,-957.129040,-5704.489078
709.411772,-95.712904,-1282.552914,-11772.687192
709.414308,937.986459,-2526.820666,-10853.843314
709.416844,-1052.841944,-1071.984525,-6833.901346
709.419379,937.986459,-1990.828403,-10930.413637
709.421915,-727.418070,-229.710970,-9226.723946
709.424451,957.129040,-880.558717,-8575.876198
709.426986,-669.990328,-287.138712,-10872.985894
709.429522,172.283227,-899.701298,-8001.598774
709.432058,574.277424,-1416.550979,-10279.565890
709.434593,-708.275490,-1091.127106,-10585.847182
709.437129,172.283227,-2392.822600,-8480.163294
709.439665,-19.142581,-1071.984525,-9992.427178
709.442201,-459.421939,-880.558717,-9954.142016
709.444736,-95.712904,-344.566454,-10011.569758
709.447272,-650.847747,-440.279358,-7982.456194
709.449808,650.847747,497.707101,-12289.536874
709.452343,-899.701298,19.142581,-8001.598774
709.454879,-1244.267752,-535.992262,-10298.708470
709.457415,708.275490,-2660.818731,-10643.274925
709.459950,153.140646,153.140646,-8786.444587
709.462486,-1148.554848,-248.853550,-8365.307810
709.465022,-459.421939,-995.414202,-13399.806560
709.467558,689.132909,-1550.549045,-7350.751027
709.470093,-803.988394,1454.836141,-9054.440718
709.472629,-153.140646,-1244.267752,-12059.825904
709.475165,1014.556782,-1761.117434,-7944.171032
709.477700,-535.992262,-1052.841944,-8288.737486
709.480236,-57.427742,-784.845813,-13227.523333
709.482772,95.712904,-1167.697429,-5589.633594
709.485308,-95.712904,-574.277424,-10317.851051
709.487843,1148.554848,-2603.390989,-11026.126541
709.490379,-1741.974853,-382.851616,-7580.461997
709.492916,1933.400661,-2660.818731,-10853.843314
709.495454,-2009.970984,631.705166,-9207.581365
709.497991,1435.693560,-1359.123237,-8212.167163
709.500529,-918.843878,-574.277424,-11274.980091
709.503066,229.710970,-689.132909,-8154.739421
709.505604,535.992262,-1416.550979,-9667.003304
709.508141,-842.273555,-593.420005,-11542.976222
709.510679,363.709035,-2507.678085,-8020.741355
709.513217,-248.853550,-516.849682,-9379.864592
709.515754,-306.281293,-746.560651,-11408.978157
709.518292,76.570323,-1071.984525,-8824.729749
709.520829,-823.130974,-708.275490,-8154.739421
709.523367,344.566454,555.134843,-13246.665914
709.525904,-497.707101,-612.562586,-7618.747158
709.528442,-153.140646,-823.130974,-10049.854920
709.530979,-1129.412267,-880.558717,-10604.989763
709.533517,823.130974,-287.138712,-11504.691061
709.536054,-363.709035,-153.140646,-6872.186507
709.538592,-784.845813,382.851616,-11217.552349
709.541129,1627.119368,-2603.390989,-9647.860723
709.543667,-1856.830338,1320.838075,-10336.993632
709.546204,995.414202,-2373.680019,-7523.034254
709.548742,-363.709035,-1244.267752,-11734.402030
709.551279,555.134843,-899.701298,-8059.026517
709.553817,-784.845813,-248.853550,-9934.999435
709.556354,57.427742,-2182.254211,-8595.018779
709.558892,76.570323,-1703.689691,-10241.280728
709.561429,-191.425808,-1129.412267,-9609.575562
709.563967,-248.853550,-1493.121302,-9820.143950
709.566504,325.423874,-516.849682,-9226.723946
709.569042,-210.568389,325.423874,-8824.729749
709.571579,57.427742,-803.988394,-11332.407834
709.574117,19.142581,-1741.974853,-7561.319416
709.576654,-57.427742,-1569.691626,-9322.436850
709.579192,19.142581,-1225.125171,-11887.542677
709.581729,-133.998066,-708.275490,-8231.309744
709.584267,-76.570323,-1933.400661,-8958.727814
709.586804,191.425808,-76.570323,-11696.116869
709.589342,-459.421939,95.712904,-7733.602643
709.591879,-1282.552914,-191.425808,-11294.122672
709.594419,516.849682,-1971.685822,-9896.714274
709.596959,-287.138712,1167.697429,-10298.708470
709.599498,-133.998066,210.568389,-6508.477472
709.602038,-765.703232,-210.568389,-12136.396227
709.604578,1588.834206,-3330.809059,-9188.438784
709.607117,-1359.123237,-287.138712,-9494.720077
709.609657,535.992262,-1971.685822,-9973.284597
709.612197,-382.851616,-306.281293,-9284.151688
709.614737,631.705166,-535.992262,-8001.598774
709.617276,-1493.121302,1780.260014,-12442.677520
709.619816,669.990328,-1665.404530,-8212.167163
709.622356,-344.566454,-1167.697429,-8212.167163
709.624895,-19.142581,-2086.541307,-10949.556218
709.627435,-57.427742,-1646.261949,-10509.276859
709.629975,-57.427742,-2105.683888,-6029.912952
709.632514,76.570323,-823.130974,-11542.976222
709.635054,-57.427742,-191.425808,-10643.274925
709.637594,229.710970,-1205.982590,-6355.336826
709.640133,-440.279358,-38.285162,-11236.694930
709.642673,459.421939,-708.275490,-10490.134278
709.645213,-574.277424,-899.701298,-8135.596840
709.647752,-95.712904,-2488.535504,-11083.554283
709.650292,421.136778,-1837.687757,-8422.735552
709.652832,-1014.556782,-708.275490,-8805.587168
709.655371,344.566454,-1091.127106,-13399.806560
709.657911,-76.570323,-765.703232,-7446.463931
709.660451,95.712904,1952.543242,-8327.022648
709.662991,-1512.263883,1646.261949,-11083.554283
709.665530,899.701298,-1473.978722,-10356.136213
709.668070,-0.000000,-3120.240670,-6470.192310
709.670610,-1186.840010,-689.132909,-13878.371080
709.673149,957.129040,-2871.387120,-8422.735552
709.675689,-880.558717,-287.138712,-8805.587168
709.678229,421.136778,-746.560651,-9628.718142
709.680768,-1588.834206,1646.261949,-11198.409768
709.683308,899.701298,-1416.550979,-9762.716208
709.685848,-1014.556782,191.425808,-8920.442653
709.688387,478.564520,-1856.830338,-10107.282662
709.690927,-708.275490,95.712904,-10853.843314
709.693467,38.285162,-2067.398726,-7293.323285
709.695947,76.570323,-1741.974853,-10968.698798
709.698427,57.427742,-1167.697429,-9092.725880
709.700907,-325.423874,-440.279358,-10241.280728
709.703387,574.277424,-1914.258080,-7810.172966
709.705867,-172.283227,-727.418070,-9801.001370
709.708347,1014.556782,-1761.117434,-10490.134278
709.710827,-1512.263883,-631.705166,-8595.018779
709.713308,842.273555,-1014.556782,-9647.860723
709.715788,-76.570323,-574.277424,-9934.999435
709.718268,-1129.412267,-555.134843,-11542.976222
709.720748,459.421939,-1837.687757,-7561.319416
709.723228,-1914.258080,-382.851616,-9207.581365
709.725708,1301.695494,-2641.676150,-12059.825904
709.728188,153.140646,-1282.552914,-9571.290400
709.730668,-440.279358,-689.132909,-6183.053598
709.733148,-0.000000,1091.127106,-14088.939469
709.735629,-76.570323,899.701298,-8001.598774
709.738109,1971.685822,-1301.695494,-7427.321350
709.740589,-976.271621,-3522.234867,-9590.432981
709.743069,-3120.240670,689.132909,-16156.338195
709.745549,3751.945837,-4192.225195,-8135.596840
709.748029,-3349.951640,1722.832272,-8173.882002
709.750509,899.701298,-229.710970,-11562.118803
709.752989,-593.420005,2431.107762,-8441.878133
709.755469,95.712904,-248.853550,-7771.887805
709.757950,-172.283227,-1493.121302,-11485.548480
709.760430,-325.423874,-2488.535504,-6642.475538
709.762910,191.425808,-2067.398726,-13150.953010
709.765390,-650.847747,-2335.394858,-7848.458128
709.767870,650.847747,-1837.687757,-8690.731683
709.770350,153.140646,-842.273555,-11447.263318
709.772830,-1186.840010,2029.113565,-8633.303941
709.775310,1512.263883,-19.142581,-8154.739421
709.777790,-1052.841944,535.992262,-11313.265253
709.780271,555.134843,-1569.691626,-7982.456194
709.782751,-1493.121302,-3254.238736,-8422.735552
709.785231,1799.402595,-5666.203917,-12729.816232
709.787711,-689.132909,-1665.404530,-7427.321350
709.790191,-229.710970,612.562586,-10068.997501
709.792671,-114.855485,459.421939,-11217.552349
709.795168,497.707101,1818.545176,-6891.329088
709.797666,-153.140646,880.558717,-11179.267187
709.800163,248.853550,-823.130974,-11198.409768
709.802660,-1301.695494,-3254.238736,-5225.924558
709.805158,191.425808,-3885.943902,-14414.363342
709.807655,-287.138712,-3062.812928,-8556.733618
709.810152,-478.564520,-1033.699363,-7944.171032
709.812649,363.709035,-880.558717,-12040.683323
709.815147,440.279358,3388.236802,-9590.432981
709.817644,-287.138712,1952.543242,-6144.768437
709.820141,-574.277424,957.129040,-14624.931731
709.822639,478.564520,-1914.258080,-7121.040058
709.825136,-1263.410333,-76.570323,-8499.305875
709.827633,1282.552914,-4594.219392,-11753.544611
709.830131,-1033.699363,-2450.250342,-8078.169098
709.832628,287.138712,-2737.389054,-9245.866526
709.835125,-823.130974,1052.841944,-13878.371080
709.837622,401.994197,478.564520,-5130.211654
709.840120,95.712904,421.136778,-10700.702667
709.842617,-995.414202,95.712904,-9494.720077
709.845114,957.129040,-2220.539373,-9628.718142
709.847612,937.986459,-3407.379382,-8958.727814
709.850109,-1244.267752,-823.130974,-9724.431046
709.852606,937.986459,-1818.545176,-10298.708470
709.855103,-918.843878,-689.132909,-8901.300072
709.857601,689.132909,-861.416136,-9379.864592
709.860098,-287.138712,-363.709035,-10624.132344
709.862595,-0.000000,-76.570323,-9628.718142
709.865093,-114.855485,-937.986459,-8461.020714
709.867590,-1110.269686,114.855485,-10738.987829
709.870087,1148.554848,-2775.674216,-10853.843314
709.872585,-727.418070,-1569.691626,-8824.729749
709.875082,-803.988394,-1684.547110,-10164.710405
709.877579,689.132909,-344.566454,-11983.255581
709.880076,-1397.408398,1780.260014,-6431.907149
709.882574,612.562586,459.421939,-11715.259450
709.885071,-1071.984525,-440.279358,-9188.438784
709.887568,363.709035,57.427742,-9647.860723
709.890066,-344.566454,-1837.687757,-9609.575562
709.892563,-229.710970,-1416.550979,-10604.989763
709.895073,-153.140646,-2067.398726,-7752.745224
709.897583,-516.849682,191.425808,-12940.384621
709.900094,-153.140646,-363.709035,-8020.741355
709.902604,555.134843,95.712904,-7025.327154
709.905114,-708.275490,0.000000,-10604.989763
709.907625,2469.392923,-3675.375514,-11887.542677
709.910135,-2029.113565,-1914.258080,-6795.616184
709.912645,133.998066,-2354.537438,-10624.132344
709.915156,-0.000000,-1933.400661,-10451.849117
709.917666,267.996131,248.853550,-8939.585234
709.920176,765.703232,631.705166,-7982.456194
709.922687,-267.996131,1493.121302,-11542.976222
709.925197,1378.265818,-287.138712,-9169.296203
709.927707,-1761.117434,-1014.556782,-7905.885870
709.930217,114.855485,-4096.512291,-11676.974288
709.932728,459.421939,-4460.221326,-9322.436850
709.935238,-1071.984525,-1684.547110,-9150.153622
709.937748,708.275490,-2067.398726,-10815.558152
709.940259,-803.988394,2890.529701,-10222.138147
709.942769,363.709035,2029.113565,-8997.012976
709.945279,-421.136778,1818.545176,-12538.390424
709.947790,-248.853550,-957.129040,-6163.911018
709.950300,650.847747,-2258.824534,-11274.980091
709.952810,-1205.982590,-2986.242605,-10834.700733
709.955321,229.710970,-3254.238736,-8193.024582
709.957831,-248.853550,-2718.246474,-9533.005238
709.960341,-727.418070,1473.978722,-12576.675586
709.962852,555.134843,1148.554848,-6489.334891
709.965362,-937.986459,2124.826469,-10872.985894
709.967872,746.560651,-421.136778,-9667.003304
709.970382,-689.132909,172.283227,-8901.300072
709.972893,133.998066,-3464.807125,-8212.167163
709.975403,57.427742,-3617.947771,-11600.403965
709.977913,-38.285162,-2871.387120,-8307.880067
709.980424,-248.853550,325.423874,-11676.974288
709.982934,76.570323,306.281293,-8863.014910
709.985444,593.420005,1282.552914,-8020.741355
709.987955,1052.841944,76.570323,-10892.128475
709.990465,-2488.535504,-401.994197,-8824.729749
709.992975,1435.693560,-4977.071008,-10088.140082
709.995441,38.285162,-3885.943902,-9379.864592
709.997907,-937.986459,-1741.974853,-9552.147819
710.000373,746.560651,-2029.113565,-10815.558152
710.002839,-746.560651,2009.970984,-9475.577496
710.005305,401.994197,1493.121302,-8384.450390
710.007771,-287.138712,1339.980656,-12480.962682
710.010237,-708.275490,-574.277424,-6585.047795
710.012703,153.140646,-995.414202,-11542.976222
710.015169,-1990.828403,-2813.959378,-9399.007173
710.017635,2182.254211,-4536.791650,-10547.562021
710.020101,-1454.836141,-191.425808,-6757.331022
710.022567,114.855485,2871.387120,-14835.500120
710.025033,19.142581,1282.552914,-6623.332957
710.027499,-1110.269686,-287.138712,-8920.442653
710.029965,267.996131,-6757.331022,-10585.847182
710.032431,1780.260014,-10241.280728,-9016.155557
