#time,accel_x,accel_y,accel_z
361.245273,459.657299,-0.000000,9696.697840
361.245581,612.876398,-0.000000,9918.759623
361.245889,842.705048,-0.000000,9918.759623
361.246197,842.705048,148.041188,9770.718434
361.246505,383.047749,148.041188,9696.697840
361.246814,689.485948,148.041188,9474.636058
361.247122,612.876398,370.102971,9622.677246
361.247430,919.314598,296.082377,9474.636058
361.247738,919.314598,-0.000000,9548.656652
361.248046,612.876398,518.144159,9696.697840
361.248354,689.485948,-0.000000,9770.718434
361.248663,689.485948,222.061783,9474.636058
361.248971,459.657299,296.082377,9696.697840
361.249279,459.657299,148.041188,9622.677246
361.249587,689.485948,148.041188,9622.677246
361.249895,383.047749,74.020594,9548.656652
361.250203,766.095498,370.102971,9474.636058
361.250512,842.705048,-0.000000,9474.636058
361.250820,919.314598,296.082377,9474.636058
361.251128,536.266849,222.061783,9400.615463
361.251436,536.266849,-0.000000,9474.636058
361.251744,919.314598,148.041188,9696.697840
361.252052,459.657299,296.082377,9474.636058
361.252361,842.705048,148.041188,9474.636058
361.252669,459.657299,-0.000000,9696.697840
361.252977,536.266849,-74.020594,9474.636058
361.253285,1149.143247,-74.020594,9474.636058
361.253593,459.657299,-148.041188,9548.656652
361.253901,536.266849,296.082377,9548.656652
361.254210,612.876398,370.102971,9696.697840
361.254518,612.876398,296.082377,9548.656652
361.254826,383.047749,296.082377,9548.656652
361.255134,919.314598,-0.000000,9474.636058
361.255442,1149.143247,518.144159,10214.842000
361.255750,842.705048,518.144159,9844.739029
361.256059,536.266849,-0.000000,9622.677246
361.256367,689.485948,148.041188,9622.677246
361.256675,536.266849,296.082377,9474.636058
361.256983,459.657299,296.082377,9474.636058
361.257291,1149.143247,-0.000000,9770.718434
361.257599,766.095498,148.041188,10140.821405
361.257908,995.924147,-296.082377,10066.800811
361.258216,1072.533697,-814.226536,10066.800811
361.258524,612.876398,-962.267725,10436.903782
361.258832,536.266849,-370.102971,9992.780217
361.259140,612.876398,-370.102971,10288.862594
361.259448,1302.362347,-296.082377,9992.780217
361.259757,1455.581446,-74.020594,9178.553681
361.260065,2221.676944,814.226536,8882.471304
361.260373,3140.991542,1036.288319,8808.450710
361.260681,2604.724693,1036.288319,9030.512492
361.260989,2374.896044,444.123565,9252.574275
361.261297,1838.629195,222.061783,9030.512492
361.261606,1532.190996,222.061783,9474.636058
361.261914,1532.190996,296.082377,9770.718434
361.262222,1302.362347,-0.000000,10066.800811
361.262530,1532.190996,-296.082377,10066.800811
361.262838,1762.019645,-518.144159,9844.739029
361.263146,2068.457845,-444.123565,9844.739029
361.263455,1991.848295,-74.020594,10288.862594
361.263763,2221.676944,-0.000000,9696.697840
361.264071,2451.505594,222.061783,9326.594869
361.264379,2604.724693,296.082377,9474.636058
361.264687,2528.115143,222.061783,9400.615463
361.264995,2451.505594,296.082377,9696.697840
361.265304,2911.162892,296.082377,9696.697840
361.265612,2451.505594,518.144159,9696.697840
361.265920,2528.115143,148.041188,9622.677246
361.266228,2681.334243,-0.000000,9992.780217
361.266536,2604.724693,-0.000000,9770.718434
361.266844,2757.943793,222.061783,9770.718434
361.267153,2987.772442,-222.061783,9770.718434
361.267461,3677.258390,-0.000000,10214.842000
361.267769,2911.162892,-222.061783,10140.821405
361.268077,2834.553343,-148.041188,10140.821405
361.268385,3294.210641,-0.000000,9992.780217
361.268693,3524.039291,222.061783,9696.697840
361.269002,3830.477490,-0.000000,9400.615463
361.269310,3983.696590,444.123565,9178.553681
361.269618,4443.353888,518.144159,9030.512492
361.269926,4903.011187,-0.000000,9030.512492
361.270234,4596.572988,592.164754,9326.594869
361.270542,4826.401637,-74.020594,9178.553681
361.270851,4290.134789,296.082377,9104.533087
361.271159,4136.915689,-0.000000,9474.636058
361.271467,4213.525239,-0.000000,9474.636058
361.271775,4213.525239,222.061783,9548.656652
361.272083,4443.353888,-0.000000,9770.718434
361.272391,3907.087040,518.144159,9474.636058
361.272700,4749.792088,592.164754,9326.594869
361.273008,4749.792088,1036.288319,9104.533087
361.273316,4903.011187,1554.432478,8734.430116
361.273624,4749.792088,1258.350101,8808.450710
361.273932,4749.792088,1776.494261,8438.347739
361.274240,3830.477490,1110.308913,8660.409521
361.274549,4060.306139,814.226536,10214.842000
361.274857,3370.820191,-0.000000,10066.800811
361.275165,3447.429741,592.164754,10140.821405
361.275473,3064.381992,-222.061783,10362.883188
361.275781,2681.334243,666.185348,10066.800811
361.276089,2451.505594,444.123565,9918.759623
361.276398,2528.115143,666.185348,9918.759623
361.276706,2757.943793,888.247130,9844.739029
361.277014,2068.457845,518.144159,9326.594869
361.277322,2681.334243,444.123565,9918.759623
361.277630,2221.676944,-0.000000,9770.718434
361.277938,1608.800546,-0.000000,10066.800811
361.278247,1302.362347,-222.061783,10066.800811
361.278555,1225.752797,-666.185348,10436.903782
361.278863,1225.752797,-1110.308913,10658.965565
361.279171,1302.362347,-1850.514855,10955.047942
361.279479,1915.238745,-1924.535449,11177.109724
361.279787,1838.629195,-2516.700203,11177.109724
361.280096,2834.553343,-1776.494261,11103.089130
361.280404,3294.210641,-1924.535449,9770.718434
361.280712,4136.915689,-1110.308913,9326.594869
361.281020,4213.525239,-592.164754,9030.512492
361.281328,4749.792088,-222.061783,9104.533087
361.281636,4826.401637,296.082377,8512.368333
361.281945,5132.839837,740.205942,8364.327145
361.282253,5132.839837,888.247130,8142.265362
361.282561,5056.230287,962.267725,8068.244768
361.282869,4903.011187,888.247130,7994.224174
361.283177,4136.915689,592.164754,8364.327145
361.283485,3907.087040,-0.000000,9178.553681
361.283794,2987.772442,-0.000000,9326.594869
361.284102,2987.772442,-74.020594,10066.800811
361.284410,2757.943793,296.082377,9770.718434
361.284718,2834.553343,1258.350101,9474.636058
361.285026,3600.648841,1628.453072,9178.553681
361.285334,3907.087040,2738.761985,8734.430116
361.285643,4290.134789,3034.844362,8660.409521
361.285951,4290.134789,2960.823768,8438.347739
361.286259,4136.915689,1850.514855,9400.615463
361.286567,2987.772442,444.123565,10214.842000
361.286875,2911.162892,-888.247130,11103.089130
361.287183,1149.143247,-2368.659014,12731.542202
361.287492,153.219100,-3404.947333,13545.768739
361.287800,689.485948,-3775.050304,13693.809927
361.288108,1378.971896,-3256.906145,13027.624579
361.288416,2451.505594,-2738.761985,11843.295072
361.288724,3907.087040,-962.267725,9622.677246
361.289032,6052.154434,296.082377,8956.491898
361.289341,7584.345430,1480.411884,7550.100608
361.289649,7660.954980,2664.741391,5551.544565
361.289957,7737.564530,4071.132681,5921.647536
361.290265,7737.564530,4589.276840,5403.503377
361.290573,6665.030833,5329.482782,5255.462188
361.290881,5822.325785,4515.256246,6143.709319
361.291190,4366.744339,3108.864956,7254.018232
361.291498,3140.991542,1184.329507,8956.491898
361.291806,1378.971896,-148.041188,10510.924376
361.292114,919.314598,-1776.494261,12287.418637
361.292422,-459.657299,-3923.091493,12953.603985
361.292730,-383.047749,-4515.256246,14137.933492
361.293039,76.609550,-4145.153275,14359.995275
361.293347,919.314598,-3849.070898,13249.686362
361.293655,2298.286494,-3182.885551,12287.418637
361.293963,3677.258390,-2442.679609,11325.150913
361.294271,4826.401637,-1184.329507,9548.656652
361.294579,5975.544884,296.082377,7920.203579
361.294888,6665.030833,2146.597232,6661.853478
361.295196,5745.716235,3034.844362,6069.688724
361.295504,6281.983084,3775.050304,5847.626942
361.295812,6435.202183,3552.988522,6365.771101
361.296120,4903.011187,2960.823768,6365.771101
361.296428,4060.306139,1110.308913,7550.100608
361.296737,3140.991542,-740.205942,9770.718434
361.297045,1685.410096,-2368.659014,11473.192101
361.297353,919.314598,-4589.276840,13545.768739
361.297661,229.828649,-3997.112087,13471.748144
361.297969,919.314598,-3478.967927,13471.748144
361.298277,2681.334243,-1924.535449,11547.212695
361.298586,4596.572988,592.164754,9474.636058
361.298894,6741.640382,2738.761985,7105.977043
361.299202,7814.174080,4811.338623,5329.482782
361.299510,8350.440928,6661.853478,4367.215058
361.299818,8427.050478,5995.668130,4959.379811
361.300126,7124.688131,5403.503377,5403.503377
361.300435,5132.839837,2886.803174,7402.059420
361.300743,1685.410096,-518.144159,10436.903782
361.301051,-1608.800546,-3034.844362,13397.727550
361.301359,-2757.943793,-4663.297435,15470.304188
361.301667,-3830.477490,-6809.894666,17024.736666
361.301975,-2834.553343,-6957.935855,17542.880825
361.302284,-995.924147,-5107.421000,15174.221811
361.302592,1762.019645,-2294.638420,11177.109724
361.302900,4903.011187,370.102971,8586.388927
361.303208,7507.735880,3404.947333,6217.729913
361.303516,8963.317327,5625.565159,4663.297435
361.303824,9882.631924,6291.750507,3849.070898
361.304133,9499.584175,6291.750507,2886.803174
361.304441,7507.735880,3478.967927,4589.276840
361.304749,5056.230287,592.164754,8586.388927
361.305057,1991.848295,-2442.679609,10955.047942
361.305365,-459.657299,-4515.256246,12287.418637
361.305673,-1608.800546,-5181.441594,13619.789333
361.305982,-689.485948,-4663.297435,13397.727550
361.306290,1838.629195,-1850.514855,11695.253884
361.306598,5362.668486,962.267725,9622.677246
361.306906,7201.297681,2072.576638,7254.018232
361.307214,7814.174080,3849.070898,6513.812290
361.307522,8656.879127,4885.359217,6439.791695
361.307831,6894.859482,4219.173869,7254.018232
361.308139,5209.449386,2442.679609,8660.409521
361.308447,2451.505594,-0.000000,10807.006753
361.308755,0.000000,-1850.514855,12361.439231
361.309063,-842.705048,-3182.885551,13471.748144
361.309371,-2221.676944,-3404.947333,14285.974681
361.309680,-1302.362347,-3627.009116,14211.954086
361.309988,1149.143247,-2812.782580,12953.603985
361.310296,2681.334243,-2294.638420,10881.027347
361.310604,4903.011187,-962.267725,8956.491898
361.310912,5822.325785,-370.102971,8068.244768
361.311220,6894.859482,1406.391290,7624.121203
361.311529,7048.078582,2886.803174,6957.935855
361.311837,7048.078582,4219.173869,6661.853478
361.312145,6358.592633,5403.503377,5625.565159
361.312453,6281.983084,6883.915261,4367.215058
361.312761,6511.811733,6661.853478,5551.544565
361.313070,5822.325785,4737.318029,6809.894666
361.313378,4213.525239,2220.617826,8364.327145
361.313686,2528.115143,-888.247130,11695.253884
361.313994,153.219100,-3701.029710,13693.809927
361.314302,-2068.457845,-5773.606348,15174.221811
361.314610,-3370.820191,-6291.750507,14804.118840
361.314919,-2604.724693,-4589.276840,13249.686362
361.315227,-842.705048,-1850.514855,11843.295072
361.315535,1378.971896,-222.061783,10881.027347
361.315843,2757.943793,1480.411884,7846.182985
361.316151,3600.648841,1702.473667,7105.977043
361.316460,4903.011187,2220.617826,7179.997637
361.316768,4060.306139,2294.638420,6217.729913
361.317076,3830.477490,1850.514855,7920.203579
361.317384,1991.848295,1924.535449,8438.347739
361.317692,2068.457845,1184.329507,9770.718434
361.318001,2451.505594,814.226536,9326.594869
361.318309,689.485948,1036.288319,8660.409521
361.318617,3294.210641,-1406.391290,10658.965565
361.318925,2987.772442,-2294.638420,10510.924376
361.319233,766.095498,-2516.700203,11251.130318
361.319541,1455.581446,-4071.132681,11177.109724
361.319850,-306.438199,-2886.803174,11177.109724
361.320158,-306.438199,-2072.576638,11103.089130
361.320466,1685.410096,444.123565,9104.533087
361.320774,2911.162892,2368.659014,8364.327145
361.321082,2911.162892,888.247130,6957.935855
361.321391,2757.943793,666.185348,7624.121203
361.321699,1915.238745,-666.185348,10066.800811
361.322007,-383.047749,-2368.659014,11325.150913
361.322315,-842.705048,-888.247130,11621.233289
361.322623,-459.657299,370.102971,11103.089130
361.322931,766.095498,1480.411884,9918.759623
361.323240,3064.381992,3627.009116,8586.388927
361.323548,4979.620737,3849.070898,7105.977043
361.323856,4979.620737,1776.494261,7402.059420
361.324164,2987.772442,370.102971,8290.306550
361.324472,1685.410096,-962.267725,10288.862594
361.324781,153.219100,-2072.576638,11251.130318
361.325089,-1149.143247,-814.226536,10436.903782
361.325397,-536.266849,-222.061783,10436.903782
361.325705,995.924147,1258.350101,9104.533087
361.326013,1838.629195,444.123565,9326.594869
361.326322,2604.724693,222.061783,9474.636058
361.326630,842.705048,-1184.329507,9474.636058
361.326938,-229.828649,-1924.535449,11029.068536
361.327246,-383.047749,-1184.329507,11177.109724
361.327554,689.485948,666.185348,10288.862594
361.327862,1532.190996,3627.009116,8364.327145
361.328171,4519.963438,4885.359217,7105.977043
361.328479,5898.935335,5699.585753,5995.668130
361.328787,5669.106685,3552.988522,7772.162391
361.329095,3677.258390,370.102971,8882.471304
361.329403,76.609550,-1406.391290,10140.821405
361.329712,-1608.800546,-4367.215058,12361.439231
361.330020,-2681.334243,-4885.359217,12287.418637
361.330328,-2757.943793,-3034.844362,11029.068536
361.330636,-1149.143247,-3330.926739,10807.006753
361.330944,-383.047749,-2072.576638,11029.068536
361.331253,536.266849,-2146.597232,10732.986159
361.331561,1149.143247,-1554.432478,10658.965565
361.331869,306.438199,-666.185348,9474.636058
361.332177,1072.533697,592.164754,9104.533087
361.332485,2068.457845,3182.885551,9104.533087
361.332793,3140.991542,5477.523971,7476.080014
361.333102,5669.106685,6513.812290,5625.565159
361.333410,5975.544884,5625.565159,6069.688724
361.333718,4213.525239,3552.988522,7624.121203
361.334026,2298.286494,-148.041188,9474.636058
361.334334,-995.924147,-1998.556043,11473.192101
361.334643,-2987.772442,-4145.153275,11917.315666
361.334951,-2681.334243,-3256.906145,11251.130318
361.335259,-1302.362347,-1998.556043,10807.006753
361.335567,229.828649,-962.267725,9030.512492
361.335875,689.485948,-148.041188,8142.265362
361.336183,1685.410096,296.082377,9252.574275
361.336492,612.876398,962.267725,9326.594869
361.336800,-459.657299,1776.494261,10140.821405
361.337108,-383.047749,2516.700203,9918.759623
361.337416,0.000000,4071.132681,8956.491898
361.337724,1685.410096,4219.173869,9104.533087
361.338033,2145.067394,2812.782580,9548.656652
361.338341,1608.800546,888.247130,10066.800811
361.338649,-306.438199,-1480.411884,10881.027347
361.338957,-2451.505594,-4663.297435,12065.356855
361.339265,-3983.696590,-5847.626942,13249.686362
361.339574,-4060.306139,-4811.338623,11843.295072
361.339882,-2604.724693,-2886.803174,9992.780217
361.340190,0.000000,-1554.432478,8586.388927
361.340498,2604.724693,370.102971,6957.935855
361.340806,3600.648841,1776.494261,5551.544565
361.341114,2681.334243,1998.556043,6217.729913
361.341423,2681.334243,1998.556043,7994.224174
361.341731,1302.362347,3108.864956,7624.121203
361.342039,2068.457845,3034.844362,8956.491898
361.342347,1838.629195,3478.967927,8364.327145
361.342655,2068.457845,1998.556043,9474.636058
361.342964,1608.800546,-0.000000,10140.821405
361.343272,-229.828649,-1628.453072,10510.924376
361.343580,-1838.629195,-4293.194464,13175.665768
361.343888,-4673.182538,-4811.338623,12509.480420
361.344196,-2834.553343,-3775.050304,12361.439231
361.344504,-1685.410096,-3034.844362,10881.027347
361.344813,-153.219100,-296.082377,7624.121203
361.345121,2528.115143,1332.370696,7328.038826
361.345429,3217.601092,1628.453072,7254.018232
361.345737,2528.115143,2146.597232,8290.306550
361.346045,1532.190996,2220.617826,8290.306550
361.346354,383.047749,2368.659014,8956.491898
361.346662,689.485948,2294.638420,10066.800811
361.346970,1149.143247,3034.844362,9622.677246
361.347278,2298.286494,3182.885551,10362.883188
361.347586,2145.067394,1554.432478,9400.615463
361.347895,1302.362347,-148.041188,10362.883188
361.348203,76.609550,-1258.350101,11621.233289
361.348511,-1149.143247,-2590.720797,12213.398043
361.348819,-1915.238745,-3108.864956,12139.377449
361.349127,-1225.752797,-1480.411884,10732.986159
361.349435,689.485948,-148.041188,9178.553681
361.349744,1838.629195,962.267725,7402.059420
361.350052,2451.505594,1702.473667,7031.956449
361.350360,2757.943793,1332.370696,7994.224174
361.350668,2221.676944,1332.370696,9326.594869
361.350976,689.485948,962.267725,9622.677246
361.351285,76.609550,1184.329507,9770.718434
361.351593,1685.410096,2738.761985,9548.656652
361.351901,2604.724693,3256.906145,9252.574275
361.352209,2987.772442,1998.556043,9474.636058
361.352517,2681.334243,518.144159,9770.718434
361.352825,1072.533697,-1554.432478,10807.006753
361.353134,-1532.190996,-2516.700203,11843.295072
361.353442,-1455.581446,-3330.926739,12361.439231
361.353750,-1455.581446,-2516.700203,10436.903782
361.354058,76.609550,-888.247130,9252.574275
361.354366,2068.457845,296.082377,8438.347739
361.354675,2987.772442,1110.308913,7179.997637
361.354983,2451.505594,1184.329507,7846.182985
361.355291,2374.896044,370.102971,9844.739029
361.355599,612.876398,888.247130,9770.718434
361.355907,-306.438199,592.164754,10732.986159
361.356216,842.705048,2072.576638,10436.903782
361.356524,1762.019645,2960.823768,9252.574275
361.356832,2987.772442,2294.638420,9992.780217
361.357140,2374.896044,1332.370696,8808.450710
361.357448,383.047749,-592.164754,10436.903782
361.357756,-536.266849,-2812.782580,12065.356855
361.358065,-2451.505594,-2886.803174,11843.295072
361.358373,-1685.410096,-1998.556043,12287.418637
361.358681,-1685.410096,-1406.391290,9104.533087
361.358989,306.438199,-0.000000,9252.574275
361.359297,2374.896044,296.082377,7624.121203
361.359606,1532.190996,1628.453072,6291.750507
361.359914,1685.410096,-444.123565,9548.656652
361.360222,0.000000,222.061783,8438.347739
361.360530,-229.828649,962.267725,10214.842000
361.360838,612.876398,1628.453072,10807.006753
361.361147,995.924147,2960.823768,7920.203579
361.361455,2451.505594,2442.679609,9400.615463
361.361763,2298.286494,1924.535449,8808.450710
361.362071,842.705048,-0.000000,9696.697840
361.362379,-842.705048,-1776.494261,10510.924376
361.362687,-1991.848295,-2664.741391,12213.398043
361.362996,-2528.115143,-2590.720797,10436.903782
361.363304,-536.266849,-2368.659014,9770.718434
361.363612,612.876398,-370.102971,8512.368333
361.363920,1991.848295,592.164754,6513.812290
361.364228,2834.553343,666.185348,7402.059420
361.364537,1455.581446,592.164754,7550.100608
361.364845,919.314598,-148.041188,8660.409521
361.365153,-612.876398,296.082377,10510.924376
361.365461,0.000000,1406.391290,10140.821405
361.365769,1149.143247,2072.576638,9178.553681
361.366077,1762.019645,2590.720797,9770.718434
361.366386,2374.896044,1554.432478,10214.842000
361.366694,995.924147,148.041188,10807.006753
361.367002,-612.876398,-1406.391290,11843.295072
361.367310,-2221.676944,-3330.926739,12435.459826
361.367618,-2757.943793,-3552.988522,12139.377449
361.367927,-1838.629195,-2294.638420,11177.109724
361.368235,612.876398,-1110.308913,8734.430116
361.368543,1838.629195,1258.350101,8586.388927
361.368851,2834.553343,1480.411884,7179.997637
361.369159,3064.381992,1850.514855,6587.832884
361.369468,1685.410096,1554.432478,8216.285956
361.369776,1149.143247,1258.350101,9326.594869
361.370084,1149.143247,1924.535449,9178.553681
361.370392,766.095498,2664.741391,9474.636058
361.370700,1762.019645,2368.659014,9474.636058
361.371008,1838.629195,2072.576638,9696.697840
361.371317,1225.752797,1332.370696,9844.739029
361.371625,153.219100,-1332.370696,11325.150913
361.371933,-1685.410096,-2886.803174,12213.398043
361.372241,-2528.115143,-3552.988522,12953.603985
361.372549,-2374.896044,-2368.659014,10955.047942
361.372858,-383.047749,-1554.432478,9548.656652
361.373166,1685.410096,296.082377,8290.306550
361.373474,2298.286494,1110.308913,7105.977043
361.373782,3294.210641,1480.411884,7105.977043
361.374090,2374.896044,1406.391290,7476.080014
361.374398,1455.581446,1628.453072,8438.347739
361.374707,536.266849,1480.411884,9696.697840
361.375015,1149.143247,2368.659014,9622.677246
361.375323,1302.362347,2516.700203,9400.615463
361.375631,1838.629195,2146.597232,9622.677246
361.375939,2374.896044,666.185348,9548.656652
361.376248,383.047749,-666.185348,10362.883188
361.376556,-995.924147,-2886.803174,12435.459826
361.376864,-2451.505594,-3997.112087,12509.480420
361.377172,-1915.238745,-2516.700203,11473.192101
361.377480,-995.924147,-1628.453072,9844.739029
361.377789,1302.362347,-74.020594,7846.182985
361.378097,3140.991542,2220.617826,6957.935855
361.378405,3064.381992,1258.350101,7031.956449
361.378713,2298.286494,1110.308913,7846.182985
361.379021,1532.190996,740.205942,9252.574275
361.379329,0.000000,1184.329507,9474.636058
361.379638,-766.095498,1628.453072,9696.697840
361.379946,1149.143247,1702.473667,9474.636058
361.380254,1455.581446,3108.864956,9474.636058
361.380562,2451.505594,1332.370696,9622.677246
361.380870,689.485948,-0.000000,10140.821405
361.381179,0.000000,-2146.597232,11917.315666
361.381487,-1991.848295,-3627.009116,12287.418637
361.381795,-2298.286494,-3404.947333,12139.377449
361.382103,-1149.143247,-2220.617826,10510.924376
361.382411,689.485948,-222.061783,8734.430116
361.382720,2604.724693,814.226536,7994.224174
361.383028,3217.601092,2368.659014,6661.853478
361.383336,3677.258390,1480.411884,7105.977043
361.383644,1915.238745,1406.391290,7550.100608
361.383952,459.657299,1776.494261,9030.512492
361.384260,383.047749,1702.473667,10510.924376
361.384569,842.705048,2294.638420,8882.471304
361.384877,1532.190996,2294.638420,9548.656652
361.385185,1991.848295,1332.370696,9474.636058
361.385493,1072.533697,-444.123565,10584.944971
361.385801,-689.485948,-2072.576638,11473.192101
361.386110,-2068.457845,-3701.029710,12879.583391
361.386418,-2911.162892,-4071.132681,12657.521608
361.386726,-1991.848295,-2738.761985,10436.903782
361.387034,0.000000,-370.102971,9474.636058
361.387342,1915.238745,962.267725,7624.121203
361.387650,3677.258390,1258.350101,6513.812290
361.387959,3294.210641,2294.638420,6365.771101
361.388267,2374.896044,2220.617826,7105.977043
361.388575,1455.581446,1850.514855,8586.388927
361.388883,383.047749,3256.906145,9474.636058
361.389191,766.095498,2516.700203,9770.718434
361.389500,1532.190996,2368.659014,10140.821405
361.389808,1838.629195,1184.329507,9992.780217
361.390116,766.095498,-370.102971,10436.903782
361.390424,76.609550,-1702.473667,11399.171507
361.390732,-1378.971896,-3701.029710,12731.542202
361.391041,-2374.896044,-4293.194464,12879.583391
361.391349,-2374.896044,-3256.906145,11843.295072
361.391657,-766.095498,-1628.453072,10584.944971
361.391965,1838.629195,-0.000000,8142.265362
361.392273,3294.210641,1332.370696,6661.853478
361.392581,2757.943793,1480.411884,7624.121203
361.392890,2374.896044,962.267725,8364.327145
361.393198,766.095498,1702.473667,9178.553681
361.393506,153.219100,2368.659014,9548.656652
361.393814,1225.752797,2442.679609,9400.615463
361.394122,1455.581446,3256.906145,9178.553681
361.394431,2528.115143,1776.494261,9474.636058
361.394739,1991.848295,592.164754,9548.656652
361.395047,-229.828649,-1110.308913,10436.903782
361.395355,-2068.457845,-4145.153275,12583.501014
361.395663,-3217.601092,-4515.256246,12731.542202
361.395971,-2834.553343,-3552.988522,12361.439231
361.396280,-1455.581446,-1850.514855,10288.862594
361.396588,689.485948,370.102971,7624.121203
361.396896,2528.115143,1628.453072,7105.977043
361.397204,2911.162892,2072.576638,6439.791695
361.397512,2451.505594,1702.473667,7031.956449
361.397821,2068.457845,1998.556043,7698.141797
361.398129,383.047749,2368.659014,8364.327145
361.398437,1072.533697,2590.720797,8512.368333
361.398745,919.314598,2960.823768,9178.553681
361.399053,2528.115143,2220.617826,9770.718434
361.399362,1149.143247,1184.329507,9918.759623
361.399670,0.000000,-518.144159,10362.883188
361.399978,-1302.362347,-3330.926739,12287.418637
361.400286,-2451.505594,-4367.215058,12879.583391
361.400594,-3370.820191,-3478.967927,12139.377449
361.400902,-1378.971896,-2220.617826,10881.027347
361.401211,536.266849,-370.102971,8586.388927
361.401519,2374.896044,1036.288319,7254.018232
361.401827,2757.943793,1332.370696,7105.977043
361.402135,3217.601092,1184.329507,7105.977043
361.402443,1838.629195,1628.453072,8734.430116
361.402752,612.876398,1480.411884,8734.430116
361.403060,306.438199,2072.576638,9474.636058
361.403368,842.705048,2220.617826,10214.842000
361.403676,1762.019645,2368.659014,9400.615463
361.403984,1838.629195,1258.350101,9548.656652
361.404292,1378.971896,-444.123565,10584.944971
361.404601,153.219100,-2368.659014,11251.130318
361.404909,-1915.238745,-3775.050304,12509.480420
361.405217,-3064.381992,-4219.173869,13249.686362
361.405525,-1991.848295,-2886.803174,11103.089130
361.405833,-459.657299,-296.082377,8438.347739
361.406142,1532.190996,518.144159,8660.409521
361.406450,2834.553343,1258.350101,7105.977043
361.406758,2834.553343,2368.659014,7105.977043
361.407066,2604.724693,1258.350101,7254.018232
361.407374,1149.143247,1850.514855,8068.244768
361.407683,153.219100,2072.576638,9178.553681
361.407991,689.485948,2812.782580,10288.862594
361.408299,1991.848295,2738.761985,10066.800811
361.408607,1838.629195,1702.473667,9252.574275
361.408915,1302.362347,888.247130,9474.636058
361.409223,459.657299,-1036.288319,11029.068536
361.409532,-1149.143247,-3108.864956,12435.459826
361.409840,-2604.724693,-3034.844362,13027.624579
361.410148,-2451.505594,-2368.659014,11621.233289
361.410456,-612.876398,-1554.432478,10362.883188
361.410764,766.095498,1258.350101,7994.224174
361.411073,2604.724693,1554.432478,7550.100608
361.411381,3447.429741,1628.453072,7698.141797
361.411689,2068.457845,1924.535449,7105.977043
361.411997,1838.629195,1554.432478,8512.368333
361.412305,1685.410096,1850.514855,9474.636058
361.412614,612.876398,2368.659014,9770.718434
361.412922,1302.362347,2368.659014,9770.718434
361.413230,2374.896044,1554.432478,10362.883188
361.413538,1532.190996,-74.020594,10288.862594
361.413846,0.000000,-1110.308913,11547.212695
361.414154,-612.876398,-3256.906145,12139.377449
361.414462,-2911.162892,-4293.194464,12361.439231
361.414770,-2221.676944,-3552.988522,11843.295072
361.415078,-612.876398,-2220.617826,10510.924376
361.415386,689.485948,-0.000000,8290.306550
361.415694,2145.067394,888.247130,7550.100608
361.416003,3370.820191,1702.473667,7846.182985
361.416311,3907.087040,1258.350101,7846.182985
361.416619,1455.581446,2294.638420,6957.935855
361.416927,1838.629195,1110.308913,9992.780217
361.417235,919.314598,2368.659014,9400.615463
361.417543,1302.362347,2812.782580,9326.594869
361.417851,2221.676944,2516.700203,8660.409521
361.418159,2298.286494,1480.411884,9104.533087
361.418467,612.876398,-888.247130,11029.068536
361.418775,-689.485948,-2368.659014,10732.986159
361.419084,-1685.410096,-3108.864956,12287.418637
361.419392,-2911.162892,-3552.988522,12287.418637
361.419700,-2221.676944,-2368.659014,11399.171507
361.420008,-995.924147,-74.020594,9548.656652
361.420316,1225.752797,592.164754,8808.450710
361.420624,2374.896044,1628.453072,7772.162391
361.420932,2298.286494,1998.556043,7031.956449
361.421240,1991.848295,814.226536,9252.574275
361.421548,229.828649,1776.494261,9104.533087
361.421856,1072.533697,2812.782580,8882.471304
361.422165,1685.410096,2738.761985,9178.553681
361.422473,1991.848295,3478.967927,7698.141797
361.422781,2681.334243,2220.617826,8586.388927
361.423089,2068.457845,1110.308913,9178.553681
361.423397,459.657299,-1702.473667,10658.965565
361.423705,-1149.143247,-3182.885551,13323.706956
361.424013,-2374.896044,-3775.050304,12213.398043
361.424321,-2987.772442,-3034.844362,11103.089130
361.424629,-1225.752797,-1924.535449,10214.842000
361.424937,1302.362347,-518.144159,8808.450710
361.425246,1225.752797,592.164754,7624.121203
361.425554,1838.629195,148.041188,8586.388927
361.425862,1378.971896,296.082377,9030.512492
361.426170,0.000000,1406.391290,9326.594869
361.426478,766.095498,1258.350101,9844.739029
361.426786,689.485948,2442.679609,8660.409521
361.427094,1685.410096,3108.864956,9104.533087
361.427402,3064.381992,1924.535449,8512.368333
361.427710,2374.896044,1480.411884,8512.368333
361.428018,459.657299,-1332.370696,10955.047942
361.428327,-766.095498,-3182.885551,11695.253884
361.428635,-2528.115143,-3627.009116,12287.418637
361.428943,-2834.553343,-3256.906145,12509.480420
361.429251,-1302.362347,-2220.617826,10214.842000
361.429559,229.828649,296.082377,8808.450710
361.429867,1838.629195,518.144159,8142.265362
361.430175,2221.676944,1406.391290,6291.750507
361.430483,1838.629195,1110.308913,8586.388927
361.430791,919.314598,1850.514855,9104.533087
361.431099,1072.533697,2960.823768,8142.265362
361.431407,1302.362347,3182.885551,8956.491898
361.431716,1915.238745,3330.926739,9252.574275
361.432024,2528.115143,3256.906145,8364.327145
361.432332,2221.676944,2072.576638,9622.677246
361.432640,1149.143247,-222.061783,10510.924376
361.432948,-1072.533697,-2664.741391,11547.212695
361.433256,-2374.896044,-3775.050304,13397.727550
361.433564,-3140.991542,-3775.050304,12583.501014
361.433872,-1838.629195,-2368.659014,10807.006753
361.434180,766.095498,-1184.329507,9622.677246
361.434488,1762.019645,-148.041188,7402.059420
361.434797,2757.943793,1036.288319,7105.977043
361.435105,2374.896044,1258.350101,7550.100608
361.435413,2068.457845,1850.514855,7920.203579
361.435721,919.314598,1998.556043,8734.430116
361.436029,1149.143247,2664.741391,8882.471304
361.436337,1762.019645,3923.091493,7846.182985
361.436645,3600.648841,3330.926739,9104.533087
361.436953,2451.505594,2368.659014,9548.656652
361.437261,2068.457845,-0.000000,10288.862594
361.437569,-995.924147,-2368.659014,11843.295072
361.437878,-2681.334243,-4441.235652,13471.748144
361.438186,-3140.991542,-5181.441594,13841.851115
361.438494,-2757.943793,-2812.782580,11547.212695
361.438802,-1149.143247,-2368.659014,10584.944971
361.439110,1378.971896,-888.247130,8512.368333
361.439418,2221.676944,888.247130,8438.347739
361.439726,2451.505594,1110.308913,7994.224174
361.440034,2528.115143,1628.453072,7772.162391
361.440342,1685.410096,2442.679609,8512.368333
361.440650,1532.190996,2960.823768,7920.203579
361.440959,2528.115143,3330.926739,7698.141797
361.441267,2911.162892,3478.967927,8290.306550
361.441575,3294.210641,2442.679609,9030.512492
361.441883,1685.410096,296.082377,9548.656652
361.442191,536.266849,-2220.617826,11325.150913
361.442499,-1915.238745,-3701.029710,12509.480420
361.442807,-3140.991542,-4145.153275,11917.315666
361.443115,-2374.896044,-3552.988522,12435.459826
361.443423,-1149.143247,-1480.411884,9474.636058
361.443731,383.047749,444.123565,7772.162391
361.444040,2757.943793,-0.000000,8956.491898
361.444348,1838.629195,1998.556043,7179.997637
361.444656,1991.848295,1702.473667,8216.285956
361.444964,919.314598,2368.659014,9252.574275
361.445272,919.314598,2738.761985,9104.533087
361.445580,842.705048,3849.070898,9104.533087
361.445888,2451.505594,3404.947333,9030.512492
361.446196,3294.210641,2590.720797,9030.512492
361.446504,2068.457845,814.226536,9326.594869
361.446812,766.095498,-1628.453072,10955.047942
361.447121,-1608.800546,-3330.926739,11621.233289
361.447429,-2528.115143,-4515.256246,13249.686362
361.447737,-3600.648841,-3552.988522,11769.274478
361.448045,-1762.019645,-2664.741391,10140.821405
361.448353,383.047749,-74.020594,8734.430116
361.448661,2298.286494,740.205942,7550.100608
361.448969,2451.505594,1850.514855,8068.244768
361.449277,2298.286494,1480.411884,8142.265362
361.449585,919.314598,2146.597232,8438.347739
361.449893,153.219100,2146.597232,9548.656652
361.450201,842.705048,2960.823768,10140.821405
361.450510,842.705048,3034.844362,9252.574275
361.450818,2298.286494,2294.638420,9770.718434
361.451126,2911.162892,518.144159,9474.636058
361.451434,153.219100,-518.144159,10288.862594
361.451742,-1225.752797,-3849.070898,12509.480420
361.452050,-2221.676944,-4145.153275,12509.480420
361.452358,-3140.991542,-3923.091493,11843.295072
361.452666,-2145.067394,-2812.782580,10881.027347
361.452974,229.828649,-814.226536,8364.327145
361.453282,2068.457845,592.164754,8068.244768
361.453591,2681.334243,1406.391290,8068.244768
361.453899,3064.381992,2072.576638,7624.121203
361.454207,1149.143247,1776.494261,8364.327145
361.454515,1072.533697,2294.638420,9844.739029
361.454823,459.657299,2590.720797,9104.533087
361.455131,612.876398,3330.926739,9844.739029
361.455439,2604.724693,2590.720797,9622.677246
361.455747,2374.896044,2294.638420,7550.100608
361.456055,1455.581446,-518.144159,10140.821405
361.456363,-612.876398,-2368.659014,9918.759623
361.456672,-2834.553343,-2590.720797,11399.171507
361.456980,-842.705048,-4515.256246,14804.118840
361.457288,-3677.258390,-1554.432478,8512.368333
361.457596,0.000000,-592.164754,9918.759623
361.457904,1685.410096,-148.041188,9696.697840
361.458212,1608.800546,2146.597232,6365.771101
361.458520,2451.505594,962.267725,8216.285956
361.458828,1608.800546,1036.288319,7550.100608
361.459136,842.705048,814.226536,10140.821405
361.459444,-153.219100,1998.556043,9326.594869
361.459753,1302.362347,2886.803174,9696.697840
361.460061,2221.676944,2812.782580,9474.636058
361.460369,2528.115143,1850.514855,8808.450710
361.460677,2681.334243,814.226536,10436.903782
361.460985,1838.629195,-1850.514855,9992.780217
361.461293,-995.924147,-2590.720797,11695.253884
361.461601,-1762.019645,-2590.720797,12213.398043
361.461909,-1225.752797,-2368.659014,10881.027347
361.462217,-919.314598,-1258.350101,9622.677246
361.462525,612.876398,-0.000000,8438.347739
361.462834,2911.162892,222.061783,8512.368333
361.463142,2068.457845,1110.308913,7698.141797
361.463450,1991.848295,592.164754,8734.430116
361.463758,842.705048,370.102971,9992.780217
361.464066,-153.219100,888.247130,9992.780217
361.464374,536.266849,2516.700203,9844.739029
361.464682,2145.067394,3256.906145,9030.512492
361.464990,2757.943793,2368.659014,8956.491898
361.465298,2298.286494,1184.329507,9474.636058
361.465606,2145.067394,-666.185348,10288.862594
361.465915,-229.828649,-2294.638420,11621.233289
361.466223,-2374.896044,-3849.070898,12657.521608
361.466531,-1991.848295,-3034.844362,10807.006753
361.466839,-1991.848295,-1554.432478,10658.965565
361.467147,153.219100,-962.267725,8882.471304
361.467455,1302.362347,962.267725,7179.997637
361.467763,2298.286494,1184.329507,7846.182985
361.468071,2374.896044,518.144159,8882.471304
361.468379,766.095498,962.267725,8660.409521
361.468687,153.219100,1924.535449,9178.553681
361.468995,766.095498,2368.659014,9326.594869
361.469304,1608.800546,3701.029710,8586.388927
361.469612,3294.210641,3923.091493,8882.471304
361.469920,3600.648841,2294.638420,8512.368333
361.470228,2145.067394,518.144159,9474.636058
361.470536,459.657299,-1628.453072,11843.295072
361.470844,-2145.067394,-3034.844362,12361.439231
361.471152,-3370.820191,-3775.050304,13175.665768
361.471460,-2221.676944,-2442.679609,11399.171507
361.471768,-1532.190996,-740.205942,9178.553681
361.472076,229.828649,-814.226536,9474.636058
361.472385,1072.533697,370.102971,8438.347739
361.472693,1149.143247,592.164754,9030.512492
361.473001,459.657299,370.102971,9030.512492
361.473309,0.000000,1184.329507,9918.759623
361.473617,76.609550,2664.741391,10732.986159
361.473925,1149.143247,3182.885551,9178.553681
361.474233,2451.505594,3404.947333,8586.388927
361.474541,3217.601092,2516.700203,8956.491898
361.474849,2528.115143,222.061783,9918.759623
361.475157,766.095498,-1110.308913,10510.924376
361.475466,-1225.752797,-3330.926739,12361.439231
361.475774,-1991.848295,-4071.132681,12287.418637
361.476082,-1608.800546,-2886.803174,10658.965565
361.476390,0.000000,-1702.473667,9178.553681
361.476698,689.485948,-0.000000,7476.080014
361.477006,2451.505594,814.226536,7328.038826
361.477314,2298.286494,1184.329507,7624.121203
361.477622,1915.238745,1110.308913,7994.224174
361.477930,383.047749,1184.329507,8660.409521
361.478238,689.485948,2294.638420,8586.388927
361.478547,306.438199,2886.803174,9474.636058
361.478855,842.705048,3182.885551,9474.636058
361.479163,2451.505594,2072.576638,10140.821405
361.479471,995.924147,666.185348,9252.574275
361.479779,76.609550,-1332.370696,10881.027347
361.480087,-1149.143247,-4145.153275,12287.418637
361.480395,-3370.820191,-4737.318029,11917.315666
361.480703,-2451.505594,-4515.256246,12139.377449
361.481011,-1225.752797,-1850.514855,9474.636058
361.481319,1455.581446,-74.020594,8438.347739
361.481628,2834.553343,888.247130,6587.832884
361.481936,4213.525239,2220.617826,5995.668130
361.482244,3907.087040,2220.617826,7031.956449
361.482552,1991.848295,1924.535449,7328.038826
361.482860,1149.143247,1850.514855,8808.450710
361.483168,1378.971896,2590.720797,9178.553681
361.483476,1225.752797,3034.844362,9030.512492
361.483784,2374.896044,2442.679609,9030.512492
361.484092,2374.896044,1110.308913,9844.739029
361.484400,536.266849,-814.226536,10881.027347
361.484709,-842.705048,-2812.782580,11917.315666
361.485017,-2681.334243,-4071.132681,12879.583391
361.485325,-3217.601092,-4145.153275,12657.521608
361.485633,-2068.457845,-3108.864956,11029.068536
361.485941,0.000000,-1036.288319,9474.636058
361.486249,1991.848295,1110.308913,7920.203579
361.486557,2911.162892,1924.535449,6513.812290
361.486865,3064.381992,1998.556043,7772.162391
361.487173,1838.629195,2368.659014,8438.347739
361.487481,536.266849,1554.432478,9622.677246
361.487789,153.219100,2146.597232,10214.842000
361.488098,1532.190996,3108.864956,10140.821405
361.488406,1532.190996,3034.844362,9326.594869
361.488714,2068.457845,1998.556043,9474.636058
361.489022,1608.800546,-444.123565,11177.109724
361.489330,-306.438199,-2294.638420,11251.130318
361.489638,-1915.238745,-3775.050304,12657.521608
361.489946,-2911.162892,-4441.235652,13101.645173
361.490254,-3064.381992,-2738.761985,11399.171507
361.490562,-842.705048,-1110.308913,10584.944971
361.490870,1915.238745,1110.308913,7698.141797
361.491179,2374.896044,2368.659014,6735.874072
361.491487,2604.724693,2738.761985,6513.812290
361.491795,2451.505594,2516.700203,8068.244768
361.492103,2068.457845,1850.514855,8956.491898
361.492411,-1991.848295,2886.803174,7920.203579
361.492719,1838.629195,1332.370696,11325.150913
361.493027,1225.752797,2368.659014,9104.533087
361.493335,612.876398,1406.391290,10510.924376
361.493643,1685.410096,-814.226536,11325.150913
361.493951,0.000000,-1924.535449,11177.109724
361.494260,-2068.457845,-4071.132681,13545.768739
361.494568,-2528.115143,-4071.132681,11621.233289
361.494876,-1608.800546,-2738.761985,11621.233289
361.495184,-459.657299,-1850.514855,9696.697840
361.495492,1762.019645,296.082377,7550.100608
361.495800,3370.820191,1998.556043,6735.874072
361.496108,3370.820191,1406.391290,6661.853478
361.496416,2221.676944,1480.411884,7031.956449
361.496724,842.705048,1258.350101,8586.388927
361.497032,536.266849,888.247130,9992.780217
361.497341,-229.828649,1702.473667,9844.739029
361.497649,919.314598,1998.556043,9326.594869
361.497957,2528.115143,1998.556043,9918.759623
361.498265,1991.848295,888.247130,9252.574275
361.498573,1378.971896,-1036.288319,10881.027347
361.498881,-612.876398,-2812.782580,11399.171507
361.499189,-1991.848295,-3256.906145,11695.253884
361.499497,-1378.971896,-3701.029710,11991.336260
361.499805,-1302.362347,-1332.370696,9770.718434
361.500113,612.876398,-592.164754,8734.430116
361.500422,2451.505594,962.267725,7476.080014
361.500730,3294.210641,1406.391290,6883.915261
361.501038,1991.848295,888.247130,7624.121203
361.501346,842.705048,888.247130,9030.512492
361.501654,383.047749,1332.370696,9548.656652
361.501962,0.000000,2146.597232,9474.636058
361.502270,1455.581446,2368.659014,9474.636058
361.502578,2528.115143,1998.556043,9030.512492
361.502886,3064.381992,1480.411884,9548.656652
361.503194,1838.629195,-0.000000,9400.615463
361.503502,0.000000,-1406.391290,11769.274478
361.503811,-1455.581446,-3108.864956,13249.686362
361.504119,-2068.457845,-2442.679609,11695.253884
361.504427,-459.657299,-1110.308913,10658.965565
361.504735,612.876398,296.082377,8290.306550
361.505043,2221.676944,1036.288319,7179.997637
361.505351,3294.210641,1702.473667,7179.997637
361.505659,3294.210641,1110.308913,7328.038826
361.505967,612.876398,1332.370696,7994.224174
361.506275,229.828649,1110.308913,9474.636058
361.506583,459.657299,1406.391290,10066.800811
361.506892,-153.219100,2960.823768,8808.450710
361.507200,2068.457845,2812.782580,9548.656652
361.507508,3370.820191,2368.659014,9104.533087
361.507816,1685.410096,814.226536,10510.924376
361.508124,153.219100,-1480.411884,11917.315666
361.508432,-1302.362347,-2664.741391,12509.480420
361.508740,-2528.115143,-3552.988522,12879.583391
361.509048,-2834.553343,-2590.720797,11251.130318
361.509356,-1378.971896,-1110.308913,10510.924376
361.509664,1302.362347,-74.020594,9474.636058
361.509973,1378.971896,666.185348,7550.100608
361.510281,2834.553343,962.267725,7920.203579
361.510589,1685.410096,666.185348,8734.430116
361.510897,306.438199,1332.370696,8808.450710
361.511205,0.000000,2368.659014,8882.471304
361.511513,1072.533697,3330.926739,9326.594869
361.511821,1685.410096,3108.864956,8586.388927
361.512129,1915.238745,2368.659014,8956.491898
361.512437,995.924147,814.226536,9992.780217
361.512745,-383.047749,-1184.329507,11325.150913
361.513054,-1685.410096,-3849.070898,12879.583391
361.513362,-3753.867940,-3849.070898,12953.603985
361.513670,-4060.306139,-4219.173869,12361.439231
361.513978,-1838.629195,-2072.576638,10658.965565
361.514286,306.438199,-740.205942,8956.491898
361.514594,1608.800546,740.205942,7920.203579
361.514902,2681.334243,666.185348,7254.018232
361.515210,2145.067394,1924.535449,7994.224174
361.515518,612.876398,1332.370696,8586.388927
361.515826,995.924147,2146.597232,8364.327145
361.516133,1149.143247,2812.782580,7846.182985
361.516441,1838.629195,3256.906145,8216.285956
361.516749,3064.381992,2812.782580,9178.553681
361.517057,2987.772442,814.226536,9548.656652
361.517365,919.314598,-370.102971,9992.780217
361.517673,-766.095498,-2886.803174,11843.295072
361.517981,-1991.848295,-4589.276840,13249.686362
361.518289,-3217.601092,-4219.173869,12953.603985
361.518597,-1838.629195,-2960.823768,10510.924376
361.518905,536.266849,-518.144159,8660.409521
361.519213,2604.724693,370.102971,7920.203579
361.519521,3677.258390,1406.391290,6809.894666
361.519829,2604.724693,1776.494261,7550.100608
361.520136,1532.190996,1554.432478,8586.388927
361.520444,1072.533697,2146.597232,8512.368333
361.520752,1225.752797,3627.009116,8808.450710
361.521060,1685.410096,3034.844362,9696.697840
361.521368,2911.162892,3330.926739,9178.553681
361.521676,3524.039291,2368.659014,9696.697840
361.521984,1838.629195,222.061783,10288.862594
361.522292,-612.876398,-2072.576638,11325.150913
361.522600,-1608.800546,-3627.009116,14063.912898
361.522908,-2374.896044,-3627.009116,13767.830521
361.523216,-2374.896044,-2442.679609,11769.274478
361.523524,-612.876398,-592.164754,9696.697840
361.523832,2221.676944,592.164754,8956.491898
361.524140,2451.505594,1554.432478,7254.018232
361.524447,2298.286494,2220.617826,7031.956449
361.524755,2987.772442,2146.597232,8660.409521
361.525063,612.876398,2960.823768,7550.100608
361.525371,1072.533697,2738.761985,9918.759623
361.525679,1532.190996,3478.967927,9400.615463
361.525987,995.924147,4293.194464,8660.409521
361.526295,3447.429741,1776.494261,11251.130318
361.526603,1685.410096,592.164754,9696.697840
361.526911,-766.095498,-1480.411884,12361.439231
361.527219,-2145.067394,-4737.318029,13471.748144
361.527527,-3524.039291,-3997.112087,12657.521608
361.527835,-3677.258390,-4441.235652,12509.480420
361.528143,-1762.019645,-1850.514855,8734.430116
361.528450,1685.410096,-148.041188,8660.409521
361.528758,2834.553343,1110.308913,6143.709319
361.529066,3600.648841,1702.473667,6291.750507
361.529374,2145.067394,1776.494261,7402.059420
361.529682,2145.067394,814.226536,8956.491898
361.529990,536.266849,2368.659014,8512.368333
361.530298,1149.143247,2516.700203,8734.430116
361.530606,1762.019645,2664.741391,9770.718434
361.530914,1762.019645,1850.514855,8734.430116
361.531222,2528.115143,296.082377,10214.842000
361.531530,0.000000,-1110.308913,10214.842000
361.531838,-1378.971896,-3923.091493,11843.295072
361.532146,-2911.162892,-4515.256246,13249.686362
361.532453,-3370.820191,-4071.132681,12657.521608
361.532761,-2145.067394,-2368.659014,9992.780217
361.533069,383.047749,-0.000000,8512.368333
361.533377,1991.848295,962.267725,7550.100608
361.533685,1915.238745,1332.370696,6957.935855
361.533993,2604.724693,1998.556043,7846.182985
361.534301,1302.362347,1406.391290,8290.306550
361.534609,229.828649,1628.453072,8808.450710
361.534917,766.095498,2294.638420,9178.553681
361.535225,1455.581446,2886.803174,8808.450710
361.535533,2145.067394,2738.761985,9400.615463
361.535841,2528.115143,1554.432478,8956.491898
361.536149,1685.410096,148.041188,9474.636058
361.536456,306.438199,-2664.741391,12287.418637
361.536764,-1915.238745,-3404.947333,12065.356855
361.537072,-2451.505594,-3997.112087,12435.459826
361.537380,-2451.505594,-2812.782580,11029.068536
361.537688,-536.266849,-1258.350101,9474.636058
361.537996,1532.190996,370.102971,8586.388927
361.538304,2451.505594,1258.350101,7031.956449
361.538612,2451.505594,1036.288319,6883.915261
361.538920,1302.362347,1850.514855,8660.409521
361.539228,842.705048,1184.329507,9622.677246
361.539536,306.438199,2368.659014,9252.574275
361.539844,1991.848295,2960.823768,9474.636058
361.540152,2451.505594,3330.926739,8808.450710
361.540459,2374.896044,2220.617826,9178.553681
361.540767,2528.115143,888.247130,9992.780217
361.541075,919.314598,-1258.350101,11177.109724
361.541383,-1455.581446,-3552.988522,12583.501014
361.541691,-2374.896044,-3701.029710,12287.418637
361.541999,-2528.115143,-2516.700203,11769.274478
361.542307,-1302.362347,-1554.432478,9770.718434
361.542615,1302.362347,148.041188,8956.491898
361.542923,2451.505594,962.267725,7402.059420
361.543231,1608.800546,1110.308913,7402.059420
361.543539,1302.362347,814.226536,9696.697840
361.543847,1072.533697,1110.308913,10214.842000
361.544155,153.219100,1554.432478,10288.862594
361.544462,995.924147,2368.659014,9474.636058
361.544770,2374.896044,3330.926739,9178.553681
361.545078,2987.772442,3034.844362,8808.450710
361.545386,2451.505594,1998.556043,8882.471304
361.545694,1608.800546,-0.000000,10436.903782
361.546002,0.000000,-2072.576638,11103.089130
361.546310,-1991.848295,-3552.988522,12509.480420
361.546618,-2451.505594,-2812.782580,11177.109724
361.546926,-1762.019645,-1924.535449,10288.862594
361.547234,0.000000,-222.061783,8512.368333
361.547542,1838.629195,-0.000000,8290.306550
361.547850,1685.410096,814.226536,7698.141797
361.548158,766.095498,370.102971,8290.306550
361.548465,612.876398,592.164754,9918.759623
361.548773,76.609550,1332.370696,9770.718434
361.549081,-229.828649,2146.597232,9548.656652
361.549389,995.924147,2590.720797,8956.491898
361.549697,3064.381992,2738.761985,8882.471304
361.550005,1991.848295,2146.597232,8364.327145
361.550313,1455.581446,-148.041188,9844.739029
361.550621,-229.828649,-2516.700203,11251.130318
361.550929,-2528.115143,-3701.029710,12435.459826
361.551237,-3600.648841,-3701.029710,11843.295072
361.551545,-2451.505594,-2294.638420,10214.842000
361.551853,229.828649,-888.247130,9178.553681
361.552161,1838.629195,-592.164754,7550.100608
361.552469,2298.286494,962.267725,6883.915261
361.552776,2681.334243,518.144159,7550.100608
361.553084,919.314598,1628.453072,7254.018232
361.553392,229.828649,1480.411884,10066.800811
361.553700,1072.533697,1702.473667,9918.759623
361.554008,1762.019645,3108.864956,8734.430116
361.554316,2451.505594,3701.029710,9104.533087
361.554624,2987.772442,2220.617826,9474.636058
361.554932,1838.629195,814.226536,10288.862594
361.555240,-383.047749,-1332.370696,11547.212695
361.555548,-1991.848295,-3330.926739,13175.665768
361.555856,-3294.210641,-3775.050304,13249.686362
361.556164,-2834.553343,-3256.906145,12435.459826
361.556472,-1225.752797,-1702.473667,9992.780217
361.556779,995.924147,-74.020594,8734.430116
361.557087,2068.457845,370.102971,8512.368333
361.557395,2221.676944,1480.411884,7254.018232
361.557703,2374.896044,1332.370696,7994.224174
361.558011,1225.752797,1554.432478,9104.533087
361.558319,1838.629195,3256.906145,8512.368333
361.558627,2374.896044,3997.112087,8660.409521
361.558935,3753.867940,4145.153275,8142.265362
361.559243,3753.867940,3849.070898,7550.100608
361.559551,3447.429741,1406.391290,9252.574275
361.559859,766.095498,-740.205942,10362.883188
361.560167,-1378.971896,-2886.803174,11695.253884
361.560475,-2374.896044,-3701.029710,12583.501014
361.560782,-2911.162892,-3627.009116,11769.274478
361.561090,-1225.752797,-2738.761985,10658.965565
361.561398,689.485948,-740.205942,8956.491898
361.561706,1378.971896,-296.082377,9178.553681
361.562014,1608.800546,-0.000000,7994.224174
361.562322,1685.410096,1184.329507,8734.430116
361.562630,766.095498,1332.370696,8882.471304
361.562938,842.705048,1554.432478,8956.491898
361.563246,1991.848295,2368.659014,9178.553681
361.563554,2451.505594,3182.885551,8660.409521
361.563862,3907.087040,2146.597232,8438.347739
361.564170,3294.210641,1258.350101,8808.450710
361.564478,1532.190996,-222.061783,9770.718434
361.564785,-995.924147,-3034.844362,11177.109724
361.565093,-2145.067394,-3034.844362,12657.521608
361.565401,-2451.505594,-3330.926739,11991.336260
361.565709,-842.705048,-1702.473667,9622.677246
361.566017,459.657299,-74.020594,8142.265362
361.566325,2834.553343,888.247130,7624.121203
361.566633,1762.019645,1554.432478,7550.100608
361.566941,1302.362347,1036.288319,9252.574275
361.567249,383.047749,962.267725,9696.697840
361.567557,-459.657299,1776.494261,9548.656652
361.567865,153.219100,1702.473667,9992.780217
361.568173,1225.752797,3182.885551,9622.677246
361.568481,2221.676944,2664.741391,9992.780217
361.568788,2451.505594,962.267725,9770.718434
361.569096,1149.143247,-370.102971,10362.883188
361.569404,-919.314598,-2368.659014,11547.212695
361.569712,-2451.505594,-2960.823768,12509.480420
361.570020,-2068.457845,-2664.741391,11843.295072
361.570328,-1838.629195,-1332.370696,10362.883188
361.570636,229.828649,-0.000000,8586.388927
361.570944,2298.286494,1258.350101,7550.100608
361.571252,2221.676944,1776.494261,7698.141797
361.571560,1455.581446,814.226536,8068.244768
361.571868,536.266849,1184.329507,8808.450710
361.572176,-766.095498,592.164754,10510.924376
361.572484,-766.095498,962.267725,10288.862594
361.572791,153.219100,2368.659014,9844.739029
361.573099,2145.067394,1554.432478,10288.862594
361.573407,1762.019645,1332.370696,9326.594869
361.573715,1685.410096,-296.082377,9622.677246
361.574023,0.000000,-2516.700203,10584.944971
361.574331,-1991.848295,-2812.782580,11621.233289
361.574639,-1991.848295,-3034.844362,11695.253884
361.574947,-1455.581446,-1924.535449,10436.903782
361.575255,0.000000,-148.041188,8142.265362
361.575563,2451.505594,740.205942,7550.100608
361.575871,3064.381992,1036.288319,7031.956449
361.576179,1149.143247,1628.453072,7179.997637
361.576487,919.314598,888.247130,8734.430116
361.576794,383.047749,296.082377,10214.842000
361.577102,-612.876398,666.185348,9770.718434
361.577410,0.000000,1554.432478,10436.903782
361.577718,1991.848295,2072.576638,10362.883188
361.578026,1991.848295,1628.453072,9400.615463
361.578334,2145.067394,666.185348,10214.842000
361.578642,1225.752797,-814.226536,9696.697840
361.578950,-766.095498,-2072.576638,11325.150913
361.579258,-1072.533697,-2368.659014,12065.356855
361.579566,-842.705048,-1480.411884,9992.780217
361.579874,0.000000,-222.061783,8956.491898
361.580182,1532.190996,-74.020594,8882.471304
361.580490,2145.067394,1110.308913,7031.956449
361.580798,2374.896044,888.247130,8586.388927
361.581105,1455.581446,-0.000000,8660.409521
361.581413,383.047749,740.205942,9326.594869
361.581721,0.000000,814.226536,11103.089130
361.582029,995.924147,1924.535449,10140.821405
361.582337,1762.019645,3404.947333,9400.615463
361.582645,3677.258390,2812.782580,9326.594869
361.582953,3830.477490,1702.473667,9326.594869
361.583261,2221.676944,518.144159,9252.574275
361.583569,76.609550,-1702.473667,10732.986159
361.583877,-1378.971896,-2516.700203,11769.274478
361.584185,-2145.067394,-2072.576638,11473.192101
361.584493,-1302.362347,-1998.556043,11177.109724
361.584801,-612.876398,-592.164754,8734.430116
361.585108,459.657299,-296.082377,8660.409521
361.585416,1608.800546,148.041188,8808.450710
361.585724,1149.143247,518.144159,8290.306550
361.586032,0.000000,-0.000000,10066.800811
361.586340,-842.705048,518.144159,9770.718434
361.586648,612.876398,2220.617826,9252.574275
361.586956,1149.143247,3108.864956,9474.636058
361.587264,3447.429741,3701.029710,8956.491898
361.587572,3907.087040,2738.761985,8660.409521
361.587880,2987.772442,1628.453072,9178.553681
361.588188,1149.143247,-444.123565,10288.862594
361.588496,-995.924147,-2146.597232,11177.109724
361.588804,-1915.238745,-2442.679609,12065.356855
361.589111,-1762.019645,-2442.679609,10214.842000
361.589419,-842.705048,-1036.288319,9326.594869
361.589727,842.705048,-444.123565,9178.553681
361.590035,1685.410096,-0.000000,7550.100608
361.590343,689.485948,-0.000000,8290.306550
361.590651,459.657299,-0.000000,8956.491898
361.590959,229.828649,518.144159,9844.739029
361.591267,-459.657299,1924.535449,10066.800811
361.591575,919.314598,2368.659014,10140.821405
361.591883,2221.676944,2886.803174,9696.697840
361.592191,2528.115143,1628.453072,9548.656652
361.592499,2834.553343,444.123565,9844.739029
361.592807,842.705048,-1258.350101,10066.800811
361.593114,-1225.752797,-2738.761985,12435.459826
361.593422,-1838.629195,-3404.947333,12213.398043
361.593730,-1915.238745,-2516.700203,10881.027347
361.594038,-612.876398,-1554.432478,9400.615463
361.594346,1378.971896,-0.000000,8290.306550
361.594654,2604.724693,888.247130,7254.018232
361.594962,2451.505594,962.267725,7550.100608
361.595270,1455.581446,888.247130,7920.203579
361.595578,842.705048,1184.329507,8882.471304
361.595886,-536.266849,2220.617826,9622.677246
361.596194,459.657299,2738.761985,9548.656652
361.596502,1838.629195,3552.988522,9474.636058
361.596810,2145.067394,2516.700203,9622.677246
361.597117,1532.190996,1184.329507,9400.615463
361.597425,383.047749,-592.164754,10362.883188
361.597733,-995.924147,-2738.761985,12657.521608
361.598041,-2681.334243,-3701.029710,11843.295072
361.598349,-2834.553343,-2886.803174,11547.212695
361.598657,-995.924147,-2368.659014,11325.150913
361.598965,689.485948,-0.000000,8364.327145
361.599273,1838.629195,1110.308913,7105.977043
361.599581,2298.286494,1480.411884,7105.977043
361.599889,3064.381992,1480.411884,7254.018232
361.600197,1225.752797,1924.535449,8290.306550
361.600505,612.876398,1184.329507,10362.883188
361.600813,459.657299,2072.576638,9770.718434
361.601120,1532.190996,3182.885551,9622.677246
361.601428,2451.505594,2368.659014,9770.718434
361.601736,1455.581446,666.185348,9844.739029
361.602044,1225.752797,-592.164754,11177.109724
361.602352,-1072.533697,-2812.782580,11251.130318
361.602660,-2221.676944,-3182.885551,11917.315666
361.602968,-2145.067394,-3552.988522,12287.418637
361.603276,-1608.800546,-1998.556043,10584.944971
361.603584,612.876398,-888.247130,9400.615463
361.603892,2068.457845,740.205942,7328.038826
361.604200,3064.381992,1480.411884,6957.935855
361.604508,1991.848295,1036.288319,7179.997637
361.604816,1991.848295,1110.308913,8808.450710
361.605123,383.047749,1184.329507,9696.697840
361.605431,-689.485948,2220.617826,9696.697840
361.605739,689.485948,2368.659014,11399.171507
361.606047,2221.676944,2738.761985,9474.636058
361.606355,2374.896044,1924.535449,9770.718434
361.606663,2145.067394,-222.061783,9696.697840
361.606971,-153.219100,-1258.350101,10436.903782
361.607279,-2068.457845,-3404.947333,13175.665768
361.607587,-2451.505594,-3256.906145,11991.336260
361.607895,-2068.457845,-2146.597232,11843.295072
361.608203,-459.657299,-888.247130,8956.491898
361.608511,2145.067394,740.205942,6957.935855
361.608819,2834.553343,1480.411884,7328.038826
361.609127,2528.115143,1554.432478,7254.018232
361.609434,1685.410096,962.267725,8216.285956
361.609742,0.000000,1628.453072,8808.450710
361.610050,-459.657299,1258.350101,9696.697840
361.610358,459.657299,2220.617826,9696.697840
361.610666,2145.067394,3108.864956,9030.512492
361.610974,2834.553343,1628.453072,9178.553681
361.611282,1838.629195,962.267725,9252.574275
361.611590,995.924147,-1036.288319,10658.965565
361.611898,-919.314598,-2886.803174,12287.418637
361.612206,-1991.848295,-3256.906145,12509.480420
361.612514,-1991.848295,-2516.700203,11547.212695
361.612822,-536.266849,-962.267725,9474.636058
361.613130,1302.362347,740.205942,8512.368333
361.613437,3064.381992,1258.350101,7402.059420
361.613745,3064.381992,1554.432478,6735.874072
361.614053,1149.143247,666.185348,7846.182985
361.614361,919.314598,518.144159,9104.533087
361.614669,0.000000,888.247130,9696.697840
361.614977,-306.438199,1554.432478,10362.883188
361.615285,1532.190996,1628.453072,10436.903782
361.615593,1991.848295,2072.576638,9400.615463
361.615901,2068.457845,-0.000000,9992.780217
361.616209,1225.752797,-740.205942,10436.903782
361.616517,-229.828649,-2664.741391,11991.336260
361.616825,-1915.238745,-3182.885551,12657.521608
361.617133,-1915.238745,-2812.782580,11695.253884
361.617441,-842.705048,-1184.329507,10140.821405
361.617749,1838.629195,518.144159,8364.327145
361.618057,2911.162892,1184.329507,7105.977043
361.618365,3217.601092,1628.453072,6069.688724
361.618673,2451.505594,592.164754,7254.018232
361.618981,919.314598,1184.329507,7846.182985
361.619289,459.657299,1110.308913,9548.656652
361.619597,-383.047749,1554.432478,10510.924376
361.619905,229.828649,2220.617826,9548.656652
361.620213,1991.848295,2294.638420,9992.780217
361.620521,2145.067394,1332.370696,9104.533087
361.620829,1532.190996,666.185348,9770.718434
361.621137,-153.219100,-1480.411884,11251.130318
361.621445,-1378.971896,-2368.659014,12361.439231
361.621753,-1762.019645,-2664.741391,11991.336260
361.622061,-995.924147,-1480.411884,11103.089130
361.622369,919.314598,-296.082377,8216.285956
361.622677,2604.724693,1480.411884,6587.832884
361.622985,2987.772442,1406.391290,6809.894666
361.623293,3064.381992,1332.370696,7179.997637
361.623601,1378.971896,666.185348,7698.141797
361.623909,-536.266849,962.267725,9844.739029
361.624217,76.609550,1036.288319,10362.883188
361.624525,766.095498,1850.514855,11029.068536
361.624833,995.924147,2072.576638,10510.924376
361.625141,2451.505594,1184.329507,9844.739029
361.625449,1455.581446,814.226536,9548.656652
361.625757,0.000000,-1850.514855,12213.398043
361.626065,-1149.143247,-2738.761985,12361.439231
361.626373,-2834.553343,-2812.782580,12287.418637
361.626681,-2145.067394,-3034.844362,12879.583391
361.626989,-612.876398,-1258.350101,9770.718434
361.627297,1302.362347,962.267725,8364.327145
361.627605,2298.286494,814.226536,7994.224174
361.627913,2374.896044,740.205942,7105.977043
361.628221,1302.362347,1258.350101,7846.182985
361.628529,153.219100,1702.473667,9474.636058
361.628837,459.657299,1480.411884,9104.533087
361.629145,383.047749,3034.844362,9474.636058
361.629453,2451.505594,2072.576638,9474.636058
361.629761,2451.505594,3182.885551,7550.100608
361.630069,2145.067394,888.247130,9992.780217
361.630377,383.047749,-592.164754,10807.006753
361.630685,-1455.581446,-2294.638420,12065.356855
361.630993,-2757.943793,-4071.132681,13841.851115
361.631301,-3524.039291,-3404.947333,11621.233289
361.631608,-1225.752797,-1850.514855,10066.800811
361.631916,76.609550,-370.102971,9548.656652
361.632224,2221.676944,-0.000000,8142.265362
361.632532,1915.238745,1332.370696,6439.791695
361.632840,1455.581446,814.226536,7624.121203
361.633148,1302.362347,1480.411884,8364.327145
361.633456,536.266849,2590.720797,8290.306550
361.633764,1762.019645,3108.864956,9252.574275
361.634072,1838.629195,2664.741391,8512.368333
361.634380,3294.210641,2516.700203,9252.574275
361.634688,2068.457845,1258.350101,9474.636058
361.634996,689.485948,-370.102971,9918.759623
361.635304,-1072.533697,-2294.638420,11917.315666
361.635612,-2604.724693,-3923.091493,13101.645173
361.635920,-2834.553343,-3627.009116,12361.439231
361.636228,-2145.067394,-2590.720797,9992.780217
361.636536,689.485948,-888.247130,8956.491898
361.636844,1455.581446,518.144159,7624.121203
361.637152,3524.039291,740.205942,6513.812290
361.637460,2451.505594,814.226536,7179.997637
361.637768,919.314598,1258.350101,8142.265362
361.638076,842.705048,1702.473667,9178.553681
361.638384,612.876398,2590.720797,8956.491898
361.638692,1838.629195,2886.803174,9326.594869
361.639000,2451.505594,2146.597232,9474.636058
361.639308,2451.505594,1554.432478,9622.677246
361.639616,612.876398,-370.102971,10881.027347
361.639924,-306.438199,-1554.432478,11547.212695
361.640232,-2451.505594,-3330.926739,13175.665768
361.640540,-2757.943793,-4219.173869,13249.686362
361.640848,-1991.848295,-2664.741391,10881.027347
361.641156,0.000000,-1110.308913,9474.636058
361.641464,1838.629195,148.041188,8364.327145
361.641772,3600.648841,1554.432478,6957.935855
361.642080,2528.115143,1184.329507,6809.894666
361.642388,1608.800546,1258.350101,7994.224174
361.642696,1149.143247,2146.597232,8882.471304
361.643004,536.266849,2664.741391,9400.615463
361.643312,1455.581446,2886.803174,9400.615463
361.643620,1762.019645,2294.638420,9918.759623
361.643928,2374.896044,1184.329507,10214.842000
361.644236,919.314598,592.164754,9030.512492
361.644544,-229.828649,-1628.453072,10807.006753
361.644852,-1762.019645,-3404.947333,12879.583391
361.645160,-2911.162892,-3182.885551,12435.459826
361.645468,-1762.019645,-2590.720797,10955.047942
361.645776,-919.314598,-444.123565,9474.636058
361.646084,2374.896044,888.247130,7920.203579
361.646392,3983.696590,1480.411884,6883.915261
361.646700,3907.087040,2072.576638,6587.832884
361.647008,2757.943793,1850.514855,7328.038826
361.647316,1838.629195,1850.514855,8512.368333
361.647624,689.485948,1850.514855,9474.636058
361.647932,1149.143247,2146.597232,9844.739029
361.648240,1838.629195,2368.659014,9622.677246
361.648548,2145.067394,888.247130,9696.697840
361.648856,1532.190996,666.185348,9326.594869
361.649164,0.000000,-518.144159,10807.006753
361.649472,0.000000,-3034.844362,14063.912898
361.649780,-2604.724693,-2960.823768,12657.521608
361.650088,-3217.601092,-4071.132681,12805.562797
361.650396,-1608.800546,-2886.803174,11325.150913
361.650704,76.609550,-0.000000,8882.471304
361.651012,2068.457845,-148.041188,9844.739029
361.651320,2911.162892,1850.514855,6365.771101
361.651628,2834.553343,1184.329507,7624.121203
361.651936,612.876398,1554.432478,8216.285956
361.652244,1455.581446,1628.453072,9326.594869
361.652552,1608.800546,2812.782580,9622.677246
361.652860,2528.115143,2738.761985,8290.306550
361.653168,3140.991542,3256.906145,7994.224174
361.653476,2451.505594,1480.411884,8882.471304
361.653784,1225.752797,-888.247130,11029.068536
361.654092,-766.095498,-1258.350101,10510.924376
361.654400,-1915.238745,-3256.906145,12731.542202
361.654708,-2987.772442,-3182.885551,12065.356855
361.655016,-2068.457845,-2146.597232,10658.965565
361.655324,0.000000,-222.061783,9918.759623
361.655632,1685.410096,814.226536,7624.121203
361.655940,2757.943793,1628.453072,7105.977043
361.656248,2145.067394,1258.350101,7105.977043
361.656556,1225.752797,1332.370696,8882.471304
361.656864,306.438199,1258.350101,9400.615463
361.657172,689.485948,2146.597232,9474.636058
361.657480,1302.362347,2886.803174,9178.553681
361.657788,2068.457845,2072.576638,9326.594869
361.658096,2374.896044,1776.494261,9770.718434
361.658404,1149.143247,370.102971,9918.759623
361.658712,-612.876398,-1406.391290,11103.089130
361.659020,-1915.238745,-3034.844362,12731.542202
361.659328,-2911.162892,-4293.194464,13249.686362
361.659636,-3294.210641,-3034.844362,11547.212695
361.659944,-612.876398,-1776.494261,10362.883188
361.660252,1532.190996,592.164754,8142.265362
361.660560,2221.676944,962.267725,7179.997637
361.660868,3677.258390,814.226536,7698.141797
361.661176,1608.800546,1406.391290,7105.977043
361.661484,842.705048,1628.453072,8364.327145
361.661792,1378.971896,1776.494261,9622.677246
361.662100,1072.533697,2960.823768,9696.697840
361.662408,1455.581446,2368.659014,9918.759623
361.662716,2298.286494,2294.638420,9844.739029
361.663024,1455.581446,1406.391290,9252.574275
361.663332,-612.876398,-518.144159,10658.965565
361.663640,-1838.629195,-2886.803174,13323.706956
361.663948,-2681.334243,-3775.050304,13619.789333
361.664256,-3294.210641,-2442.679609,11695.253884
361.664564,-1991.848295,-1628.453072,10658.965565
361.664872,919.314598,-74.020594,9474.636058
361.665180,2068.457845,1110.308913,7920.203579
361.665488,2298.286494,1184.329507,7328.038826
361.665796,2298.286494,740.205942,7846.182985
361.666104,1302.362347,1110.308913,8438.347739
361.666412,612.876398,1110.308913,9178.553681
361.666720,1532.190996,2146.597232,9326.594869
361.667028,2374.896044,3478.967927,8882.471304
361.667336,2911.162892,2590.720797,8586.388927
361.667644,2451.505594,1776.494261,8882.471304
361.667952,1762.019645,666.185348,9770.718434
361.668260,383.047749,-1776.494261,10658.965565
361.668568,-1455.581446,-3256.906145,11695.253884
361.668876,-2221.676944,-3627.009116,12139.377449
361.669184,-1685.410096,-2368.659014,10362.883188
361.669492,76.609550,-1110.308913,9474.636058
361.669800,1838.629195,-222.061783,7550.100608
361.670108,2374.896044,518.144159,6661.853478
361.670416,2451.505594,222.061783,7846.182985
361.670724,1072.533697,222.061783,7920.203579
361.671032,459.657299,814.226536,9474.636058
361.671340,1838.629195,1554.432478,9252.574275
361.671648,1915.238745,2294.638420,8734.430116
361.671956,2604.724693,2368.659014,8808.450710
361.672264,2834.553343,1480.411884,8808.450710
361.672572,1685.410096,-0.000000,9252.574275
361.672880,76.609550,-1924.535449,10732.986159
361.673188,-1915.238745,-3108.864956,13027.624579
361.673496,-3983.696590,-4441.235652,12805.562797
361.673804,-2681.334243,-3627.009116,12065.356855
361.674112,-383.047749,-2220.617826,9918.759623
361.674420,689.485948,-444.123565,8512.368333
361.674728,2145.067394,222.061783,7624.121203
361.675036,2374.896044,518.144159,7402.059420
361.675344,1072.533697,1702.473667,7328.038826
361.675652,1072.533697,1554.432478,8586.388927
361.675960,1455.581446,3034.844362,8808.450710
361.676268,2757.943793,3701.029710,7920.203579
361.676576,2604.724693,3627.009116,7476.080014
361.676884,3217.601092,2738.761985,8808.450710
361.677192,2221.676944,1406.391290,9548.656652
361.677499,0.000000,-666.185348,10214.842000
361.677807,-1991.848295,-2812.782580,12287.418637
361.678115,-3447.429741,-4293.194464,13471.748144
361.678423,-3447.429741,-3627.009116,12361.439231
361.678731,-1991.848295,-1850.514855,11547.212695
361.679039,-306.438199,-666.185348,9622.677246
361.679347,1915.238745,1258.350101,8068.244768
361.679655,2221.676944,1036.288319,7476.080014
361.679963,1915.238745,1776.494261,7772.162391
361.680271,1225.752797,2294.638420,8808.450710
361.680579,1455.581446,2368.659014,9030.512492
361.680887,766.095498,2812.782580,9474.636058
361.681195,2528.115143,3478.967927,9622.677246
361.681503,3524.039291,3034.844362,9252.574275
361.681811,2374.896044,2368.659014,7920.203579
361.682119,919.314598,-370.102971,10362.883188
361.682427,-1225.752797,-2294.638420,12509.480420
361.682735,-2221.676944,-3552.988522,13545.768739
361.683043,-2757.943793,-3034.844362,12213.398043
361.683351,-1302.362347,-1554.432478,10436.903782
361.683659,1378.971896,-518.144159,9030.512492
361.683967,2221.676944,1110.308913,7846.182985
361.684275,2451.505594,1406.391290,7698.141797
361.684583,1915.238745,1332.370696,8216.285956
361.684891,536.266849,1110.308913,8660.409521
361.685199,842.705048,1554.432478,9770.718434
361.685507,689.485948,2146.597232,10140.821405
361.685815,1378.971896,2072.576638,10288.862594
361.686123,2068.457845,1184.329507,10214.842000
361.686431,2298.286494,1258.350101,9696.697840
361.686739,919.314598,-370.102971,9696.697840
361.687047,-459.657299,-1924.535449,11399.171507
361.687355,-1762.019645,-3034.844362,12657.521608
361.687663,-2451.505594,-3034.844362,11843.295072
361.687971,-1532.190996,-2442.679609,10584.944971
361.688279,-229.828649,-1036.288319,9104.533087
361.688587,2451.505594,-0.000000,7772.162391
361.688895,2834.553343,1332.370696,7254.018232
361.689203,2374.896044,1184.329507,6883.915261
361.689511,1378.971896,666.185348,8068.244768
361.689819,919.314598,1628.453072,8290.306550
361.690127,842.705048,2294.638420,9252.574275
361.690435,1838.629195,1776.494261,9770.718434
361.690743,1685.410096,1924.535449,9400.615463
361.691051,2451.505594,1554.432478,9104.533087
361.691359,1378.971896,-0.000000,9104.533087
361.691667,0.000000,-1184.329507,10288.862594
361.691975,-1532.190996,-3034.844362,12065.356855
361.692283,-2911.162892,-2812.782580,11621.233289
361.692591,-2221.676944,-2738.761985,11473.192101
361.692899,0.000000,-518.144159,9622.677246
361.693207,1991.848295,148.041188,8142.265362
361.693515,2451.505594,1036.288319,7772.162391
361.693823,2987.772442,814.226536,7105.977043
361.694131,1608.800546,888.247130,7846.182985
361.694439,612.876398,444.123565,8734.430116
361.694747,766.095498,814.226536,9474.636058
361.695055,689.485948,1850.514855,10140.821405
361.695363,2068.457845,1850.514855,9474.636058
361.695671,2451.505594,1332.370696,9474.636058
361.695979,1915.238745,-0.000000,9770.718434
361.696287,536.266849,-444.123565,10214.842000
361.696595,-1149.143247,-1850.514855,11325.150913
361.696903,-2145.067394,-2442.679609,12361.439231
361.697211,-2528.115143,-2072.576638,11325.150913
361.697519,-766.095498,-296.082377,10436.903782
361.697827,1149.143247,740.205942,8586.388927
361.698135,2145.067394,740.205942,7772.162391
361.698443,1838.629195,1258.350101,7698.141797
361.698751,1378.971896,296.082377,8882.471304
361.699059,153.219100,888.247130,9696.697840
361.699367,-306.438199,666.185348,10510.924376
361.699675,229.828649,1850.514855,10214.842000
361.699983,1302.362347,1924.535449,9770.718434
361.700291,1455.581446,2146.597232,9474.636058
361.700599,3140.991542,1406.391290,9992.780217
361.700907,1608.800546,148.041188,9622.677246
361.701215,-766.095498,-1554.432478,11325.150913
361.701523,-1838.629195,-2294.638420,12731.542202
361.701831,-1991.848295,-2368.659014,12065.356855
361.702139,-1685.410096,-814.226536,10510.924376
361.702447,459.657299,-222.061783,8660.409521
361.702755,2068.457845,444.123565,8068.244768
361.703063,1685.410096,1406.391290,8438.347739
361.703371,1532.190996,-0.000000,8438.347739
361.703679,229.828649,740.205942,8882.471304
361.703987,-459.657299,518.144159,9622.677246
361.704295,459.657299,592.164754,10288.862594
361.704603,1072.533697,2886.803174,9178.553681
361.704911,2834.553343,2442.679609,8882.471304
361.705219,3983.696590,2220.617826,8660.409521
361.705527,2528.115143,1258.350101,8660.409521
361.705835,919.314598,-962.267725,9992.780217
361.706143,-689.485948,-2220.617826,11843.295072
361.706451,-1838.629195,-2590.720797,12139.377449
361.706759,-1685.410096,-2294.638420,10955.047942
361.707067,0.000000,-1332.370696,9696.697840
361.707375,1149.143247,-148.041188,8364.327145
361.707683,2681.334243,-296.082377,7846.182985
361.707991,1991.848295,592.164754,8068.244768
361.708299,536.266849,740.205942,8290.306550
361.708607,153.219100,296.082377,10214.842000
361.708915,229.828649,1924.535449,9252.574275
361.709223,1455.581446,2368.659014,9474.636058
361.709531,1455.581446,3034.844362,9178.553681
361.709839,2604.724693,1332.370696,9696.697840
361.710147,3064.381992,1110.308913,9844.739029
361.710455,995.924147,-222.061783,10214.842000
361.710763,-689.485948,-2294.638420,11547.212695
361.711071,-2451.505594,-2590.720797,12213.398043
361.711379,-1991.848295,-2516.700203,11695.253884
361.711687,-1072.533697,-1332.370696,9548.656652
361.711995,1378.971896,-0.000000,7920.203579
361.712303,1762.019645,-0.000000,7698.141797
361.712611,1991.848295,962.267725,6883.915261
361.712919,1608.800546,1036.288319,8438.347739
361.713227,0.000000,814.226536,8586.388927
361.713535,153.219100,1628.453072,9548.656652
361.713843,612.876398,2220.617826,9696.697840
361.714151,1455.581446,2442.679609,9622.677246
361.714459,1455.581446,1702.473667,9474.636058
361.714767,1378.971896,740.205942,9622.677246
361.715075,766.095498,-1036.288319,10584.944971
361.715383,-1455.581446,-2368.659014,11177.109724
361.715691,-2374.896044,-3330.926739,12657.521608
361.715999,-2451.505594,-2368.659014,10881.027347
361.716307,-1072.533697,-962.267725,9918.759623
361.716615,1225.752797,-74.020594,8956.491898
361.716923,2528.115143,1480.411884,6809.894666
361.717231,2911.162892,1554.432478,6291.750507
361.717539,2757.943793,1776.494261,7402.059420
361.717847,1378.971896,1480.411884,7994.224174
361.718155,-383.047749,1184.329507,9252.574275
361.718463,229.828649,1776.494261,9696.697840
361.718771,919.314598,2146.597232,9992.780217
361.719079,1455.581446,2072.576638,10066.800811
361.719387,1991.848295,222.061783,10436.903782
361.719694,459.657299,-296.082377,10881.027347
361.720002,-1149.143247,-2146.597232,12139.377449
361.720310,-1991.848295,-2886.803174,12509.480420
361.720618,-2834.553343,-3256.906145,12213.398043
361.720926,-1762.019645,-1406.391290,10362.883188
361.721234,689.485948,-222.061783,8882.471304
361.721542,1915.238745,814.226536,8660.409521
361.721850,2987.772442,1554.432478,6735.874072
361.722158,2451.505594,1184.329507,7179.997637
361.722466,1072.533697,1036.288319,9104.533087
361.722774,229.828649,962.267725,9548.656652
361.723082,0.000000,1406.391290,9474.636058
361.723390,612.876398,1998.556043,10214.842000
361.723698,1991.848295,1332.370696,10066.800811
361.724006,1838.629195,1702.473667,9030.512492
361.724314,2298.286494,-74.020594,10436.903782
361.724622,229.828649,-1776.494261,10436.903782
361.724930,-1149.143247,-2664.741391,11917.315666
361.725238,-2298.286494,-3478.967927,12361.439231
361.725546,-2298.286494,-2812.782580,10732.986159
361.725854,-995.924147,-1332.370696,10214.842000
361.726162,1685.410096,592.164754,9178.553681
361.726470,2604.724693,1406.391290,7476.080014
361.726778,2145.067394,1406.391290,6291.750507
361.727086,1991.848295,1184.329507,7772.162391
361.727394,459.657299,962.267725,8586.388927
361.727702,153.219100,1332.370696,8734.430116
361.728010,536.266849,2590.720797,8956.491898
361.728318,3370.820191,1924.535449,9770.718434
361.728626,1378.971896,2442.679609,7105.977043
361.728934,2374.896044,-0.000000,10066.800811
361.729242,1302.362347,-1110.308913,11695.253884
361.729550,-1378.971896,-1702.473667,11103.089130
361.729858,-1072.533697,-3552.988522,13397.727550
361.730166,-1991.848295,-1924.535449,11325.150913
361.730474,153.219100,-1480.411884,10807.006753
361.730782,383.047749,370.102971,7994.224174
361.731090,3294.210641,888.247130,7624.121203
361.731398,2987.772442,740.205942,7105.977043
361.731706,1608.800546,888.247130,7105.977043
361.732014,919.314598,-0.000000,9992.780217
361.732322,153.219100,444.123565,9474.636058
361.732630,0.000000,1850.514855,10066.800811
361.732938,1455.581446,2146.597232,9400.615463
361.733246,2987.772442,2442.679609,8808.450710
361.733554,2528.115143,1406.391290,9474.636058
361.733862,1685.410096,518.144159,8734.430116
361.734170,459.657299,-1554.432478,10732.986159
361.734478,-1608.800546,-2368.659014,12065.356855
361.734786,-1149.143247,-2294.638420,12287.418637
361.735094,-1838.629195,-1480.411884,10288.862594
361.735402,0.000000,-1036.288319,10214.842000
361.735710,1685.410096,666.185348,8660.409521
361.736018,2298.286494,666.185348,7772.162391
361.736326,1532.190996,962.267725,7772.162391
361.736634,1149.143247,740.205942,8882.471304
361.736942,766.095498,1110.308913,8808.450710
361.737250,689.485948,1850.514855,9400.615463
361.737558,1915.238745,2368.659014,9474.636058
361.737866,2145.067394,2590.720797,8290.306550
361.738174,1838.629195,1258.350101,9474.636058
361.738482,1608.800546,-0.000000,10510.924376
361.738790,-1455.581446,-1036.288319,11029.068536
361.739098,-2911.162892,-2664.741391,13175.665768
361.739406,-2068.457845,-4145.153275,13323.706956
361.739714,-3217.601092,-666.185348,9622.677246
361.740022,-229.828649,-1184.329507,11251.130318
361.740330,2681.334243,962.267725,8142.265362
361.740638,2451.505594,1702.473667,6217.729913
361.740946,2681.334243,1036.288319,7328.038826
361.741254,2451.505594,1998.556043,6957.935855
361.741562,1302.362347,1480.411884,8512.368333
361.741870,383.047749,2368.659014,7994.224174
361.742178,2298.286494,2368.659014,9030.512492
361.742486,2221.676944,2368.659014,9474.636058
361.742794,2451.505594,1406.391290,9400.615463
361.743102,1149.143247,296.082377,9622.677246
361.743410,-689.485948,-1554.432478,11917.315666
361.743718,-1762.019645,-2812.782580,13767.830521
361.744026,-3217.601092,-3256.906145,12731.542202
361.744334,-2681.334243,-3627.009116,12879.583391
361.744642,-1072.533697,-2590.720797,10510.924376
361.744950,383.047749,-0.000000,8586.388927
361.745258,2451.505594,962.267725,7698.141797
361.745566,2298.286494,1628.453072,6661.853478
361.745874,2068.457845,1924.535449,7624.121203
361.746182,1915.238745,2072.576638,7994.224174
361.746490,459.657299,2738.761985,8068.244768
361.746797,612.876398,2664.741391,9474.636058
361.747105,2298.286494,2146.597232,9622.677246
361.747413,1838.629195,1332.370696,9400.615463
361.747721,919.314598,592.164754,9770.718434
361.748029,459.657299,-740.205942,10955.047942
361.748337,-1762.019645,-3034.844362,12065.356855
361.748645,-2834.553343,-3256.906145,12879.583391
361.748953,-2374.896044,-3182.885551,12435.459826
361.749261,-1455.581446,-2294.638420,10658.965565
361.749569,459.657299,-888.247130,9178.553681
361.749877,2911.162892,888.247130,7254.018232
361.750185,3064.381992,1258.350101,7105.977043
361.750493,2528.115143,2072.576638,6513.812290
361.750801,2451.505594,1924.535449,7179.997637
361.751109,1225.752797,2590.720797,8216.285956
361.751417,1838.629195,2072.576638,9104.533087
361.751725,1685.410096,2294.638420,9178.553681
361.752033,1991.848295,1628.453072,9252.574275
361.752341,1455.581446,-0.000000,9474.636058
361.752649,766.095498,-888.247130,10658.965565
361.752957,-842.705048,-2442.679609,11991.336260
361.753265,-2451.505594,-3256.906145,12213.398043
361.753573,-2451.505594,-3034.844362,11917.315666
361.753881,-995.924147,-2368.659014,10288.862594
361.754189,459.657299,-1184.329507,9030.512492
361.754497,2528.115143,148.041188,7920.203579
361.754805,3217.601092,1554.432478,6809.894666
361.755113,3140.991542,1702.473667,7031.956449
361.755421,1608.800546,1850.514855,8364.327145
361.755729,1072.533697,2146.597232,9326.594869
361.756037,1302.362347,2294.638420,9696.697840
361.756345,1455.581446,2664.741391,9548.656652
361.756653,1532.190996,1776.494261,9696.697840
361.756961,1838.629195,962.267725,10362.883188
361.757269,919.314598,-0.000000,9622.677246
361.757577,-536.266849,-1406.391290,11251.130318
361.757885,-1991.848295,-3182.885551,13101.645173
361.758193,-2451.505594,-3182.885551,12065.356855
361.758501,-2145.067394,-2294.638420,11843.295072
361.758809,-689.485948,-888.247130,10140.821405
361.759117,1762.019645,518.144159,9178.553681
361.759425,2528.115143,1850.514855,7846.182985
361.759733,2451.505594,2072.576638,7254.018232
361.760041,1378.971896,1924.535449,7328.038826
361.760349,1072.533697,2072.576638,8882.471304
361.760657,153.219100,2368.659014,8808.450710
361.760965,1608.800546,2146.597232,9474.636058
361.761273,1149.143247,1924.535449,9844.739029
361.761581,1455.581446,592.164754,10214.842000
361.761889,306.438199,-592.164754,10510.924376
361.762197,-689.485948,-1776.494261,10881.027347
361.762505,-1608.800546,-3182.885551,12361.439231
361.762813,-2681.334243,-3256.906145,11843.295072
361.763121,-2145.067394,-2960.823768,11695.253884
361.763429,-383.047749,-1406.391290,9696.697840
361.763737,2451.505594,518.144159,8660.409521
361.764045,3140.991542,1110.308913,6809.894666
361.764353,3830.477490,2220.617826,5847.626942
361.764661,2987.772442,1924.535449,6365.771101
361.764969,1685.410096,1998.556043,7994.224174
361.765277,76.609550,1850.514855,9844.739029
361.765585,995.924147,1480.411884,9992.780217
361.765893,842.705048,1628.453072,9696.697840
361.766201,536.266849,592.164754,10807.006753
361.766509,1302.362347,-444.123565,10732.986159
361.766817,-459.657299,-666.185348,11325.150913
361.767125,-995.924147,-2220.617826,11769.274478
361.767433,-1991.848295,-3182.885551,12139.377449
361.767741,-2451.505594,-2738.761985,12287.418637
361.768049,-995.924147,-1702.473667,10881.027347
361.768357,306.438199,740.205942,9326.594869
361.768665,2374.896044,1036.288319,8290.306550
361.768973,3447.429741,1110.308913,7476.080014
361.769281,2834.553343,1924.535449,6661.853478
361.769589,1838.629195,2072.576638,8142.265362
361.769897,1072.533697,2516.700203,8660.409521
361.770205,1072.533697,2072.576638,9474.636058
361.770513,1149.143247,2960.823768,9030.512492
361.770821,1915.238745,1776.494261,10214.842000
361.771129,1915.238745,1332.370696,9326.594869
361.771437,995.924147,-0.000000,9844.739029
361.771745,-689.485948,-1702.473667,11103.089130
361.772053,-2145.067394,-2590.720797,11843.295072
361.772361,-2911.162892,-3182.885551,12361.439231
361.772669,-2528.115143,-1924.535449,11251.130318
361.772977,0.000000,-814.226536,10658.965565
361.773285,689.485948,592.164754,7994.224174
361.773592,2298.286494,444.123565,7550.100608
361.773900,1762.019645,-0.000000,7698.141797
361.774208,766.095498,444.123565,7994.224174
361.774516,612.876398,1184.329507,9474.636058
361.774824,689.485948,888.247130,8882.471304
361.775132,1149.143247,1924.535449,9178.553681
361.775440,2451.505594,1924.535449,9400.615463
361.775748,3140.991542,1332.370696,8956.491898
361.776056,2068.457845,814.226536,8956.491898
361.776364,1225.752797,-444.123565,9548.656652
361.776672,-842.705048,-1850.514855,10881.027347
361.776980,-2068.457845,-2442.679609,11917.315666
361.777288,-1608.800546,-1998.556043,11843.295072
361.777596,-995.924147,-370.102971,10288.862594
361.777904,1072.533697,148.041188,9548.656652
361.778212,2528.115143,370.102971,7254.018232
361.778520,1991.848295,666.185348,7402.059420
361.778828,1149.143247,-0.000000,8808.450710
361.779136,689.485948,444.123565,9326.594869
361.779444,0.000000,1332.370696,10140.821405
361.779752,612.876398,1258.350101,9992.780217
361.780060,2068.457845,2220.617826,9474.636058
361.780368,2528.115143,2368.659014,8734.430116
361.780676,2911.162892,1406.391290,9104.533087
361.780984,1991.848295,222.061783,9104.533087
361.781292,0.000000,-444.123565,9992.780217
361.781600,-1072.533697,-2072.576638,12435.459826
361.781908,-1991.848295,-1110.308913,11325.150913
361.782216,-1072.533697,-962.267725,11547.212695
361.782524,459.657299,-0.000000,9326.594869
361.782832,2145.067394,370.102971,7772.162391
361.783140,1302.362347,740.205942,7698.141797
361.783448,766.095498,518.144159,8142.265362
361.783756,0.000000,1036.288319,9992.780217
361.784064,-306.438199,666.185348,10288.862594
361.784372,0.000000,1110.308913,10584.944971
361.784680,842.705048,1258.350101,9992.780217
361.784988,1991.848295,1702.473667,9474.636058
361.785296,2528.115143,1332.370696,8438.347739
361.785604,1991.848295,444.123565,7624.121203
361.785912,536.266849,-1110.308913,11029.068536
361.786220,-1378.971896,-2294.638420,11547.212695
361.786528,-1915.238745,-2368.659014,11769.274478
361.786836,-1915.238745,-1554.432478,10732.986159
361.787144,0.000000,-814.226536,9770.718434
361.787452,612.876398,-222.061783,8586.388927
361.787760,1685.410096,-0.000000,7994.224174
361.788068,689.485948,1036.288319,7328.038826
361.788376,766.095498,962.267725,8142.265362
361.788684,689.485948,962.267725,9992.780217
361.788992,612.876398,1702.473667,8734.430116
361.789300,2068.457845,2368.659014,9104.533087
361.789608,3064.381992,2368.659014,8512.368333
361.789916,3370.820191,2072.576638,7920.203579
361.790224,2451.505594,592.164754,8956.491898
361.790532,1072.533697,-592.164754,9696.697840
361.790840,-766.095498,-2220.617826,11473.192101
361.791148,-2298.286494,-2516.700203,12361.439231
361.791456,-1838.629195,-2368.659014,11769.274478
361.791764,-536.266849,-1850.514855,11103.089130
361.792072,153.219100,-518.144159,9474.636058
361.792380,459.657299,-222.061783,8956.491898
361.792688,612.876398,592.164754,8808.450710
361.792996,0.000000,370.102971,9474.636058
361.793304,229.828649,2072.576638,9844.739029
361.793612,919.314598,2146.597232,10510.924376
361.793920,1991.848295,2960.823768,9474.636058
361.794228,2221.676944,3404.947333,8142.265362
361.794536,2911.162892,2960.823768,8290.306550
361.794844,2911.162892,518.144159,9104.533087
361.795152,306.438199,296.082377,9474.636058
361.795460,-306.438199,-2886.803174,12805.562797
361.795768,-2911.162892,-3256.906145,11991.336260
361.796076,-2757.943793,-2960.823768,13175.665768
361.796384,-1532.190996,-2146.597232,12139.377449
361.796692,229.828649,-666.185348,9326.594869
361.797000,1072.533697,-0.000000,8808.450710
361.797308,2374.896044,888.247130,6439.791695
361.797616,2681.334243,1702.473667,7105.977043
361.797924,1072.533697,2294.638420,7846.182985
361.798232,1991.848295,2294.638420,8364.327145
361.798540,2221.676944,2664.741391,9326.594869
361.798848,2221.676944,2368.659014,9104.533087
361.799156,3140.991542,2146.597232,8216.285956
361.799464,2068.457845,1110.308913,8068.244768
361.799772,1225.752797,-1036.288319,10288.862594
361.800080,-1225.752797,-2146.597232,10732.986159
361.800387,-1532.190996,-2664.741391,12435.459826
361.800695,-2451.505594,-3330.926739,13175.665768
361.801003,-1532.190996,-1406.391290,10066.800811
361.801311,306.438199,-740.205942,10288.862594
361.801619,1762.019645,-148.041188,8660.409521
361.801927,1762.019645,962.267725,7179.997637
361.802235,1762.019645,1184.329507,7994.224174
361.802543,1149.143247,888.247130,9400.615463
361.802851,689.485948,1480.411884,9030.512492
361.803159,383.047749,1258.350101,10288.862594
361.803467,1838.629195,1110.308913,10288.862594
361.803775,2298.286494,1850.514855,8882.471304
361.804083,2681.334243,1184.329507,9104.533087
361.804391,1762.019645,-0.000000,8956.491898
361.804699,536.266849,-814.226536,10140.821405
361.805007,-306.438199,-1924.535449,11547.212695
361.805315,-1608.800546,-1628.453072,11251.130318
361.805623,-995.924147,-1628.453072,10955.047942
361.805931,-306.438199,-222.061783,9770.718434
361.806239,766.095498,518.144159,9178.553681
361.806547,995.924147,222.061783,7920.203579
361.806855,1302.362347,962.267725,7772.162391
361.807163,0.000000,740.205942,9252.574275
361.807471,0.000000,814.226536,9548.656652
361.807779,229.828649,1998.556043,9918.759623
361.808087,0.000000,1702.473667,11177.109724
361.808395,1455.581446,1702.473667,8808.450710
361.808703,2374.896044,1258.350101,9252.574275
361.809011,1838.629195,-0.000000,9326.594869
361.809319,383.047749,-740.205942,8734.430116
361.809627,-612.876398,-1628.453072,11325.150913
361.809935,-1225.752797,-1776.494261,12139.377449
361.810243,-1149.143247,-1628.453072,10807.006753
361.810551,76.609550,-148.041188,10140.821405
361.810859,1608.800546,-222.061783,8290.306550
361.811167,1762.019645,1110.308913,6291.750507
361.811475,2374.896044,592.164754,7772.162391
361.811783,1915.238745,888.247130,8290.306550
361.812091,229.828649,666.185348,8438.347739
361.812399,229.828649,-0.000000,10362.883188
361.812707,919.314598,962.267725,10140.821405
361.813015,1762.019645,1332.370696,9770.718434
361.813323,2145.067394,1184.329507,9844.739029
361.813631,2221.676944,148.041188,9622.677246
361.813939,842.705048,-444.123565,9474.636058
361.814247,-306.438199,-1776.494261,11473.192101
361.814555,-1915.238745,-1554.432478,11769.274478
361.814863,-1762.019645,-1702.473667,11843.295072
361.815171,-229.828649,-740.205942,10881.027347
361.815479,-459.657299,888.247130,8512.368333
361.815787,2068.457845,-0.000000,8956.491898
361.816095,995.924147,1110.308913,7254.018232
361.816403,919.314598,1480.411884,7772.162391
361.816711,459.657299,296.082377,9326.594869
361.817019,-459.657299,1702.473667,9844.739029
361.817327,153.219100,1480.411884,10362.883188
361.817635,2145.067394,1998.556043,9622.677246
361.817943,2987.772442,2220.617826,9104.533087
361.818251,1991.848295,962.267725,7846.182985
361.818558,2298.286494,-0.000000,8808.450710
361.818866,229.828649,-444.123565,9992.780217
361.819174,-766.095498,-1850.514855,11177.109724
361.819482,-1455.581446,-1480.411884,11621.233289
361.819790,-1378.971896,-1258.350101,11325.150913
361.820098,-383.047749,-740.205942,9918.759623
361.820406,153.219100,-0.000000,8808.450710
361.820714,612.876398,518.144159,8808.450710
361.821022,229.828649,-0.000000,8808.450710
361.821330,-383.047749,296.082377,9178.553681
361.821638,-459.657299,148.041188,10288.862594
361.821946,-229.828649,1110.308913,9992.780217
361.822254,842.705048,1776.494261,9770.718434
361.822562,2834.553343,1702.473667,9992.780217
361.822870,3294.210641,962.267725,8660.409521
361.823178,2145.067394,1258.350101,8660.409521
361.823486,2068.457845,-370.102971,9622.677246
361.823793,0.000000,-518.144159,9918.759623
361.824101,-459.657299,-1554.432478,10955.047942
361.824409,0.000000,-1036.288319,9622.677246
361.824717,689.485948,-592.164754,9918.759623
361.825025,1685.410096,-222.061783,9030.512492
361.825333,2451.505594,-0.000000,7402.059420
361.825641,1225.752797,592.164754,8586.388927
361.825949,536.266849,222.061783,8956.491898
361.826257,0.000000,666.185348,10140.821405
361.826565,0.000000,1628.453072,9844.739029
361.826873,1685.410096,1924.535449,9770.718434
361.827181,2604.724693,2368.659014,9104.533087
361.827489,2681.334243,1924.535449,8808.450710
361.827797,2145.067394,444.123565,9178.553681
361.828105,766.095498,-444.123565,9622.677246
361.828413,0.000000,-1406.391290,11843.295072
361.828721,-1532.190996,-2516.700203,11991.336260
361.829028,-1378.971896,-1924.535449,11769.274478
361.829336,-1072.533697,-2220.617826,10658.965565
361.829644,229.828649,-962.267725,9474.636058
361.829952,1838.629195,-0.000000,8586.388927
361.830260,1378.971896,666.185348,7105.977043
361.830568,766.095498,370.102971,8438.347739
361.830876,153.219100,814.226536,9252.574275
361.831184,-229.828649,1702.473667,9474.636058
361.831492,76.609550,2886.803174,9918.759623
361.831800,2528.115143,2368.659014,9178.553681
361.832108,2298.286494,2812.782580,8512.368333
361.832416,995.924147,962.267725,9326.594869
361.832724,1072.533697,-0.000000,10214.842000
361.833032,-1532.190996,-1406.391290,10881.027347
361.833340,-1991.848295,-2442.679609,12805.562797
361.833648,-1302.362347,-2294.638420,11621.233289
361.833956,-1608.800546,-888.247130,9474.636058
361.834264,306.438199,-370.102971,10066.800811
361.834571,1455.581446,-0.000000,7846.182985
361.834879,1149.143247,1702.473667,7402.059420
361.835187,1532.190996,444.123565,8438.347739
361.835495,766.095498,962.267725,7846.182985
361.835803,-1302.362347,1554.432478,9474.636058
361.836111,1378.971896,1480.411884,10881.027347
361.836419,1072.533697,2220.617826,9030.512492
361.836727,1608.800546,2146.597232,10140.821405
361.837035,2757.943793,-222.061783,10066.800811
361.837343,995.924147,-74.020594,9104.533087
361.837651,-306.438199,-2368.659014,11695.253884
361.837959,-1149.143247,-3404.947333,11843.295072
361.838267,-2374.896044,-2516.700203,11547.212695
361.838575,-1838.629195,-2960.823768,11843.295072
361.838883,-459.657299,-666.185348,9474.636058
361.839191,1608.800546,444.123565,9696.697840
361.839499,2528.115143,888.247130,6883.915261
361.839806,2374.896044,1110.308913,6587.832884
361.840114,2221.676944,814.226536,8364.327145
361.840422,383.047749,1776.494261,8512.368333
361.840730,995.924147,2368.659014,9400.615463
361.841038,2068.457845,2516.700203,9252.574275
361.841346,1532.190996,1628.453072,9474.636058
361.841654,2298.286494,592.164754,9474.636058
361.841962,995.924147,-74.020594,9474.636058
361.842270,-689.485948,-1628.453072,11251.130318
361.842578,-1149.143247,-2516.700203,12139.377449
361.842886,-2145.067394,-2590.720797,12065.356855
361.843194,-1915.238745,-2294.638420,11695.253884
361.843502,0.000000,-0.000000,9474.636058
361.843810,1685.410096,1332.370696,8808.450710
361.844118,2068.457845,1480.411884,7254.018232
361.844426,2451.505594,2146.597232,6809.894666
361.844734,1838.629195,2368.659014,7624.121203
361.845041,1149.143247,2368.659014,8586.388927
361.845349,0.000000,3478.967927,7920.203579
361.845657,1072.533697,3552.988522,8586.388927
361.845965,1302.362347,2516.700203,9696.697840
361.846273,766.095498,1258.350101,9474.636058
361.846581,0.000000,-74.020594,9992.780217
361.846889,-1302.362347,-1924.535449,11917.315666
361.847197,-3064.381992,-3478.967927,13249.686362
361.847505,-4136.915689,-3849.070898,13027.624579
361.847813,-3983.696590,-3108.864956,13175.665768
361.848121,-2451.505594,-2368.659014,10955.047942
361.848429,-536.266849,296.082377,8586.388927
361.848737,1149.143247,1258.350101,8290.306550
361.849045,1685.410096,1406.391290,6883.915261
361.849353,1378.971896,1924.535449,6587.832884
361.849661,76.609550,2146.597232,7772.162391
361.849969,-306.438199,2368.659014,8438.347739
361.850277,-842.705048,2294.638420,9696.697840
361.850584,-842.705048,1924.535449,9844.739029
361.850892,-153.219100,1184.329507,9696.697840
361.851200,-612.876398,518.144159,9252.574275
361.851508,-1225.752797,-1184.329507,10436.903782
361.851816,-3217.601092,-2590.720797,11917.315666
361.852124,-4136.915689,-4293.194464,13027.624579
361.852432,-4903.011187,-4219.173869,13545.768739
361.852740,-4060.306139,-3330.926739,11843.295072
361.853048,-2374.896044,-1184.329507,10140.821405
361.853356,-689.485948,740.205942,8956.491898
361.853664,2145.067394,1924.535449,7105.977043
361.853972,2145.067394,2368.659014,5847.626942
361.854280,1302.362347,1998.556043,5995.668130
361.854588,842.705048,2146.597232,6439.791695
361.854896,-459.657299,3108.864956,7624.121203
361.855204,-459.657299,2368.659014,9400.615463
361.855512,-1149.143247,2146.597232,8734.430116
361.855819,-1149.143247,2812.782580,9548.656652
361.856127,-689.485948,1184.329507,9918.759623
361.856435,-1302.362347,-0.000000,9844.739029
361.856743,-3370.820191,-2368.659014,11843.295072
361.857051,-4519.963438,-4959.379811,13249.686362
361.857359,-6511.811733,-4811.338623,13323.706956
361.857667,-5286.058936,-3923.091493,13471.748144
361.857975,-3600.648841,-1998.556043,11103.089130
361.858283,-1838.629195,888.247130,9252.574275
361.858591,1072.533697,1998.556043,8142.265362
361.858899,2068.457845,2664.741391,6365.771101
361.859207,1532.190996,3108.864956,5551.544565
361.859515,-229.828649,1406.391290,6587.832884
361.859823,-459.657299,814.226536,8660.409521
361.860131,-1685.410096,148.041188,9918.759623
361.860439,-2987.772442,740.205942,9548.656652
361.860747,-1915.238745,1480.411884,9992.780217
361.861054,-459.657299,2516.700203,9104.533087
361.861362,153.219100,2960.823768,8586.388927
361.861670,536.266849,1480.411884,8586.388927
361.861978,-1149.143247,-592.164754,9178.553681
361.862286,-3140.991542,-2146.597232,11695.253884
361.862594,-4673.182538,-3478.967927,13397.727550
361.862902,-5286.058936,-4145.153275,13841.851115
361.863210,-5822.325785,-2738.761985,12805.562797
361.863518,-4443.353888,-1184.329507,11473.192101
361.863826,-2911.162892,148.041188,9474.636058
361.864134,-1149.143247,1258.350101,8216.285956
361.864442,-995.924147,1406.391290,7328.038826
361.864750,-1149.143247,1776.494261,7476.080014
361.865058,-1762.019645,592.164754,8586.388927
361.865366,-3064.381992,-518.144159,9696.697840
361.865674,-2834.553343,-222.061783,10807.006753
361.865982,-2451.505594,-0.000000,10288.862594
361.866290,-1915.238745,814.226536,9992.780217
361.866597,-842.705048,2146.597232,8512.368333
361.866905,919.314598,3849.070898,7846.182985
361.867213,1685.410096,3627.009116,6957.935855
361.867521,1149.143247,3923.091493,6291.750507
361.867829,229.828649,1850.514855,8142.265362
361.868137,-1455.581446,-222.061783,9770.718434
361.868445,-3370.820191,-1850.514855,11325.150913
361.868753,-4979.620737,-3552.988522,12361.439231
361.869061,-5439.278036,-3256.906145,12879.583391
361.869369,-6358.592633,-2812.782580,13027.624579
361.869677,-5515.887586,-1628.453072,11473.192101
361.869985,-4213.525239,148.041188,10510.924376
361.870293,-2757.943793,1036.288319,9104.533087
361.870601,-1762.019645,2146.597232,7994.224174
361.870909,-1225.752797,2220.617826,7920.203579
361.871217,-612.876398,1554.432478,8808.450710
361.871525,-1225.752797,444.123565,9326.594869
361.871832,-2451.505594,-222.061783,10066.800811
361.872140,-3140.991542,-1258.350101,10658.965565
361.872448,-2528.115143,-1406.391290,10955.047942
361.872756,-4213.525239,-592.164754,9030.512492
361.873064,-1991.848295,-148.041188,10436.903782
361.873372,-919.314598,814.226536,8882.471304
361.873680,-383.047749,2368.659014,5995.668130
361.873988,1685.410096,2442.679609,6661.853478
361.874296,1915.238745,2738.761985,5403.503377
361.874604,76.609550,1628.453072,7550.100608
361.874912,-2221.676944,-0.000000,9104.533087
361.875220,-4443.353888,-2146.597232,11177.109724
361.875528,-6818.249932,-3404.947333,13619.789333
361.875836,-8044.002729,-4145.153275,14582.057057
361.876144,-7967.393179,-3552.988522,14952.160028
361.876452,-6971.469032,-2886.803174,13471.748144
361.876760,-4979.620737,-518.144159,11547.212695
361.877067,-2834.553343,1554.432478,8956.491898
361.877375,-536.266849,3182.885551,7550.100608
361.877683,459.657299,3923.091493,6439.791695
361.877991,1149.143247,4663.297435,4737.318029
361.878299,919.314598,3330.926739,6439.791695
361.878607,-383.047749,2368.659014,7105.977043
361.878915,-2221.676944,888.247130,8364.327145
361.879223,-3447.429741,-1480.411884,11473.192101
361.879531,-5132.839837,-3256.906145,12583.501014
361.879839,-5515.887586,-3849.070898,12953.603985
361.880147,-4290.134789,-3923.091493,13471.748144
361.880455,-2681.334243,-2368.659014,11695.253884
361.880763,-306.438199,-296.082377,9548.656652
361.881071,919.314598,2368.659014,7550.100608
361.881379,2068.457845,4367.215058,5773.606348
361.881687,2911.162892,6217.729913,4515.256246
361.881995,2604.724693,6587.832884,4811.338623
361.882303,1225.752797,5921.647536,6217.729913
361.882610,-1455.581446,3849.070898,8068.244768
361.882918,-3217.601092,592.164754,11695.253884
361.883226,-7584.345430,-2368.659014,13545.768739
361.883534,-10342.289223,-5625.565159,16136.489536
361.883842,-10342.289223,-7624.121203,18357.107362
361.884150,-9806.022374,-7179.997637,16728.654289
361.884458,-7967.393179,-6217.729913,15618.345376
361.884766,-4826.401637,-4737.318029,13397.727550
361.885074,-1608.800546,-2368.659014,9844.739029
361.885382,0.000000,888.247130,5995.668130
361.885690,3370.820191,3108.864956,5995.668130
361.885998,5132.839837,5329.482782,4959.379811
361.886306,5209.449386,7624.121203,2072.576638
361.886614,4826.401637,8142.265362,2516.700203
361.886922,4136.915689,6661.853478,3775.050304
361.887230,1532.190996,4589.276840,7031.956449
361.887538,-2145.067394,2442.679609,8882.471304
361.887845,-4903.011187,-740.205942,12361.439231
361.888153,-6281.983084,-3034.844362,13545.768739
361.888461,-7354.516781,-3330.926739,13323.706956
361.888769,-6741.640382,-3552.988522,13175.665768
361.889077,-5745.716235,-4441.235652,13101.645173
361.889385,-4366.744339,-2960.823768,11103.089130
361.889693,-3753.867940,-666.185348,8660.409521
361.890001,-1838.629195,-0.000000,9104.533087
361.890309,-536.266849,1036.288319,7994.224174
361.890617,-383.047749,2886.803174,7476.080014
361.890925,612.876398,1628.453072,7698.141797
361.891233,-383.047749,1184.329507,8290.306550
361.891541,-306.438199,888.247130,9400.615463
361.891849,-1225.752797,222.061783,9474.636058
361.892157,-1915.238745,-1036.288319,10658.965565
361.892465,-2451.505594,-1554.432478,10510.924376
361.892773,-1915.238745,-1036.288319,9548.656652
361.893080,-1532.190996,-370.102971,8882.471304
361.893388,-1072.533697,148.041188,7772.162391
361.893696,-612.876398,740.205942,7698.141797
361.894004,-842.705048,1258.350101,8068.244768
361.894312,-1378.971896,814.226536,8808.450710
361.894620,-2451.505594,1850.514855,8882.471304
361.894928,-3447.429741,1036.288319,10658.965565
361.895236,-4213.525239,-0.000000,11473.192101
361.895544,-6281.983084,-74.020594,11917.315666
361.895852,-6818.249932,-1628.453072,13397.727550
361.896160,-7354.516781,-2294.638420,13471.748144
361.896468,-7354.516781,-2442.679609,13619.789333
361.896776,-6205.373534,-1998.556043,12805.562797
361.897084,-4826.401637,-1406.391290,11399.171507
361.897392,-3370.820191,-740.205942,10288.862594
361.897700,-1532.190996,-74.020594,8734.430116
361.898008,229.828649,962.267725,7254.018232
361.898316,1378.971896,1924.535449,6143.709319
361.898623,1455.581446,2516.700203,5995.668130
361.898931,1149.143247,2516.700203,6661.853478
361.899239,689.485948,1924.535449,7402.059420
361.899547,-459.657299,1850.514855,8216.285956
361.899855,-1149.143247,1332.370696,9252.574275
361.900163,-1608.800546,-0.000000,9992.780217
361.900471,-3064.381992,-370.102971,10362.883188
361.900779,-2681.334243,-0.000000,11029.068536
361.901087,-2681.334243,-222.061783,10732.986159
361.901395,-1838.629195,-222.061783,10214.842000
361.901703,-1838.629195,148.041188,9844.739029
361.902011,-1608.800546,-74.020594,9696.697840
361.902319,-1532.190996,-0.000000,9622.677246
361.902627,-1149.143247,148.041188,9770.718434
361.902935,-1685.410096,222.061783,9696.697840
361.903243,-1915.238745,296.082377,10066.800811
361.903551,-2068.457845,-0.000000,10288.862594
361.903858,-2834.553343,-0.000000,10436.903782
361.904166,-2451.505594,-0.000000,10584.944971
361.904474,-2451.505594,-0.000000,10288.862594
361.904782,-2528.115143,222.061783,10362.883188
361.905090,-1762.019645,370.102971,9622.677246
361.905398,-1608.800546,370.102971,9252.574275
361.905706,-1378.971896,814.226536,9030.512492
361.906014,-766.095498,740.205942,8438.347739
361.906322,-842.705048,1406.391290,8586.388927
361.906630,-919.314598,1480.411884,8216.285956
361.906938,-766.095498,1332.370696,8438.347739
361.907246,-1608.800546,962.267725,8660.409521
361.907554,-1685.410096,666.185348,9326.594869
361.907862,-3140.991542,-148.041188,9548.656652
361.908170,-3524.039291,-444.123565,10140.821405
361.908478,-4366.744339,-1036.288319,10732.986159
361.908786,-3907.087040,-1258.350101,11029.068536
361.909093,-4136.915689,-1332.370696,10584.944971
361.909401,-3600.648841,-962.267725,10214.842000
361.909709,-3294.210641,-740.205942,10214.842000
361.910017,-2298.286494,-1036.288319,9918.759623
361.910325,-1838.629195,-814.226536,9844.739029
361.910633,-1991.848295,-814.226536,9104.533087
361.910941,-1838.629195,-518.144159,9178.553681
361.911249,-1072.533697,-296.082377,9178.553681
361.911557,-919.314598,-222.061783,9104.533087
361.911865,-536.266849,-0.000000,8734.430116
361.912173,-536.266849,666.185348,8290.306550
361.912481,153.219100,740.205942,8216.285956
361.912789,306.438199,1480.411884,8216.285956
361.913097,536.266849,1850.514855,7920.203579
361.913405,536.266849,1702.473667,7624.121203
361.913713,-383.047749,1554.432478,7920.203579
361.914021,-995.924147,962.267725,8956.491898
361.914329,-2221.676944,518.144159,10066.800811
361.914636,-2987.772442,222.061783,10658.965565
361.914944,-3524.039291,-148.041188,10807.006753
361.915252,-3753.867940,-0.000000,11399.171507
361.915560,-3983.696590,-0.000000,11843.295072
361.915868,-4136.915689,296.082377,11399.171507
361.916176,-4060.306139,370.102971,11325.150913
361.916484,-3370.820191,370.102971,11029.068536
361.916792,-3447.429741,370.102971,10436.903782
361.917100,-3294.210641,592.164754,10288.862594
361.917408,-3294.210641,444.123565,10066.800811
361.917716,-2757.943793,1110.308913,9548.656652
361.918024,-2911.162892,1184.329507,9104.533087
361.918332,-2221.676944,1036.288319,9400.615463
361.918640,-2834.553343,962.267725,8882.471304
361.918947,-3217.601092,962.267725,8956.491898
361.919255,-3524.039291,666.185348,9548.656652
361.919563,-3907.087040,296.082377,9548.656652
361.919871,-3677.258390,-74.020594,9844.739029
361.920179,-3983.696590,-222.061783,10288.862594
361.920487,-3830.477490,-518.144159,9696.697840
361.920795,-4060.306139,-370.102971,9696.697840
361.921103,-3830.477490,-666.185348,9474.636058
361.921411,-3753.867940,-518.144159,9548.656652
361.921719,-4060.306139,-518.144159,9474.636058
361.922027,-3830.477490,-518.144159,9548.656652
361.922335,-3830.477490,-740.205942,9474.636058
361.922643,-3600.648841,-1036.288319,9474.636058
361.922950,-3600.648841,-962.267725,9918.759623
361.923258,-4213.525239,-1554.432478,10288.862594
361.923566,-3140.991542,-1110.308913,10436.903782
361.923874,-2834.553343,-1406.391290,10584.944971
361.924182,-2681.334243,-1406.391290,10732.986159
361.924490,-2374.896044,-1480.411884,10214.842000
361.924798,-1378.971896,-1258.350101,9918.759623
361.925106,-766.095498,-370.102971,9104.533087
361.925414,1072.533697,-0.000000,8364.327145
361.925722,689.485948,1406.391290,7698.141797
361.926030,1455.581446,2072.576638,7105.977043
361.926338,1685.410096,2664.741391,6587.832884
361.926646,1378.971896,2738.761985,6735.874072
361.926954,1225.752797,3034.844362,7031.956449
361.927261,-153.219100,3330.926739,6661.853478
361.927569,0.000000,2220.617826,9326.594869
361.927877,-1685.410096,2220.617826,9104.533087
361.928185,-3064.381992,1406.391290,10066.800811
361.928493,-3294.210641,518.144159,11843.295072
361.928801,-4060.306139,74.020594,11695.253884
361.929109,-4903.011187,-888.247130,12509.480420
361.929417,-5209.449386,-1258.350101,12435.459826
361.929725,-4903.011187,-1776.494261,13471.748144
361.930033,-4979.620737,-1924.535449,12139.377449
361.930341,-4443.353888,-1850.514855,11769.274478
361.930649,-3524.039291,-888.247130,12287.418637
361.930957,-3524.039291,-1258.350101,10510.924376
361.931265,-2221.676944,-222.061783,10066.800811
361.931572,-1149.143247,-0.000000,9104.533087
361.931880,-919.314598,370.102971,8734.430116
361.932188,-995.924147,962.267725,7846.182985
361.932496,536.266849,1480.411884,7476.080014
361.932804,1302.362347,1332.370696,7994.224174
361.933112,536.266849,2516.700203,6587.832884
361.933420,842.705048,2812.782580,6809.894666
361.933728,536.266849,3034.844362,7031.956449
361.934036,0.000000,2960.823768,7550.100608
361.934344,-1225.752797,2146.597232,8586.388927
361.934652,-2451.505594,888.247130,9918.759623
361.934960,-4826.401637,148.041188,10584.944971
361.935268,-4519.963438,-666.185348,11917.315666
361.935576,-5515.887586,-2368.659014,12583.501014
361.935883,-6588.421283,-2442.679609,11917.315666
361.936191,-6128.763984,-3108.864956,13027.624579
361.936499,-5669.106685,-2886.803174,12213.398043
361.936807,-5132.839837,-2960.823768,12139.377449
361.937115,-3983.696590,-2368.659014,11843.295072
361.937423,-2374.896044,-1628.453072,10436.903782
361.937731,-1915.238745,-370.102971,8956.491898
361.938039,0.000000,1036.288319,7772.162391
361.938347,1685.410096,3256.906145,6069.688724
361.938655,2757.943793,4663.297435,4811.338623
361.938963,3370.820191,5033.400406,4441.235652
361.939271,2451.505594,5255.462188,3775.050304
361.939579,2221.676944,3923.091493,5995.668130
361.939886,689.485948,2664.741391,7846.182985
361.940194,-2374.896044,370.102971,8808.450710
361.940502,-3830.477490,-1258.350101,11473.192101
361.940810,-5898.935335,-3775.050304,13249.686362
361.941118,-7431.126331,-5107.421000,13915.871710
361.941426,-7354.516781,-6291.750507,14804.118840
361.941734,-7124.688131,-5773.606348,14508.036463
361.942042,-5975.544884,-4589.276840,13027.624579
361.942350,-4596.572988,-1628.453072,11695.253884
361.942658,-1072.533697,370.102971,9400.615463
361.942966,153.219100,3701.029710,6957.935855
361.943274,2374.896044,6291.750507,5403.503377
361.943582,3600.648841,6735.874072,4071.132681
361.943890,2681.334243,6513.812290,4441.235652
361.944197,766.095498,4367.215058,6587.832884
361.944505,-1685.410096,1480.411884,9474.636058
361.944813,-5286.058936,-2146.597232,12287.418637
361.945121,-7507.735880,-5033.400406,14656.077652
361.945429,-7890.783629,-6513.812290,14434.015869
361.945737,-8810.098227,-6587.832884,14359.995275
361.946045,-6818.249932,-5403.503377,13693.809927
361.946353,-4290.134789,-2294.638420,10288.862594
361.946661,-1378.971896,1036.288319,8142.265362
361.946969,1532.190996,3775.050304,6069.688724
361.947277,3524.039291,6735.874072,3775.050304
361.947585,5286.058936,7920.203579,3256.906145
361.947893,5209.449386,8142.265362,3701.029710
361.948201,2451.505594,7179.997637,4737.318029
361.948508,-153.219100,2516.700203,9696.697840
361.948816,-3830.477490,-962.267725,13249.686362
361.949124,-7660.954980,-4219.173869,15544.324782
361.949432,-9959.241474,-7254.018232,17468.860231
361.949740,-10648.727422,-7402.059420,17394.839637
361.950048,-9116.536426,-6439.791695,16802.674883
361.950356,-5439.278036,-3034.844362,12879.583391
361.950664,-1608.800546,1036.288319,8142.265362
361.950972,689.485948,2590.720797,5699.585753
361.951280,2451.505594,4737.318029,5033.400406
361.951588,3447.429741,6735.874072,3923.091493
361.951896,2374.896044,5329.482782,5699.585753
361.952204,0.000000,3552.988522,7105.977043
361.952512,-2987.772442,1850.514855,8734.430116
361.952819,-5822.325785,-592.164754,12287.418637
361.953127,-7354.516781,-2294.638420,13767.830521
361.953435,-8120.612279,-3034.844362,13841.851115
361.953743,-6971.469032,-2220.617826,13249.686362
361.954051,-4213.525239,-814.226536,10732.986159
361.954359,-995.924147,1110.308913,8734.430116
361.954667,1915.238745,888.247130,7328.038826
361.954975,3140.991542,-0.000000,6217.729913
361.955283,2451.505594,222.061783,6735.874072
361.955591,1072.533697,444.123565,7328.038826
361.955899,-919.314598,296.082377,7994.224174
361.956207,-2145.067394,444.123565,9696.697840
361.956515,-1915.238745,888.247130,9770.718434
361.956822,-2451.505594,1036.288319,10140.821405
361.957130,-2834.553343,370.102971,9770.718434
361.957438,-3447.429741,-518.144159,10362.883188
361.957746,-2681.334243,-2294.638420,12139.377449
361.958054,-5669.106685,-3330.926739,11177.109724
361.958362,-4673.182538,-4515.256246,13545.768739
361.958670,-4903.011187,-3997.112087,9844.739029
361.958978,-4290.134789,-1110.308913,10658.965565
361.959286,-536.266849,-888.247130,10584.944971
361.959594,1378.971896,3182.885551,5403.503377
361.959902,2145.067394,3849.070898,6735.874072
361.960210,4519.963438,4811.338623,4589.276840
361.960518,3753.867940,4145.153275,6069.688724
361.960826,2068.457845,1554.432478,8660.409521
361.961133,0.000000,-592.164754,8216.285956
361.961441,-1302.362347,-1110.308913,11325.150913
361.961749,-3294.210641,-2886.803174,12731.542202
361.962057,-4136.915689,-1776.494261,12731.542202
361.962365,-1685.410096,-370.102971,11695.253884
361.962673,-919.314598,296.082377,9326.594869
361.962981,-383.047749,370.102971,8512.368333
361.963289,0.000000,-814.226536,9178.553681
361.963597,-1302.362347,-740.205942,10362.883188
361.963905,-2451.505594,-0.000000,9696.697840
361.964213,-1149.143247,666.185348,8882.471304
361.964521,-1149.143247,2516.700203,10881.027347
361.964829,0.000000,3108.864956,9326.594869
361.965137,612.876398,4293.194464,7402.059420
361.965444,995.924147,3775.050304,8586.388927
361.965752,1149.143247,1776.494261,8956.491898
361.966060,-459.657299,222.061783,11103.089130
361.966368,-1838.629195,-1628.453072,12139.377449
361.966676,-2374.896044,-1998.556043,11325.150913
361.966984,-1608.800546,-1036.288319,10584.944971
361.967292,-536.266849,-148.041188,11103.089130
361.967600,612.876398,296.082377,9178.553681
361.967908,1455.581446,-0.000000,7994.224174
361.968216,1149.143247,-74.020594,7698.141797
361.968524,-383.047749,-1406.391290,9252.574275
361.968832,-2528.115143,-2072.576638,11251.130318
361.969140,-3217.601092,-1628.453072,11843.295072
361.969448,-2298.286494,296.082377,11251.130318
361.969755,-383.047749,1850.514855,9918.759623
361.970063,919.314598,3404.947333,7994.224174
361.970371,3064.381992,4071.132681,7179.997637
361.970679,3907.087040,2368.659014,8216.285956
361.970987,1915.238745,814.226536,8734.430116
361.971295,-306.438199,-1258.350101,9918.759623
361.971603,-1915.238745,-2146.597232,11695.253884
361.971911,-1991.848295,-2294.638420,12139.377449
361.972219,-1302.362347,-1184.329507,10955.047942
361.972527,306.438199,-592.164754,10807.006753
361.972835,1762.019645,-814.226536,9400.615463
361.973143,1455.581446,-888.247130,7772.162391
361.973451,1149.143247,-592.164754,9030.512492
361.973758,306.438199,-1332.370696,9474.636058
361.974066,-1072.533697,-814.226536,10584.944971
361.974374,-689.485948,1036.288319,9696.697840
361.974682,689.485948,2664.741391,8882.471304
361.974990,2911.162892,4367.215058,7550.100608
361.975298,3983.696590,4663.297435,6587.832884
361.975606,3907.087040,3552.988522,7550.100608
361.975914,1378.971896,1110.308913,9252.574275
361.976222,-766.095498,-1258.350101,10436.903782
361.976530,-3370.820191,-2220.617826,12657.521608
361.976838,-3294.210641,-2960.823768,13175.665768
361.977146,-2911.162892,-1924.535449,12139.377449
361.977454,-689.485948,-1036.288319,11251.130318
361.977762,689.485948,-740.205942,9326.594869
361.978069,536.266849,-518.144159,8290.306550
361.978377,689.485948,-1258.350101,9474.636058
361.978685,-536.266849,-1480.411884,9178.553681
361.978993,-1378.971896,222.061783,9400.615463
361.979301,153.219100,1702.473667,9474.636058
361.979609,1302.362347,3108.864956,7402.059420
361.979917,2681.334243,3775.050304,7254.018232
361.980225,3064.381992,2664.741391,7550.100608
361.980533,1762.019645,1702.473667,8364.327145
361.980841,229.828649,-296.082377,10362.883188
361.981149,-1915.238745,-1184.329507,11843.295072
361.981457,-2834.553343,-2072.576638,12139.377449
361.981765,-1225.752797,-1258.350101,11843.295072
361.982073,-995.924147,-1036.288319,10955.047942
361.982380,689.485948,-1110.308913,9326.594869
361.982688,1378.971896,-1480.411884,8216.285956
361.982996,919.314598,-1702.473667,9474.636058
361.983304,-842.705048,-2146.597232,9548.656652
361.983612,-1455.581446,-1850.514855,10510.924376
361.983920,-689.485948,370.102971,10362.883188
361.984228,1455.581446,2220.617826,8438.347739
361.984536,3677.258390,3775.050304,7328.038826
361.984844,4519.963438,3701.029710,7031.956449
361.985152,3983.696590,2738.761985,7624.121203
361.985460,1991.848295,1406.391290,9326.594869
361.985768,229.828649,592.164754,10510.924376
361.986076,-995.924147,-0.000000,11325.150913
361.986384,-612.876398,-222.061783,11843.295072
361.986691,-459.657299,-444.123565,10955.047942
361.986999,2068.457845,-222.061783,9918.759623
361.987307,1378.971896,-814.226536,8956.491898
361.987615,153.219100,-1850.514855,9030.512492
361.987923,-306.438199,-1554.432478,9992.780217
361.988231,-1225.752797,-1480.411884,11251.130318
361.988539,-919.314598,-888.247130,10584.944971
361.988847,612.876398,1332.370696,8364.327145
361.989155,2911.162892,3108.864956,8956.491898
361.989463,4290.134789,3108.864956,7105.977043
361.989771,4213.525239,3330.926739,6957.935855
361.990079,2911.162892,1554.432478,9326.594869
361.990387,1225.752797,666.185348,9104.533087
361.990694,0.000000,148.041188,10584.944971
361.991002,-459.657299,-0.000000,11695.253884
361.991310,0.000000,-444.123565,10362.883188
361.991618,689.485948,-444.123565,9696.697840
361.991926,1378.971896,-1184.329507,9178.553681
361.992234,689.485948,-1998.556043,9252.574275
361.992542,-919.314598,-2368.659014,9918.759623
361.992850,-1378.971896,-2294.638420,11473.192101
361.993158,-1762.019645,-1554.432478,10066.800811
361.993466,-306.438199,888.247130,9400.615463
361.993774,2528.115143,2146.597232,9104.533087
361.994082,3524.039291,3034.844362,7328.038826
361.994390,4519.963438,3034.844362,7105.977043
361.994698,3907.087040,1480.411884,9252.574275
361.995005,306.438199,666.185348,7846.182985
361.995313,-842.705048,-592.164754,11843.295072
361.995621,153.219100,-888.247130,11843.295072
361.995929,-1072.533697,222.061783,10362.883188
361.996237,919.314598,-1776.494261,11769.274478
361.996545,1302.362347,-222.061783,8660.409521
361.996853,0.000000,-1776.494261,10140.821405
361.997161,-536.266849,-2220.617826,9844.739029
361.997469,-1608.800546,-1258.350101,10362.883188
361.997777,-1455.581446,-814.226536,11251.130318
361.998085,-459.657299,1406.391290,8956.491898
361.998393,2068.457845,2886.803174,8438.347739
361.998701,3907.087040,3182.885551,6957.935855
361.999009,4136.915689,4071.132681,6883.915261
361.999316,3830.477490,2738.761985,7105.977043
361.999624,1685.410096,740.205942,9474.636058
361.999932,-842.705048,-148.041188,11029.068536
362.000240,-1685.410096,-592.164754,12139.377449
362.000548,-1149.143247,-814.226536,12435.459826
362.000856,-229.828649,-1332.370696,10584.944971
362.001164,0.000000,-1406.391290,9474.636058
362.001472,536.266849,-1406.391290,10066.800811
362.001780,0.000000,-1702.473667,10214.842000
362.002088,-1149.143247,-1110.308913,10214.842000
362.002396,-1149.143247,-962.267725,10436.903782
362.002704,-229.828649,888.247130,8660.409521
362.003012,689.485948,2516.700203,9104.533087
362.003320,2987.772442,3552.988522,7105.977043
362.003627,4213.525239,4219.173869,6439.791695
362.003935,4519.963438,2590.720797,8660.409521
362.004243,2145.067394,962.267725,8290.306550
362.004551,153.219100,-0.000000,10362.883188
362.004859,-1378.971896,-1628.453072,11991.336260
362.005167,-2221.676944,-1776.494261,12065.356855
362.005475,-1302.362347,-1850.514855,12361.439231
362.005783,0.000000,-1924.535449,11029.068536
362.006091,612.876398,-2146.597232,9918.759623
362.006399,76.609550,-2368.659014,9474.636058
362.006707,-689.485948,-1850.514855,10436.903782
362.007015,-1149.143247,-1036.288319,10362.883188
362.007323,-383.047749,296.082377,9474.636058
362.007630,1378.971896,2220.617826,9030.512492
362.007938,3217.601092,3701.029710,6957.935855
362.008246,4749.792088,4145.153275,6809.894666
362.008554,4136.915689,2886.803174,7920.203579
362.008862,2145.067394,1258.350101,9030.512492
362.009170,-153.219100,-0.000000,10362.883188
362.009478,-1455.581446,-1036.288319,12139.377449
362.009786,-2145.067394,-1776.494261,11991.336260
362.010094,-1302.362347,-1406.391290,11399.171507
362.010402,229.828649,-962.267725,10066.800811
362.010710,919.314598,-1998.556043,9474.636058
362.011018,842.705048,-1332.370696,8882.471304
362.011326,306.438199,-1258.350101,9770.718434
362.011634,-536.266849,-518.144159,9548.656652
362.011941,-842.705048,-222.061783,9844.739029
362.012249,229.828649,1776.494261,9104.533087
362.012557,1762.019645,2664.741391,8216.285956
362.012865,3370.820191,4219.173869,6069.688724
362.013173,3983.696590,3330.926739,6957.935855
362.013481,2911.162892,1036.288319,8734.430116
362.013789,383.047749,148.041188,9400.615463
362.014097,-1149.143247,-962.267725,11399.171507
362.014405,-1915.238745,-1110.308913,11917.315666
362.014713,-995.924147,-1554.432478,11695.253884
362.015021,229.828649,-1036.288319,10658.965565
362.015329,1608.800546,-962.267725,9326.594869
362.015637,1991.848295,-1184.329507,8290.306550
362.015945,995.924147,-1628.453072,8142.265362
362.016252,459.657299,-1184.329507,9918.759623
362.016560,-306.438199,-814.226536,9474.636058
362.016868,0.000000,814.226536,9474.636058
362.017176,1685.410096,1924.535449,8660.409521
362.017484,2911.162892,3256.906145,6957.935855
362.017792,3830.477490,3182.885551,7550.100608
362.018100,3907.087040,1554.432478,7772.162391
362.018408,689.485948,370.102971,9918.759623
362.018716,-919.314598,-1406.391290,11251.130318
362.019024,-1838.629195,-1332.370696,12435.459826
362.019332,-1762.019645,-962.267725,12657.521608
362.019640,-766.095498,-1554.432478,12139.377449
362.019948,383.047749,-1036.288319,10288.862594
362.020256,1225.752797,-962.267725,9178.553681
362.020563,612.876398,-1110.308913,9104.533087
362.020871,-153.219100,-1258.350101,9474.636058
362.021179,0.000000,-666.185348,9696.697840
362.021487,76.609550,592.164754,9030.512492
362.021795,1378.971896,2220.617826,8290.306550
362.022103,3524.039291,3552.988522,6957.935855
362.022411,4673.182538,3775.050304,7105.977043
362.022719,4366.744339,3108.864956,7846.182985
362.023027,1991.848295,1258.350101,8216.285956
362.023335,153.219100,518.144159,11103.089130
362.023643,-995.924147,-1406.391290,12435.459826
362.023951,-1838.629195,-74.020594,11769.274478
362.024259,-995.924147,-1480.411884,12065.356855
362.024567,153.219100,-148.041188,9474.636058
362.024875,536.266849,-1110.308913,9770.718434
362.025182,0.000000,-666.185348,9474.636058
362.025490,-153.219100,-2072.576638,10436.903782
