#time,accel_x,accel_y,accel_z
160.758770,2528.115143,-444.123565,9696.697840
160.759078,2757.943793,-370.102971,9474.636058
160.759386,3064.381992,-148.041188,9326.594869
160.759694,3064.381992,-74.020594,9326.594869
160.760002,3294.210641,-0.000000,9474.636058
160.760310,3370.820191,-0.000000,9400.615463
160.760618,3600.648841,222.061783,9474.636058
160.760926,3753.867940,-0.000000,9400.615463
160.761234,4060.306139,518.144159,9178.553681
160.761542,3753.867940,814.226536,9104.533087
160.761850,3524.039291,592.164754,8882.471304
160.762158,3524.039291,1184.329507,9326.594869
160.762466,3217.601092,1184.329507,9178.553681
160.762774,3140.991542,1110.308913,9400.615463
160.763082,2681.334243,444.123565,9696.697840
160.763390,2911.162892,-148.041188,10214.842000
160.763698,2451.505594,-740.205942,11103.089130
160.764006,1915.238745,-888.247130,11103.089130
160.764314,2145.067394,-1036.288319,11547.212695
160.764622,2068.457845,-740.205942,11251.130318
160.764930,2528.115143,-444.123565,10658.965565
160.765238,3294.210641,-0.000000,9918.759623
160.765546,3677.258390,296.082377,9326.594869
160.765854,4290.134789,518.144159,9104.533087
160.766162,4060.306139,740.205942,9178.553681
160.766470,4136.915689,518.144159,8808.450710
160.766777,4366.744339,518.144159,8808.450710
160.767085,3907.087040,74.020594,8808.450710
160.767393,3524.039291,148.041188,8956.491898
160.767701,3524.039291,222.061783,9326.594869
160.768009,3140.991542,148.041188,9474.636058
160.768317,3830.477490,-148.041188,9326.594869
160.768625,3907.087040,-0.000000,9474.636058
160.768933,3447.429741,-0.000000,9252.574275
160.769241,3983.696590,518.144159,9104.533087
160.769549,4060.306139,666.185348,9104.533087
160.769857,4060.306139,962.267725,9030.512492
160.770165,3830.477490,592.164754,8956.491898
160.770473,3600.648841,592.164754,9104.533087
160.770781,3524.039291,296.082377,9400.615463
160.771089,3907.087040,-0.000000,9400.615463
160.771397,3064.381992,148.041188,9770.718434
160.771705,2911.162892,444.123565,9992.780217
160.772013,2681.334243,-0.000000,9918.759623
160.772321,2681.334243,666.185348,10066.800811
160.772629,2681.334243,666.185348,10214.842000
160.772937,2374.896044,518.144159,9918.759623
160.773245,2145.067394,592.164754,9918.759623
160.773553,2298.286494,888.247130,10436.903782
160.773861,1915.238745,370.102971,10436.903782
160.774169,1685.410096,592.164754,10658.965565
160.774477,995.924147,370.102971,10214.842000
160.774785,919.314598,296.082377,10140.821405
160.775093,842.705048,148.041188,10066.800811
160.775401,766.095498,296.082377,10140.821405
160.775709,842.705048,-0.000000,10066.800811
160.776017,459.657299,-0.000000,9992.780217
160.776325,1302.362347,222.061783,9844.739029
160.776633,1149.143247,-0.000000,9770.718434
160.776941,995.924147,-0.000000,9474.636058
160.777249,842.705048,-0.000000,9400.615463
160.777556,1072.533697,-0.000000,9326.594869
160.777864,919.314598,-148.041188,9548.656652
160.778172,919.314598,-222.061783,9548.656652
160.778480,766.095498,-592.164754,9622.677246
160.778788,766.095498,-74.020594,9844.739029
160.779096,383.047749,-740.205942,9696.697840
160.779404,689.485948,-666.185348,9548.656652
160.779712,766.095498,-444.123565,9992.780217
160.780020,919.314598,-518.144159,9696.697840
160.780328,995.924147,-666.185348,9474.636058
160.780636,1302.362347,-962.267725,9400.615463
160.780944,1455.581446,-370.102971,9548.656652
160.781252,995.924147,-444.123565,9474.636058
160.781560,1072.533697,-296.082377,9622.677246
160.781868,995.924147,-296.082377,9474.636058
160.782176,766.095498,-222.061783,9548.656652
160.782484,689.485948,-74.020594,9622.677246
160.782792,1225.752797,-0.000000,9622.677246
160.783100,1378.971896,666.185348,9474.636058
160.783408,1685.410096,1110.308913,8956.491898
160.783716,2068.457845,962.267725,8438.347739
160.784024,2374.896044,1702.473667,8808.450710
160.784332,2374.896044,2442.679609,8660.409521
160.784640,2298.286494,2516.700203,8290.306550
160.784948,2068.457845,2738.761985,8290.306550
160.785256,1685.410096,2442.679609,8586.388927
160.785564,1532.190996,2220.617826,9326.594869
160.785872,689.485948,1406.391290,9474.636058
160.786180,-229.828649,592.164754,9992.780217
160.786488,-1072.533697,-296.082377,10436.903782
160.786796,-1608.800546,-1036.288319,11251.130318
160.787104,-2068.457845,-1480.411884,11843.295072
160.787412,-2298.286494,-1998.556043,11991.336260
160.787720,-2221.676944,-2146.597232,11991.336260
160.788027,-1378.971896,-2294.638420,11917.315666
160.788335,-766.095498,-1998.556043,11177.109724
160.788643,-306.438199,-1406.391290,10362.883188
160.788951,995.924147,-740.205942,9992.780217
160.789259,1072.533697,-148.041188,9326.594869
160.789567,1915.238745,-74.020594,8808.450710
160.789875,2221.676944,222.061783,8142.265362
160.790183,2221.676944,370.102971,7698.141797
160.790491,3294.210641,518.144159,7846.182985
160.790799,2145.067394,296.082377,7476.080014
160.791107,2451.505594,-0.000000,7328.038826
160.791415,2528.115143,666.185348,7772.162391
160.791723,2145.067394,222.061783,7920.203579
160.792031,1991.848295,222.061783,8290.306550
160.792339,1608.800546,518.144159,8438.347739
160.792647,1608.800546,592.164754,8882.471304
160.792955,1072.533697,814.226536,9326.594869
160.793263,766.095498,1184.329507,9326.594869
160.793571,306.438199,1702.473667,9844.739029
160.793879,0.000000,1702.473667,10140.821405
160.794187,0.000000,1480.411884,10658.965565
160.794495,-229.828649,1480.411884,10658.965565
160.794802,-919.314598,1406.391290,10436.903782
160.795110,-995.924147,666.185348,10881.027347
160.795418,-995.924147,222.061783,11177.109724
160.795726,-1608.800546,-0.000000,11103.089130
160.796034,-1915.238745,-592.164754,11399.171507
160.796342,-2451.505594,-1036.288319,11473.192101
160.796650,-2221.676944,-962.267725,11325.150913
160.796958,-1838.629195,-1036.288319,11103.089130
160.797266,-1455.581446,-1036.288319,10881.027347
160.797573,-995.924147,-518.144159,10362.883188
160.797881,-459.657299,148.041188,9770.718434
160.798189,612.876398,-0.000000,9178.553681
160.798497,995.924147,-0.000000,9400.615463
160.798805,1302.362347,-0.000000,8882.471304
160.799113,1149.143247,518.144159,8364.327145
160.799421,1149.143247,-0.000000,8808.450710
160.799729,1302.362347,-444.123565,8882.471304
160.800037,842.705048,-888.247130,8512.368333
160.800344,1532.190996,-814.226536,9030.512492
160.800652,1149.143247,-1258.350101,8956.491898
160.800960,1225.752797,-1036.288319,9178.553681
160.801268,1378.971896,-1036.288319,9030.512492
160.801576,1685.410096,-814.226536,9104.533087
160.801884,1915.238745,-518.144159,9178.553681
160.802192,1302.362347,-148.041188,9104.533087
160.802500,1838.629195,-74.020594,9474.636058
160.802808,1378.971896,370.102971,8808.450710
160.803115,1991.848295,444.123565,9326.594869
160.803423,1608.800546,1258.350101,9548.656652
160.803731,1838.629195,1480.411884,9548.656652
160.804039,1685.410096,2072.576638,9104.533087
160.804347,1915.238745,2294.638420,9030.512492
160.804655,1915.238745,2294.638420,9252.574275
160.804963,1915.238745,2368.659014,9326.594869
160.805271,1762.019645,1924.535449,9474.636058
160.805579,1225.752797,2220.617826,9252.574275
160.805886,1378.971896,1480.411884,9548.656652
160.806194,383.047749,1110.308913,10288.862594
160.806502,0.000000,740.205942,10584.944971
160.806810,-383.047749,-0.000000,11103.089130
160.807118,-842.705048,-444.123565,11473.192101
160.807426,-1762.019645,-814.226536,11843.295072
160.807734,-995.924147,-1258.350101,11843.295072
160.808042,-1072.533697,-1406.391290,12065.356855
160.808350,-612.876398,-1480.411884,11103.089130
160.808657,76.609550,-1406.391290,10362.883188
160.808965,612.876398,-888.247130,10362.883188
160.809273,1225.752797,-444.123565,9400.615463
160.809581,1608.800546,222.061783,8364.327145
160.809889,2451.505594,592.164754,8586.388927
160.810197,3677.258390,740.205942,8068.244768
160.810505,2987.772442,666.185348,7105.977043
160.810813,3677.258390,666.185348,7179.997637
160.811121,3447.429741,814.226536,6957.935855
160.811428,3064.381992,370.102971,7179.997637
160.811736,2451.505594,296.082377,7550.100608
160.812044,2298.286494,-0.000000,8290.306550
160.812352,1915.238745,-296.082377,8808.450710
160.812660,1378.971896,-740.205942,9400.615463
160.812968,995.924147,-518.144159,10066.800811
160.813276,459.657299,-222.061783,9918.759623
160.813584,-459.657299,370.102971,10288.862594
160.813892,76.609550,666.185348,10140.821405
160.814199,0.000000,962.267725,10288.862594
160.814507,76.609550,1110.308913,10288.862594
160.814815,306.438199,2146.597232,10066.800811
160.815123,0.000000,1258.350101,9844.739029
160.815431,-76.609550,962.267725,10214.842000
160.815739,-229.828649,666.185348,10658.965565
160.816047,-919.314598,222.061783,10214.842000
160.816355,-1072.533697,-74.020594,10584.944971
160.816663,-1455.581446,-444.123565,10288.862594
160.816970,-1991.848295,-666.185348,11325.150913
160.817278,-1915.238745,-370.102971,10732.986159
160.817586,-2068.457845,-444.123565,10658.965565
160.817894,-536.266849,-74.020594,11029.068536
160.818202,-1072.533697,-0.000000,10288.862594
160.818510,-536.266849,370.102971,9918.759623
160.818818,-306.438199,-0.000000,9622.677246
160.819126,0.000000,222.061783,9548.656652
160.819434,0.000000,-0.000000,9400.615463
160.819741,459.657299,-592.164754,8882.471304
160.820049,536.266849,-518.144159,8808.450710
160.820357,842.705048,-740.205942,8586.388927
160.820665,766.095498,-740.205942,8808.450710
160.820973,689.485948,-888.247130,8734.430116
160.821281,766.095498,-518.144159,8586.388927
160.821589,766.095498,-444.123565,8364.327145
160.821897,1302.362347,-296.082377,8660.409521
160.822204,1225.752797,-148.041188,8956.491898
160.822512,1455.581446,-148.041188,8808.450710
160.822820,919.314598,-0.000000,8660.409521
160.823128,1225.752797,518.144159,9474.636058
160.823436,1302.362347,740.205942,9104.533087
160.823744,995.924147,1110.308913,9400.615463
160.824052,1149.143247,1332.370696,9178.553681
160.824360,1225.752797,1480.411884,9400.615463
160.824668,1455.581446,1406.391290,9474.636058
160.824975,995.924147,1554.432478,9770.718434
160.825283,842.705048,1036.288319,9918.759623
160.825591,1072.533697,814.226536,10362.883188
160.825899,306.438199,370.102971,10214.842000
160.826207,0.000000,-74.020594,11029.068536
160.826515,-689.485948,-370.102971,10955.047942
160.826823,-766.095498,-740.205942,11029.068536
160.827131,-1378.971896,-518.144159,11103.089130
160.827439,-1455.581446,-1406.391290,11547.212695
160.827746,-919.314598,-1110.308913,11399.171507
160.828054,-1532.190996,-148.041188,11547.212695
160.828362,-153.219100,-444.123565,10658.965565
160.828670,689.485948,-74.020594,9992.780217
160.828978,766.095498,296.082377,9474.636058
160.829286,1915.238745,518.144159,8882.471304
160.829594,2145.067394,518.144159,7846.182985
160.829902,2757.943793,592.164754,8438.347739
160.830210,3217.601092,740.205942,7994.224174
160.830517,2451.505594,1110.308913,7254.018232
160.830825,3064.381992,888.247130,7624.121203
160.831133,3294.210641,888.247130,7254.018232
160.831441,3524.039291,666.185348,7624.121203
160.831749,2681.334243,370.102971,7698.141797
160.832057,2604.724693,-296.082377,8290.306550
160.832365,2145.067394,-222.061783,8808.450710
160.832673,2221.676944,-518.144159,9252.574275
160.832981,1072.533697,-222.061783,9622.677246
160.833288,1302.362347,-74.020594,10066.800811
160.833596,842.705048,296.082377,10140.821405
160.833904,689.485948,666.185348,10288.862594
160.834212,1072.533697,1036.288319,10362.883188
160.834520,919.314598,888.247130,10584.944971
160.834828,536.266849,814.226536,10140.821405
160.835136,-383.047749,888.247130,10584.944971
160.835444,0.000000,148.041188,10584.944971
160.835752,-306.438199,370.102971,10732.986159
160.836059,-612.876398,-0.000000,10807.006753
160.836367,-842.705048,-74.020594,10732.986159
160.836675,-842.705048,-222.061783,10584.944971
160.836983,-1149.143247,-148.041188,10955.047942
160.837291,-1149.143247,74.020594,10955.047942
160.837599,-1378.971896,-148.041188,10362.883188
160.837907,-842.705048,148.041188,10584.944971
160.838215,-612.876398,370.102971,10140.821405
160.838523,-306.438199,222.061783,10214.842000
160.838830,-153.219100,370.102971,9844.739029
160.839138,0.000000,518.144159,9474.636058
160.839446,0.000000,370.102971,9474.636058
160.839754,536.266849,222.061783,9178.553681
160.840062,919.314598,296.082377,8808.450710
160.840370,1072.533697,148.041188,8586.388927
160.840678,1225.752797,-0.000000,8734.430116
160.840986,995.924147,-74.020594,8364.327145
160.841294,1225.752797,-0.000000,8290.306550
160.841601,1532.190996,-370.102971,8438.347739
160.841909,1149.143247,-666.185348,8882.471304
160.842217,689.485948,-740.205942,8882.471304
160.842525,153.219100,-518.144159,9326.594869
160.842833,766.095498,-518.144159,9474.636058
160.843141,612.876398,-74.020594,9548.656652
160.843449,766.095498,222.061783,9622.677246
160.843757,1149.143247,740.205942,9400.615463
160.844065,1532.190996,814.226536,9400.615463
160.844372,1532.190996,1480.411884,9400.615463
160.844680,1378.971896,1480.411884,9622.677246
160.844988,1608.800546,1332.370696,9696.697840
160.845296,766.095498,1184.329507,9548.656652
160.845604,229.828649,814.226536,9992.780217
160.845912,0.000000,222.061783,10288.862594
160.846220,-689.485948,-222.061783,11029.068536
160.846528,-1072.533697,-962.267725,11103.089130
160.846836,-1302.362347,-1480.411884,11325.150913
160.847143,-1915.238745,-1184.329507,11473.192101
160.847451,-2145.067394,-1258.350101,11399.171507
160.847759,-1685.410096,-962.267725,11399.171507
160.848067,-1302.362347,-666.185348,10881.027347
160.848375,-383.047749,-74.020594,10436.903782
160.848683,229.828649,-0.000000,9992.780217
160.848991,459.657299,444.123565,9178.553681
160.849299,1685.410096,296.082377,8882.471304
160.849607,2068.457845,740.205942,8364.327145
160.849914,2145.067394,740.205942,7772.162391
160.850222,2681.334243,888.247130,7550.100608
160.850530,2834.553343,888.247130,7698.141797
160.850838,2528.115143,666.185348,7105.977043
160.851146,2451.505594,518.144159,7624.121203
160.851454,2451.505594,-0.000000,7698.141797
160.851762,2834.553343,-444.123565,8586.388927
160.852070,1532.190996,-0.000000,8956.491898
160.852378,1608.800546,-296.082377,9326.594869
160.852685,1608.800546,-222.061783,9622.677246
160.852993,1225.752797,-0.000000,9696.697840
160.853301,1225.752797,296.082377,10140.821405
160.853609,995.924147,592.164754,10362.883188
160.853917,919.314598,666.185348,10362.883188
160.854225,1072.533697,1110.308913,10214.842000
160.854533,1225.752797,1480.411884,10436.903782
160.854841,842.705048,1258.350101,10510.924376
160.855149,612.876398,1554.432478,10214.842000
160.855456,459.657299,888.247130,10436.903782
160.855764,0.000000,370.102971,10584.944971
160.856072,-306.438199,222.061783,10584.944971
160.856380,-459.657299,-296.082377,10584.944971
160.856688,-459.657299,-296.082377,10584.944971
160.856996,-995.924147,-518.144159,10955.047942
160.857304,-995.924147,-518.144159,11103.089130
160.857612,-1072.533697,-370.102971,10658.965565
160.857920,-689.485948,-0.000000,10510.924376
160.858227,-459.657299,-0.000000,10140.821405
160.858535,0.000000,148.041188,10288.862594
160.858843,76.609550,296.082377,9696.697840
160.859151,842.705048,-0.000000,9548.656652
160.859459,1072.533697,296.082377,9474.636058
160.859767,1378.971896,-74.020594,8660.409521
160.860075,1455.581446,296.082377,8734.430116
160.860383,1455.581446,-0.000000,8216.285956
160.860691,1378.971896,-148.041188,8290.306550
160.860998,1378.971896,-222.061783,8216.285956
160.861306,1608.800546,-148.041188,8438.347739
160.861614,1532.190996,-814.226536,8364.327145
160.861922,1225.752797,-740.205942,8956.491898
160.862230,1149.143247,-740.205942,8956.491898
160.862538,1072.533697,-518.144159,9474.636058
160.862846,612.876398,-444.123565,9548.656652
160.863154,766.095498,-148.041188,9474.636058
160.863462,842.705048,518.144159,9474.636058
160.863769,1378.971896,518.144159,9548.656652
160.864077,1455.581446,1332.370696,9474.636058
160.864385,1532.190996,1480.411884,9474.636058
160.864693,1378.971896,1776.494261,9030.512492
160.865001,1225.752797,1924.535449,9178.553681
160.865309,995.924147,1628.453072,9474.636058
160.865617,459.657299,1332.370696,9844.739029
160.865925,306.438199,814.226536,10214.842000
160.866233,-459.657299,-74.020594,10881.027347
160.866540,-919.314598,-740.205942,11177.109724
160.866848,-1838.629195,-1332.370696,11029.068536
160.867156,-1685.410096,-1258.350101,11695.253884
160.867464,-1915.238745,-1406.391290,11547.212695
160.867772,-1762.019645,-888.247130,11251.130318
160.868080,-1149.143247,-518.144159,11177.109724
160.868388,-306.438199,-296.082377,10510.924376
160.868696,536.266849,-222.061783,9844.739029
160.869004,1149.143247,370.102971,9474.636058
160.869311,1149.143247,592.164754,9104.533087
160.869619,1685.410096,1036.288319,8142.265362
160.869927,2451.505594,1036.288319,7846.182985
160.870235,2374.896044,1184.329507,7698.141797
160.870543,2681.334243,888.247130,7772.162391
160.870851,2451.505594,296.082377,7698.141797
160.871159,2298.286494,-296.082377,7772.162391
160.871467,2374.896044,-666.185348,8882.471304
160.871775,2068.457845,-888.247130,8956.491898
160.872082,1378.971896,-592.164754,8956.491898
160.872390,1378.971896,-444.123565,9178.553681
160.872698,1225.752797,222.061783,9474.636058
160.873006,1149.143247,370.102971,9696.697840
160.873314,1225.752797,888.247130,9696.697840
160.873622,1378.971896,962.267725,9918.759623
160.873930,153.219100,1554.432478,10140.821405
160.874238,689.485948,1480.411884,9992.780217
160.874546,459.657299,1332.370696,10214.842000
160.874853,76.609550,1110.308913,10362.883188
160.875161,306.438199,962.267725,10658.965565
160.875469,-153.219100,592.164754,10732.986159
160.875777,-536.266849,-0.000000,10732.986159
160.876085,-459.657299,-370.102971,10881.027347
160.876393,-766.095498,-370.102971,10881.027347
160.876701,-995.924147,-370.102971,10881.027347
160.877009,-919.314598,-296.082377,11029.068536
160.877317,-766.095498,-0.000000,10362.883188
160.877624,-689.485948,-0.000000,10140.821405
160.877932,-536.266849,518.144159,10066.800811
160.878240,-229.828649,592.164754,10140.821405
160.878548,-536.266849,370.102971,9770.718434
160.878856,459.657299,222.061783,9548.656652
160.879164,229.828649,370.102971,9326.594869
160.879472,842.705048,518.144159,8956.491898
160.879780,919.314598,-74.020594,9030.512492
160.880088,1225.752797,-74.020594,8512.368333
160.880395,1378.971896,-296.082377,8364.327145
160.880703,1455.581446,-296.082377,8068.244768
160.881011,1685.410096,-592.164754,8586.388927
160.881319,2298.286494,-518.144159,8586.388927
160.881627,1762.019645,-370.102971,8512.368333
160.881935,1991.848295,-888.247130,8438.347739
160.882243,1532.190996,-740.205942,8956.491898
160.882551,1378.971896,-592.164754,9400.615463
160.882859,919.314598,-518.144159,9400.615463
160.883166,1302.362347,-0.000000,9474.636058
160.883474,919.314598,-0.000000,9326.594869
160.883782,1302.362347,296.082377,9326.594869
160.884090,1225.752797,740.205942,9474.636058
160.884398,1915.238745,888.247130,9326.594869
160.884706,1532.190996,1554.432478,9252.574275
160.885014,1225.752797,1406.391290,9474.636058
160.885322,919.314598,1628.453072,9622.677246
160.885629,536.266849,1258.350101,9770.718434
160.885937,76.609550,592.164754,10214.842000
160.886245,-306.438199,592.164754,10288.862594
160.886553,-995.924147,-444.123565,11029.068536
160.886861,-1378.971896,-1110.308913,11547.212695
160.887169,-1685.410096,-1036.288319,11547.212695
160.887477,-1685.410096,-1036.288319,11695.253884
160.887785,-1608.800546,-962.267725,11547.212695
160.888093,-1149.143247,-814.226536,11251.130318
160.888400,0.000000,-370.102971,10807.006753
160.888708,-229.828649,-74.020594,9992.780217
160.889016,842.705048,444.123565,9400.615463
160.889324,1608.800546,962.267725,8808.450710
160.889632,2145.067394,1184.329507,8142.265362
160.889940,2451.505594,1258.350101,7772.162391
160.890248,2528.115143,1110.308913,7476.080014
160.890556,2911.162892,666.185348,7846.182985
160.890864,2604.724693,814.226536,7550.100608
160.891171,2145.067394,444.123565,7994.224174
160.891479,2221.676944,-296.082377,7920.203579
160.891787,1608.800546,-592.164754,8734.430116
160.892087,1378.971896,-666.185348,9104.533087
160.892395,1072.533697,-592.164754,9474.636058
160.892702,919.314598,-518.144159,9918.759623
160.893010,1225.752797,222.061783,9918.759623
160.893318,1225.752797,-0.000000,9918.759623
160.893626,919.314598,962.267725,9844.739029
160.893934,766.095498,1332.370696,10362.883188
160.894242,612.876398,1184.329507,9918.759623
160.894550,689.485948,1480.411884,10214.842000
160.894858,459.657299,1480.411884,10362.883188
160.895166,383.047749,1258.350101,10436.903782
160.895474,0.000000,666.185348,10584.944971
160.895781,0.000000,444.123565,10510.924376
160.896089,-306.438199,-370.102971,10658.965565
160.896397,-995.924147,-296.082377,10510.924376
160.896705,-1072.533697,-444.123565,10584.944971
160.897013,-919.314598,-222.061783,10362.883188
160.897321,-842.705048,-74.020594,10436.903782
160.897629,-459.657299,-0.000000,10140.821405
160.897937,-459.657299,-0.000000,10362.883188
160.898245,-306.438199,296.082377,10288.862594
160.898553,0.000000,-0.000000,9770.718434
160.898860,76.609550,296.082377,9770.718434
160.899168,459.657299,148.041188,9474.636058
160.899476,995.924147,-0.000000,9252.574275
160.899784,1149.143247,-296.082377,8882.471304
160.900092,1072.533697,-370.102971,8512.368333
160.900400,1149.143247,-740.205942,8068.244768
160.900708,1532.190996,-666.185348,8438.347739
160.901016,2068.457845,-814.226536,8512.368333
160.901324,2068.457845,-740.205942,8364.327145
160.901632,1608.800546,-740.205942,8364.327145
160.901939,1608.800546,-888.247130,8216.285956
160.902247,1378.971896,-666.185348,8882.471304
160.902555,1225.752797,-518.144159,9178.553681
160.902863,1072.533697,-518.144159,8808.450710
160.903171,919.314598,-0.000000,9326.594869
160.903479,1149.143247,666.185348,9104.533087
160.903787,1532.190996,1036.288319,9400.615463
160.904095,1149.143247,1628.453072,9400.615463
160.904403,1532.190996,1702.473667,9104.533087
160.904710,1455.581446,1850.514855,9104.533087
160.905018,1072.533697,1702.473667,9400.615463
160.905326,306.438199,1258.350101,9696.697840
160.905634,76.609550,740.205942,9770.718434
160.905942,76.609550,814.226536,10510.924376
160.906250,-536.266849,-370.102971,10584.944971
160.906558,-766.095498,-518.144159,11251.130318
160.906866,-1685.410096,-1184.329507,11621.233289
160.907174,-1762.019645,-1184.329507,11695.253884
160.907482,-1991.848295,-1184.329507,11695.253884
160.907789,-1608.800546,-1184.329507,11621.233289
160.908097,-689.485948,-444.123565,11251.130318
160.908405,-306.438199,-0.000000,10584.944971
160.908713,383.047749,518.144159,9992.780217
160.909021,919.314598,740.205942,9104.533087
160.909329,1532.190996,1036.288319,8734.430116
160.909637,2145.067394,1110.308913,8438.347739
160.909945,2068.457845,962.267725,8142.265362
160.910253,2374.896044,666.185348,7846.182985
160.910561,2528.115143,518.144159,8068.244768
160.910868,2221.676944,-0.000000,7920.203579
160.911176,2374.896044,-74.020594,8290.306550
160.911484,2221.676944,-74.020594,8290.306550
160.911792,1991.848295,-444.123565,8512.368333
160.912100,1532.190996,-222.061783,9104.533087
160.912408,1455.581446,-148.041188,9326.594869
160.912716,1302.362347,-74.020594,9474.636058
160.913024,1302.362347,148.041188,10066.800811
160.913332,1225.752797,518.144159,9992.780217
160.913640,842.705048,962.267725,10214.842000
160.913947,689.485948,962.267725,10362.883188
160.914255,459.657299,962.267725,10362.883188
160.914563,153.219100,1184.329507,10362.883188
160.914871,0.000000,1036.288319,10584.944971
160.915179,0.000000,740.205942,10807.006753
160.915487,-536.266849,444.123565,10881.027347
160.915795,0.000000,222.061783,10510.924376
160.916103,-689.485948,518.144159,10658.965565
160.916411,-306.438199,296.082377,10066.800811
160.916719,-536.266849,148.041188,10214.842000
160.917026,-842.705048,296.082377,10658.965565
160.917334,-842.705048,148.041188,10288.862594
160.917642,-766.095498,296.082377,10658.965565
160.917950,-459.657299,222.061783,10436.903782
160.918258,-459.657299,-0.000000,10140.821405
160.918566,-536.266849,-0.000000,9992.780217
160.918874,0.000000,-0.000000,9918.759623
160.919182,306.438199,-444.123565,9474.636058
160.919490,612.876398,-518.144159,9400.615463
160.919798,842.705048,-518.144159,8956.491898
160.920105,995.924147,-444.123565,8734.430116
160.920413,2145.067394,-518.144159,8438.347739
160.920721,1532.190996,-518.144159,8216.285956
160.921029,2221.676944,-296.082377,7994.224174
160.921337,1762.019645,-296.082377,7994.224174
160.921645,1838.629195,-222.061783,8290.306550
160.921953,1838.629195,-148.041188,8364.327145
160.922261,1378.971896,-296.082377,8438.347739
160.922569,1532.190996,-74.020594,8956.491898
160.922877,842.705048,-222.061783,8882.471304
160.923184,1225.752797,148.041188,9400.615463
160.923492,1225.752797,740.205942,9326.594869
160.923800,1072.533697,1258.350101,9030.512492
160.924108,1378.971896,1554.432478,9326.594869
160.924416,1302.362347,1628.453072,9548.656652
160.924724,919.314598,1332.370696,9400.615463
160.925032,612.876398,1184.329507,9918.759623
160.925340,919.314598,962.267725,10140.821405
160.925648,383.047749,740.205942,10436.903782
160.925955,-153.219100,444.123565,10288.862594
160.926263,-536.266849,-0.000000,10658.965565
160.926571,-1072.533697,-148.041188,11103.089130
160.926879,-1532.190996,-740.205942,11399.171507
160.927187,-1838.629195,-962.267725,11769.274478
160.927495,-1532.190996,-962.267725,11399.171507
160.927803,-919.314598,-666.185348,11103.089130
160.928111,-1149.143247,-444.123565,10807.006753
160.928419,-459.657299,-0.000000,10807.006753
160.928727,459.657299,370.102971,9844.739029
160.929034,1149.143247,740.205942,9400.615463
160.929342,1685.410096,962.267725,8882.471304
160.929650,1762.019645,666.185348,8512.368333
160.929958,2298.286494,814.226536,8290.306550
160.930266,2681.334243,518.144159,7920.203579
160.930574,2298.286494,592.164754,8068.244768
160.930882,2451.505594,222.061783,7772.162391
160.931190,2221.676944,-0.000000,7994.224174
160.931498,1455.581446,-296.082377,8586.388927
160.931806,1532.190996,-592.164754,9104.533087
160.932113,1378.971896,-962.267725,8660.409521
160.932421,1149.143247,-444.123565,9696.697840
160.932729,612.876398,-370.102971,9992.780217
160.933037,919.314598,148.041188,9992.780217
160.933345,536.266849,148.041188,9992.780217
160.933653,536.266849,666.185348,10362.883188
160.933961,536.266849,814.226536,10214.842000
160.934269,536.266849,1184.329507,10214.842000
160.934577,919.314598,1332.370696,10066.800811
160.934885,995.924147,1332.370696,9918.759623
160.935192,0.000000,1332.370696,9696.697840
160.935500,612.876398,1110.308913,9770.718434
160.935808,0.000000,1110.308913,9992.780217
160.936116,-306.438199,518.144159,9992.780217
160.936424,-766.095498,370.102971,10214.842000
160.936732,-1072.533697,-0.000000,10510.924376
160.937040,-1378.971896,-74.020594,10955.047942
160.937348,-1225.752797,-592.164754,10807.006753
160.937656,-766.095498,-518.144159,10732.986159
160.937964,-689.485948,-222.061783,10881.027347
160.938271,-919.314598,-370.102971,10881.027347
160.938579,-689.485948,-296.082377,10510.924376
160.938887,-306.438199,-74.020594,10362.883188
160.939195,76.609550,-296.082377,9770.718434
160.939503,1302.362347,-444.123565,9400.615463
160.939811,1149.143247,-296.082377,8808.450710
160.940119,1838.629195,-296.082377,8512.368333
160.940427,1378.971896,-518.144159,8142.265362
160.940735,2145.067394,-370.102971,8216.285956
160.941043,2298.286494,-222.061783,7994.224174
160.941350,2221.676944,-148.041188,7994.224174
160.941658,2298.286494,-148.041188,7920.203579
160.941966,2145.067394,-222.061783,8142.265362
160.942274,1991.848295,-74.020594,8512.368333
160.942582,1532.190996,222.061783,8808.450710
160.942890,1302.362347,222.061783,9104.533087
160.943198,1225.752797,370.102971,9178.553681
160.943506,1072.533697,666.185348,9400.615463
160.943814,1072.533697,1036.288319,9474.636058
160.944122,1378.971896,1480.411884,9548.656652
160.944429,1608.800546,1406.391290,9474.636058
160.944737,1302.362347,1332.370696,9548.656652
160.945045,612.876398,740.205942,9992.780217
160.945353,536.266849,888.247130,9918.759623
160.945661,153.219100,814.226536,10288.862594
160.945969,0.000000,592.164754,10510.924376
160.946277,-229.828649,148.041188,10732.986159
160.946585,-689.485948,-148.041188,10955.047942
160.946893,-1225.752797,-666.185348,11103.089130
160.947201,-1378.971896,-888.247130,11103.089130
160.947508,-995.924147,-962.267725,11177.109724
160.947816,-689.485948,-1036.288319,11251.130318
160.948124,-612.876398,-296.082377,10807.006753
160.948432,-383.047749,-74.020594,10584.944971
160.948740,306.438199,222.061783,9918.759623
160.949048,612.876398,740.205942,9252.574275
160.949356,1762.019645,592.164754,9030.512492
160.949664,2145.067394,1184.329507,8734.430116
160.949972,2298.286494,814.226536,7994.224174
160.950279,2451.505594,444.123565,7624.121203
160.950587,2528.115143,962.267725,7920.203579
160.950895,2374.896044,370.102971,7624.121203
160.951203,2068.457845,-148.041188,8068.244768
160.951511,1608.800546,-518.144159,8290.306550
160.951819,1378.971896,-888.247130,9030.512492
160.952127,1302.362347,-666.185348,9696.697840
160.952435,383.047749,-814.226536,9548.656652
160.952743,536.266849,-592.164754,10214.842000
160.953051,459.657299,-0.000000,10362.883188
160.953358,383.047749,370.102971,10066.800811
160.953666,459.657299,740.205942,10066.800811
160.953974,612.876398,1480.411884,9918.759623
160.954282,689.485948,1628.453072,9622.677246
160.954590,1149.143247,1702.473667,9474.636058
160.954898,842.705048,1702.473667,9400.615463
160.955206,766.095498,1554.432478,9844.739029
160.955514,536.266849,1036.288319,9918.759623
160.955822,76.609550,740.205942,10288.862594
160.956130,-536.266849,444.123565,10362.883188
160.956437,-842.705048,-0.000000,10584.944971
160.956745,-1072.533697,-444.123565,10584.944971
160.957053,-1532.190996,-518.144159,10955.047942
160.957361,-1149.143247,-962.267725,11029.068536
160.957669,-1378.971896,-444.123565,11103.089130
160.957977,-919.314598,-444.123565,10807.006753
160.958285,-459.657299,-222.061783,10658.965565
160.958593,-536.266849,-222.061783,10288.862594
160.958901,-153.219100,-74.020594,10214.842000
160.959209,689.485948,-370.102971,9474.636058
160.959516,919.314598,-222.061783,8956.491898
160.959824,1378.971896,-296.082377,9030.512492
160.960132,1455.581446,-74.020594,8660.409521
160.960440,1762.019645,-0.000000,8290.306550
160.960748,1838.629195,-74.020594,8068.244768
160.961056,2145.067394,-222.061783,7698.141797
160.961364,2298.286494,-148.041188,7624.121203
160.961672,2221.676944,-74.020594,7550.100608
160.961980,2374.896044,-74.020594,8216.285956
160.962288,1915.238745,-148.041188,8512.368333
160.962595,1378.971896,-148.041188,8808.450710
160.962903,1072.533697,296.082377,9030.512492
160.963211,842.705048,666.185348,9400.615463
160.963519,919.314598,740.205942,9548.656652
160.963827,995.924147,962.267725,9770.718434
160.964135,842.705048,888.247130,9992.780217
160.964443,1149.143247,1332.370696,9770.718434
160.964751,1455.581446,1332.370696,9992.780217
160.965059,995.924147,1184.329507,10214.842000
160.965367,919.314598,962.267725,9844.739029
160.965674,383.047749,814.226536,9992.780217
160.965982,306.438199,518.144159,10214.842000
160.966290,-306.438199,222.061783,10288.862594
160.966598,-689.485948,-592.164754,10881.027347
160.966906,-1302.362347,-444.123565,11103.089130
160.967214,-1072.533697,-666.185348,11325.150913
160.967522,-842.705048,-1036.288319,11399.171507
160.967830,-1149.143247,-666.185348,11103.089130
160.968138,-612.876398,-296.082377,10732.986159
160.968446,-229.828649,-0.000000,10436.903782
160.968753,306.438199,444.123565,9918.759623
160.969061,689.485948,370.102971,9474.636058
160.969369,1455.581446,370.102971,8956.491898
160.969677,2221.676944,666.185348,8438.347739
160.969985,2221.676944,592.164754,7920.203579
160.970293,2145.067394,518.144159,7994.224174
160.970601,2221.676944,296.082377,7772.162391
160.970909,2298.286494,-0.000000,7994.224174
160.971217,1991.848295,-296.082377,8068.244768
160.971525,1608.800546,-518.144159,8290.306550
160.971832,1455.581446,-592.164754,8882.471304
160.972140,689.485948,-740.205942,9474.636058
160.972448,919.314598,-666.185348,9548.656652
160.972756,306.438199,-222.061783,9548.656652
160.973064,842.705048,-296.082377,9918.759623
160.973372,76.609550,740.205942,9548.656652
160.973680,229.828649,740.205942,10140.821405
160.973988,459.657299,1406.391290,9696.697840
160.974296,919.314598,1628.453072,9844.739029
160.974603,919.314598,1480.411884,9622.677246
160.974911,919.314598,1776.494261,9622.677246
160.975219,612.876398,1480.411884,10066.800811
160.975527,0.000000,888.247130,9918.759623
160.975835,-383.047749,666.185348,10362.883188
160.976143,-766.095498,148.041188,10288.862594
160.976451,-1149.143247,-444.123565,10955.047942
160.976759,-1378.971896,-444.123565,10584.944971
160.977067,-1608.800546,-370.102971,11399.171507
160.977375,-1072.533697,-1110.308913,10955.047942
160.977682,-1762.019645,-518.144159,10510.924376
160.977990,-1072.533697,-370.102971,10881.027347
160.978298,-842.705048,-222.061783,10436.903782
160.978606,-229.828649,-74.020594,10140.821405
160.978914,76.609550,-148.041188,9918.759623
160.979222,612.876398,370.102971,9474.636058
160.979530,689.485948,-296.082377,9252.574275
160.979838,1532.190996,-0.000000,9104.533087
160.980146,1532.190996,-0.000000,8512.368333
160.980454,1991.848295,-0.000000,7994.224174
160.980761,2145.067394,-0.000000,7920.203579
160.981069,2221.676944,-222.061783,7846.182985
160.981377,2451.505594,-148.041188,7846.182985
160.981685,2528.115143,-0.000000,7994.224174
160.981993,2374.896044,-370.102971,8512.368333
160.982301,1532.190996,-0.000000,8882.471304
160.982609,1149.143247,-0.000000,9104.533087
160.982917,1149.143247,222.061783,9622.677246
160.983225,1302.362347,740.205942,9844.739029
160.983533,1149.143247,444.123565,9992.780217
160.983840,1072.533697,888.247130,10140.821405
160.984148,1762.019645,888.247130,9696.697840
160.984456,1378.971896,1184.329507,9770.718434
160.984764,1378.971896,1406.391290,10140.821405
160.985072,1072.533697,1480.411884,9918.759623
160.985380,995.924147,1554.432478,9844.739029
160.985688,689.485948,1332.370696,9622.677246
160.985996,689.485948,666.185348,9622.677246
160.986304,0.000000,296.082377,10436.903782
160.986612,-536.266849,-222.061783,10288.862594
160.986919,-459.657299,-518.144159,10807.006753
160.987227,-1455.581446,-888.247130,11177.109724
160.987535,-1532.190996,-592.164754,11399.171507
160.987843,-1378.971896,-666.185348,11399.171507
160.988151,-1225.752797,-518.144159,11251.130318
160.988459,-612.876398,-444.123565,10807.006753
160.988767,0.000000,-370.102971,10288.862594
160.989075,766.095498,148.041188,9474.636058
160.989383,1149.143247,370.102971,8956.491898
160.989691,1838.629195,740.205942,8290.306550
160.989998,2068.457845,740.205942,7846.182985
160.990306,2604.724693,592.164754,7402.059420
160.990614,2298.286494,222.061783,7624.121203
160.990922,2757.943793,-0.000000,7920.203579
160.991230,2068.457845,-592.164754,8290.306550
160.991538,1838.629195,-518.144159,8364.327145
160.991846,1685.410096,-814.226536,8882.471304
160.992154,1149.143247,-888.247130,8956.491898
160.992462,919.314598,-814.226536,9400.615463
160.992770,842.705048,-444.123565,9474.636058
160.993077,842.705048,222.061783,9474.636058
160.993385,842.705048,666.185348,9548.656652
160.993693,919.314598,814.226536,9474.636058
160.994002,1608.800546,1628.453072,9548.656652
160.994310,1378.971896,1998.556043,9252.574275
160.994618,689.485948,1924.535449,9474.636058
160.994926,919.314598,1406.391290,9622.677246
160.995234,229.828649,1258.350101,9770.718434
160.995542,-306.438199,740.205942,10658.965565
160.995850,-766.095498,296.082377,10732.986159
160.996158,-1072.533697,-296.082377,11177.109724
160.996467,-1762.019645,-962.267725,11251.130318
160.996775,-2068.457845,-1406.391290,11547.212695
160.997083,-1685.410096,-888.247130,11177.109724
160.997391,-1455.581446,-740.205942,11399.171507
160.997699,-1225.752797,-0.000000,10881.027347
160.998007,-842.705048,-0.000000,10510.924376
160.998315,-459.657299,592.164754,10362.883188
160.998623,536.266849,740.205942,10066.800811
160.998931,536.266849,814.226536,9548.656652
160.999240,995.924147,888.247130,9326.594869
160.999548,1608.800546,666.185348,8882.471304
160.999856,1608.800546,222.061783,8512.368333
161.000164,1608.800546,-74.020594,8364.327145
161.000472,1991.848295,-296.082377,8290.306550
161.000780,2068.457845,-592.164754,8512.368333
161.001088,2221.676944,-444.123565,8290.306550
161.001396,2451.505594,-814.226536,8216.285956
161.001705,2145.067394,-592.164754,8882.471304
161.002013,1838.629195,-666.185348,8586.388927
161.002321,1685.410096,-148.041188,8882.471304
161.002629,1302.362347,-148.041188,9104.533087
161.002937,1225.752797,444.123565,9474.636058
161.003245,1302.362347,592.164754,9548.656652
161.003553,1685.410096,1036.288319,10066.800811
161.003861,1149.143247,1332.370696,9622.677246
161.004170,1378.971896,1406.391290,9400.615463
161.004478,1225.752797,1850.514855,9474.636058
161.004786,1685.410096,1628.453072,9770.718434
161.005094,536.266849,1332.370696,9252.574275
161.005402,459.657299,1036.288319,10140.821405
161.005710,766.095498,296.082377,10584.944971
161.006018,0.000000,-0.000000,10362.883188
161.006326,-383.047749,-74.020594,11399.171507
161.006635,-919.314598,-370.102971,10732.986159
161.006943,-842.705048,-814.226536,11251.130318
161.007251,-1455.581446,-592.164754,11177.109724
161.007559,-842.705048,-592.164754,11177.109724
161.007867,-919.314598,-370.102971,11029.068536
161.008175,-306.438199,-296.082377,10658.965565
161.008483,-689.485948,370.102971,10288.862594
161.008791,689.485948,222.061783,9844.739029
161.009099,1455.581446,370.102971,9178.553681
161.009408,1302.362347,592.164754,8586.388927
161.009716,1915.238745,518.144159,8438.347739
161.010024,2068.457845,222.061783,8068.244768
161.010332,1915.238745,518.144159,7846.182985
161.010640,2298.286494,296.082377,7698.141797
161.010948,2221.676944,-296.082377,7402.059420
161.011256,2374.896044,-518.144159,8142.265362
161.011564,1608.800546,-222.061783,8438.347739
161.011873,1378.971896,-592.164754,8882.471304
161.012181,766.095498,-814.226536,8808.450710
161.012489,612.876398,-592.164754,9474.636058
161.012797,842.705048,-222.061783,9696.697840
161.013105,612.876398,-148.041188,9918.759623
161.013413,919.314598,666.185348,9696.697840
161.013721,306.438199,1110.308913,9992.780217
161.014029,689.485948,740.205942,9844.739029
161.014338,766.095498,1406.391290,9770.718434
161.014646,612.876398,1480.411884,9696.697840
161.014954,306.438199,1628.453072,9770.718434
161.015262,306.438199,1184.329507,10066.800811
161.015570,0.000000,1036.288319,10066.800811
161.015878,-612.876398,-0.000000,9918.759623
161.016186,-536.266849,-222.061783,10881.027347
161.016494,-1532.190996,-0.000000,11103.089130
161.016803,-1608.800546,-444.123565,11399.171507
161.017111,-1838.629195,-518.144159,11103.089130
161.017419,-1455.581446,-222.061783,10955.047942
161.017727,-1149.143247,-296.082377,10881.027347
161.018035,-1072.533697,-0.000000,11177.109724
161.018343,-229.828649,-0.000000,10140.821405
161.018651,-229.828649,-0.000000,9770.718434
161.018959,383.047749,666.185348,9992.780217
161.019267,995.924147,-0.000000,9252.574275
161.019576,1225.752797,222.061783,9178.553681
161.019884,1532.190996,-0.000000,8734.430116
161.020192,2145.067394,-74.020594,8142.265362
161.020500,1991.848295,-444.123565,8068.244768
161.020808,2145.067394,-222.061783,8290.306550
161.021116,1915.238745,-666.185348,7846.182985
161.021424,2145.067394,-148.041188,8068.244768
161.021732,1991.848295,-592.164754,8364.327145
161.022041,1762.019645,-296.082377,8364.327145
161.022349,1532.190996,-0.000000,8808.450710
161.022657,1762.019645,-0.000000,9030.512492
161.022965,1608.800546,370.102971,9400.615463
161.023273,1762.019645,740.205942,9548.656652
161.023581,1532.190996,814.226536,9474.636058
161.023889,1378.971896,1110.308913,9622.677246
161.024197,1378.971896,1332.370696,9548.656652
161.024506,919.314598,1406.391290,9844.739029
161.024814,842.705048,1184.329507,9918.759623
161.025122,766.095498,1184.329507,10288.862594
161.025430,612.876398,296.082377,10140.821405
161.025738,76.609550,296.082377,10732.986159
161.026046,0.000000,-222.061783,10732.986159
161.026354,-383.047749,-0.000000,10362.883188
161.026662,-612.876398,-148.041188,10955.047942
161.026971,-995.924147,-222.061783,10955.047942
161.027279,-842.705048,-370.102971,10881.027347
161.027587,-842.705048,-296.082377,10732.986159
161.027895,-459.657299,-370.102971,10807.006753
161.028203,0.000000,-0.000000,10214.842000
161.028511,76.609550,-0.000000,9696.697840
161.028819,383.047749,-0.000000,9474.636058
161.029127,689.485948,444.123565,9178.553681
161.029435,1455.581446,444.123565,8512.368333
161.029744,1762.019645,222.061783,8290.306550
161.030052,1762.019645,370.102971,7920.203579
161.030360,2681.334243,-0.000000,7920.203579
161.030668,2298.286494,222.061783,7994.224174
161.030976,2068.457845,-222.061783,7920.203579
161.031284,2374.896044,-148.041188,8142.265362
161.031592,1838.629195,-444.123565,8290.306550
161.031900,1532.190996,-592.164754,8882.471304
161.032209,1302.362347,-666.185348,9326.594869
161.032517,766.095498,-592.164754,9548.656652
161.032825,612.876398,-444.123565,10066.800811
161.033133,919.314598,-0.000000,9844.739029
161.033441,919.314598,592.164754,10214.842000
161.033749,612.876398,962.267725,9696.697840
161.034057,842.705048,1406.391290,9622.677246
161.034365,995.924147,1850.514855,9474.636058
161.034674,766.095498,1850.514855,9622.677246
161.034982,689.485948,1628.453072,9918.759623
161.035290,383.047749,814.226536,10214.842000
161.035598,-612.876398,740.205942,10362.883188
161.035906,-1072.533697,222.061783,10584.944971
161.036214,-995.924147,-0.000000,10881.027347
161.036522,-1455.581446,-222.061783,10955.047942
161.036830,-1762.019645,-518.144159,11325.150913
161.037139,-1838.629195,-370.102971,11325.150913
161.037447,-1608.800546,-296.082377,11473.192101
161.037755,-1149.143247,-592.164754,10881.027347
161.038063,-1532.190996,-592.164754,10140.821405
161.038371,-459.657299,-0.000000,10288.862594
161.038679,-153.219100,-0.000000,9992.780217
161.038987,76.609550,222.061783,9918.759623
161.039295,536.266849,-0.000000,9474.636058
161.039603,995.924147,-0.000000,9252.574275
161.039912,1608.800546,-0.000000,8734.430116
161.040220,1838.629195,-0.000000,8438.347739
161.040528,1608.800546,-74.020594,8438.347739
161.040836,2298.286494,-296.082377,8290.306550
161.041144,2528.115143,-148.041188,7772.162391
161.041452,2221.676944,-74.020594,7624.121203
161.041760,2528.115143,-0.000000,8068.244768
161.042068,2298.286494,148.041188,7920.203579
161.042377,2298.286494,-74.020594,8364.327145
161.042685,1991.848295,296.082377,8956.491898
161.042993,1608.800546,444.123565,9252.574275
161.043301,1225.752797,222.061783,9474.636058
161.043609,689.485948,740.205942,9844.739029
161.043917,536.266849,740.205942,10214.842000
161.044225,536.266849,592.164754,10066.800811
161.044533,842.705048,666.185348,10288.862594
161.044842,536.266849,888.247130,10214.842000
161.045150,766.095498,518.144159,10584.944971
161.045458,459.657299,444.123565,10510.924376
161.045766,76.609550,-0.000000,10584.944971
161.046074,229.828649,592.164754,9844.739029
161.046382,0.000000,370.102971,10140.821405
161.046690,-229.828649,-0.000000,10214.842000
161.046998,-536.266849,-0.000000,10436.903782
161.047306,-995.924147,-148.041188,10362.883188
161.047615,-689.485948,-0.000000,10584.944971
161.047923,-766.095498,-370.102971,10584.944971
161.048231,0.000000,-370.102971,10362.883188
161.048539,-76.609550,296.082377,9992.780217
161.048847,306.438199,296.082377,9548.656652
161.049155,919.314598,-0.000000,9326.594869
161.049463,1072.533697,222.061783,9104.533087
161.049771,1838.629195,-0.000000,8734.430116
161.050080,2068.457845,-0.000000,8364.327145
161.050388,2221.676944,148.041188,8068.244768
161.050696,2604.724693,-222.061783,8438.347739
161.051004,2145.067394,-74.020594,8068.244768
161.051312,1991.848295,-518.144159,8142.265362
161.051620,1838.629195,-740.205942,8364.327145
161.051928,1685.410096,-592.164754,8808.450710
161.052236,1225.752797,-592.164754,9178.553681
161.052545,1838.629195,-296.082377,9400.615463
161.052853,1302.362347,74.020594,9474.636058
161.053161,1225.752797,518.144159,9400.615463
161.053469,1302.362347,962.267725,9622.677246
161.053777,1072.533697,1184.329507,9474.636058
161.054085,919.314598,1554.432478,9548.656652
161.054393,766.095498,1924.535449,9696.697840
161.054701,536.266849,1480.411884,9770.718434
161.055010,0.000000,1628.453072,10584.944971
161.055318,-306.438199,888.247130,10584.944971
161.055626,-1149.143247,740.205942,10732.986159
161.055934,-1149.143247,148.041188,11177.109724
161.056242,-1532.190996,-148.041188,11251.130318
161.056550,-1532.190996,-370.102971,11103.089130
161.056858,-2145.067394,-370.102971,11547.212695
161.057166,-1455.581446,-592.164754,11621.233289
161.057474,-1762.019645,-444.123565,10881.027347
161.057783,-689.485948,-444.123565,11251.130318
161.058091,-459.657299,-370.102971,10658.965565
161.058399,-229.828649,-0.000000,10140.821405
161.058707,76.609550,222.061783,9844.739029
161.059015,383.047749,444.123565,9548.656652
161.059323,1302.362347,370.102971,9252.574275
161.059631,1455.581446,222.061783,8808.450710
161.059939,1838.629195,296.082377,8364.327145
161.060248,2068.457845,-0.000000,7920.203579
161.060556,2298.286494,-0.000000,8290.306550
161.060864,2374.896044,-0.000000,7624.121203
161.061172,2604.724693,-0.000000,7328.038826
161.061480,2681.334243,222.061783,7402.059420
161.061788,2604.724693,-148.041188,7994.224174
161.062096,2451.505594,-222.061783,8290.306550
161.062404,1685.410096,-666.185348,9030.512492
161.062713,766.095498,-296.082377,9400.615463
161.063021,306.438199,-0.000000,9992.780217
161.063329,459.657299,-0.000000,10362.883188
161.063637,459.657299,296.082377,10362.883188
161.063945,842.705048,370.102971,10436.903782
161.064253,842.705048,444.123565,10066.800811
161.064561,919.314598,592.164754,9696.697840
161.064869,1225.752797,888.247130,10140.821405
161.065178,1455.581446,814.226536,9326.594869
161.065486,1072.533697,888.247130,9104.533087
161.065794,1072.533697,1036.288319,9400.615463
161.066102,612.876398,740.205942,9548.656652
161.066410,76.609550,518.144159,9770.718434
161.066718,0.000000,-0.000000,10288.862594
161.067026,0.000000,-0.000000,10584.944971
161.067334,-919.314598,-148.041188,10881.027347
161.067642,-1072.533697,-296.082377,10510.924376
161.067951,-919.314598,-0.000000,10362.883188
161.068259,-612.876398,-0.000000,10658.965565
161.068567,-153.219100,-0.000000,10362.883188
161.068875,76.609550,-0.000000,9918.759623
161.069183,229.828649,-222.061783,9696.697840
161.069491,919.314598,-0.000000,9696.697840
161.069799,1149.143247,-0.000000,9252.574275
161.070107,1225.752797,-74.020594,8512.368333
161.070416,2145.067394,-0.000000,8512.368333
161.070724,1915.238745,-74.020594,8512.368333
161.071032,1915.238745,-74.020594,8364.327145
161.071340,1762.019645,-74.020594,8364.327145
161.071648,2068.457845,-444.123565,8586.388927
161.071956,1915.238745,-666.185348,8364.327145
161.072264,1608.800546,-740.205942,8808.450710
161.072572,1685.410096,222.061783,9104.533087
161.072881,1225.752797,222.061783,9252.574275
161.073189,1072.533697,666.185348,9178.553681
161.073497,995.924147,1110.308913,9104.533087
161.073805,995.924147,1776.494261,9400.615463
161.074113,995.924147,1628.453072,9474.636058
161.074421,995.924147,1924.535449,9918.759623
161.074729,842.705048,1628.453072,9992.780217
161.075037,0.000000,1110.308913,9992.780217
161.075346,-536.266849,740.205942,10732.986159
161.075654,-1149.143247,444.123565,11029.068536
161.075962,-1302.362347,-296.082377,11251.130318
161.076270,-1762.019645,-666.185348,11399.171507
161.076578,-2068.457845,-1036.288319,11473.192101
161.076886,-2221.676944,-962.267725,11399.171507
161.077194,-1532.190996,-1184.329507,11325.150913
161.077502,-1838.629195,-444.123565,10955.047942
161.077810,-1149.143247,-370.102971,10732.986159
161.078119,-536.266849,-148.041188,10436.903782
161.078427,-459.657299,148.041188,10066.800811
161.078735,229.828649,370.102971,9770.718434
161.079043,995.924147,296.082377,8660.409521
161.079351,1302.362347,148.041188,8734.430116
161.079659,1915.238745,-0.000000,8364.327145
161.079967,2298.286494,-0.000000,8142.265362
161.080275,2221.676944,296.082377,7920.203579
161.080584,2451.505594,-0.000000,7698.141797
161.080892,2451.505594,-0.000000,7476.080014
161.081200,2528.115143,-0.000000,7624.121203
161.081508,2451.505594,-0.000000,7772.162391
161.081816,2604.724693,-518.144159,7994.224174
161.082124,2145.067394,-296.082377,8660.409521
161.082432,1608.800546,-370.102971,8660.409521
161.082740,919.314598,-222.061783,9548.656652
161.083049,689.485948,-222.061783,10140.821405
161.083357,229.828649,-0.000000,10288.862594
161.083665,306.438199,-0.000000,10436.903782
161.083973,459.657299,-0.000000,10510.924376
161.084281,1072.533697,518.144159,10584.944971
161.084589,995.924147,666.185348,10140.821405
161.084897,1225.752797,888.247130,9548.656652
161.085205,1608.800546,888.247130,9548.656652
161.085513,1378.971896,1406.391290,9400.615463
161.085822,1149.143247,1332.370696,9178.553681
161.086130,1225.752797,1184.329507,9252.574275
161.086438,919.314598,1110.308913,9548.656652
161.086746,76.609550,518.144159,9918.759623
161.087054,76.609550,-0.000000,10436.903782
161.087362,-229.828649,-296.082377,10510.924376
161.087670,-1225.752797,-148.041188,10955.047942
161.087978,-842.705048,-444.123565,10881.027347
161.088287,-842.705048,-444.123565,10955.047942
161.088595,-536.266849,-444.123565,10584.944971
161.088903,229.828649,-148.041188,10732.986159
161.089211,766.095498,-666.185348,9918.759623
161.089519,995.924147,-370.102971,9696.697840
161.089827,1838.629195,-222.061783,8882.471304
161.090135,1532.190996,-0.000000,8734.430116
161.090443,1762.019645,-0.000000,8512.368333
161.090752,1838.629195,-0.000000,8438.347739
161.091060,1991.848295,-0.000000,8142.265362
161.091368,2221.676944,-148.041188,8216.285956
161.091676,1915.238745,-444.123565,8438.347739
161.091984,1685.410096,-222.061783,8882.471304
161.092292,1762.019645,-370.102971,8808.450710
161.092600,995.924147,-0.000000,8882.471304
161.092908,1149.143247,-0.000000,9178.553681
161.093217,766.095498,592.164754,9548.656652
161.093525,842.705048,962.267725,9696.697840
161.093833,842.705048,1332.370696,9696.697840
161.094141,1378.971896,1628.453072,9696.697840
161.094449,536.266849,1850.514855,9844.739029
161.094757,842.705048,1332.370696,9918.759623
161.095066,229.828649,1554.432478,9992.780217
161.095374,0.000000,1184.329507,10066.800811
161.095682,-536.266849,222.061783,10362.883188
161.095990,-1225.752797,-0.000000,10807.006753
161.096298,-1532.190996,-814.226536,11399.171507
161.096606,-1915.238745,-888.247130,11769.274478
161.096914,-2374.896044,-1406.391290,11473.192101
161.097223,-2528.115143,-1258.350101,11547.212695
161.097531,-1991.848295,-962.267725,11325.150913
161.097839,-1378.971896,-592.164754,10732.986159
161.098147,-766.095498,-148.041188,10807.006753
161.098455,0.000000,370.102971,10214.842000
161.098763,459.657299,370.102971,9696.697840
161.099072,1072.533697,518.144159,9252.574275
161.099380,1532.190996,666.185348,8586.388927
161.099688,1762.019645,222.061783,8660.409521
161.099996,2068.457845,222.061783,7994.224174
161.100304,2221.676944,-0.000000,8068.244768
161.100612,2145.067394,-74.020594,8068.244768
161.100920,2298.286494,-148.041188,7624.121203
161.101229,2374.896044,-74.020594,7772.162391
161.101537,2528.115143,-444.123565,7698.141797
161.101845,2298.286494,-666.185348,8512.368333
161.102153,1455.581446,-444.123565,8882.471304
161.102461,995.924147,-518.144159,9178.553681
161.102769,766.095498,-0.000000,9696.697840
161.103077,536.266849,-0.000000,10140.821405
161.103386,536.266849,74.020594,10214.842000
161.103694,383.047749,370.102971,10066.800811
161.104002,1225.752797,962.267725,9992.780217
161.104310,1455.581446,962.267725,9622.677246
161.104618,1378.971896,1628.453072,9622.677246
161.104926,1378.971896,1480.411884,9622.677246
161.105235,1608.800546,1628.453072,9326.594869
161.105543,1302.362347,1332.370696,9474.636058
161.105851,1455.581446,666.185348,9252.574275
161.106159,612.876398,814.226536,9770.718434
161.106467,612.876398,592.164754,9844.739029
161.106775,-229.828649,-0.000000,10066.800811
161.107083,-536.266849,-148.041188,10955.047942
161.107392,-919.314598,-222.061783,11103.089130
161.107700,-995.924147,-222.061783,11251.130318
161.108008,-842.705048,-444.123565,11029.068536
161.108316,-306.438199,-222.061783,10881.027347
161.108624,-229.828649,-444.123565,10436.903782
161.108932,689.485948,-0.000000,10732.986159
161.109241,689.485948,-296.082377,10066.800811
161.109549,1302.362347,-0.000000,9548.656652
161.109857,1532.190996,-0.000000,8882.471304
161.110165,1608.800546,370.102971,8438.347739
161.110473,2145.067394,370.102971,7994.224174
161.110781,2374.896044,-148.041188,7624.121203
161.111089,2681.334243,-74.020594,7846.182985
161.111398,2145.067394,-0.000000,7994.224174
161.111706,1915.238745,-444.123565,7920.203579
161.112014,1915.238745,-296.082377,8734.430116
161.112322,1378.971896,-148.041188,8882.471304
161.112630,1455.581446,-148.041188,9252.574275
161.112938,1149.143247,370.102971,9400.615463
161.113246,1455.581446,888.247130,9326.594869
161.113555,1149.143247,814.226536,9326.594869
161.113863,1072.533697,1776.494261,9474.636058
161.114171,536.266849,1924.535449,9474.636058
161.114479,842.705048,2220.617826,9548.656652
161.114787,536.266849,1628.453072,9696.697840
161.115095,0.000000,1480.411884,9844.739029
161.115404,-459.657299,888.247130,10510.924376
161.115712,-536.266849,296.082377,10955.047942
161.116020,-1608.800546,-444.123565,11325.150913
161.116328,-2068.457845,-888.247130,11473.192101
161.116636,-2604.724693,-1184.329507,11843.295072
161.116944,-2374.896044,-1332.370696,11843.295072
161.117252,-2221.676944,-1110.308913,11547.212695
161.117561,-1762.019645,-814.226536,11325.150913
161.117869,-1378.971896,-296.082377,10881.027347
161.118177,0.000000,-0.000000,10584.944971
161.118485,0.000000,-0.000000,9770.718434
161.118793,689.485948,-74.020594,9474.636058
161.119101,766.095498,592.164754,9548.656652
161.119410,1302.362347,518.144159,8956.491898
161.119718,1685.410096,518.144159,8438.347739
161.120026,1838.629195,370.102971,7772.162391
161.120334,2374.896044,296.082377,7920.203579
161.120642,2528.115143,-0.000000,7550.100608
161.120950,2068.457845,-74.020594,7328.038826
161.121258,2451.505594,-666.185348,7772.162391
161.121567,2374.896044,-444.123565,8142.265362
161.121875,1455.581446,-592.164754,8808.450710
161.122183,1455.581446,-740.205942,9400.615463
161.122491,536.266849,-740.205942,9622.677246
161.122799,306.438199,-518.144159,9992.780217
161.123107,612.876398,-74.020594,10584.944971
161.123416,383.047749,-74.020594,10362.883188
161.123724,612.876398,592.164754,10214.842000
161.124032,1302.362347,592.164754,9844.739029
161.124340,1149.143247,1036.288319,9326.594869
161.124648,1685.410096,1924.535449,9326.594869
161.124956,2068.457845,1850.514855,9030.512492
161.125264,1991.848295,1998.556043,8956.491898
161.125573,1608.800546,1628.453072,9326.594869
161.125881,1608.800546,1258.350101,9770.718434
161.126189,919.314598,1036.288319,10288.862594
161.126497,153.219100,222.061783,10510.924376
161.126805,-383.047749,-148.041188,10881.027347
161.127113,-689.485948,-444.123565,11325.150913
161.127421,-1149.143247,-740.205942,11325.150913
161.127730,-689.485948,-740.205942,11399.171507
161.128038,-766.095498,-592.164754,11325.150913
161.128346,0.000000,-444.123565,11399.171507
161.128654,0.000000,-222.061783,10362.883188
161.128962,612.876398,-74.020594,9844.739029
161.129270,995.924147,222.061783,9400.615463
161.129579,1378.971896,296.082377,9030.512492
161.129887,1762.019645,518.144159,8586.388927
161.130195,2068.457845,518.144159,8068.244768
161.130503,1762.019645,148.041188,7846.182985
161.130811,1915.238745,-0.000000,8660.409521
161.131119,2298.286494,-444.123565,8512.368333
161.131427,1685.410096,-370.102971,8660.409521
161.131736,2145.067394,-370.102971,8438.347739
161.132044,1762.019645,-518.144159,8734.430116
161.132352,1762.019645,-296.082377,8882.471304
161.132660,1149.143247,222.061783,9030.512492
161.132968,1685.410096,296.082377,8808.450710
161.133276,689.485948,1110.308913,9400.615463
161.133585,1149.143247,1332.370696,9844.739029
161.133893,1378.971896,1702.473667,9474.636058
161.134201,612.876398,1924.535449,9474.636058
161.134509,689.485948,1776.494261,9696.697840
161.134817,0.000000,1332.370696,9918.759623
161.135125,-153.219100,814.226536,10214.842000
161.135433,-995.924147,222.061783,10732.986159
161.135742,-1302.362347,-148.041188,11251.130318
161.136050,-1762.019645,-518.144159,11695.253884
161.136358,-2068.457845,-1406.391290,11473.192101
161.136666,-2145.067394,-1110.308913,11177.109724
161.136974,-2221.676944,-888.247130,11325.150913
161.137282,-1608.800546,-740.205942,10881.027347
161.137590,-1149.143247,-222.061783,10658.965565
161.137899,-536.266849,-0.000000,10288.862594
161.138207,76.609550,222.061783,10214.842000
161.138515,-306.438199,518.144159,9844.739029
161.138823,383.047749,444.123565,9474.636058
161.139131,995.924147,518.144159,9252.574275
161.139439,1225.752797,592.164754,9030.512492
161.139748,1149.143247,370.102971,8586.388927
161.140056,2451.505594,148.041188,7994.224174
161.140364,2145.067394,-0.000000,7994.224174
161.140672,2068.457845,-592.164754,8142.265362
161.140980,1991.848295,-0.000000,7994.224174
161.141288,1838.629195,-518.144159,8142.265362
161.141596,1838.629195,-148.041188,8290.306550
161.141905,1762.019645,-592.164754,8660.409521
161.142213,1302.362347,-222.061783,9474.636058
161.142521,383.047749,-518.144159,9548.656652
161.142829,766.095498,-296.082377,9696.697840
161.143137,76.609550,-148.041188,10436.903782
161.143445,383.047749,222.061783,10658.965565
161.143754,612.876398,296.082377,10288.862594
161.144062,1225.752797,1036.288319,9844.739029
161.144370,1378.971896,1480.411884,9474.636058
161.144678,1838.629195,1776.494261,9178.553681
161.144986,1991.848295,1998.556043,9474.636058
161.145294,1762.019645,1850.514855,9474.636058
161.145602,2145.067394,1850.514855,9474.636058
161.145911,995.924147,1628.453072,9326.594869
161.146219,842.705048,814.226536,9696.697840
161.146527,536.266849,592.164754,9918.759623
161.146835,-229.828649,222.061783,10510.924376
161.147143,-612.876398,-74.020594,11177.109724
161.147451,-1455.581446,-370.102971,11177.109724
161.147759,-1072.533697,-666.185348,11251.130318
161.148068,-919.314598,-814.226536,11473.192101
161.148376,-153.219100,-444.123565,10955.047942
161.148684,0.000000,-518.144159,10732.986159
161.148992,229.828649,-370.102971,10214.842000
161.149300,536.266849,-74.020594,9770.718434
161.149608,1072.533697,-0.000000,9252.574275
161.149917,1225.752797,296.082377,8882.471304
161.150225,1762.019645,-0.000000,8512.368333
161.150533,2145.067394,-0.000000,8216.285956
161.150841,2451.505594,-518.144159,7994.224174
161.151149,1915.238745,-444.123565,8068.244768
161.151457,2145.067394,-518.144159,8364.327145
161.151765,1762.019645,-666.185348,8290.306550
161.152074,1838.629195,-222.061783,8512.368333
161.152382,1608.800546,-0.000000,8882.471304
161.152690,1608.800546,370.102971,8438.347739
161.152998,1915.238745,888.247130,8660.409521
161.153306,1685.410096,1258.350101,8808.450710
161.153614,1378.971896,1332.370696,8882.471304
161.153923,1149.143247,1924.535449,9104.533087
161.154231,689.485948,2072.576638,9474.636058
161.154539,306.438199,1554.432478,9844.739029
161.154847,-459.657299,1258.350101,9770.718434
161.155155,-766.095498,666.185348,10732.986159
161.155463,-1072.533697,-444.123565,11325.150913
161.155771,-1532.190996,-740.205942,11547.212695
161.156080,-2374.896044,-1258.350101,11769.274478
161.156388,-2451.505594,-1184.329507,11547.212695
161.156696,-1991.848295,-1480.411884,11547.212695
161.157004,-1532.190996,-962.267725,11251.130318
161.157312,-1378.971896,-370.102971,10807.006753
161.157620,-459.657299,-74.020594,10214.842000
161.157928,0.000000,-0.000000,10214.842000
161.158237,-459.657299,222.061783,9474.636058
161.158545,0.000000,592.164754,9400.615463
161.158853,1149.143247,666.185348,9030.512492
161.159161,1302.362347,666.185348,8734.430116
161.159469,1608.800546,518.144159,8512.368333
161.159777,1915.238745,740.205942,8734.430116
161.160086,1762.019645,-0.000000,8216.285956
161.160394,1838.629195,-296.082377,8586.388927
161.160702,2068.457845,-74.020594,8660.409521
161.161010,1915.238745,-814.226536,8290.306550
161.161318,1532.190996,-518.144159,8512.368333
161.161626,1302.362347,-518.144159,8808.450710
161.161934,1378.971896,-518.144159,9474.636058
161.162243,842.705048,-518.144159,9474.636058
161.162551,766.095498,-592.164754,10066.800811
161.162859,919.314598,-148.041188,10140.821405
161.163167,536.266849,-74.020594,10510.924376
161.163475,383.047749,370.102971,10362.883188
161.163783,995.924147,666.185348,10140.821405
161.164092,1302.362347,1110.308913,9770.718434
161.164400,1762.019645,1628.453072,9400.615463
161.164708,2528.115143,1924.535449,9252.574275
161.165016,2068.457845,2220.617826,9178.553681
161.165324,2374.896044,1628.453072,8882.471304
161.165632,2298.286494,1554.432478,8882.471304
161.165940,1838.629195,1702.473667,9178.553681
161.166249,1072.533697,1110.308913,9474.636058
161.166557,306.438199,740.205942,9622.677246
161.166865,0.000000,518.144159,10510.924376
161.167173,-459.657299,-148.041188,11029.068536
161.167481,-1072.533697,-814.226536,11325.150913
161.167789,-1149.143247,-1184.329507,11621.233289
161.168097,-1072.533697,-888.247130,11621.233289
161.168406,-995.924147,-962.267725,11251.130318
161.168714,-612.876398,-740.205942,10881.027347
161.169022,-153.219100,-740.205942,10436.903782
161.169330,383.047749,-444.123565,9770.718434
161.169638,842.705048,-814.226536,9400.615463
161.169946,1762.019645,-0.000000,9474.636058
161.170255,1915.238745,-74.020594,9104.533087
161.170563,1915.238745,-148.041188,8438.347739
161.170871,2374.896044,-0.000000,7772.162391
161.171179,2221.676944,-296.082377,7920.203579
161.171487,2298.286494,-0.000000,7698.141797
161.171795,2145.067394,-148.041188,7920.203579
161.172103,2451.505594,-222.061783,7772.162391
161.172412,2145.067394,-0.000000,8438.347739
161.172720,2298.286494,148.041188,8438.347739
161.173028,1532.190996,962.267725,8512.368333
161.173336,1532.190996,1258.350101,8660.409521
161.173644,1149.143247,1850.514855,8808.450710
161.173952,919.314598,1850.514855,9400.615463
161.174261,306.438199,1776.494261,9622.677246
161.174569,0.000000,1332.370696,10066.800811
161.174877,-229.828649,1036.288319,10955.047942
161.175185,-1455.581446,592.164754,10881.027347
161.175493,-1149.143247,-74.020594,11547.212695
161.175801,-1762.019645,-592.164754,11621.233289
161.176109,-1991.848295,-1036.288319,11621.233289
161.176418,-2298.286494,-1406.391290,11621.233289
161.176726,-2145.067394,-1702.473667,11695.253884
161.177034,-1455.581446,-1036.288319,11251.130318
161.177342,-1378.971896,-518.144159,11177.109724
161.177650,-995.924147,-148.041188,10140.821405
161.177958,-153.219100,-0.000000,9918.759623
161.178266,0.000000,592.164754,9770.718434
161.178575,536.266849,814.226536,9400.615463
161.178883,1072.533697,1110.308913,9400.615463
161.179191,1072.533697,888.247130,8882.471304
161.179499,995.924147,518.144159,8660.409521
161.179807,1762.019645,444.123565,8438.347739
161.180115,1378.971896,296.082377,8660.409521
161.180424,1225.752797,-0.000000,8216.285956
161.180732,1762.019645,-222.061783,8290.306550
161.181040,1762.019645,-296.082377,8512.368333
161.181348,1762.019645,-370.102971,8586.388927
161.181656,1532.190996,-444.123565,8734.430116
161.181964,1225.752797,-444.123565,9030.512492
161.182272,1302.362347,-592.164754,9770.718434
161.182581,153.219100,-518.144159,9918.759623
161.182889,459.657299,-74.020594,10436.903782
161.183197,383.047749,-0.000000,10140.821405
161.183505,536.266849,444.123565,10066.800811
161.183813,919.314598,814.226536,10362.883188
161.184121,1378.971896,1110.308913,9696.697840
161.184430,1378.971896,1110.308913,9474.636058
161.184738,2145.067394,1554.432478,9326.594869
161.185046,2068.457845,1776.494261,9178.553681
161.185354,1915.238745,1998.556043,9252.574275
161.185662,2068.457845,2146.597232,8882.471304
161.185970,1838.629195,1924.535449,8808.450710
161.186278,1225.752797,1628.453072,9326.594869
161.186587,1072.533697,814.226536,9548.656652
161.186895,76.609550,222.061783,10288.862594
161.187203,-842.705048,-0.000000,10881.027347
161.187511,-1149.143247,-444.123565,11251.130318
161.187819,-1455.581446,-888.247130,11547.212695
161.188127,-1378.971896,-962.267725,11695.253884
161.188435,-995.924147,-1110.308913,11325.150913
161.188744,-612.876398,-1036.288319,11103.089130
161.189052,-383.047749,-1110.308913,11177.109724
161.189360,306.438199,-962.267725,10436.903782
161.189668,612.876398,-740.205942,10140.821405
161.189976,1225.752797,-592.164754,9104.533087
161.190284,1685.410096,-0.000000,8290.306550
161.190593,2068.457845,370.102971,7920.203579
161.190901,2757.943793,370.102971,7772.162391
161.191209,2911.162892,370.102971,7402.059420
161.191517,2451.505594,148.041188,7476.080014
161.191825,2911.162892,-0.000000,8068.244768
161.192133,2221.676944,-0.000000,7920.203579
161.192441,2068.457845,296.082377,8512.368333
161.192750,1762.019645,666.185348,8512.368333
161.193058,1532.190996,888.247130,8734.430116
161.193366,1225.752797,1036.288319,9104.533087
161.193674,1072.533697,1406.391290,9326.594869
161.193982,536.266849,1332.370696,9696.697840
161.194290,689.485948,1036.288319,10066.800811
161.194598,-229.828649,1258.350101,10732.986159
161.194907,-459.657299,814.226536,10658.965565
161.195215,-995.924147,518.144159,10955.047942
161.195523,-1302.362347,-0.000000,11251.130318
161.195831,-1762.019645,-444.123565,11251.130318
161.196139,-1915.238745,-592.164754,11325.150913
161.196447,-1838.629195,-962.267725,11547.212695
161.196755,-2221.676944,-1184.329507,11325.150913
161.197063,-1532.190996,-592.164754,11621.233289
161.197372,-842.705048,-1036.288319,10362.883188
161.197680,-766.095498,-296.082377,10214.842000
161.197988,-229.828649,-0.000000,10214.842000
161.198296,0.000000,370.102971,9696.697840
161.198604,306.438199,518.144159,9474.636058
161.198912,766.095498,444.123565,9474.636058
161.199220,995.924147,740.205942,9104.533087
161.199528,1608.800546,370.102971,8882.471304
161.199837,1838.629195,444.123565,8586.388927
161.200145,1762.019645,-0.000000,8290.306550
161.200453,2068.457845,-0.000000,8512.368333
161.200761,2068.457845,-74.020594,8290.306550
161.201069,1838.629195,-518.144159,8438.347739
161.201377,1302.362347,-222.061783,8660.409521
161.201685,1455.581446,-592.164754,8734.430116
161.201993,842.705048,-666.185348,9104.533087
161.202302,306.438199,-888.247130,9770.718434
161.202610,459.657299,-444.123565,9844.739029
161.202918,0.000000,-518.144159,10362.883188
161.203226,0.000000,-0.000000,10436.903782
161.203534,76.609550,444.123565,10066.800811
161.203842,612.876398,592.164754,10066.800811
161.204150,1532.190996,1480.411884,9844.739029
161.204458,1762.019645,1554.432478,9400.615463
161.204766,2221.676944,1776.494261,9326.594869
161.205075,2374.896044,2220.617826,8808.450710
161.205383,2298.286494,2146.597232,8734.430116
161.205691,1915.238745,2072.576638,8808.450710
161.205999,1608.800546,1850.514855,9030.512492
161.206307,1072.533697,962.267725,9104.533087
161.206615,689.485948,592.164754,9770.718434
161.206923,76.609550,-444.123565,10807.006753
161.207231,-842.705048,-888.247130,11177.109724
161.207540,-1838.629195,-1406.391290,11547.212695
161.207848,-1685.410096,-1406.391290,11769.274478
161.208156,-1378.971896,-1332.370696,12139.377449
161.208464,-1225.752797,-1332.370696,11547.212695
161.208772,-306.438199,-1110.308913,10955.047942
161.209080,306.438199,-592.164754,10658.965565
161.209388,1532.190996,-592.164754,9992.780217
161.209696,1762.019645,-370.102971,9400.615463
161.210005,1991.848295,296.082377,8734.430116
161.210313,2451.505594,370.102971,7920.203579
161.210621,2681.334243,444.123565,7698.141797
161.210929,2987.772442,296.082377,7624.121203
161.211237,3294.210641,370.102971,7328.038826
161.211545,2681.334243,370.102971,7772.162391
161.211853,2528.115143,-0.000000,7846.182985
161.212161,2298.286494,-0.000000,7402.059420
161.212470,2451.505594,888.247130,7994.224174
161.212778,2374.896044,962.267725,8364.327145
161.213086,1915.238745,1184.329507,8660.409521
161.213394,1532.190996,1110.308913,8882.471304
161.213702,1302.362347,1184.329507,9474.636058
161.214010,995.924147,1184.329507,9918.759623
161.214318,0.000000,1110.308913,10288.862594
161.214626,0.000000,962.267725,10658.965565
161.214935,-612.876398,740.205942,10881.027347
161.215243,-1072.533697,444.123565,10955.047942
161.215551,-1302.362347,222.061783,11399.171507
161.215859,-1455.581446,-370.102971,11769.274478
161.216167,-1838.629195,-888.247130,11621.233289
161.216475,-1915.238745,-814.226536,11621.233289
161.216783,-1991.848295,-962.267725,11843.295072
161.217091,-1915.238745,-1184.329507,11473.192101
161.217400,-1991.848295,-666.185348,11029.068536
161.217708,-1149.143247,-74.020594,10658.965565
161.218016,-459.657299,-0.000000,10510.924376
161.218324,-229.828649,370.102971,9696.697840
161.218632,306.438199,592.164754,9770.718434
161.218940,919.314598,1036.288319,9770.718434
161.219248,1608.800546,1184.329507,8660.409521
161.219556,1685.410096,888.247130,8216.285956
161.219865,1915.238745,962.267725,8068.244768
161.220173,1608.800546,518.144159,8290.306550
161.220481,1838.629195,222.061783,8216.285956
161.220789,1762.019645,-0.000000,8216.285956
161.221097,842.705048,-666.185348,8142.265362
161.221405,1378.971896,-666.185348,8808.450710
161.221713,1455.581446,-1258.350101,8956.491898
161.222021,689.485948,-1110.308913,9474.636058
161.222329,153.219100,-1258.350101,9770.718434
161.222638,0.000000,-888.247130,10066.800811
161.222946,0.000000,-814.226536,10658.965565
161.223254,0.000000,-296.082377,10510.924376
161.223562,0.000000,148.041188,10214.842000
161.223870,1072.533697,370.102971,9918.759623
161.224178,1225.752797,1332.370696,9918.759623
161.224486,2068.457845,1850.514855,9104.533087
161.224794,2145.067394,2146.597232,8808.450710
161.225103,2298.286494,2368.659014,8512.368333
161.225411,2068.457845,2368.659014,8512.368333
161.225719,2145.067394,2072.576638,8734.430116
161.226027,1685.410096,1554.432478,8882.471304
161.226335,612.876398,666.185348,9400.615463
161.226643,76.609550,148.041188,10140.821405
161.226951,-229.828649,-296.082377,11103.089130
161.227259,-1378.971896,-888.247130,11621.233289
161.227568,-1455.581446,-1184.329507,11769.274478
161.227876,-1685.410096,-1036.288319,11843.295072
161.228184,-1302.362347,-1184.329507,11547.212695
161.228492,-995.924147,-1184.329507,11695.253884
161.228800,-919.314598,-1406.391290,10807.006753
161.229108,153.219100,-592.164754,10732.986159
161.229416,919.314598,-592.164754,10214.842000
161.229724,1072.533697,-0.000000,9548.656652
161.230033,1608.800546,444.123565,8660.409521
161.230341,2298.286494,740.205942,8068.244768
161.230649,2604.724693,814.226536,7476.080014
161.230957,3370.820191,370.102971,7105.977043
161.231265,2911.162892,444.123565,7698.141797
161.231573,2911.162892,74.020594,7179.997637
161.231881,2451.505594,-296.082377,7476.080014
161.232189,2145.067394,-0.000000,7920.203579
161.232498,2145.067394,-0.000000,8512.368333
161.232806,1915.238745,296.082377,8068.244768
161.233114,1838.629195,740.205942,8734.430116
161.233422,1302.362347,814.226536,9178.553681
161.233730,1225.752797,1184.329507,9474.636058
161.234038,919.314598,1258.350101,10066.800811
161.234346,995.924147,1184.329507,9770.718434
161.234654,536.266849,1406.391290,9918.759623
161.234963,536.266849,1036.288319,10140.821405
161.235271,0.000000,444.123565,10362.883188
161.235579,-536.266849,148.041188,10881.027347
161.235887,-1378.971896,-518.144159,11399.171507
161.236195,-1455.581446,-1406.391290,11917.315666
161.236503,-2068.457845,-1258.350101,11769.274478
161.236811,-2528.115143,-1628.453072,11917.315666
161.237119,-2374.896044,-1480.411884,11769.274478
161.237428,-1991.848295,-888.247130,11325.150913
161.237736,-1378.971896,-370.102971,11029.068536
161.238044,-612.876398,296.082377,10658.965565
161.238352,-229.828649,888.247130,10140.821405
161.238660,0.000000,1036.288319,9696.697840
161.238968,919.314598,1258.350101,9400.615463
161.239276,1302.362347,1480.411884,8808.450710
161.239584,1149.143247,1554.432478,8364.327145
161.239893,1378.971896,1258.350101,8438.347739
161.240201,1608.800546,962.267725,8290.306550
161.240509,1685.410096,444.123565,7994.224174
161.240817,1149.143247,-0.000000,7920.203579
161.241125,995.924147,-444.123565,8142.265362
161.241433,1762.019645,-740.205942,8734.430116
161.241741,306.438199,-296.082377,8364.327145
161.242049,689.485948,-1110.308913,9178.553681
161.242357,459.657299,-1184.329507,9770.718434
161.242666,0.000000,-518.144159,9622.677246
161.242974,383.047749,-444.123565,10066.800811
161.243282,612.876398,-0.000000,10140.821405
161.243590,766.095498,222.061783,9844.739029
161.243898,1378.971896,592.164754,9622.677246
161.244206,1608.800546,1258.350101,9696.697840
161.244514,1532.190996,1332.370696,9548.656652
161.244822,1685.410096,1110.308913,9474.636058
161.245131,1608.800546,1110.308913,9326.594869
161.245439,1225.752797,962.267725,9474.636058
161.245747,1072.533697,592.164754,9548.656652
161.246055,1149.143247,370.102971,9770.718434
161.246363,153.219100,-0.000000,10362.883188
161.246671,0.000000,-518.144159,10288.862594
161.246979,-689.485948,-444.123565,10807.006753
161.247287,-1149.143247,-666.185348,11251.130318
161.247596,-1072.533697,-222.061783,10881.027347
161.247904,-1072.533697,-444.123565,10732.986159
161.248212,-383.047749,-370.102971,10955.047942
161.248520,-689.485948,-0.000000,10436.903782
161.248828,0.000000,-0.000000,9770.718434
161.249136,536.266849,296.082377,10066.800811
161.249444,842.705048,518.144159,9474.636058
161.249752,1378.971896,592.164754,9030.512492
161.250061,1838.629195,518.144159,8364.327145
161.250369,2068.457845,518.144159,7920.203579
161.250677,2681.334243,518.144159,7920.203579
161.250985,2911.162892,444.123565,7846.182985
161.251293,2604.724693,148.041188,7772.162391
161.251601,2374.896044,-222.061783,7402.059420
161.251909,2451.505594,-222.061783,8068.244768
161.252217,2145.067394,-0.000000,8438.347739
161.252526,2451.505594,148.041188,8586.388927
161.252834,2298.286494,370.102971,8734.430116
161.253142,2145.067394,666.185348,9326.594869
161.253450,1532.190996,740.205942,9178.553681
161.253758,1532.190996,1110.308913,9474.636058
161.254066,1455.581446,1110.308913,9326.594869
161.254374,1072.533697,1258.350101,10066.800811
161.254682,766.095498,1184.329507,10362.883188
161.254991,76.609550,592.164754,10362.883188
161.255299,306.438199,296.082377,10584.944971
161.255607,-536.266849,-222.061783,10881.027347
161.255915,-766.095498,-444.123565,10955.047942
161.256223,-919.314598,-1184.329507,11473.192101
161.256531,-1762.019645,-1036.288319,11325.150913
161.256839,-1915.238745,-1332.370696,11621.233289
161.257147,-1991.848295,-1036.288319,11399.171507
161.257456,-1762.019645,-740.205942,11399.171507
161.257764,-1838.629195,-148.041188,10881.027347
161.258072,-612.876398,296.082377,10510.924376
161.258380,0.000000,1036.288319,10288.862594
161.258688,76.609550,814.226536,9474.636058
161.258996,383.047749,1480.411884,9326.594869
161.259304,766.095498,1628.453072,8956.491898
161.259612,1072.533697,1480.411884,8586.388927
161.259921,1072.533697,1258.350101,8364.327145
161.260229,995.924147,740.205942,8216.285956
161.260537,995.924147,444.123565,8364.327145
161.260845,1455.581446,592.164754,7920.203579
161.261153,1685.410096,-296.082377,8512.368333
161.261461,1378.971896,-444.123565,8216.285956
161.261769,1072.533697,-666.185348,8882.471304
161.262077,842.705048,-962.267725,9030.512492
161.262385,842.705048,-1258.350101,9326.594869
161.262694,689.485948,-1184.329507,9622.677246
161.263002,689.485948,-962.267725,10362.883188
161.263310,1072.533697,-148.041188,10214.842000
161.263618,612.876398,222.061783,10288.862594
161.263926,1302.362347,444.123565,9696.697840
161.264234,1225.752797,1184.329507,9400.615463
161.264542,1685.410096,1184.329507,9474.636058
161.264850,1685.410096,1480.411884,9252.574275
161.265159,1072.533697,1480.411884,9326.594869
161.265467,1225.752797,888.247130,9400.615463
161.265775,919.314598,666.185348,9474.636058
161.266083,842.705048,-0.000000,9474.636058
161.266391,-229.828649,-148.041188,10362.883188
161.266699,-842.705048,-518.144159,10732.986159
161.267007,-1608.800546,-1036.288319,11251.130318
161.267315,-1762.019645,-1110.308913,11621.233289
161.267624,-1762.019645,-1702.473667,11251.130318
161.267932,-1149.143247,-1036.288319,11029.068536
161.268240,-536.266849,-592.164754,11177.109724
161.268548,-459.657299,-370.102971,10140.821405
161.268856,229.828649,-0.000000,9844.739029
161.269164,689.485948,814.226536,9474.636058
161.269472,1378.971896,962.267725,8586.388927
161.269780,1838.629195,1036.288319,8290.306550
161.270089,1915.238745,592.164754,8290.306550
161.270397,1991.848295,740.205942,7994.224174
161.270705,2374.896044,370.102971,7920.203579
161.271013,2757.943793,-0.000000,7994.224174
161.271321,2528.115143,-74.020594,7846.182985
161.271629,2528.115143,-74.020594,8290.306550
161.271937,2374.896044,-0.000000,8364.327145
161.272245,2451.505594,-0.000000,8290.306550
161.272554,2911.162892,-0.000000,8586.388927
161.272862,2298.286494,444.123565,8882.471304
161.273170,2068.457845,592.164754,8808.450710
161.273478,2298.286494,1258.350101,9696.697840
161.273786,1302.362347,1036.288319,9992.780217
161.274094,766.095498,1184.329507,10066.800811
161.274402,536.266849,1036.288319,10510.924376
161.274710,153.219100,962.267725,10807.006753
161.275019,-153.219100,518.144159,10881.027347
161.275327,-229.828649,-148.041188,11029.068536
161.275635,-766.095498,-592.164754,11325.150913
161.275943,-1225.752797,-962.267725,11621.233289
161.276251,-1378.971896,-814.226536,11547.212695
161.276559,-1532.190996,-666.185348,11473.192101
161.276867,-1072.533697,-592.164754,10881.027347
161.277175,-919.314598,-0.000000,10584.944971
161.277484,-689.485948,-0.000000,10436.903782
161.277792,-766.095498,444.123565,9622.677246
161.278100,0.000000,962.267725,9548.656652
161.278408,-153.219100,1406.391290,9400.615463
161.278716,153.219100,1332.370696,9178.553681
161.279024,229.828649,1258.350101,9104.533087
161.279332,612.876398,962.267725,8882.471304
161.279640,612.876398,518.144159,8734.430116
161.279948,689.485948,444.123565,8808.450710
161.280257,612.876398,-148.041188,8290.306550
161.280565,689.485948,-296.082377,8882.471304
161.280873,1225.752797,-888.247130,8586.388927
161.281181,1302.362347,-740.205942,8512.368333
161.281489,842.705048,-814.226536,8586.388927
161.281797,1225.752797,-962.267725,8956.491898
161.282105,995.924147,-962.267725,9252.574275
161.282413,1072.533697,-1184.329507,9326.594869
161.282722,766.095498,-444.123565,9622.677246
161.283030,766.095498,-518.144159,9770.718434
161.283338,612.876398,-296.082377,9696.697840
161.283646,995.924147,222.061783,9770.718434
161.283954,1072.533697,592.164754,9622.677246
161.284262,1378.971896,1184.329507,9400.615463
161.284570,1608.800546,1702.473667,9770.718434
161.284878,1685.410096,1332.370696,9326.594869
161.285187,1455.581446,1110.308913,9548.656652
161.285495,995.924147,1036.288319,9400.615463
161.285803,689.485948,962.267725,9548.656652
161.286111,229.828649,592.164754,9992.780217
161.286419,-306.438199,222.061783,10140.821405
161.286727,-842.705048,-148.041188,10510.924376
161.287035,-766.095498,-518.144159,11103.089130
161.287343,-1762.019645,-814.226536,11251.130318
161.287652,-1762.019645,-888.247130,11177.109724
161.287960,-1378.971896,-962.267725,11399.171507
161.288268,-1072.533697,-592.164754,11177.109724
161.288576,-842.705048,-0.000000,10584.944971
161.288884,0.000000,-74.020594,10288.862594
161.289192,459.657299,-0.000000,9474.636058
161.289500,1455.581446,444.123565,9178.553681
161.289808,2298.286494,222.061783,8512.368333
161.290117,1991.848295,518.144159,8438.347739
161.290425,2604.724693,296.082377,7624.121203
161.290733,2757.943793,518.144159,7846.182985
161.291041,3294.210641,592.164754,7476.080014
161.291349,3217.601092,592.164754,7179.997637
161.291657,3294.210641,222.061783,7550.100608
161.291965,3064.381992,-74.020594,7920.203579
161.292273,2374.896044,-74.020594,8142.265362
161.292582,2451.505594,-0.000000,8956.491898
161.292890,1991.848295,-0.000000,9178.553681
161.293198,1302.362347,444.123565,9548.656652
161.293506,1072.533697,592.164754,9918.759623
161.293814,536.266849,962.267725,10214.842000
161.294122,229.828649,888.247130,10732.986159
161.294430,612.876398,666.185348,11399.171507
161.294738,0.000000,592.164754,11103.089130
161.295047,-306.438199,296.082377,11029.068536
161.295355,-229.828649,-0.000000,11251.130318
161.295663,-766.095498,-0.000000,11177.109724
161.295971,-1072.533697,-0.000000,10881.027347
161.296279,-919.314598,-74.020594,10955.047942
161.296587,-1149.143247,-0.000000,10510.924376
161.296895,-919.314598,-296.082377,10881.027347
161.297204,-766.095498,-0.000000,10658.965565
161.297512,-766.095498,296.082377,10140.821405
161.297820,-459.657299,814.226536,9548.656652
161.298128,76.609550,1110.308913,9844.739029
161.298436,306.438199,888.247130,9474.636058
161.298744,306.438199,1332.370696,9400.615463
161.299052,536.266849,1258.350101,9252.574275
161.299361,842.705048,740.205942,8882.471304
161.299669,689.485948,444.123565,8882.471304
161.299977,766.095498,-0.000000,8808.450710
161.300285,766.095498,-222.061783,8882.471304
161.300593,842.705048,-518.144159,9104.533087
161.300901,612.876398,-740.205942,9030.512492
161.301209,536.266849,-1036.288319,8956.491898
161.301518,766.095498,-814.226536,9104.533087
161.301826,1072.533697,-1258.350101,9104.533087
161.302134,459.657299,-1258.350101,9474.636058
161.302442,612.876398,-1036.288319,9696.697840
161.302750,842.705048,-592.164754,9474.636058
161.303058,919.314598,-0.000000,9696.697840
161.303366,919.314598,222.061783,9844.739029
161.303675,1149.143247,814.226536,9844.739029
161.303983,1225.752797,1036.288319,9548.656652
161.304291,1762.019645,1554.432478,9474.636058
161.304599,1685.410096,1258.350101,9326.594869
161.304907,1838.629195,1332.370696,9178.553681
161.305215,1072.533697,1480.411884,9252.574275
161.305523,919.314598,1702.473667,9474.636058
161.305832,536.266849,1480.411884,9548.656652
161.306140,76.609550,740.205942,9918.759623
161.306448,-306.438199,444.123565,10066.800811
161.306756,-689.485948,-0.000000,10510.924376
161.307064,-1225.752797,-370.102971,11029.068536
161.307372,-1225.752797,-888.247130,11621.233289
161.307681,-1378.971896,-814.226536,11621.233289
161.307989,-1378.971896,-1036.288319,11325.150913
161.308297,-842.705048,-888.247130,10807.006753
161.308605,-612.876398,-740.205942,10510.924376
161.308913,153.219100,-740.205942,10066.800811
161.309221,766.095498,-814.226536,9474.636058
161.309529,1608.800546,-370.102971,8882.471304
161.309838,2068.457845,-74.020594,8438.347739
161.310146,2604.724693,148.041188,7994.224174
161.310454,3294.210641,370.102971,7476.080014
161.310762,3524.039291,592.164754,7105.977043
161.311070,3677.258390,370.102971,7105.977043
161.311378,3447.429741,592.164754,7105.977043
161.311686,3370.820191,-0.000000,7105.977043
161.311995,3294.210641,-0.000000,8216.285956
161.312303,2451.505594,-370.102971,8364.327145
161.312611,2298.286494,148.041188,8956.491898
161.312919,1302.362347,148.041188,9474.636058
161.313227,1072.533697,-0.000000,9992.780217
161.313535,612.876398,296.082377,10510.924376
161.313843,383.047749,592.164754,10584.944971
161.314152,229.828649,370.102971,11251.130318
161.314460,-536.266849,592.164754,11325.150913
161.314768,0.000000,592.164754,11399.171507
161.315076,0.000000,814.226536,10955.047942
161.315384,76.609550,1110.308913,10584.944971
161.315692,-153.219100,1036.288319,10510.924376
161.316000,-383.047749,666.185348,10436.903782
161.316309,-536.266849,814.226536,10658.965565
161.316617,-689.485948,444.123565,10140.821405
161.316925,-842.705048,518.144159,10436.903782
161.317233,-766.095498,148.041188,10066.800811
161.317541,-842.705048,888.247130,10436.903782
161.317849,-612.876398,666.185348,10362.883188
161.318158,-306.438199,666.185348,10140.821405
161.318466,-153.219100,740.205942,10140.821405
161.318774,-306.438199,740.205942,9992.780217
161.319082,229.828649,444.123565,9918.759623
161.319390,0.000000,-74.020594,9770.718434
161.319698,766.095498,-0.000000,9696.697840
161.320006,995.924147,-0.000000,9400.615463
161.320315,766.095498,-444.123565,9326.594869
161.320623,842.705048,-518.144159,9030.512492
161.320931,919.314598,-740.205942,9104.533087
161.321239,919.314598,-814.226536,8956.491898
161.321547,1225.752797,-1036.288319,8586.388927
161.321855,229.828649,-592.164754,8882.471304
161.322163,842.705048,-888.247130,8882.471304
161.322472,1225.752797,-592.164754,9030.512492
161.322780,919.314598,-74.020594,9178.553681
161.323088,995.924147,-0.000000,9178.553681
161.323396,919.314598,740.205942,9326.594869
161.323704,1378.971896,888.247130,9326.594869
161.324012,1225.752797,1258.350101,9104.533087
161.324320,919.314598,1110.308913,8882.471304
161.324629,1685.410096,1924.535449,9252.574275
161.324937,1225.752797,1628.453072,9104.533087
161.325245,1072.533697,1702.473667,9178.553681
161.325553,612.876398,1258.350101,9400.615463
161.325861,229.828649,888.247130,9474.636058
161.326169,0.000000,296.082377,10066.800811
161.326477,-995.924147,-296.082377,10214.842000
161.326786,-1608.800546,-666.185348,10584.944971
161.327094,-1685.410096,-1628.453072,11325.150913
161.327402,-2298.286494,-1406.391290,11547.212695
161.327710,-1838.629195,-1258.350101,11473.192101
161.328018,-1685.410096,-962.267725,11325.150913
161.328326,-842.705048,-666.185348,10807.006753
161.328635,0.000000,-444.123565,10362.883188
161.328943,766.095498,-370.102971,9770.718434
161.329251,1378.971896,-0.000000,9548.656652
161.329559,1991.848295,-0.000000,8882.471304
161.329867,2451.505594,370.102971,8290.306550
161.330175,2987.772442,592.164754,7698.141797
161.330483,3447.429741,740.205942,7402.059420
161.330792,3677.258390,592.164754,7179.997637
161.331100,4136.915689,518.144159,7105.977043
161.331408,3600.648841,148.041188,7179.997637
161.331716,2987.772442,444.123565,8068.244768
161.332024,2451.505594,-222.061783,8512.368333
161.332332,1838.629195,-74.020594,8956.491898
161.332640,1225.752797,-0.000000,9400.615463
161.332949,842.705048,-0.000000,9992.780217
161.333257,383.047749,222.061783,10436.903782
161.333565,459.657299,148.041188,10288.862594
161.333873,229.828649,740.205942,11029.068536
161.334181,229.828649,1184.329507,10288.862594
161.334489,766.095498,1480.411884,10732.986159
161.334797,612.876398,1554.432478,10362.883188
161.335106,459.657299,1332.370696,10510.924376
161.335414,76.609550,1258.350101,10288.862594
161.335722,229.828649,1184.329507,10066.800811
161.336030,-229.828649,740.205942,10436.903782
161.336338,-229.828649,222.061783,10362.883188
161.336646,-766.095498,296.082377,10807.006753
161.336954,-612.876398,-0.000000,10658.965565
161.337263,-919.314598,-74.020594,10732.986159
161.337571,-1149.143247,-0.000000,10436.903782
161.337879,-842.705048,370.102971,10584.944971
161.338187,-536.266849,222.061783,10584.944971
161.338495,-459.657299,444.123565,10214.842000
161.338803,0.000000,592.164754,10288.862594
161.339112,-229.828649,-0.000000,9622.677246
161.339420,536.266849,-0.000000,9622.677246
161.339728,689.485948,-0.000000,9400.615463
161.340036,1072.533697,-0.000000,9104.533087
161.340344,919.314598,-518.144159,8882.471304
161.340652,1072.533697,-592.164754,8660.409521
161.340960,1608.800546,-518.144159,8512.368333
161.341269,1685.410096,-1110.308913,8142.265362
161.341577,1378.971896,-666.185348,8216.285956
161.341885,1762.019645,-1036.288319,8216.285956
161.342193,1149.143247,-666.185348,8660.409521
161.342501,919.314598,-592.164754,8956.491898
161.342809,995.924147,-518.144159,9104.533087
161.343117,612.876398,-0.000000,9252.574275
161.343426,766.095498,148.041188,9548.656652
161.343734,1455.581446,222.061783,9252.574275
161.344042,1072.533697,740.205942,9326.594869
161.344350,1149.143247,1406.391290,9252.574275
161.344658,1378.971896,1554.432478,9326.594869
161.344966,1302.362347,1702.473667,9400.615463
161.345274,919.314598,1332.370696,9474.636058
161.345583,383.047749,1110.308913,9474.636058
161.345891,383.047749,518.144159,9918.759623
161.346199,-459.657299,148.041188,10288.862594
161.346507,-689.485948,-148.041188,10584.944971
161.346815,-1455.581446,-814.226536,10955.047942
161.347123,-1991.848295,-1184.329507,11547.212695
161.347431,-2145.067394,-1258.350101,11547.212695
161.347740,-1991.848295,-962.267725,11621.233289
161.348048,-1455.581446,-888.247130,11325.150913
161.348356,-536.266849,-740.205942,10955.047942
161.348664,-306.438199,-222.061783,10288.862594
161.348972,76.609550,-74.020594,10362.883188
161.349280,1378.971896,222.061783,8956.491898
161.349589,2145.067394,740.205942,8808.450710
161.349897,2451.505594,962.267725,7846.182985
161.350205,3064.381992,1036.288319,7402.059420
161.350513,3677.258390,1184.329507,7402.059420
161.350821,2987.772442,666.185348,7402.059420
161.351129,3447.429741,444.123565,7624.121203
161.351437,3064.381992,444.123565,7772.162391
161.351746,2451.505594,-0.000000,8216.285956
161.352054,1915.238745,-74.020594,8808.450710
161.352362,1378.971896,-296.082377,9474.636058
161.352670,995.924147,-74.020594,9548.656652
161.352978,689.485948,-0.000000,10362.883188
161.353286,229.828649,-0.000000,10584.944971
161.353594,229.828649,444.123565,10732.986159
161.353903,306.438199,740.205942,10658.965565
161.354211,766.095498,1258.350101,10584.944971
161.354519,459.657299,1184.329507,10584.944971
161.354827,306.438199,1406.391290,10510.924376
161.355135,306.438199,1332.370696,10288.862594
161.355443,919.314598,1036.288319,10066.800811
161.355751,0.000000,1036.288319,10510.924376
161.356060,-459.657299,592.164754,10436.903782
161.356368,-76.609550,592.164754,10584.944971
161.356676,0.000000,222.061783,10066.800811
161.356984,-459.657299,-0.000000,10288.862594
161.357292,-766.095498,-222.061783,10658.965565
161.357600,-842.705048,-222.061783,10362.883188
161.357908,-612.876398,-0.000000,10584.944971
161.358217,-689.485948,370.102971,10214.842000
161.358525,-153.219100,-148.041188,10362.883188
161.358833,153.219100,222.061783,9918.759623
161.359141,0.000000,740.205942,9326.594869
161.359449,536.266849,-74.020594,9548.656652
161.359757,459.657299,-0.000000,8660.409521
161.360066,842.705048,-222.061783,9178.553681
161.360374,1149.143247,-592.164754,8512.368333
161.360682,919.314598,-592.164754,8512.368333
161.360990,1378.971896,-1184.329507,8586.388927
161.361298,1378.971896,-1258.350101,8512.368333
161.361606,536.266849,-1258.350101,8808.450710
161.361914,689.485948,-1924.535449,8956.491898
161.362223,612.876398,-1628.453072,9474.636058
161.362531,0.000000,-1258.350101,9178.553681
161.362839,689.485948,-1036.288319,9918.759623
161.363147,459.657299,-222.061783,8882.471304
161.363455,1225.752797,-0.000000,9400.615463
161.363763,2298.286494,592.164754,9104.533087
161.364071,1762.019645,1184.329507,8364.327145
161.364380,2298.286494,1702.473667,8734.430116
161.364688,2068.457845,1850.514855,8364.327145
161.364996,2374.896044,2220.617826,9030.512492
161.365304,1915.238745,1850.514855,8660.409521
161.365612,1915.238745,1702.473667,9326.594869
161.365920,1072.533697,1332.370696,8956.491898
161.366228,306.438199,370.102971,9622.677246
161.366537,-306.438199,296.082377,10066.800811
161.366845,-919.314598,-296.082377,10807.006753
161.367153,-1149.143247,-740.205942,11547.212695
161.367461,-1378.971896,-740.205942,11621.233289
161.367769,-1225.752797,-888.247130,12287.418637
161.368077,-1302.362347,-814.226536,11547.212695
161.368385,-995.924147,-666.185348,11473.192101
161.368694,-229.828649,-296.082377,10955.047942
161.369002,612.876398,-0.000000,10584.944971
161.369310,1072.533697,-0.000000,9770.718434
161.369618,1762.019645,518.144159,9104.533087
161.369926,2145.067394,444.123565,8882.471304
161.370234,2834.553343,888.247130,8142.265362
161.370543,3294.210641,740.205942,7772.162391
161.370851,3140.991542,666.185348,7698.141797
161.371159,3677.258390,518.144159,7550.100608
161.371467,3064.381992,740.205942,7920.203579
161.371775,2528.115143,370.102971,7994.224174
161.372083,2145.067394,518.144159,8364.327145
161.372391,1915.238745,-0.000000,8734.430116
161.372700,1532.190996,222.061783,9326.594869
161.373008,995.924147,-148.041188,9770.718434
161.373316,995.924147,-0.000000,10214.842000
161.373624,153.219100,518.144159,10214.842000
161.373932,76.609550,814.226536,10510.924376
161.374240,0.000000,1110.308913,10510.924376
161.374548,0.000000,1332.370696,10584.944971
161.374857,0.000000,1184.329507,10584.944971
161.375165,0.000000,814.226536,10807.006753
161.375473,-459.657299,518.144159,10881.027347
161.375781,-1149.143247,296.082377,10436.903782
161.376089,-1225.752797,-0.000000,10658.965565
161.376397,-1072.533697,-74.020594,10510.924376
161.376705,-1225.752797,-148.041188,10658.965565
161.377014,-1532.190996,-296.082377,10584.944971
161.377322,-1225.752797,-222.061783,10732.986159
161.377630,-1149.143247,-74.020594,10214.842000
161.377938,-1072.533697,-370.102971,10066.800811
161.378246,-383.047749,-0.000000,9992.780217
161.378554,-229.828649,148.041188,9474.636058
161.378862,306.438199,296.082377,9548.656652
161.379171,229.828649,-0.000000,9030.512492
161.379479,766.095498,-74.020594,9104.533087
161.379787,689.485948,-74.020594,8808.450710
161.380095,842.705048,-592.164754,8660.409521
161.380403,1225.752797,-1036.288319,8438.347739
161.380711,1302.362347,-962.267725,9030.512492
161.381020,1532.190996,-1258.350101,8216.285956
161.381328,1149.143247,-1258.350101,8216.285956
161.381636,1455.581446,-1110.308913,8586.388927
161.381944,1072.533697,-1110.308913,8808.450710
161.382252,1225.752797,-1110.308913,8882.471304
161.382560,689.485948,-888.247130,8882.471304
161.382868,1072.533697,-592.164754,8882.471304
161.383177,1762.019645,-74.020594,9030.512492
161.383485,1915.238745,518.144159,9030.512492
161.383793,1685.410096,888.247130,9400.615463
161.384101,1685.410096,1628.453072,8734.430116
161.384409,1762.019645,1776.494261,8956.491898
161.384717,1838.629195,1776.494261,8882.471304
161.385025,1838.629195,1628.453072,9030.512492
161.385334,1302.362347,1406.391290,9474.636058
161.385642,995.924147,1184.329507,9548.656652
161.385950,842.705048,814.226536,9992.780217
161.386258,0.000000,296.082377,10362.883188
161.386566,-306.438199,-0.000000,10732.986159
161.386874,-1225.752797,-296.082377,11177.109724
161.387182,-1378.971896,-592.164754,11547.212695
161.387491,-1149.143247,-1110.308913,11769.274478
161.387799,-1149.143247,-888.247130,11621.233289
161.388107,-919.314598,-666.185348,11473.192101
161.388415,-536.266849,-370.102971,10955.047942
161.388723,459.657299,-0.000000,10584.944971
161.389031,536.266849,148.041188,10066.800811
161.389339,1378.971896,592.164754,9474.636058
161.389648,2145.067394,592.164754,9030.512492
161.389956,2451.505594,666.185348,8512.368333
161.390264,2757.943793,888.247130,8290.306550
161.390572,2681.334243,518.144159,8068.244768
161.390880,3140.991542,740.205942,8142.265362
161.391188,2681.334243,518.144159,7846.182985
161.391497,2451.505594,444.123565,7772.162391
161.391805,2221.676944,444.123565,8438.347739
161.392113,1762.019645,222.061783,8734.430116
161.392421,1149.143247,-296.082377,9326.594869
161.392729,383.047749,-0.000000,9844.739029
161.393037,306.438199,-148.041188,9992.780217
161.393345,76.609550,-0.000000,10140.821405
161.393654,76.609550,666.185348,10362.883188
161.393962,306.438199,888.247130,10436.903782
161.394270,76.609550,1036.288319,10510.924376
161.394578,383.047749,1036.288319,10362.883188
161.394886,306.438199,1036.288319,10214.842000
161.395194,-153.219100,740.205942,10510.924376
161.395502,-383.047749,444.123565,10436.903782
161.395810,153.219100,444.123565,10436.903782
161.396119,-459.657299,296.082377,10214.842000
161.396427,-919.314598,-0.000000,10288.862594
161.396735,-689.485948,-0.000000,10288.862594
161.397043,-995.924147,-74.020594,10362.883188
161.397351,-1149.143247,-444.123565,10510.924376
161.397659,-919.314598,-0.000000,10510.924376
161.397967,-842.705048,-222.061783,10140.821405
161.398275,-153.219100,-74.020594,10140.821405
161.398583,-459.657299,-0.000000,9918.759623
161.398892,0.000000,-0.000000,9844.739029
161.399200,153.219100,-74.020594,9548.656652
161.399508,76.609550,-444.123565,9474.636058
161.399816,459.657299,-666.185348,9104.533087
161.400124,1302.362347,-740.205942,8512.368333
161.400432,919.314598,-1110.308913,8808.450710
161.400740,1378.971896,-1258.350101,8734.430116
161.401048,1455.581446,-740.205942,8512.368333
161.401357,1532.190996,-1036.288319,8438.347739
161.401665,1608.800546,-518.144159,8290.306550
161.401973,1455.581446,-666.185348,8512.368333
161.402281,1762.019645,-518.144159,9104.533087
161.402589,1302.362347,-666.185348,8808.450710
161.402897,1838.629195,-148.041188,8956.491898
161.403205,919.314598,444.123565,9400.615463
161.403513,1378.971896,962.267725,8956.491898
161.403821,1455.581446,1332.370696,9030.512492
161.404130,1532.190996,1776.494261,9252.574275
161.404438,1762.019645,1850.514855,8882.471304
161.404746,1532.190996,1702.473667,9030.512492
161.405054,1608.800546,1184.329507,9326.594869
161.405362,842.705048,1480.411884,9474.636058
161.405670,689.485948,888.247130,9992.780217
161.405978,0.000000,444.123565,10214.842000
161.406286,-229.828649,-0.000000,10658.965565
161.406595,-842.705048,-296.082377,11029.068536
161.406903,-1149.143247,-740.205942,11473.192101
161.407211,-1608.800546,-1110.308913,11473.192101
161.407519,-1378.971896,-1036.288319,11695.253884
161.407827,-842.705048,-518.144159,11399.171507
161.408135,-306.438199,-518.144159,10881.027347
161.408443,0.000000,296.082377,10732.986159
161.408751,689.485948,518.144159,10066.800811
161.409059,1072.533697,444.123565,9474.636058
161.409368,1532.190996,666.185348,9030.512492
161.409676,1532.190996,888.247130,9030.512492
161.409984,2145.067394,518.144159,8290.306550
161.410292,2911.162892,296.082377,8216.285956
161.410600,2834.553343,518.144159,7994.224174
161.410908,2604.724693,148.041188,7994.224174
161.411216,2451.505594,-74.020594,8068.244768
161.411524,2145.067394,-0.000000,8290.306550
161.411833,1762.019645,-74.020594,8660.409521
161.412141,1608.800546,-444.123565,9104.533087
161.412449,1608.800546,-296.082377,9474.636058
161.412757,1455.581446,-0.000000,9548.656652
161.413065,842.705048,-74.020594,9696.697840
161.413373,536.266849,518.144159,9992.780217
161.413681,689.485948,888.247130,10066.800811
161.413989,612.876398,888.247130,10140.821405
161.414297,612.876398,1184.329507,10288.862594
161.414606,612.876398,962.267725,10510.924376
161.414914,306.438199,1110.308913,10140.821405
161.415222,306.438199,1110.308913,10214.842000
161.415530,153.219100,666.185348,10140.821405
161.415838,76.609550,666.185348,9918.759623
161.416146,-229.828649,666.185348,9844.739029
161.416454,-383.047749,592.164754,9696.697840
161.416762,-612.876398,370.102971,10214.842000
161.417071,-842.705048,-296.082377,10362.883188
161.417379,-919.314598,-0.000000,10584.944971
161.417687,-1149.143247,-0.000000,10807.006753
161.417995,-1455.581446,-592.164754,10658.965565
161.418303,-1149.143247,-222.061783,10658.965565
161.418611,-1225.752797,-518.144159,10510.924376
161.418919,-919.314598,-666.185348,10362.883188
161.419227,-383.047749,-814.226536,9992.780217
161.419536,0.000000,-1036.288319,9844.739029
161.419844,536.266849,-814.226536,9696.697840
161.420152,689.485948,-1036.288319,9252.574275
161.420460,1149.143247,-1110.308913,9252.574275
161.420768,1378.971896,-814.226536,8438.347739
161.421076,1762.019645,-296.082377,8068.244768
161.421384,2145.067394,-0.000000,7920.203579
161.421692,2451.505594,-0.000000,7772.162391
161.422000,2451.505594,-0.000000,7772.162391
161.422309,2068.457845,-74.020594,7994.224174
161.422617,2374.896044,-0.000000,8290.306550
161.422925,1762.019645,444.123565,8586.388927
161.423233,1225.752797,962.267725,8882.471304
161.423541,1378.971896,962.267725,9178.553681
161.423849,1302.362347,1480.411884,9400.615463
161.424157,1302.362347,1554.432478,9178.553681
161.424465,1302.362347,1184.329507,9622.677246
161.424774,995.924147,1406.391290,9844.739029
161.425082,842.705048,1110.308913,9696.697840
161.425390,459.657299,962.267725,10362.883188
161.425698,-153.219100,740.205942,10510.924376
161.426006,-153.219100,592.164754,10584.944971
161.426314,-459.657299,-0.000000,10584.944971
161.426622,0.000000,-370.102971,10955.047942
161.426930,-919.314598,-444.123565,11177.109724
161.427238,-459.657299,-888.247130,11473.192101
161.427547,-919.314598,-370.102971,11399.171507
161.427855,-766.095498,-666.185348,10584.944971
161.428163,-459.657299,-74.020594,10362.883188
161.428471,306.438199,-0.000000,9992.780217
161.428779,995.924147,222.061783,9696.697840
161.429087,1378.971896,370.102971,9400.615463
161.429395,1762.019645,370.102971,8956.491898
161.429703,2068.457845,-0.000000,8142.265362
161.430012,2451.505594,518.144159,8438.347739
161.430320,2681.334243,444.123565,7920.203579
161.430628,2681.334243,370.102971,7920.203579
161.430936,2757.943793,518.144159,7846.182985
161.431244,2374.896044,-0.000000,7846.182985
161.431552,2068.457845,-296.082377,8364.327145
161.431860,1762.019645,-518.144159,8808.450710
161.432168,1072.533697,-296.082377,9400.615463
161.432476,612.876398,-962.267725,9474.636058
161.432785,612.876398,-148.041188,10066.800811
161.433093,0.000000,-0.000000,9622.677246
161.433401,459.657299,296.082377,10362.883188
161.433709,383.047749,814.226536,10214.842000
161.434017,306.438199,1184.329507,10362.883188
161.434325,689.485948,1184.329507,10140.821405
161.434633,612.876398,1332.370696,9992.780217
161.434941,536.266849,1406.391290,10066.800811
161.435250,842.705048,1258.350101,9474.636058
161.435558,536.266849,1332.370696,9474.636058
161.435866,229.828649,1110.308913,9474.636058
161.436174,0.000000,1036.288319,9770.718434
161.436482,229.828649,814.226536,9918.759623
161.436790,-766.095498,444.123565,10362.883188
161.437098,-1072.533697,-74.020594,10436.903782
161.437406,-1225.752797,-0.000000,10658.965565
161.437714,-1302.362347,-74.020594,11103.089130
161.438023,-1225.752797,-296.082377,10807.006753
161.438331,-1225.752797,-370.102971,10881.027347
161.438639,-1149.143247,-518.144159,11029.068536
161.438947,-995.924147,-1110.308913,10658.965565
161.439255,-153.219100,-1036.288319,10584.944971
161.439563,-383.047749,-1628.453072,10288.862594
161.439871,459.657299,-1332.370696,9696.697840
161.440179,689.485948,-1110.308913,9252.574275
161.440488,1378.971896,-666.185348,9030.512492
161.440796,1532.190996,-518.144159,8364.327145
161.441104,1915.238745,-74.020594,7994.224174
161.441412,2451.505594,-0.000000,7846.182985
161.441720,2221.676944,222.061783,7846.182985
161.442028,2451.505594,666.185348,7772.162391
161.442336,1762.019645,370.102971,7994.224174
161.442644,1608.800546,592.164754,8290.306550
161.442952,1455.581446,740.205942,8734.430116
161.443261,1149.143247,1110.308913,9178.553681
161.443569,919.314598,1036.288319,9400.615463
161.443877,995.924147,814.226536,9548.656652
161.444185,1149.143247,1036.288319,9474.636058
161.444493,919.314598,1258.350101,9844.739029
161.444801,1225.752797,1036.288319,10510.924376
161.445109,536.266849,666.185348,9992.780217
161.445417,459.657299,888.247130,10214.842000
161.445726,76.609550,814.226536,10214.842000
161.446034,76.609550,592.164754,10436.903782
161.446342,766.095498,-0.000000,10658.965565
161.446650,-536.266849,148.041188,10732.986159
161.446958,-1072.533697,-444.123565,10807.006753
161.447266,-459.657299,-518.144159,10955.047942
161.447574,-919.314598,-666.185348,10955.047942
161.447882,-612.876398,-370.102971,10955.047942
161.448191,-229.828649,-444.123565,10658.965565
161.448499,383.047749,-222.061783,10066.800811
161.448807,1072.533697,-0.000000,9918.759623
161.449115,1302.362347,-74.020594,9326.594869
161.449423,1762.019645,-0.000000,9400.615463
161.449731,1915.238745,-0.000000,8882.471304
161.450039,2374.896044,296.082377,8290.306550
161.450347,2374.896044,296.082377,8142.265362
161.450655,2604.724693,222.061783,8142.265362
161.450964,2145.067394,-0.000000,8142.265362
161.451272,2451.505594,-74.020594,8290.306550
161.451580,1991.848295,-370.102971,8364.327145
161.451888,1455.581446,-370.102971,9104.533087
161.452196,1072.533697,-222.061783,9104.533087
161.452504,689.485948,-0.000000,9622.677246
161.452812,689.485948,222.061783,9548.656652
161.453120,536.266849,-0.000000,9548.656652
161.453429,306.438199,518.144159,9992.780217
161.453737,689.485948,1110.308913,10288.862594
161.454045,995.924147,740.205942,10140.821405
161.454353,1072.533697,1332.370696,9918.759623
161.454661,995.924147,1406.391290,9696.697840
161.454969,1149.143247,1850.514855,9622.677246
161.455277,766.095498,1924.535449,9474.636058
161.455585,842.705048,1702.473667,9474.636058
161.455893,459.657299,1258.350101,9474.636058
161.456202,76.609550,814.226536,9622.677246
161.456510,0.000000,444.123565,9918.759623
161.456818,-612.876398,-296.082377,10288.862594
161.457126,-1072.533697,-370.102971,10881.027347
161.457434,-1685.410096,-666.185348,11103.089130
161.457742,-1838.629195,-592.164754,11325.150913
161.458050,-1532.190996,-888.247130,11473.192101
161.458358,-1685.410096,-740.205942,11399.171507
161.458667,-1225.752797,-962.267725,11103.089130
161.458975,-766.095498,-962.267725,10955.047942
161.459283,0.000000,-814.226536,10436.903782
161.459591,459.657299,-1036.288319,9770.718434
161.459899,995.924147,-518.144159,9400.615463
161.460207,1608.800546,-370.102971,8586.388927
161.460515,1915.238745,-370.102971,8364.327145
161.460823,2145.067394,-74.020594,7772.162391
161.461131,2528.115143,-148.041188,7920.203579
161.461440,2528.115143,-222.061783,7550.100608
161.461748,1991.848295,-74.020594,7402.059420
161.462056,2068.457845,-74.020594,8142.265362
161.462364,1685.410096,-0.000000,8438.347739
161.462672,1225.752797,444.123565,8586.388927
161.462980,1072.533697,444.123565,8956.491898
161.463288,1072.533697,518.144159,9400.615463
161.463596,766.095498,962.267725,9326.594869
161.463905,919.314598,1628.453072,9844.739029
161.464213,766.095498,1258.350101,9400.615463
161.464521,766.095498,1554.432478,9844.739029
161.464829,842.705048,1554.432478,9918.759623
161.465137,536.266849,962.267725,9992.780217
161.465445,383.047749,1036.288319,10066.800811
161.465753,0.000000,888.247130,10066.800811
161.466061,0.000000,296.082377,10140.821405
161.466369,-842.705048,148.041188,10658.965565
161.466678,-612.876398,-296.082377,10732.986159
161.466986,-383.047749,-592.164754,11029.068536
161.467294,-689.485948,-518.144159,11029.068536
161.467602,-689.485948,-518.144159,10955.047942
161.467910,-612.876398,-296.082377,10881.027347
161.468218,612.876398,-444.123565,10658.965565
161.468526,229.828649,-74.020594,10288.862594
161.468834,306.438199,-148.041188,10140.821405
161.469143,842.705048,-0.000000,9622.677246
161.469451,1149.143247,148.041188,9622.677246
161.469759,1762.019645,148.041188,9030.512492
161.470067,2145.067394,-0.000000,8882.471304
161.470375,2221.676944,296.082377,8438.347739
161.470683,2451.505594,444.123565,8068.244768
161.470991,2451.505594,74.020594,8068.244768
161.471299,2145.067394,-0.000000,8142.265362
161.471607,1838.629195,-444.123565,8438.347739
161.471916,1225.752797,-296.082377,8512.368333
161.472224,995.924147,-518.144159,8882.471304
161.472532,612.876398,-0.000000,9252.574275
161.472840,612.876398,148.041188,9326.594869
161.473148,689.485948,518.144159,9474.636058
161.473456,842.705048,518.144159,9770.718434
161.473764,766.095498,1110.308913,9696.697840
161.474072,766.095498,1110.308913,9770.718434
161.474381,842.705048,1480.411884,9696.697840
161.474689,689.485948,1628.453072,9474.636058
161.474997,842.705048,1850.514855,9622.677246
161.475305,689.485948,1554.432478,9474.636058
161.475613,612.876398,1258.350101,10288.862594
161.475921,1149.143247,1184.329507,9696.697840
161.476229,-306.438199,296.082377,9992.780217
161.476537,0.000000,-74.020594,10881.027347
161.476846,-1225.752797,-370.102971,10510.924376
161.477154,-1608.800546,-740.205942,11325.150913
161.477462,-1762.019645,-740.205942,10955.047942
161.477770,-1685.410096,-666.185348,11325.150913
161.478078,-995.924147,-740.205942,11473.192101
161.478386,-536.266849,-888.247130,11029.068536
161.478694,-383.047749,-666.185348,10732.986159
161.479002,-229.828649,-814.226536,9992.780217
161.479310,459.657299,-592.164754,9992.780217
161.479619,842.705048,-296.082377,9326.594869
161.479927,1302.362347,-296.082377,9030.512492
161.480235,1455.581446,-296.082377,8438.347739
161.480543,1991.848295,-148.041188,8290.306550
161.480851,2145.067394,-0.000000,8142.265362
161.481159,2145.067394,-0.000000,8068.244768
161.481467,2451.505594,-296.082377,7846.182985
161.481775,2068.457845,-370.102971,7550.100608
161.482084,1838.629195,-0.000000,8068.244768
161.482392,1455.581446,-0.000000,8660.409521
161.482700,1455.581446,370.102971,8808.450710
161.483008,1302.362347,370.102971,9178.553681
161.483316,1378.971896,740.205942,9548.656652
161.483624,1149.143247,1036.288319,9474.636058
161.483932,1149.143247,814.226536,9474.636058
161.484240,1072.533697,1406.391290,9548.656652
161.484548,1072.533697,1480.411884,9548.656652
161.484857,842.705048,1554.432478,9696.697840
161.485165,766.095498,1406.391290,9992.780217
161.485473,459.657299,962.267725,10362.883188
161.485781,459.657299,888.247130,10214.842000
161.486089,0.000000,518.144159,11103.089130
161.486397,-306.438199,-0.000000,10807.006753
161.486705,-919.314598,-222.061783,10955.047942
161.487013,-1149.143247,-518.144159,11325.150913
161.487322,-1072.533697,-666.185348,11621.233289
161.487630,-1149.143247,-666.185348,11473.192101
161.487938,-612.876398,-592.164754,11177.109724
161.488246,-459.657299,-74.020594,10955.047942
161.488554,-229.828649,-296.082377,10362.883188
161.488862,766.095498,-0.000000,9992.780217
161.489170,842.705048,74.020594,9548.656652
161.489478,1608.800546,370.102971,8956.491898
161.489786,1915.238745,370.102971,8586.388927
161.490095,2221.676944,222.061783,8660.409521
161.490403,2298.286494,-74.020594,7994.224174
161.490711,2298.286494,444.123565,8290.306550
161.491019,2451.505594,-74.020594,8216.285956
161.491327,2068.457845,-0.000000,8364.327145
161.491635,1455.581446,-0.000000,8734.430116
161.491943,1532.190996,-370.102971,8734.430116
161.492251,1149.143247,-148.041188,9104.533087
161.492560,612.876398,-0.000000,9252.574275
161.492868,919.314598,-0.000000,9770.718434
161.493176,459.657299,370.102971,9548.656652
161.493484,153.219100,814.226536,9844.739029
161.493792,689.485948,962.267725,9474.636058
161.494100,1072.533697,1480.411884,9474.636058
161.494408,995.924147,1480.411884,9326.594869
161.494716,1225.752797,1850.514855,9400.615463
161.495024,1455.581446,1480.411884,9474.636058
161.495333,689.485948,1702.473667,9918.759623
161.495641,766.095498,740.205942,10214.842000
161.495949,229.828649,296.082377,10140.821405
161.496257,-383.047749,-0.000000,10658.965565
161.496565,-612.876398,-222.061783,10732.986159
161.496873,-1149.143247,-814.226536,11103.089130
161.497181,-1378.971896,-740.205942,11251.130318
161.497489,-1532.190996,-1110.308913,11399.171507
161.497798,-1532.190996,-666.185348,10807.006753
161.498106,-1608.800546,-814.226536,10732.986159
161.498414,-919.314598,-962.267725,10436.903782
161.498722,-76.609550,-370.102971,10362.883188
161.499030,76.609550,-148.041188,9992.780217
161.499338,536.266849,-222.061783,9548.656652
161.499646,1072.533697,-222.061783,9030.512492
161.499954,2374.896044,-74.020594,8660.409521
161.500262,1455.581446,-666.185348,8512.368333
161.500571,2374.896044,-740.205942,8364.327145
161.500879,2604.724693,-0.000000,8216.285956
161.501187,1302.362347,-148.041188,8068.244768
161.501495,2451.505594,-444.123565,8142.265362
161.501803,1991.848295,-0.000000,7920.203579
161.502111,2145.067394,-74.020594,8512.368333
161.502419,1302.362347,-0.000000,8660.409521
161.502727,766.095498,-0.000000,9326.594869
161.503035,766.095498,592.164754,9400.615463
161.503344,1072.533697,592.164754,9326.594869
161.503652,383.047749,1110.308913,9326.594869
161.503960,1225.752797,1554.432478,9326.594869
161.504268,1225.752797,1998.556043,9252.574275
161.504576,1149.143247,1924.535449,9474.636058
161.504884,995.924147,1776.494261,9622.677246
161.505192,612.876398,1258.350101,9918.759623
161.505500,0.000000,962.267725,9918.759623
161.505808,76.609550,592.164754,10658.965565
161.506117,0.000000,296.082377,11029.068536
161.506425,-383.047749,-0.000000,10881.027347
161.506733,-842.705048,-444.123565,11251.130318
161.507041,-842.705048,-444.123565,11399.171507
161.507349,-842.705048,-592.164754,11399.171507
161.507657,-383.047749,-814.226536,11103.089130
161.507965,-153.219100,-370.102971,10881.027347
161.508273,-383.047749,-370.102971,10066.800811
161.508581,0.000000,222.061783,10510.924376
161.508890,536.266849,222.061783,9844.739029
161.509198,842.705048,370.102971,9696.697840
161.509506,1225.752797,296.082377,9326.594869
161.509814,1991.848295,444.123565,9030.512492
161.510122,1991.848295,222.061783,8438.347739
161.510430,2298.286494,296.082377,8512.368333
161.510738,2145.067394,-74.020594,8290.306550
161.511046,2298.286494,-148.041188,8068.244768
161.511354,1838.629195,-296.082377,8216.285956
161.511662,1378.971896,-296.082377,8586.388927
161.511971,1225.752797,-444.123565,8956.491898
161.512279,919.314598,-518.144159,9104.533087
161.512587,1072.533697,-148.041188,9474.636058
161.512895,536.266849,-444.123565,9178.553681
161.513203,919.314598,296.082377,9474.636058
161.513511,1072.533697,740.205942,9178.553681
161.513819,842.705048,1406.391290,9178.553681
161.514127,1072.533697,1776.494261,9252.574275
161.514435,1149.143247,1924.535449,9474.636058
161.514744,1072.533697,1628.453072,9474.636058
161.515052,919.314598,1554.432478,9400.615463
161.515360,612.876398,1184.329507,9844.739029
161.515668,153.219100,592.164754,10140.821405
161.515976,-306.438199,-0.000000,10214.842000
161.516284,-842.705048,-0.000000,10658.965565
161.516592,-1225.752797,-222.061783,10584.944971
161.516900,-1532.190996,-518.144159,10881.027347
161.517208,-1838.629195,-740.205942,11103.089130
161.517517,-1608.800546,-1110.308913,10881.027347
161.517825,-842.705048,-518.144159,10807.006753
161.518133,-842.705048,-222.061783,11103.089130
161.518441,-689.485948,-518.144159,10658.965565
161.518749,-612.876398,-444.123565,10436.903782
161.519057,76.609550,-666.185348,10066.800811
161.519365,612.876398,-518.144159,9844.739029
161.519673,1072.533697,-592.164754,9400.615463
161.519981,1302.362347,-888.247130,9104.533087
161.520290,1915.238745,-370.102971,8808.450710
161.520598,2374.896044,-592.164754,8512.368333
161.520906,2451.505594,-444.123565,8068.244768
161.521214,2528.115143,-0.000000,7698.141797
161.521522,2451.505594,-0.000000,7624.121203
161.521830,2374.896044,296.082377,7772.162391
161.522138,2681.334243,222.061783,7994.224174
161.522446,1915.238745,296.082377,8364.327145
161.522754,1455.581446,592.164754,8438.347739
161.523063,1532.190996,370.102971,9104.533087
161.523371,1149.143247,814.226536,9400.615463
161.523679,842.705048,1258.350101,9696.697840
161.523987,842.705048,1184.329507,9918.759623
161.524295,919.314598,1258.350101,9770.718434
161.524603,842.705048,1480.411884,10214.842000
161.524911,842.705048,1110.308913,10362.883188
161.525219,689.485948,1480.411884,9918.759623
161.525527,766.095498,1332.370696,9918.759623
161.525836,612.876398,962.267725,10362.883188
161.526144,306.438199,666.185348,10362.883188
161.526452,0.000000,222.061783,10658.965565
161.526760,-459.657299,-0.000000,10807.006753
161.527068,-919.314598,-148.041188,10955.047942
161.527376,-612.876398,-222.061783,11547.212695
161.527684,-766.095498,-370.102971,11325.150913
161.527992,-536.266849,-0.000000,11251.130318
161.528300,-229.828649,-74.020594,10881.027347
161.528608,0.000000,-0.000000,10140.821405
161.528917,459.657299,-0.000000,9918.759623
161.529225,1149.143247,-0.000000,9548.656652
161.529533,1455.581446,-0.000000,9178.553681
161.529841,1685.410096,-74.020594,8808.450710
161.530149,2528.115143,222.061783,8808.450710
161.530457,1991.848295,-0.000000,8290.306550
161.530765,2221.676944,-0.000000,8068.244768
161.531073,1991.848295,-74.020594,8216.285956
161.531381,1838.629195,-444.123565,8216.285956
161.531690,1072.533697,-592.164754,8512.368333
161.531998,766.095498,-1110.308913,9030.512492
161.532306,689.485948,-592.164754,9474.636058
161.532614,766.095498,-592.164754,9252.574275
161.532922,383.047749,-0.000000,9400.615463
161.533230,536.266849,370.102971,9474.636058
161.533538,842.705048,962.267725,9548.656652
161.533846,842.705048,1480.411884,9400.615463
161.534154,842.705048,1628.453072,9400.615463
161.534463,1149.143247,1924.535449,9548.656652
161.534771,919.314598,1554.432478,9770.718434
161.535079,919.314598,1480.411884,9622.677246
161.535387,-153.219100,1406.391290,9918.759623
161.535695,76.609550,814.226536,9770.718434
161.536003,-536.266849,444.123565,10214.842000
161.536311,-995.924147,-74.020594,10288.862594
161.536619,-1302.362347,-370.102971,10807.006753
161.536927,-1685.410096,-740.205942,11325.150913
161.537236,-1685.410096,-518.144159,11177.109724
161.537544,-1608.800546,-962.267725,10955.047942
161.537852,-1838.629195,-814.226536,10955.047942
161.538160,-919.314598,-444.123565,10955.047942
161.538468,-766.095498,-444.123565,10955.047942
161.538776,-383.047749,-370.102971,10362.883188
161.539084,0.000000,-296.082377,10066.800811
161.539392,76.609550,-74.020594,10362.883188
161.539700,1072.533697,-592.164754,9326.594869
161.540009,1149.143247,-444.123565,8734.430116
161.540317,1455.581446,-740.205942,8512.368333
161.540625,2451.505594,-444.123565,7920.203579
161.540933,2298.286494,-74.020594,7994.224174
161.541241,2681.334243,-74.020594,7550.100608
161.541549,2451.505594,222.061783,7328.038826
161.541857,2068.457845,444.123565,7550.100608
161.542165,2145.067394,-0.000000,7994.224174
161.542473,1915.238745,-0.000000,8586.388927
161.542782,1225.752797,518.144159,9030.512492
161.543090,919.314598,888.247130,9252.574275
161.543398,766.095498,888.247130,9474.636058
161.543706,612.876398,1184.329507,9992.780217
161.544014,689.485948,1110.308913,10140.821405
161.544322,1225.752797,1406.391290,9844.739029
161.544630,536.266849,888.247130,10140.821405
161.544938,919.314598,1184.329507,10510.924376
161.545246,919.314598,962.267725,10214.842000
161.545554,689.485948,1036.288319,10214.842000
161.545863,536.266849,888.247130,10140.821405
161.546171,229.828649,740.205942,9992.780217
161.546479,229.828649,444.123565,10288.862594
161.546787,-153.219100,222.061783,10807.006753
161.547095,-766.095498,444.123565,10881.027347
161.547403,-612.876398,-222.061783,11177.109724
161.547711,-689.485948,-0.000000,10881.027347
161.548019,-536.266849,-74.020594,10881.027347
161.548327,0.000000,-0.000000,10584.944971
161.548636,0.000000,-74.020594,10288.862594
161.548944,459.657299,-222.061783,10066.800811
161.549252,536.266849,-444.123565,9770.718434
161.549560,995.924147,-370.102971,9696.697840
161.549868,689.485948,-0.000000,9326.594869
161.550176,1762.019645,-444.123565,9030.512492
161.550484,1838.629195,-518.144159,8512.368333
161.550792,1838.629195,-148.041188,8142.265362
161.551100,1762.019645,-222.061783,8216.285956
161.551409,1991.848295,-296.082377,8068.244768
161.551717,1378.971896,-370.102971,8586.388927
161.552025,1608.800546,-0.000000,8734.430116
161.552333,995.924147,-0.000000,8734.430116
161.552641,766.095498,-148.041188,8808.450710
