#time,accel_x,accel_y,accel_z
833.595818,-95.712904,-880.558717,-9647.860723
833.598486,-114.855485,-899.701298,-9667.003304
833.601154,-95.712904,-823.130974,-9609.575562
833.603823,-114.855485,-918.843878,-9686.145885
833.606491,-76.570323,-880.558717,-9628.718142
833.609160,-57.427742,-880.558717,-9667.003304
833.611828,-95.712904,-918.843878,-9647.860723
833.614496,-114.855485,-880.558717,-9628.718142
833.617165,-57.427742,-880.558717,-9686.145885
833.619833,-76.570323,-957.129040,-9743.573627
833.622501,-76.570323,-899.701298,-9628.718142
833.625170,-57.427742,-880.558717,-9628.718142
833.627838,-95.712904,-880.558717,-9628.718142
833.630506,-57.427742,-880.558717,-9628.718142
833.633175,-57.427742,-918.843878,-9686.145885
833.635843,-57.427742,-899.701298,-9647.860723
833.638512,-38.285162,-899.701298,-9437.292334
833.641180,153.140646,-1493.121302,-9437.292334
833.643848,19.142581,-1339.980656,-9552.147819
833.646517,76.570323,-2737.389054,-8939.585234
833.649185,-746.560651,-4326.223261,-10011.569758
833.651853,172.283227,-9628.718142,-8575.876198
833.654522,-612.562586,-10183.852986,-11657.831707
833.657190,-0.000000,-8595.018779,-9418.149754
833.659858,153.140646,-6336.194245,-6163.911018
833.662527,-440.279358,1378.265818,-13304.093656
833.665195,382.851616,2737.389054,-8231.309744
833.667863,-803.988394,1512.263883,-7216.752962
833.670483,669.990328,-4689.932296,-12136.396227
833.673103,-1033.699363,-3005.385186,-9016.155557
833.675723,1588.834206,-10183.852986,-7963.313613
833.678343,133.998066,-12634.103328,-8614.161360
833.680962,-2507.678085,-4192.225195,-11657.831707
833.683582,1914.258080,-2431.107762,-9934.999435
833.686202,-1952.543242,784.845813,-10336.993632
833.688822,1129.412267,-306.281293,-7752.745224
833.691442,593.420005,1493.121302,-10183.852986
833.694061,-995.414202,-1033.699363,-12844.671717
833.696681,210.568389,-4345.365842,-6336.194245
833.699301,-669.990328,-4862.215523,-10987.841379
833.701921,440.279358,-2354.537438,-9628.718142
833.704541,-1359.123237,1703.689691,-9934.999435
833.707160,1722.832272,-248.853550,-9667.003304
833.709780,-631.705166,2775.674216,-7810.172966
833.712400,-3120.240670,4709.074877,-13323.236237
833.715020,2756.531635,-1665.404530,-5915.057467
833.717639,-4287.938099,114.855485,-8422.735552
833.720259,842.273555,-4938.785846,-15352.349802
833.722879,1971.685822,-3254.238736,-2603.390989
833.725499,-4421.936165,1129.412267,-10624.132344
833.728119,2641.676150,-1971.685822,-14605.789150
833.730738,-765.703232,2354.537438,-3464.807125
833.733358,1205.982590,-325.423874,-17017.754331
833.735978,1244.267752,-1646.261949,-7255.038123
833.738598,-727.418070,-1339.980656,-4230.510357
833.741218,-2220.539373,-976.271621,-18530.018214
833.743837,2297.109696,-3273.381317,-2833.101958
833.746457,-1071.984525,-1110.269686,-7925.028451
833.749077,-3656.232933,-421.136778,-13591.232368
833.751697,-516.849682,-1033.699363,-15601.203352
833.754316,7580.461997,-2641.676150,-1435.693560
833.756936,-5206.781978,5111.069074,-9992.427178
833.759556,-497.707101,95.712904,-20233.707906
833.762176,4594.219392,-4804.787781,-1301.695494
833.764796,-3790.230998,-689.132909,-5704.489078
833.767415,1550.549045,-5742.774240,-20386.848552
833.770035,1703.689691,-4996.213589,-210.568389
833.772655,-574.277424,574.277424,-5972.485210
833.775244,-5723.631659,5015.356170,-24406.790520
833.777833,3235.096155,669.990328,-5015.356170
833.780422,4019.941968,-1607.976787,2756.531635
833.783011,-3713.660675,746.560651,-21611.973723
833.785600,-1875.972918,-976.271621,-13055.240106
833.788189,5130.211654,-5551.348432,535.992262
833.790778,-3847.658741,172.283227,-13323.236237
833.793367,-3426.521963,574.277424,-20291.135648
833.795956,10911.271056,-8020.741355,6010.770371
833.798545,-5589.633594,2124.826469,-14931.213024
833.801134,-2928.814862,2335.394858,-18070.596275
833.803723,6106.483275,-2239.681954,-1301.695494
833.806312,-823.130974,2277.967115,-5379.065205
833.808901,-2201.396792,1282.552914,-18147.166598
833.811490,2813.959378,-2737.389054,-57.427742
833.814079,2086.541307,-2258.824534,-9131.011042
833.816668,-10107.282662,4287.938099,-11581.261384
833.819257,5781.059402,-6336.194245,-10030.712339
833.821846,-3522.234867,210.568389,-12040.683323
833.824435,650.847747,-2143.969050,-2909.672282
833.827024,842.273555,-1971.685822,-15448.062706
833.829613,-1780.260014,1052.841944,-7599.604578
833.832202,1301.695494,153.140646,-7331.608446
833.834791,-899.701298,-287.138712,-13552.947206
833.837380,172.283227,-344.566454,-8595.018779
833.839969,-19.142581,-1167.697429,-7197.610381
833.842558,-459.421939,-1473.978722,-12729.816232
833.845147,95.712904,-2641.676150,-9896.714274
833.847736,191.425808,-1531.406464,-10088.140082
833.850325,-2947.957443,803.988394,-7618.747158
833.852914,2986.242605,-2565.105827,-11236.694930
833.855503,-4192.225195,2067.398726,-8939.585234
833.858068,5800.201982,-5206.781978,-5245.067139
833.860633,-3637.090352,-344.566454,-16864.613685
833.863197,2239.681954,-1129.412267,-3177.668413
833.865762,-210.568389,-1244.267752,-11294.122672
833.868327,-1014.556782,-287.138712,-13782.658176
833.870891,2507.678085,-2124.826469,-3311.666478
833.873456,-440.279358,-535.992262,-15160.923994
833.876021,-459.421939,-497.707101,-8346.165229
833.878585,421.136778,-344.566454,-6355.336826
833.881150,-76.570323,-3043.670347,-15448.062706
833.883715,-287.138712,-1282.552914,-4441.078746
833.886279,708.275490,-842.273555,-13323.236237
833.888844,2718.246474,-1627.119368,-7446.463931
833.891409,-4996.213589,3771.088418,-8518.448456
833.893973,3694.518094,-3905.086483,-12672.388490
833.896538,-2718.246474,172.283227,-6087.340694
833.899103,-880.558717,-1416.550979,-10949.556218
833.901668,440.279358,-1856.830338,-9073.583299
833.904232,76.570323,-440.279358,-9265.009107
833.906797,-976.271621,631.705166,-6910.471669
833.909362,-1799.402595,918.843878,-11696.116869
833.911926,306.281293,-1531.406464,-10853.843314
833.914491,-727.418070,1301.695494,-5302.494882
833.917056,-1569.691626,76.570323,-10183.852986
833.919620,2067.398726,-3273.381317,-11906.685258
833.922185,-2756.531635,57.427742,-5455.635528
833.924750,1569.691626,-3751.945837,-13610.374949
833.927314,-1052.841944,267.996131,-7063.612315
833.929879,459.421939,-861.416136,-9552.147819
833.932444,1033.699363,-1263.410333,-11083.554283
833.935008,-1263.410333,-497.707101,-8154.739421
833.937573,2603.390989,-2641.676150,-10872.985894
833.940138,-363.709035,-1569.691626,-10853.843314
833.942703,516.849682,-1205.982590,-3005.385186
833.945267,-1761.117434,-1091.127106,-20903.698234
833.947832,1761.117434,-2067.398726,-3330.809059
833.950397,-382.851616,-1493.121302,-8135.596840
833.952961,669.990328,-1569.691626,-16098.910453
833.955526,-478.564520,-1110.269686,-5742.774240
833.958091,727.418070,-1531.406464,-7101.897477
833.960643,-803.988394,153.140646,-12997.812363
833.963196,57.427742,-401.994197,-4249.652938
833.965749,1148.554848,-2297.109696,-12212.966550
833.968302,-1148.554848,497.707101,-12155.538808
833.970855,976.271621,-1052.841944,-3732.803256
833.973408,-861.416136,-133.998066,-15084.353670
833.975960,-574.277424,0.000000,-9609.575562
833.978513,2182.254211,-1627.119368,-6833.901346
833.981066,-2048.256146,-38.285162,-12385.249778
833.983619,344.566454,-1244.267752,-12404.392358
833.986172,287.138712,-1416.550979,-3981.656806
833.988724,-1512.263883,-421.136778,-14778.072378
833.991277,-38.285162,-1071.984525,-10566.704602
833.993830,1952.543242,-765.703232,-6106.483275
833.996383,-1761.117434,842.273555,-8882.157491
833.998936,1607.976787,306.281293,-12710.673651
834.001489,1052.841944,-1052.841944,-2067.398726
834.004041,-5532.205851,3101.098090,-16079.767872
834.006594,4192.225195,-4900.500685,-9628.718142
834.009147,-2584.248408,-727.418070,-5589.633594
834.011700,153.140646,-1837.687757,-10719.845248
834.014253,574.277424,-2852.244539,-15869.199483
834.016805,-1359.123237,535.992262,-172.283227
834.019358,3349.951640,-2794.816797,-17917.455629
834.021911,-2660.818731,2163.111630,-6604.190376
834.024464,1301.695494,-19.142581,-6297.909083
834.027017,421.136778,-1397.408398,-15811.771741
834.029570,-1780.260014,-76.570323,-7255.038123
834.032122,2947.957443,-3675.375514,-6661.618118
834.034675,-3885.943902,-19.142581,-15620.345933
834.037228,3943.371645,-4441.078746,-7293.323285
834.039781,-2373.680019,-38.285162,-7599.604578
834.042334,-937.986459,-727.418070,-13016.954944
834.044886,1071.984525,-1033.699363,-10853.843314
834.047439,1071.984525,-76.570323,-5570.491013
834.049992,19.142581,957.129040,-11428.120738
834.052545,918.843878,-746.560651,-14471.791085
834.055098,-1052.841944,-363.709035,-1359.123237
834.057651,1091.127106,-2775.674216,-15696.916256
834.060203,-19.142581,-2086.541307,-10949.556218
834.062746,-1167.697429,-210.568389,-4977.071008
834.065289,784.845813,-2833.101958,-12863.814298
834.067833,-1684.547110,-229.710970,-11504.691061
834.070376,-823.130974,133.998066,-4383.651003
834.072919,2794.816797,-1397.408398,-23641.087288
834.075462,-899.701298,2488.535504,3349.951640
834.078005,-3732.803256,2431.107762,-14337.793019
834.080548,3254.238736,-3866.801322,-19984.854355
834.083091,440.279358,-1837.687757,2660.818731
834.085634,-3292.523898,133.998066,-6183.053598
834.088177,746.560651,-4211.367776,-24713.071813
834.090720,1952.543242,-2392.822600,2718.246474
834.093263,-4019.941968,2507.678085,-6202.196179
834.095806,918.843878,-669.990328,-22435.104698
834.098349,650.847747,727.418070,-3196.810994
834.100892,-1435.693560,1818.545176,-2488.535504
834.103436,-229.710970,-1971.685822,-21918.255016
834.105979,-937.986459,-1282.552914,-6297.909083
834.108522,-535.992262,-1799.402595,133.998066
834.111065,-191.425808,-3790.230998,-22569.102763
834.113608,1359.123237,-2297.109696,650.847747
834.116151,-2067.398726,861.416136,-7542.176835
834.118694,8882.157491,-5781.059402,-24157.936970
834.121237,-6546.762634,6297.909083,4594.219392
834.123780,-1607.976787,1435.693560,-7427.321350
834.126323,4096.512291,-5800.201982,-25325.634398
834.128866,-4134.797453,612.562586,459.421939
834.131409,4881.358104,-5034.498750,-1990.828403
834.133952,-1397.408398,-4632.504554,-26952.753766
834.136495,-2392.822600,1895.115499,2545.963246
834.139038,5187.639397,-2871.387120,-5627.918755
834.141582,-4517.649069,2622.533570,-23219.950510
834.144125,1186.840010,880.558717,-669.990328
834.146668,2220.539373,-1225.125171,-6355.336826
834.149211,1627.119368,-3388.236802,-15620.345933
834.151754,-4192.225195,2182.254211,-2507.678085
834.154297,2833.101958,-4000.799387,-11772.687192
834.156840,-1148.554848,-2220.539373,-17994.025952
834.159383,-421.136778,-95.712904,1990.828403
834.161926,2354.537438,-2182.254211,-16386.049165
834.164451,-2373.680019,1684.547110,-11428.120738
834.166988,976.271621,191.425808,-3751.945837
834.169525,497.707101,-76.570323,-11274.980091
834.172062,-1971.685822,746.560651,-12059.825904
834.174599,1148.554848,-516.849682,-5149.354235
834.177136,-1071.984525,-114.855485,-16596.617554
834.179673,7944.171032,-7427.321350,1244.267752
834.182210,-9092.725880,3158.525832,-19850.856290
834.184747,2316.252277,-1837.687757,-7389.036189
834.187284,-2277.967115,210.568389,-5608.776174
834.189821,-2584.248408,669.990328,-18415.162730
834.192358,3254.238736,-2852.244539,-7140.182638
834.194895,-2163.111630,823.130974,-1952.543242
834.197432,325.423874,-1665.404530,-19716.858224
834.199969,-19.142581,-229.710970,-7599.604578
834.202506,95.712904,-1416.550979,-3713.660675
834.205043,-2775.674216,363.709035,-22645.673086
834.207580,3330.809059,-3464.807125,-2048.256146
834.210117,459.421939,-1244.267752,-7216.752962
834.212654,-1933.400661,-306.281293,-16175.480776
834.215191,535.992262,-1761.117434,-4766.502619
834.217728,382.851616,-2143.969050,-8633.303941
834.220266,-1091.127106,-478.564520,-16845.471104
834.222803,1110.269686,-1110.269686,-2565.105827
834.225340,-1014.556782,478.564520,-13112.667848
834.227877,248.853550,-1761.117434,-13265.808494
834.230414,459.421939,-363.709035,-3560.520029
834.232951,-2105.683888,516.849682,-14605.789150
834.235488,2660.818731,-1971.685822,-12117.253646
834.238025,-708.275490,-1741.974853,-4728.217458
834.240562,-1703.689691,-1703.689691,-14586.646570
834.243099,3273.381317,-4364.508422,-11466.405899
834.245636,-1895.115499,1091.127106,-2871.387120
834.248173,1627.119368,-1014.556782,-18798.014346
834.250710,-1416.550979,1971.685822,-8652.446522
834.253247,1569.691626,-38.285162,-2737.389054
834.255784,-765.703232,-325.423874,-19812.571128
834.258321,1646.261949,-2526.820666,-6374.479406
834.260858,-669.990328,-478.564520,-6336.194245
834.263395,-19.142581,191.425808,-13016.954944
834.265926,-363.709035,612.562586,-2986.242605
834.268458,765.703232,2316.252277,-11619.546546
834.270989,-842.273555,4785.645200,-15065.211090
834.273520,38.285162,5685.346498,918.843878
834.276052,1110.269686,2947.957443,-14701.502054
834.278583,-1569.691626,4479.363907,-10604.989763
834.281115,1148.554848,2086.541307,-7369.893608
834.283646,-535.992262,-2163.111630,-9724.431046
834.286177,-229.710970,114.855485,-10107.282662
834.288709,172.283227,1875.972918,-10700.702667
834.291240,-421.136778,1512.263883,-8901.300072
834.293771,-267.996131,2105.683888,-11255.837510
834.296303,382.851616,5474.778109,-7637.889739
834.298834,-76.570323,4192.225195,-9552.147819
834.301365,191.425808,2488.535504,-11389.835576
834.303897,-0.000000,1799.402595,-6183.053598
834.306428,-229.710970,497.707101,-12385.249778
834.308959,-153.140646,-248.853550,-9418.149754
834.311491,-95.712904,497.707101,-8939.585234
834.314022,-19.142581,1301.695494,-11026.126541
834.316553,-363.709035,2660.818731,-9839.286531
834.319085,287.138712,-995.414202,-8154.739421
834.321616,-823.130974,-76.570323,-12346.964616
834.324147,248.853550,-555.134843,-9092.725880
834.326679,-76.570323,842.273555,-7637.889739
834.329210,-0.000000,4957.928427,-12882.956878
834.331741,-153.140646,7561.319416,-8441.878133
834.334273,440.279358,10758.130410,-9379.864592
834.336804,57.427742,7733.602643,-10260.423309
834.339335,-57.427742,1703.689691,-8843.872330
834.341867,363.709035,-4460.221326,-8384.450390
834.344398,-880.558717,-2737.389054,-12787.243974
834.346929,114.855485,-4785.645200,-8595.018779
834.349461,-172.283227,-708.275490,-8652.446522
834.351992,-57.427742,3407.379382,-10394.421374
834.354523,287.138712,6661.618118,-10777.272990
834.357055,-57.427742,9781.858789,-8997.012976
834.359586,-191.425808,6719.045861,-10413.563955
834.362117,267.996131,1091.127106,-8595.018779
834.364649,1320.838075,-1971.685822,-8193.024582
834.367175,-1014.556782,-1703.689691,-14203.794954
834.369702,-1818.545176,-3005.385186,-6565.905214
834.372229,803.988394,-4766.502619,-8059.026517
834.374756,899.701298,-382.851616,-11810.972354
834.377283,-57.427742,3120.240670,-7637.889739
834.379810,1435.693560,1569.691626,-12366.107197
834.382337,-823.130974,880.558717,-8403.592971
834.384863,708.275490,-650.847747,-7867.600709
834.387390,306.281293,-3694.518094,-13189.238171
834.389917,-976.271621,-3005.385186,-7063.612315
834.392444,1129.412267,-4345.365842,-9896.714274
834.394971,-861.416136,-593.420005,-11715.259450
834.397498,1397.408398,-708.275490,-8059.026517
834.400025,-2009.970984,3081.955509,-9111.868461
834.402551,631.705166,1339.980656,-12174.681389
834.405078,210.568389,803.988394,-8059.026517
834.407605,-1569.691626,38.285162,-7312.465866
834.410132,1914.258080,-3694.518094,-13208.380752
834.412659,-2297.109696,-1550.549045,-6967.899411
834.415186,2297.109696,-3905.086483,-10738.987829
834.417713,-2813.959378,401.994197,-11160.124606
834.420239,631.705166,555.134843,-9035.298138
834.422766,-363.709035,784.845813,-5934.200048
834.425293,995.414202,746.560651,-14797.214958
834.427820,899.701298,-535.992262,-7255.038123
834.430347,-3483.949706,727.418070,-5876.772306
834.432874,2124.826469,-5168.496816,-16175.480776
834.435401,-1531.406464,-1741.974853,-3771.088418
834.437928,191.425808,-2354.537438,-10279.565890
834.440454,-38.285162,-1339.980656,-16462.619488
834.442981,-823.130974,1110.269686,-2450.250342
834.445508,-19.142581,937.986459,-10356.136213
834.448035,-3790.230998,1741.974853,-13074.382686
834.450562,4536.791650,-3254.238736,-229.710970
834.453089,-3579.662610,1263.410333,-12270.394293
834.455616,5072.783912,-4804.787781,-15850.056902
834.458142,-5876.772306,1569.691626,1856.830338
834.460669,3790.230998,-4804.787781,-18970.297573
834.463196,440.279358,-2967.100024,-12212.966550
834.465723,-2431.107762,1320.838075,1818.545176
834.468249,3617.947771,-2009.970984,-16079.767872
834.470774,-1952.543242,803.988394,-11753.544611
834.473300,593.420005,440.279358,-3809.373579
834.475825,2277.967115,-2182.254211,-12040.683323
834.478351,-2871.387120,1129.412267,-13533.804626
834.480877,555.134843,-1627.119368,-6451.049730
834.483402,-2316.252277,-631.705166,-6699.903280
834.485928,6317.051664,-6872.186507,-18453.447891
834.488454,-5513.063270,3847.658741,-4919.643266
834.490979,4268.795518,-2679.961312,-9801.001370
834.493505,-1473.978722,899.701298,-13725.230434
834.496030,-1875.972918,2009.970984,-5838.487144
834.498556,2469.392923,-1263.410333,-10528.419440
834.501082,-2450.250342,-19.142581,-11255.837510
834.503607,401.994197,-1339.980656,-9092.725880
834.506133,287.138712,-2029.113565,-7771.887805
834.508658,-3522.234867,1493.121302,-16405.191746
834.511184,-1473.978722,535.992262,-5761.916821
834.513710,7389.036189,-5436.492947,-3981.656806
834.516235,2775.674216,-6336.194245,-12251.251712
834.518761,-7886.743290,4134.797453,-23679.372450
834.521287,4785.645200,-1780.260014,1263.410333
834.523812,-2852.244539,4000.799387,-1052.841944
834.526338,1148.554848,-1014.556782,-21899.112435
834.528863,1588.834206,-1416.550979,-2450.250342
834.531389,-2335.394858,-899.701298,-3885.943902
834.533915,823.130974,-6068.198114,-19372.291770
834.536440,-1320.838075,-1837.687757,-4134.797453
834.538966,-535.992262,-2048.256146,-5225.924558
834.541491,880.558717,-2947.957443,-21343.977592
834.544017,-76.570323,1607.976787,-555.134843
834.546543,-1014.556782,2813.959378,-5379.065205
834.549068,382.851616,-880.558717,-20482.561456
834.551594,708.275490,-306.281293,-1148.554848
834.554120,-363.709035,-2048.256146,-6412.764568
834.556645,-459.421939,-3905.086483,-20214.565325
834.559171,229.710970,-3330.809059,-2201.396792
834.561696,172.283227,-2335.394858,-7389.036189
834.564222,-325.423874,-1186.840010,-15869.199483
834.566748,267.996131,2373.680019,-1263.410333
834.569272,1703.689691,-401.994197,-12270.394293
834.571795,-650.847747,-401.994197,-15352.349802
834.574319,-3885.943902,2258.824534,-3828.516160
834.576843,3177.668413,-1703.689691,-7408.178770
834.579367,-2086.541307,-708.275490,-14624.931731
834.581891,669.990328,-1550.549045,-8997.012976
834.584415,363.709035,-2488.535504,-6719.045861
834.586938,-1512.263883,-114.855485,-12902.099459
834.589462,803.988394,-1110.269686,-10317.851051
834.591986,-593.420005,957.129040,-4039.084549
834.594510,-133.998066,-153.140646,-15984.054968
834.597034,-803.988394,-95.712904,-9839.286531
834.599558,1493.121302,-1971.685822,-8997.012976
834.602081,-1933.400661,-459.421939,-15850.056902
834.604605,1301.695494,-2067.398726,-4307.080680
834.607129,-1339.980656,-229.710970,-8748.159426
834.609653,-382.851616,-727.418070,-13878.371080
834.612177,-95.712904,-172.283227,-7274.180704
834.614701,-248.853550,-401.994197,-6202.196179
834.617224,57.427742,-2277.967115,-15620.345933
834.619748,-842.273555,-57.427742,-3656.232933
834.622272,363.709035,-1359.123237,-10030.712339
834.624796,-2029.113565,-421.136778,-13323.236237
834.627320,2392.822600,-1914.258080,-4039.084549
834.629844,19.142581,-2201.396792,-7197.610381
834.632367,-1799.402595,-1493.121302,-18702.301442
834.634891,1435.693560,-1895.115499,-3483.949706
834.637415,-401.994197,-57.427742,-13648.660110
834.639939,133.998066,-153.140646,-14088.939469
834.642463,1225.125171,-1435.693560,-2584.248408
834.644987,-784.845813,-287.138712,-12308.679454
834.647510,899.701298,-2316.252277,-14529.218827
834.650034,-133.998066,-918.843878,-3407.379382
834.652558,-325.423874,-1359.123237,-13284.951075
834.655082,-1473.978722,-325.423874,-15582.060771
834.657606,5206.781978,-4747.360038,-191.425808
834.660130,-4134.797453,1627.119368,-12844.671717
834.662653,1780.260014,-1799.402595,-14892.927862
834.665177,1033.699363,421.136778,114.855485
834.667701,-1263.410333,497.707101,-15371.492382
834.670223,1091.127106,-650.847747,-16137.195614
834.672745,57.427742,-401.994197,1359.123237
834.675266,-57.427742,-1569.691626,-19238.293704
834.677788,287.138712,-2986.242605,-8365.307810
834.680310,-382.851616,-401.994197,-2488.535504
834.682832,-2775.674216,-191.425808,-17745.172402
834.685353,2258.824534,-823.130974,-6565.905214
834.687875,344.566454,114.855485,-3120.240670
834.690397,-3885.943902,2411.965181,-19468.004674
834.692919,4019.941968,-3388.236802,-5742.774240
834.695440,-2833.101958,1761.117434,-3981.656806
834.697962,229.710970,-2239.681954,-18185.451760
834.700484,267.996131,-1531.406464,-8901.300072
834.703005,-746.560651,-440.279358,-1722.832272
834.705527,421.136778,-2526.820666,-20520.846618
834.708049,-306.281293,-842.273555,-7312.465866
834.710571,-593.420005,918.843878,-3120.240670
834.713092,-2622.533570,344.566454,-19391.434350
834.715614,4287.938099,-2431.107762,-19.142581
834.718136,-1378.265818,153.140646,-7331.608446
834.720658,-2239.681954,-1397.408398,-21918.255016
834.723179,2833.101958,-3407.379382,-880.558717
834.725701,-1971.685822,-574.277424,-5761.916821
834.728223,4862.215523,-5455.635528,-18740.586603
834.730745,-2737.389054,-899.701298,-3732.803256
834.733266,-3866.801322,1091.127106,-18606.588538
834.735788,3522.234867,-1014.556782,-3828.516160
834.738310,-2105.683888,3771.088418,-6317.051664
834.740832,593.420005,-574.277424,-18683.158861
834.743353,1263.410333,-535.992262,-2392.822600
834.745875,-2526.820666,-593.420005,-10107.282662
834.748397,2565.105827,-4900.500685,-17438.891109
834.750919,-2833.101958,-421.136778,-535.992262
834.753440,1588.834206,-1933.400661,-17324.035624
834.755962,-1933.400661,880.558717,-8269.594906
834.758484,2718.246474,-555.134843,-2967.100024
834.761005,-1741.974853,-382.851616,-19142.580800
834.763527,-421.136778,1033.699363,-6087.340694
834.766049,1933.400661,-2392.822600,-5493.920690
834.768571,-3081.955509,727.418070,-16730.615619
834.771092,1493.121302,-2679.961312,-6967.899411
834.773614,2124.826469,-2871.387120,-3866.801322
834.776136,-3388.236802,306.281293,-22454.247278
834.778658,1205.982590,823.130974,-2660.818731
834.781180,-593.420005,267.996131,-4938.785846
834.783701,-2335.394858,1990.828403,-22281.964051
834.786223,1627.119368,-1129.412267,2928.814862
834.788745,-1378.265818,-2526.820666,-19276.578866
834.791267,-172.283227,-3254.238736,-10317.851051
834.793789,708.275490,-2411.965181,-631.705166
834.796310,-1148.554848,-1282.552914,-16730.615619
834.798832,669.990328,-1091.127106,-9379.864592
834.801354,-995.414202,535.992262,-918.843878
834.803876,516.849682,57.427742,-20654.844683
834.806398,-3560.520029,2660.818731,-899.701298
834.808919,3847.658741,-3732.803256,-10241.280728
834.811441,-3349.951640,-1033.699363,-16386.049165
834.813963,-57.427742,-1569.691626,-4019.941968
834.816485,3349.951640,-4977.071008,-5608.776174
834.819007,-3081.955509,-669.990328,-20693.129845
834.821528,1378.265818,-861.416136,-803.988394
834.824050,708.275490,-803.988394,-9016.155557
834.826572,-574.277424,76.570323,-16022.340130
834.829094,1780.260014,-899.701298,-918.843878
834.831616,918.843878,-76.570323,-13418.949141
834.834137,-3369.094221,306.281293,-13208.380752
834.836659,1397.408398,-2373.680019,-4881.358104
834.839181,957.129040,-3981.656806,-10719.845248
834.841703,-4613.361973,1454.836141,-16462.619488
834.844224,2335.394858,-1282.552914,2239.681954
834.846746,2813.959378,-3120.240670,-14988.640766
834.849268,-5321.637462,3349.951640,-14529.218827
834.851790,1052.841944,-267.996131,-1914.258080
834.854312,2986.242605,-2890.529701,-13208.380752
834.856833,-1359.123237,287.138712,-12500.105262
834.859355,-1167.697429,535.992262,-2986.242605
834.861877,5225.924558,-3062.812928,-11906.685258
834.864399,-8059.026517,2967.100024,-9322.436850
834.866921,6489.334891,-7101.897477,-9131.011042
834.869442,-3177.668413,-229.710970,-9379.864592
834.871963,-1473.978722,344.566454,-12978.669782
834.874484,3177.668413,-1607.976787,-6068.198114
834.877005,-3235.096155,3445.664544,-10796.415571
834.879526,1359.123237,-555.134843,-9973.284597
834.882047,-133.998066,-842.273555,-9265.009107
834.884568,-4096.512291,57.427742,-10068.997501
834.887089,4938.785846,-6393.621987,-13265.808494
834.889610,516.849682,-3771.088418,-2335.394858
834.892130,-4077.369710,957.129040,-19602.002739
834.894651,3407.379382,-1588.834206,-6278.766502
834.897172,-3349.951640,4402.793584,-2699.103893
834.899693,1148.554848,-1110.269686,-5857.629725
834.902214,-210.568389,-880.558717,-2335.394858
834.904735,1416.550979,-2947.957443,-8537.591037
834.907256,-1205.982590,-3330.809059,-18855.442088
834.909777,995.414202,-2220.539373,-1416.550979
834.912298,-459.421939,-3043.670347,-10700.702667
834.914819,325.423874,-1263.410333,-18415.162730
834.917339,2967.100024,-823.130974,823.130974
834.919860,-4039.084549,4996.213589,-15696.916256
834.922381,3139.383251,-1282.552914,-10509.276859
834.924902,574.277424,-708.275490,-765.703232
834.927423,-172.283227,-3273.381317,-18836.299507
834.929944,-363.709035,-4039.084549,-12021.540742
834.932465,1627.119368,-5340.780043,1990.828403
834.934986,-1282.552914,-5130.211654,-20827.127910
834.937507,899.701298,-6183.053598,-3847.658741
834.940028,191.425808,-3675.375514,-4575.076811
834.942548,-2718.246474,-4153.940034,-16558.332392
834.945069,2277.967115,-4670.789715,-8327.022648
834.947590,382.851616,-1359.123237,-4728.217458
834.950111,-2431.107762,-4287.938099,-15256.636898
834.952632,2163.111630,-5130.211654,-6872.186507
834.955153,-937.986459,-1780.260014,-7695.317482
834.957674,-516.849682,-4345.365842,-12921.242040
834.960195,153.140646,-6029.912952,-8346.165229
834.962716,2775.674216,-7255.038123,-5302.494882
834.965236,-2182.254211,-3598.805190,-15409.777544
834.967757,-229.710970,-4287.938099,-8633.303941
834.970278,421.136778,-2622.533570,-4460.221326
834.972798,-842.273555,-459.421939,-15582.060771
834.975318,727.418070,-2182.254211,-6948.756830
834.977838,-861.416136,-3847.658741,-8633.303941
834.980358,19.142581,-6833.901346,-12921.242040
834.982878,382.851616,-3292.523898,-7006.184573
834.985397,-1282.552914,516.849682,-9513.862658
834.987917,401.994197,-1512.263883,-10987.841379
834.990437,-172.283227,-1493.121302,-7848.458128
834.992957,-229.710970,-3158.525832,-8365.307810
834.995477,-133.998066,-6680.760699,-12825.529136
834.997997,-440.279358,-9896.714274,-6106.483275
835.000516,-497.707101,-10145.567824,-12136.396227
835.003036,-1071.984525,-7369.893608,-12232.109131
835.005556,3369.094221,-5723.631659,-4383.651003
835.008076,-325.423874,3043.670347,-11313.265253
835.010596,-2679.961312,3675.375514,-10815.558152
835.013116,1320.838075,-1091.127106,-6489.334891
835.015636,-2679.961312,-4058.227130,-11562.118803
835.018155,1454.836141,-8365.307810,-10738.987829
835.020675,95.712904,-8786.444587,-5915.057467
835.023195,899.701298,-12117.253646,-11102.696864
835.025715,-2871.387120,-3579.662610,-12040.683323
835.028235,1856.830338,918.843878,-5149.354235
835.030755,-995.414202,2909.672282,-14624.931731
835.033275,-957.129040,516.849682,-8384.450390
835.035794,1435.693560,-1914.258080,-6451.049730
835.038314,-612.562586,-3062.812928,-14624.931731
835.040834,-1359.123237,-5111.069074,-8556.733618
835.043354,1837.687757,-6087.340694,-7676.174901
835.045874,-803.988394,95.712904,-11370.692995
835.048394,-1493.121302,4096.512291,-11255.837510
835.050913,2258.824534,497.707101,-8480.163294
835.053433,-363.709035,1741.974853,-7159.325219
835.055953,-5168.496816,3483.949706,-12806.386555
835.058473,6355.336826,-5474.778109,-6661.618118
835.060993,-5187.639397,-344.566454,-8039.883936
835.063513,1129.412267,-5876.772306,-15390.634963
835.066033,1014.556782,-3311.666478,-2737.389054
835.068552,-2411.965181,899.701298,-13820.943338
835.071072,1339.980656,-593.420005,-11408.978157
835.073594,-2277.967115,2545.963246,-4230.510357
835.076115,803.988394,-478.564520,-13533.804626
835.078636,2737.389054,-1990.828403,-16175.480776
835.081157,2909.672282,-2469.392923,3024.527766
835.083678,-4938.785846,842.273555,-16749.758200
835.086200,-76.570323,-2297.109696,-17094.324654
835.088721,1244.267752,-1741.974853,344.566454
835.091242,-1550.549045,-631.705166,-15716.058837
835.093763,-937.986459,-95.712904,-15103.496251
835.096285,2928.814862,-497.707101,842.273555
835.098806,-2239.681954,1607.976787,-13323.236237
835.101327,-574.277424,-1129.412267,-15830.914322
835.103848,1933.400661,-2909.672282,-440.279358
835.106370,-727.418070,-2833.101958,-11428.120738
835.108891,-1282.552914,-3101.098090,-17170.894978
835.111412,1607.976787,-2775.674216,-114.855485
835.113933,4249.652938,-4670.789715,-7925.028451
835.116455,-3483.949706,3235.096155,-22243.678890
835.118976,-5340.780043,6374.479406,-3790.230998
835.121497,8250.452325,-4804.787781,-4938.785846
835.124018,-937.986459,-478.564520,-14088.939469
835.126540,-3732.803256,516.849682,-10987.841379
835.129061,7025.327154,-6910.471669,-4517.649069
835.131582,-3235.096155,-918.843878,-12576.675586
835.134103,-8403.592971,5091.926493,-14088.939469
835.136624,7829.315547,-6757.331022,-5934.200048
835.139146,2660.818731,-3809.373579,-2909.672282
835.141667,-9360.722011,5398.207786,-21363.120173
835.144188,5570.491013,-1952.543242,-5436.492947
835.146709,5953.342629,-1339.980656,-4709.074877
835.149231,-9896.714274,7063.612315,-15065.211090
835.151752,2411.965181,-1646.261949,-4651.647134
835.154273,1244.267752,-4230.510357,-15677.773675
835.156794,-5704.489078,669.990328,-6795.616184
835.159316,4536.791650,-6814.758765,-10068.997501
835.161837,-3043.670347,306.281293,-10796.415571
835.164358,133.998066,-287.138712,-6699.903280
835.166879,3196.810994,-2871.387120,-10183.852986
835.169401,-3503.092286,2354.537438,-12002.398162
835.171922,2641.676150,-1378.265818,-3962.514226
835.174444,-1205.982590,-784.845813,-13495.519464
835.176966,-19.142581,-1512.263883,-11619.546546
835.179487,1052.841944,-2813.959378,-4498.506488
835.182009,1416.550979,-1722.832272,-14988.640766
835.184531,-1263.410333,-1052.841944,-6910.471669
835.187052,-1339.980656,-612.562586,-6068.198114
835.189574,1741.974853,-3771.088418,-16922.041427
835.192096,-2488.535504,957.129040,-3713.660675
835.194617,2603.390989,-2048.256146,-8499.305875
835.197139,-631.705166,-325.423874,-14758.929797
835.199661,344.566454,-440.279358,-5340.780043
835.202182,708.275490,-1129.412267,-14318.650438
835.204704,-516.849682,-1378.265818,-9092.725880
835.207226,784.845813,-1607.976787,-6240.481341
835.209747,-19.142581,-1397.408398,-17075.182074
835.212269,-746.560651,957.129040,-3771.088418
835.214791,459.421939,-1129.412267,-10585.847182
835.217312,-516.849682,-76.570323,-15582.060771
835.219834,287.138712,382.851616,-3024.527766
835.222356,95.712904,210.568389,-13016.954944
835.224877,-1205.982590,-401.994197,-12806.386555
835.227399,-57.427742,-957.129040,-4957.928427
835.229921,-1359.123237,-1129.412267,-9322.436850
835.232442,1282.552914,-2354.537438,-15294.922059
835.234964,-401.994197,-957.129040,-1761.117434
835.237486,-38.285162,-957.129040,-16309.478842
835.240007,478.564520,-401.994197,-8154.739421
835.242529,-267.996131,918.843878,-5379.065205
835.245051,-1186.840010,229.710970,-13974.083984
835.247572,1320.838075,-2277.967115,-9915.856854
835.250094,-1397.408398,-516.849682,-5417.350366
835.252616,861.416136,-2699.103893,-14529.218827
835.255138,-2297.109696,-727.418070,-9131.011042
835.257659,2833.101958,-4039.084549,-8824.729749
835.260181,-2277.967115,746.560651,-10911.271056
835.262703,1722.832272,-861.416136,-9303.294269
835.265224,95.712904,287.138712,-7618.747158
835.267746,-689.132909,172.283227,-11849.257515
835.270268,2718.246474,-2354.537438,-10930.413637
835.272789,-2679.961312,267.996131,-5876.772306
835.275311,1167.697429,-3349.951640,-14510.076246
835.277832,-344.566454,-2086.541307,-9667.003304
835.280353,-1186.840010,-842.273555,-3349.951640
835.282874,478.564520,-3311.666478,-19200.008542
835.285396,1416.550979,-516.849682,-9954.142016
835.287917,-306.281293,1225.125171,401.994197
835.290438,-19.142581,306.281293,-21133.409203
835.292959,-38.285162,229.710970,-6297.909083
835.295481,1473.978722,-1167.697429,-3292.523898
835.298002,-1052.841944,-2488.535504,-20348.563390
835.300523,516.849682,-1684.547110,-6585.047795
835.303044,1033.699363,-2335.394858,-3962.514226
835.305566,-708.275490,-287.138712,-18396.020149
835.308087,-535.992262,1320.838075,-6757.331022
835.310608,3043.670347,-1052.841944,-4000.799387
835.313129,-4134.797453,-401.994197,-18778.871765
835.315651,899.701298,-746.560651,-2220.539373
835.318172,861.416136,-2565.105827,-7752.745224
835.320693,-2718.246474,-899.701298,-17400.605947
835.323215,38.285162,-1780.260014,-5072.783912
835.325736,669.990328,-478.564520,-5034.498750
835.328257,-1531.406464,19.142581,-16845.471104
835.330778,-535.992262,574.277424,-6872.186507
835.333300,-1435.693560,133.998066,-2239.681954
835.335821,-937.986459,-784.845813,-22817.956314
835.338342,229.710970,-95.712904,-2565.105827
835.340863,1263.410333,-1282.552914,-1990.828403
835.343385,-3005.385186,-459.421939,-22569.102763
835.345906,325.423874,-1071.984525,-6049.055533
835.348427,1435.693560,-2124.826469,-1607.976787
835.350948,-1493.121302,-1435.693560,-19602.002739
835.353470,1550.549045,-1646.261949,-153.140646
835.355991,-535.992262,-287.138712,-8767.302006
835.358512,-2603.390989,-957.129040,-17170.894978
835.361033,172.283227,-1225.125171,-3081.955509
835.363555,3311.666478,-2833.101958,-14739.787216
835.366076,535.992262,-746.560651,-5781.059402
835.368597,-2909.672282,2029.113565,-5723.631659
835.371118,2163.111630,-2852.244539,-19736.000805
835.373640,-248.853550,-459.421939,-2909.672282
835.376162,-1493.121302,-746.560651,-5474.778109
835.378684,2182.254211,-3713.660675,-18396.020149
835.381207,-1722.832272,-899.701298,-6087.340694
835.383729,95.712904,-1550.549045,-4287.938099
835.386251,248.853550,-1914.258080,-17075.182074
835.388774,-689.132909,1091.127106,-4670.789715
835.391296,1703.689691,-57.427742,-6240.481341
835.393819,-2335.394858,382.851616,-18549.160795
835.396341,440.279358,-708.275490,-7274.180704
835.398863,1110.269686,-1071.984525,-3196.810994
835.401386,-2009.970984,-401.994197,-17477.176270
835.403908,669.990328,-1971.685822,-9992.427178
835.406430,57.427742,-555.134843,-2335.394858
835.408953,-957.129040,-19.142581,-15084.353670
835.411475,-229.710970,-76.570323,-12289.536874
835.413997,-1473.978722,669.990328,-2354.537438
835.416520,1531.406464,-1550.549045,-12538.390424
835.419042,-306.281293,-1646.261949,-13993.226565
835.421564,-2029.113565,650.847747,-1473.978722
835.424087,5149.354235,-2890.529701,-15677.773675
835.426609,-6259.623922,4957.928427,4919.643266
835.429131,5379.065205,-7944.171032,-23889.940838
835.431654,-5704.489078,937.986459,-9609.575562
835.434176,2852.244539,-3560.520029,3273.381317
835.436698,-229.710970,-1914.258080,-24445.075682
835.439221,-1933.400661,1837.687757,-7542.176835
835.441743,3005.385186,-1435.693560,516.849682
835.444265,-1780.260014,-612.562586,-19640.287901
835.446788,-440.279358,-114.855485,-10222.138147
835.449310,2316.252277,-2813.959378,-478.564520
835.451832,-2488.535504,-918.843878,-19468.004674
835.454355,2488.535504,-3560.520029,-8346.165229
835.456877,-880.558717,-1627.119368,2699.103893
835.459400,-1933.400661,-1741.974853,-25517.060206
835.461922,784.845813,-1225.125171,2488.535504
835.464444,555.134843,325.423874,-8556.733618
835.466967,-1033.699363,-191.425808,-20118.852421
835.469489,-76.570323,-76.570323,-1799.402595
835.472011,1263.410333,-1684.547110,-9131.011042
835.474534,-1205.982590,-1473.978722,-17706.887240
835.476996,440.279358,-842.273555,-976.271621
835.479458,1397.408398,-2392.822600,-10968.698798
835.481921,-746.560651,-708.275490,-20501.704037
835.484383,1129.412267,-823.130974,4230.510357
835.486846,210.568389,133.998066,-11772.687192
835.489308,-5206.781978,3005.385186,-22645.673086
835.491771,7561.319416,-3273.381317,2392.822600
835.494233,-3043.670347,1818.545176,-7867.600709
835.496696,-555.134843,-440.279358,-21631.116304
835.499158,1818.545176,-2316.252277,6967.899411
835.501620,-2718.246474,-535.992262,-17726.029821
835.504083,248.853550,-2373.680019,-15160.923994
835.506545,-95.712904,-248.853550,5187.639397
835.509008,-1895.115499,1454.836141,-20559.131779
835.511470,3158.525832,-1454.836141,-12978.669782
835.513933,3369.094221,-4441.078746,9858.429112
835.516395,-9073.583299,4039.084549,-27546.173771
835.518857,3292.523898,-2182.254211,-11026.126541
835.521320,3196.810994,-1531.406464,5532.205851
835.523782,-5895.914886,3081.955509,-16079.767872
835.526245,2986.242605,-4957.928427,-21209.979526
835.528707,382.851616,-880.558717,13284.951075
835.531170,-1550.549045,-2718.246474,-19659.430482
835.533632,842.273555,-3005.385186,-21860.827274
835.536095,-899.701298,535.992262,6795.616184
835.538557,1282.552914,-1301.695494,-29556.144755
835.541019,-76.570323,210.568389,-1435.693560
835.543482,-1914.258080,669.990328,880.558717
835.545944,1837.687757,-4881.358104,-26435.904085
835.548407,-1071.984525,-937.986459,-8556.733618
835.550869,784.845813,-2411.965181,2679.961312
835.553332,-1799.402595,-1129.412267,-31700.113805
835.555794,-248.853550,727.418070,-4192.225195
835.558256,1033.699363,-38.285162,-1531.406464
835.560719,-1952.543242,363.709035,-21860.827274
835.563181,267.996131,0.000000,-6259.623922
835.565644,-2545.963246,631.705166,-2909.672282
835.568106,1588.834206,-2852.244539,-20367.705971
835.570569,-1665.404530,-2507.678085,-4268.795518
835.573031,2086.541307,-3196.810994,-10202.995566
835.575511,-1416.550979,-1435.693560,-13954.941403
835.577990,133.998066,1110.269686,-3598.805190
835.580469,727.418070,133.998066,-11906.685258
835.582949,-1397.408398,2469.392923,-12480.962682
835.585428,2316.252277,57.427742,-4479.363907
835.587908,-2048.256146,995.414202,-8652.446522
835.590387,267.996131,-2277.967115,-13820.943338
835.592867,-153.140646,-3005.385186,-6183.053598
835.595346,-459.421939,-1244.267752,-5838.487144
835.597826,-2679.961312,1435.693560,-20999.411138
835.600305,4881.358104,1014.556782,478.564520
835.602785,-5493.920690,9265.009107,-11064.411702
835.605264,3196.810994,3349.951640,-15505.490448
835.607744,-3120.240670,5608.776174,3177.668413
835.610223,2450.250342,-95.712904,-13591.232368
835.612703,-1282.552914,2545.963246,-15218.351736
835.615182,95.712904,-957.129040,-2660.818731
835.617662,708.275490,-4096.512291,-11581.261384
835.620141,-1837.687757,2852.244539,-14261.222696
835.622620,1588.834206,1933.400661,-4383.651003
835.625100,-1607.976787,4268.795518,-13016.954944
835.627579,229.710970,5187.639397,-11408.978157
835.630059,478.564520,4709.074877,-3139.383251
835.632538,-689.132909,3426.521963,-15964.912387
835.635018,95.712904,1378.265818,-7886.743290
835.637497,191.425808,133.998066,-6738.188442
835.639977,-631.705166,-593.420005,-13514.662045
835.642456,-57.427742,-191.425808,-10068.997501
835.644936,-95.712904,1741.974853,-9207.581365
835.647415,-19.142581,2258.824534,-13323.236237
835.649895,-191.425808,-382.851616,-6431.907149
835.652374,-899.701298,-19.142581,-10356.136213
835.654854,421.136778,-689.132909,-12251.251712
835.657333,-191.425808,1875.972918,-6508.477472
835.659812,363.709035,5455.635528,-10413.563955
835.662292,-574.277424,8365.307810,-11753.544611
835.664771,497.707101,9877.571693,-7235.895542
835.667251,-95.712904,7235.895542,-10700.702667
835.669730,-803.988394,1493.121302,-11351.550414
835.672210,650.847747,-3847.658741,-6221.338760
835.674703,-440.279358,-2239.681954,-12729.816232
835.677195,-76.570323,-3751.945837,-10068.997501
835.679688,-95.712904,19.142581,-7599.604578
835.682181,-650.847747,5340.780043,-12614.960747
835.684673,459.421939,5819.344563,-7427.321350
835.687166,19.142581,7408.178770,-9379.864592
835.689659,-976.271621,7082.754896,-12346.964616
835.692152,-57.427742,708.275490,-7580.461997
835.694644,1627.119368,-2852.244539,-7944.171032
835.697137,-2622.533570,-1186.840010,-14529.218827
835.699630,1741.974853,-3445.664544,-12346.964616
835.702122,210.568389,-2201.396792,-3445.664544
835.704615,-2067.398726,2928.814862,-12959.527202
835.707108,2909.672282,172.283227,-14605.789150
835.709601,-1052.841944,2354.537438,1052.841944
835.712093,2469.392923,-3292.523898,-13725.230434
835.714586,-2928.814862,248.853550,-12538.390424
835.717079,3330.809059,-5321.637462,-4823.930362
835.719572,-4173.082614,-287.138712,-17190.037558
835.722064,1952.543242,-2603.390989,-7925.028451
835.724557,-153.140646,382.851616,-6106.483275
835.727050,210.568389,1110.269686,-16596.617554
835.729542,-2488.535504,2852.244539,-6565.905214
835.732035,1129.412267,210.568389,-8039.883936
835.734528,95.712904,-1339.980656,-14376.078181
835.737021,-2316.252277,-593.420005,-6163.911018
835.739513,2067.398726,-3790.230998,-9265.009107
835.742006,-2756.531635,-937.986459,-12289.536874
835.744499,1014.556782,-1263.410333,-8518.448456
835.746991,-76.570323,-459.421939,-8307.880067
835.749484,-1473.978722,1588.834206,-13342.378818
835.751977,612.562586,-19.142581,-8039.883936
835.754470,382.851616,440.279358,-7312.465866
835.756962,2545.963246,-2928.814862,-9073.583299
835.759455,-4747.360038,-631.705166,-11600.403965
835.761948,2852.244539,-5589.633594,-7216.752962
835.764441,-478.564520,-2699.103893,-6527.620053
835.766933,-1665.404530,-440.279358,-14012.369146
835.769426,1971.685822,-1627.119368,-9399.007173
835.771919,-995.414202,2009.970984,-3751.945837
835.774423,-0.000000,-114.855485,-14988.640766
835.776927,191.425808,-497.707101,-6891.329088
835.779431,-2086.541307,-842.273555,-7561.319416
835.781935,-650.847747,-3235.096155,-13112.667848
835.784440,8250.452325,-7006.184573,-6412.764568
835.786944,-8920.442653,4747.360038,-2182.254211
835.789448,2871.387120,-2699.103893,-26684.757635
835.791952,803.988394,57.427742,-153.140646
835.794456,-2277.967115,1990.828403,-1110.269686
835.796960,1818.545176,-2603.390989,-24521.646005
835.799465,4862.215523,-3905.086483,1512.263883
835.801969,-2641.676150,612.562586,-10336.993632
835.804473,-2794.816797,-459.421939,-20635.702102
835.806977,2833.101958,-516.849682,2545.963246
835.809481,-5761.916821,3139.383251,-11830.114934
835.811985,5034.498750,-3177.668413,-23947.368581
835.814490,382.851616,229.710970,7255.038123
835.816994,-2105.683888,1607.976787,-12461.820101
835.819498,248.853550,-3215.953574,-21305.692430
835.822002,-1091.127106,76.570323,5072.783912
835.824506,1684.547110,-3311.666478,-11983.255581
835.827010,-2316.252277,-1033.699363,-12212.966550
835.829515,1875.972918,-1550.549045,3694.518094
835.832019,-267.996131,-76.570323,-19085.153058
835.834523,-1990.828403,1416.550979,-13323.236237
835.837027,-19.142581,-210.568389,2507.678085
835.839531,287.138712,-1225.125171,-18453.447891
835.842035,-95.712904,-1627.119368,-6221.338760
835.844540,38.285162,-1703.689691,-5685.346498
835.847044,-57.427742,-3062.812928,-18262.022083
835.849548,-669.990328,-1799.402595,-5647.061336
835.852052,497.707101,-1110.269686,-3598.805190
835.854556,-1033.699363,-363.709035,-17572.889174
835.857060,57.427742,-38.285162,-6297.909083
835.859565,19.142581,-440.279358,-3694.518094
835.862069,-880.558717,-1588.834206,-17228.322720
835.864573,344.566454,-880.558717,-5819.344563
835.867077,535.992262,-1684.547110,-9188.438784
835.869581,2373.680019,-3081.955509,-10700.702667
835.872085,-1320.838075,-1493.121302,-10413.563955
835.874598,995.414202,-1550.549045,-13476.376883
835.877111,-555.134843,344.566454,-6202.196179
835.879624,1435.693560,114.855485,-10011.569758
835.882137,-1416.550979,-19.142581,-12921.242040
835.884650,746.560651,-133.998066,-4862.215523
835.887163,1416.550979,-2833.101958,-13342.378818
835.889676,-2182.254211,172.283227,-11944.970419
835.892189,2794.816797,-3847.658741,-5513.063270
835.894702,-3675.375514,210.568389,-12251.251712
835.897215,4938.785846,-3885.943902,-13782.658176
835.899728,-2603.390989,2124.826469,-497.707101
835.902241,2143.969050,-2928.814862,-20750.557587
835.904754,-4536.791650,4747.360038,-5953.342629
835.907267,3101.098090,-1052.841944,-1895.115499
835.909780,-1493.121302,-459.421939,-18032.311114
835.912293,-1320.838075,-382.851616,-7408.178770
835.914806,2239.681954,-3101.098090,-4977.071008
835.917319,-2737.389054,-918.843878,-14816.357539
835.919832,995.414202,-1684.547110,-12251.251712
835.922345,-1531.406464,267.996131,-325.423874
835.924858,1646.261949,-1741.974853,-20080.567259
835.927371,1129.412267,-957.129040,-5283.352301
835.929884,-3292.523898,2545.963246,-4804.787781
835.932397,995.414202,-1761.117434,-19850.856290
835.934910,-2277.967115,2411.965181,-440.279358
835.937423,2679.961312,1339.980656,-12653.245909
835.939936,-3120.240670,-1627.119368,-18625.731118
835.942449,1397.408398,-1875.972918,1588.834206
835.944962,937.986459,-2545.963246,-12595.818166
835.947475,-1971.685822,-114.855485,-16481.762069
835.949988,1722.832272,-631.705166,1646.261949
835.952501,-3407.379382,1225.125171,-14758.929797
835.955014,5245.067139,-3560.520029,-14663.216893
835.957527,-4977.071008,2986.242605,6585.047795
835.960040,3177.668413,-5034.498750,-24043.081485
835.962553,-1971.685822,-440.279358,-10604.989763
835.965066,-210.568389,-287.138712,2201.396792
835.967579,3656.232933,-4747.360038,-17783.457563
835.970092,-3560.520029,459.421939,-11600.403965
835.972605,2890.529701,-1550.549045,478.564520
835.975125,-4000.799387,1378.265818,-19582.860158
835.977644,1569.691626,401.994197,-8767.302006
835.980164,-1129.412267,-650.847747,287.138712
835.982683,976.271621,-2354.537438,-23717.657611
835.985203,1799.402595,-3005.385186,-3713.660675
835.987722,-4632.504554,2431.107762,-3981.656806
835.990242,2967.100024,-3981.656806,-21056.838880
835.992761,-3311.666478,3790.230998,-4785.645200
835.995281,2775.674216,-1454.836141,-612.562586
835.997800,-325.423874,-918.843878,-21535.403400
836.000320,-1818.545176,784.845813,-6240.481341
836.002839,2986.242605,-2679.961312,-535.992262
836.005359,-4077.369710,-708.275490,-22932.811798
836.007878,1684.547110,-1454.836141,-6106.483275
836.010398,-1990.828403,-612.562586,-57.427742
836.012917,3177.668413,-3292.523898,-23143.380187
836.015436,-3235.096155,3866.801322,4153.940034
836.017956,1339.980656,363.709035,-12212.966550
836.020475,-2124.826469,172.283227,-21324.835011
836.022995,-1588.834206,2105.683888,5742.774240
836.025514,5474.778109,-6317.051664,-9360.722011
836.028034,-5838.487144,-708.275490,-18912.869830
836.030553,842.273555,-3541.377448,-2411.965181
836.033073,7408.178770,-7178.467800,3694.518094
836.035592,-7810.172966,1205.982590,-28713.871200
836.038112,-957.129040,1091.127106,-7465.606512
836.040631,-650.847747,1875.972918,5398.207786
836.043151,3062.812928,-803.988394,-26914.468605
836.045670,-5991.627790,4192.225195,-14356.935600
836.048190,2813.959378,-1397.408398,10853.843314
836.050709,-2699.103893,-2258.824534,-21401.405334
836.053229,133.998066,-4211.367776,-7025.327154
836.055748,1512.263883,-3426.521963,3120.240670
836.058267,-1914.258080,-2354.537438,-22971.096960
836.060787,1359.123237,0.000000,-7274.180704
836.063306,95.712904,2392.822600,861.416136
836.065826,-1320.838075,2067.398726,-23392.233738
836.068345,440.279358,631.705166,-5493.920690
836.070865,-153.140646,650.847747,-2258.824534
836.073384,1148.554848,-4441.078746,-20463.418875
836.075910,-1665.404530,-937.986459,-5225.924558
836.078435,1741.974853,-3790.230998,-4307.080680
836.080960,-1378.265818,-1588.834206,-17400.605947
836.083486,248.853550,-918.843878,-5781.059402
836.086011,1186.840010,344.566454,-6642.475538
836.088536,-1378.265818,1627.119368,-14395.220762
836.091062,995.414202,803.988394,-3579.662610
836.093587,-267.996131,-497.707101,-11064.411702
836.096112,1952.543242,-3235.096155,-12557.533005
836.098638,-1856.830338,-2545.963246,-2565.105827
836.101163,497.707101,-2431.107762,-18415.162730
836.103688,-2603.390989,1435.693560,-1205.982590
836.106214,1990.828403,-631.705166,-11370.692995
836.108739,-2373.680019,516.849682,-15486.347867
836.111265,823.130974,555.134843,-4000.799387
836.113790,-421.136778,-401.994197,-7159.325219
836.116315,-784.845813,-1550.549045,-18396.020149
836.118841,803.988394,-2258.824534,-38.285162
836.121366,-1205.982590,-1875.972918,-11964.113000
836.123891,-861.416136,-1397.408398,-12729.816232
836.126417,995.414202,-708.275490,153.140646
836.128942,2507.678085,-3522.234867,-16405.191746
836.131467,-497.707101,-57.427742,-15620.345933
836.133993,-2048.256146,2048.256146,2871.387120
836.136518,3637.090352,-4211.367776,-18453.447891
836.139043,-3598.805190,765.703232,-10183.852986
836.141569,2660.818731,-3158.525832,-3541.377448
836.144094,-459.421939,-1473.978722,-14127.224630
836.146619,-421.136778,-995.414202,-12595.818166
836.149145,1129.412267,-1186.840010,-3962.514226
836.151670,-861.416136,-1014.556782,-14012.369146
836.154195,306.281293,-689.132909,-12308.679454
836.156721,1435.693560,-669.990328,-1014.556782
836.159246,2258.824534,-1914.258080,-18951.154992
836.161771,-5493.920690,2584.248408,-4747.360038
836.164297,2392.822600,-2392.822600,-8039.883936
836.166822,-478.564520,-2584.248408,-13208.380752
836.169347,-2182.254211,497.707101,-8652.446522
836.171873,2507.678085,-2641.676150,-6393.621987
836.174398,-2201.396792,1473.978722,-15428.920125
836.176928,57.427742,210.568389,-5149.354235
836.179457,612.562586,287.138712,-9934.999435
836.181986,-6049.055533,2392.822600,-12806.386555
836.184516,5589.633594,-4192.225195,-15237.494317
836.187045,-1569.691626,2258.824534,6546.762634
836.189575,3330.809059,-2565.105827,-20654.844683
836.192104,-5685.346498,937.986459,-7446.463931
836.194634,2201.396792,-3847.658741,-6508.477472
836.197163,2431.107762,-5513.063270,-9667.003304
836.199692,-4460.221326,1569.691626,-16654.045296
836.202222,3847.658741,-191.425808,746.560651
836.204751,-1091.127106,2048.256146,-13610.374949
836.207281,-2737.389054,2029.113565,-15945.769806
836.209810,957.129040,-1531.406464,-267.996131
836.212340,478.564520,-3522.234867,-13629.517530
836.214869,1167.697429,-5340.780043,-12557.533005
836.217398,-2277.967115,-1301.695494,-1741.974853
836.219928,2163.111630,-3522.234867,-14720.644635
836.222457,-1971.685822,1378.265818,-11102.696864
836.224987,1703.689691,612.562586,-1473.978722
836.227516,-708.275490,382.851616,-17974.883371
836.230045,-133.998066,-363.709035,-7178.467800
836.232575,880.558717,-1780.260014,-5570.491013
836.235104,-784.845813,-2909.672282,-16175.480776
836.237634,-650.847747,-1225.125171,-5781.059402
836.240163,650.847747,-3196.810994,-8307.880067
836.242693,1493.121302,-1818.545176,-12614.960747
836.245222,-2545.963246,2201.396792,-6431.907149
836.247751,2277.967115,-344.566454,-13170.095590
836.250281,-1550.549045,1761.117434,-7312.465866
836.252810,918.843878,-1167.697429,-10088.140082
836.255340,76.570323,-2163.111630,-10758.130410
