#time,accel_x,accel_y,accel_z
317.408023,1072.533697,-0.000000,9622.677246
317.408331,536.266849,444.123565,9474.636058
317.408639,919.314598,592.164754,9696.697840
317.408947,536.266849,444.123565,9548.656652
317.409255,842.705048,296.082377,9548.656652
317.409563,689.485948,-0.000000,9918.759623
317.409871,459.657299,-0.000000,9696.697840
317.410179,153.219100,-0.000000,9770.718434
317.410487,919.314598,-0.000000,9696.697840
317.410795,306.438199,-74.020594,9474.636058
317.411103,612.876398,222.061783,9622.677246
317.411411,612.876398,296.082377,9622.677246
317.411719,689.485948,296.082377,9474.636058
317.412027,995.924147,222.061783,9326.594869
317.412335,919.314598,370.102971,9696.697840
317.412643,612.876398,-0.000000,9622.677246
317.412951,689.485948,-0.000000,9474.636058
317.413259,383.047749,-0.000000,9696.697840
317.413567,306.438199,370.102971,9622.677246
317.413875,459.657299,-0.000000,9622.677246
317.414183,306.438199,74.020594,9548.656652
317.414491,536.266849,296.082377,9400.615463
317.414799,919.314598,-0.000000,9548.656652
317.415107,1149.143247,-74.020594,9696.697840
317.415415,766.095498,-0.000000,9548.656652
317.415723,689.485948,-0.000000,9770.718434
317.416031,536.266849,296.082377,9548.656652
317.416339,383.047749,-0.000000,9474.636058
317.416647,459.657299,222.061783,9696.697840
317.416955,689.485948,148.041188,9770.718434
317.417263,842.705048,-0.000000,9622.677246
317.417571,1072.533697,296.082377,9844.739029
317.417879,306.438199,296.082377,9844.739029
317.418187,689.485948,148.041188,9622.677246
317.418495,689.485948,148.041188,9770.718434
317.418803,612.876398,148.041188,9622.677246
317.419111,612.876398,222.061783,9548.656652
317.419419,536.266849,-74.020594,9548.656652
317.419727,689.485948,-0.000000,9622.677246
317.420035,1225.752797,-0.000000,9844.739029
317.420343,1072.533697,-518.144159,10140.821405
317.420651,842.705048,-518.144159,9918.759623
317.420959,842.705048,-518.144159,9918.759623
317.421267,919.314598,-222.061783,10140.821405
317.421575,1455.581446,-74.020594,9770.718434
317.421883,2298.286494,370.102971,9474.636058
317.422191,2068.457845,518.144159,8882.471304
317.422499,2298.286494,1184.329507,8734.430116
317.422807,1991.848295,740.205942,8808.450710
317.423115,2068.457845,592.164754,8956.491898
317.423423,1762.019645,370.102971,9252.574275
317.423731,1532.190996,296.082377,9548.656652
317.424039,1455.581446,222.061783,9696.697840
317.424347,1991.848295,-0.000000,10066.800811
317.424655,1225.752797,-148.041188,9696.697840
317.424963,1532.190996,-74.020594,9918.759623
317.425271,1762.019645,-296.082377,10362.883188
317.425579,1838.629195,-222.061783,10214.842000
317.425887,2068.457845,-0.000000,9696.697840
317.426195,2528.115143,296.082377,9474.636058
317.426503,2528.115143,444.123565,9474.636058
317.426811,2451.505594,296.082377,9474.636058
317.427119,2451.505594,370.102971,9474.636058
317.427427,2987.772442,666.185348,9474.636058
317.427735,2604.724693,444.123565,9178.553681
317.428043,2528.115143,222.061783,9622.677246
317.428351,2604.724693,296.082377,9770.718434
317.428659,2374.896044,222.061783,9696.697840
317.428967,3370.820191,-0.000000,9918.759623
317.429275,2604.724693,-148.041188,10066.800811
317.429583,2911.162892,-592.164754,10436.903782
317.429891,2604.724693,-370.102971,10362.883188
317.430199,2681.334243,-370.102971,10140.821405
317.430507,3294.210641,-148.041188,9918.759623
317.430815,3370.820191,-74.020594,9548.656652
317.431123,3677.258390,148.041188,9548.656652
317.431431,4366.744339,518.144159,9400.615463
317.431739,4443.353888,666.185348,9252.574275
317.432047,4749.792088,518.144159,9252.574275
317.432355,4366.744339,518.144159,9178.553681
317.432663,4443.353888,444.123565,9252.574275
317.432971,4290.134789,296.082377,9252.574275
317.433279,3983.696590,222.061783,9474.636058
317.433587,3983.696590,-0.000000,9474.636058
317.433895,4060.306139,-296.082377,9474.636058
317.434203,4366.744339,-0.000000,9548.656652
317.434511,4673.182538,518.144159,9178.553681
317.434819,4903.011187,814.226536,9400.615463
317.435127,4903.011187,814.226536,8660.409521
317.435435,4903.011187,1332.370696,8586.388927
317.435743,4749.792088,740.205942,8586.388927
317.436051,4673.182538,1850.514855,8882.471304
317.436359,4136.915689,888.247130,8438.347739
317.436667,4673.182538,814.226536,8956.491898
317.436975,3983.696590,444.123565,9474.636058
317.437283,2911.162892,370.102971,10288.862594
317.437591,3524.039291,296.082377,11103.089130
317.437899,2298.286494,444.123565,10066.800811
317.438207,2757.943793,-0.000000,10214.842000
317.438515,2757.943793,518.144159,9918.759623
317.438823,2681.334243,888.247130,9844.739029
317.439131,2681.334243,666.185348,10066.800811
317.439439,2528.115143,444.123565,9770.718434
317.439747,1762.019645,296.082377,9992.780217
317.440055,1532.190996,-0.000000,9918.759623
317.440363,1685.410096,-370.102971,10214.842000
317.440671,1685.410096,-740.205942,10362.883188
317.440979,1608.800546,-1258.350101,10362.883188
317.441287,2068.457845,-1480.411884,10881.027347
317.441595,2451.505594,-1998.556043,10881.027347
317.441903,2604.724693,-1702.473667,10658.965565
317.442211,2987.772442,-1850.514855,10584.944971
317.442519,3370.820191,-1406.391290,9992.780217
317.442827,3600.648841,-740.205942,9400.615463
317.443135,4060.306139,-370.102971,9030.512492
317.443443,4826.401637,148.041188,8882.471304
317.443751,5056.230287,666.185348,8364.327145
317.444059,4749.792088,1036.288319,7994.224174
317.444367,5592.497135,814.226536,8142.265362
317.444675,4903.011187,814.226536,8438.347739
317.444983,4443.353888,666.185348,8438.347739
317.445291,3677.258390,-0.000000,8882.471304
317.445599,3524.039291,-148.041188,9400.615463
317.445907,3447.429741,-222.061783,9696.697840
317.446215,2987.772442,370.102971,9770.718434
317.446523,3217.601092,148.041188,9474.636058
317.446831,3983.696590,1184.329507,8734.430116
317.447139,4136.915689,1998.556043,8512.368333
317.447447,4673.182538,2738.761985,8068.244768
317.447755,4596.572988,2960.823768,8290.306550
317.448063,4290.134789,2738.761985,8734.430116
317.448371,3677.258390,1776.494261,9474.636058
317.448679,2604.724693,222.061783,10658.965565
317.448987,1302.362347,-1406.391290,12139.377449
317.449295,306.438199,-2738.761985,13471.748144
317.449603,306.438199,-3923.091493,14063.912898
317.449911,306.438199,-3775.050304,13989.892304
317.450219,1302.362347,-3404.947333,13175.665768
317.450527,3064.381992,-2220.617826,11473.192101
317.450835,4290.134789,-740.205942,9400.615463
317.451143,5975.544884,740.205942,9030.512492
317.451451,7814.174080,1998.556043,7402.059420
317.451759,7814.174080,3775.050304,5995.668130
317.452067,7967.393179,4293.194464,5477.523971
317.452375,7890.783629,4811.338623,5033.400406
317.452683,6588.421283,4737.318029,5551.544565
317.452991,5209.449386,4219.173869,6069.688724
317.453299,4443.353888,2960.823768,7772.162391
317.453607,2681.334243,1110.308913,9178.553681
317.453915,1455.581446,-296.082377,10436.903782
317.454223,612.876398,-1924.535449,12139.377449
317.454531,153.219100,-3552.988522,13101.645173
317.454839,-306.438199,-4219.173869,13767.830521
317.455147,0.000000,-3849.070898,13915.871710
317.455455,995.924147,-3775.050304,13471.748144
317.455763,1608.800546,-2590.720797,12065.356855
317.456071,4290.134789,-2442.679609,11991.336260
317.456379,5056.230287,-888.247130,9178.553681
317.456687,4749.792088,592.164754,7179.997637
317.456995,6358.592633,1036.288319,7846.182985
317.457303,6358.592633,2812.782580,6143.709319
317.457611,5898.935335,3330.926739,6365.771101
317.457919,5822.325785,3552.988522,6069.688724
317.458227,5515.887586,2368.659014,6735.874072
317.458535,4060.306139,888.247130,7624.121203
317.458843,2528.115143,-814.226536,9770.718434
317.459151,1455.581446,-3404.947333,12287.418637
317.459459,229.828649,-4515.256246,12657.521608
317.459767,459.657299,-4441.235652,13693.809927
317.460075,1072.533697,-3108.864956,12213.398043
317.460383,3140.991542,-1776.494261,11325.150913
317.460691,5132.839837,1110.308913,8734.430116
317.460999,7201.297681,3627.009116,5995.668130
317.461307,8273.831378,5107.421000,4737.318029
317.461615,9346.365076,6365.771101,3256.906145
317.461923,8580.269578,6365.771101,4441.235652
317.462231,7124.688131,4959.379811,5477.523971
317.462539,4443.353888,2146.597232,8364.327145
317.462847,1072.533697,-666.185348,11621.233289
317.463155,-1762.019645,-3552.988522,13693.809927
317.463463,-3907.087040,-5625.565159,16358.551318
317.463771,-4060.306139,-5921.647536,17690.922014
317.464079,-1762.019645,-6513.812290,17320.819043
317.464387,-1685.410096,-4589.276840,15470.304188
317.464695,1915.238745,-1628.453072,11843.295072
317.465003,4826.401637,814.226536,7624.121203
317.465311,7354.516781,4145.153275,5551.544565
317.465619,9499.584175,5403.503377,5255.462188
317.465927,9959.241474,6291.750507,3256.906145
317.466235,9193.145976,5921.647536,3108.864956
317.466543,7660.954980,4219.173869,4811.338623
317.466851,4903.011187,1258.350101,7772.162391
317.467159,1378.971896,-1406.391290,10140.821405
317.467467,-766.095498,-3404.947333,12657.521608
317.467775,-1608.800546,-4219.173869,13101.645173
317.468083,-995.924147,-3108.864956,12657.521608
317.468391,1072.533697,-1184.329507,11769.274478
317.468699,3753.867940,1036.288319,8882.471304
317.469007,5592.497135,2072.576638,7920.203579
317.469315,5898.935335,3256.906145,7402.059420
317.469623,5822.325785,4145.153275,6957.935855
317.469931,4596.572988,3108.864956,8512.368333
317.470239,2451.505594,1924.535449,8956.491898
317.470547,1685.410096,-666.185348,11547.212695
317.470855,-2298.286494,-1924.535449,11473.192101
317.471163,-2757.943793,-3330.926739,13101.645173
317.471471,-3600.648841,-4367.215058,14952.160028
317.471779,-3600.648841,-3404.947333,13101.645173
317.472087,-1225.752797,-2960.823768,11917.315666
317.472395,2068.457845,-1184.329507,9622.677246
317.472703,3830.477490,-888.247130,8364.327145
317.473011,4290.134789,74.020594,7624.121203
317.473319,5286.058936,888.247130,7624.121203
317.473627,5592.497135,1184.329507,7846.182985
317.473935,4136.915689,1480.411884,7698.141797
317.474243,3753.867940,2738.761985,6809.894666
317.474551,3907.087040,3627.009116,6735.874072
317.474859,3907.087040,4441.235652,6217.729913
317.475168,4443.353888,4145.153275,6587.832884
317.475476,4826.401637,3182.885551,7254.018232
317.475784,3294.210641,666.185348,8660.409521
317.476092,2145.067394,-1036.288319,10066.800811
317.476400,383.047749,-4367.215058,13323.706956
317.476708,-2221.676944,-5477.523971,13989.892304
317.477016,-2757.943793,-5329.482782,13841.851115
317.477324,-2987.772442,-3404.947333,12879.583391
317.477632,-2145.067394,-1258.350101,11103.089130
317.477941,-306.438199,1332.370696,9474.636058
317.478249,2145.067394,2590.720797,9326.594869
317.478557,3370.820191,3108.864956,7328.038826
317.478865,3064.381992,3701.029710,5625.565159
317.479173,2528.115143,2812.782580,8216.285956
317.479481,2145.067394,814.226536,10140.821405
317.479789,-153.219100,370.102971,10214.842000
317.480097,-306.438199,-1110.308913,11843.295072
317.480405,-1302.362347,-666.185348,10140.821405
317.480714,0.000000,-74.020594,9622.677246
317.481022,1225.752797,888.247130,9844.739029
317.481330,2145.067394,518.144159,8734.430116
317.481638,2298.286494,-518.144159,9400.615463
317.481946,2145.067394,-1110.308913,8512.368333
317.482254,1378.971896,-2146.597232,9474.636058
317.482562,536.266849,-1554.432478,10732.986159
317.482870,383.047749,-1258.350101,9918.759623
317.483178,0.000000,444.123565,9918.759623
317.483487,0.000000,888.247130,9252.574275
317.483795,383.047749,1924.535449,9474.636058
317.484103,842.705048,2294.638420,8734.430116
317.484411,1685.410096,1480.411884,8290.306550
317.484719,536.266849,370.102971,8364.327145
317.485027,0.000000,-814.226536,10288.862594
317.485335,-689.485948,-1702.473667,12287.418637
317.485643,-1302.362347,-1036.288319,11177.109724
317.485951,-306.438199,-222.061783,10732.986159
317.486260,612.876398,370.102971,9548.656652
317.486568,1991.848295,1480.411884,8882.471304
317.486876,2681.334243,1998.556043,8512.368333
317.487184,3447.429741,962.267725,8512.368333
317.487492,2451.505594,-444.123565,8882.471304
317.487800,612.876398,-1924.535449,10658.965565
317.488108,153.219100,-2960.823768,11991.336260
317.488416,-612.876398,-2368.659014,12213.398043
317.488724,-1455.581446,-1258.350101,10881.027347
317.489033,-153.219100,-0.000000,9844.739029
317.489341,919.314598,1480.411884,8882.471304
317.489649,1991.848295,2220.617826,8142.265362
317.489957,3370.820191,2072.576638,7476.080014
317.490265,2681.334243,2220.617826,6291.750507
317.490573,3294.210641,1776.494261,8068.244768
317.490881,1915.238745,1036.288319,9252.574275
317.491189,1378.971896,1998.556043,9548.656652
317.491497,1762.019645,2220.617826,9548.656652
317.491806,1378.971896,2738.761985,8216.285956
317.492114,1532.190996,1924.535449,9252.574275
317.492422,1532.190996,296.082377,10214.842000
317.492730,536.266849,-666.185348,11547.212695
317.493038,-383.047749,-2960.823768,12139.377449
317.493346,-1532.190996,-3775.050304,12213.398043
317.493654,-1991.848295,-4589.276840,13175.665768
317.493962,-2068.457845,-3034.844362,12213.398043
317.494270,-1225.752797,-740.205942,11177.109724
317.494579,153.219100,1332.370696,9474.636058
317.494887,1378.971896,2442.679609,7920.203579
317.495195,2068.457845,3182.885551,7105.977043
317.495503,2298.286494,2960.823768,7328.038826
317.495811,1915.238745,2146.597232,8216.285956
317.496119,766.095498,814.226536,8512.368333
317.496427,229.828649,148.041188,10140.821405
317.496735,-459.657299,-370.102971,10362.883188
317.497043,-612.876398,444.123565,9770.718434
317.497351,383.047749,1110.308913,9548.656652
317.497660,1532.190996,518.144159,9030.512492
317.497968,2145.067394,814.226536,8660.409521
317.498276,2374.896044,-814.226536,8956.491898
317.498584,1225.752797,-1776.494261,9622.677246
317.498892,0.000000,-2368.659014,10658.965565
317.499200,-612.876398,-2368.659014,11473.192101
317.499508,-1378.971896,-1702.473667,10658.965565
317.499816,-1762.019645,-666.185348,10288.862594
317.500124,-919.314598,518.144159,10510.924376
317.500433,-383.047749,1628.453072,9178.553681
317.500741,-153.219100,1850.514855,9326.594869
317.501049,766.095498,1036.288319,9104.533087
317.501357,76.609550,666.185348,8364.327145
317.501665,-612.876398,-592.164754,10584.944971
317.501973,-919.314598,-888.247130,11177.109724
317.502281,-1225.752797,-518.144159,10732.986159
317.502589,-1072.533697,592.164754,9770.718434
317.502897,612.876398,2072.576638,9474.636058
317.503206,2298.286494,2590.720797,8660.409521
317.503514,2757.943793,2738.761985,7846.182985
317.503822,3600.648841,1332.370696,7550.100608
317.504130,2451.505594,-296.082377,7624.121203
317.504438,689.485948,-1998.556043,10584.944971
317.504746,-306.438199,-3404.947333,11991.336260
317.505054,-1532.190996,-2960.823768,11325.150913
317.505362,-2068.457845,-1110.308913,10436.903782
317.505670,-612.876398,-962.267725,9992.780217
317.505979,1225.752797,1480.411884,8882.471304
317.506287,1225.752797,2516.700203,7846.182985
317.506595,2068.457845,1850.514855,7550.100608
317.506903,1685.410096,1554.432478,8142.265362
317.507211,842.705048,444.123565,9178.553681
317.507519,76.609550,222.061783,10658.965565
317.507827,76.609550,-0.000000,10584.944971
317.508135,0.000000,962.267725,9548.656652
317.508443,612.876398,1628.453072,9992.780217
317.508752,1991.848295,1406.391290,9696.697840
317.509060,2681.334243,666.185348,9548.656652
317.509368,2528.115143,-296.082377,8512.368333
317.509676,1915.238745,-2072.576638,9178.553681
317.509984,1302.362347,-3404.947333,10955.047942
317.510292,-459.657299,-3627.009116,11325.150913
317.510600,-766.095498,-2442.679609,11325.150913
317.510908,-459.657299,-666.185348,10658.965565
317.511216,229.828649,1110.308913,9474.636058
317.511525,1455.581446,2516.700203,8142.265362
317.511833,2374.896044,3256.906145,7920.203579
317.512141,2451.505594,2812.782580,7105.977043
317.512449,1225.752797,1924.535449,7698.141797
317.512757,2298.286494,814.226536,9992.780217
317.513065,0.000000,148.041188,10362.883188
317.513373,-536.266849,296.082377,10732.986159
317.513681,459.657299,296.082377,11103.089130
317.513989,-306.438199,1628.453072,9326.594869
317.514298,1608.800546,1036.288319,9548.656652
317.514606,2221.676944,962.267725,9326.594869
317.514914,1608.800546,-222.061783,8438.347739
317.515222,1378.971896,-1850.514855,10288.862594
317.515530,383.047749,-3108.864956,10362.883188
317.515838,-612.876398,-3552.988522,12509.480420
317.516146,-1225.752797,-2590.720797,11843.295072
317.516454,-1072.533697,-666.185348,10584.944971
317.516762,-229.828649,666.185348,9992.780217
317.517071,612.876398,2146.597232,8512.368333
317.517379,1302.362347,2886.803174,7994.224174
317.517687,1225.752797,2442.679609,7328.038826
317.517995,2068.457845,814.226536,7105.977043
317.518303,1225.752797,1258.350101,8808.450710
317.518611,153.219100,-592.164754,9844.739029
317.518919,0.000000,-0.000000,10214.842000
317.519227,153.219100,1332.370696,9622.677246
317.519535,1072.533697,1184.329507,9696.697840
317.519844,2145.067394,2294.638420,8438.347739
317.520152,2451.505594,1406.391290,7846.182985
317.520460,3217.601092,222.061783,8882.471304
317.520768,1455.581446,-1110.308913,9178.553681
317.521076,383.047749,-2442.679609,10732.986159
317.521384,-536.266849,-3849.070898,12509.480420
317.521692,-2068.457845,-2590.720797,11917.315666
317.522000,-2145.067394,-1776.494261,11473.192101
317.522308,-842.705048,-148.041188,11621.233289
317.522617,-459.657299,1406.391290,9178.553681
317.522925,1149.143247,2146.597232,8660.409521
317.523233,1915.238745,2072.576638,7994.224174
317.523541,995.924147,1998.556043,8290.306550
317.523849,842.705048,962.267725,8956.491898
317.524157,689.485948,814.226536,9474.636058
317.524465,536.266849,296.082377,9696.697840
317.524773,383.047749,962.267725,9326.594869
317.525081,1685.410096,2072.576638,8882.471304
317.525389,2451.505594,2072.576638,8216.285956
317.525698,2911.162892,1924.535449,7846.182985
317.526006,2451.505594,222.061783,9030.512492
317.526314,1685.410096,-1480.411884,9474.636058
317.526622,153.219100,-3627.009116,10881.027347
317.526930,-995.924147,-4071.132681,11991.336260
317.527238,-1378.971896,-3775.050304,12139.377449
317.527546,-1225.752797,-2072.576638,11177.109724
317.527854,-995.924147,-0.000000,10436.903782
317.528162,536.266849,1480.411884,9252.574275
317.528471,1225.752797,2960.823768,7994.224174
317.528779,1608.800546,2442.679609,7994.224174
317.529087,1225.752797,2072.576638,7698.141797
317.529395,689.485948,888.247130,9178.553681
317.529703,383.047749,-0.000000,10658.965565
317.530011,-459.657299,-0.000000,9548.656652
317.530319,-306.438199,814.226536,9844.739029
317.530627,459.657299,1702.473667,9400.615463
317.530935,1072.533697,2220.617826,9400.615463
317.531244,2298.286494,1332.370696,8808.450710
317.531552,2451.505594,-0.000000,8660.409521
317.531860,2298.286494,-1776.494261,9474.636058
317.532168,612.876398,-3256.906145,10436.903782
317.532476,0.000000,-3849.070898,11917.315666
317.532784,-995.924147,-2516.700203,11991.336260
317.533092,-995.924147,-1406.391290,10732.986159
317.533400,-689.485948,444.123565,9770.718434
317.533708,459.657299,1998.556043,8882.471304
317.534017,1915.238745,2812.782580,7698.141797
317.534325,1838.629195,2960.823768,7550.100608
317.534633,1915.238745,1110.308913,7994.224174
317.534941,1455.581446,888.247130,8586.388927
317.535249,-229.828649,296.082377,10436.903782
317.535557,-383.047749,444.123565,10510.924376
317.535865,-383.047749,814.226536,10066.800811
317.536173,76.609550,1850.514855,9696.697840
317.536481,1072.533697,1776.494261,9400.615463
317.536790,1608.800546,1480.411884,9104.533087
317.537098,2298.286494,-444.123565,9030.512492
317.537406,1915.238745,-1850.514855,9474.636058
317.537714,0.000000,-2886.803174,10881.027347
317.538022,-536.266849,-3775.050304,12139.377449
317.538330,-995.924147,-3330.926739,12509.480420
317.538638,-1608.800546,-1554.432478,11029.068536
317.538946,-536.266849,518.144159,9622.677246
317.539254,842.705048,1702.473667,8808.450710
317.539563,1225.752797,3034.844362,7328.038826
317.539871,2374.896044,2516.700203,7920.203579
317.540179,2451.505594,2072.576638,7402.059420
317.540487,1302.362347,1258.350101,8364.327145
317.540795,766.095498,814.226536,9622.677246
317.541103,306.438199,888.247130,9918.759623
317.541411,-383.047749,1110.308913,10362.883188
317.541719,383.047749,1480.411884,9622.677246
317.542027,1378.971896,1702.473667,9326.594869
317.542336,995.924147,740.205942,9770.718434
317.542644,1762.019645,-740.205942,9104.533087
317.542952,1072.533697,-1702.473667,9474.636058
317.543260,0.000000,-3552.988522,11473.192101
317.543568,-1302.362347,-4515.256246,12287.418637
317.543876,-1685.410096,-3849.070898,12657.521608
317.544184,-1149.143247,-2220.617826,11991.336260
317.544492,-1532.190996,-148.041188,9844.739029
317.544800,766.095498,2072.576638,8660.409521
317.545109,2528.115143,2886.803174,7476.080014
317.545417,2528.115143,3404.947333,6735.874072
317.545725,2681.334243,2590.720797,7402.059420
317.546033,2374.896044,1554.432478,8734.430116
317.546341,995.924147,814.226536,9252.574275
317.546649,612.876398,222.061783,9770.718434
317.546957,0.000000,1036.288319,9548.656652
317.547265,995.924147,1406.391290,9178.553681
317.547573,1378.971896,1702.473667,9030.512492
317.547882,1991.848295,1258.350101,9178.553681
317.548190,2145.067394,-0.000000,8956.491898
317.548498,1378.971896,-1628.453072,9770.718434
317.548806,153.219100,-3404.947333,11399.171507
317.549114,-1302.362347,-4145.153275,13397.727550
317.549422,-2221.676944,-3552.988522,12953.603985
317.549730,-1302.362347,-2368.659014,11621.233289
317.550038,-842.705048,148.041188,9622.677246
317.550346,766.095498,1924.535449,9400.615463
317.550655,1608.800546,3330.926739,7698.141797
317.550963,2374.896044,2812.782580,7254.018232
317.551271,2451.505594,1850.514855,7772.162391
317.551579,1532.190996,1184.329507,8660.409521
317.551887,1225.752797,370.102971,9474.636058
317.552195,459.657299,370.102971,9474.636058
317.552503,612.876398,888.247130,9696.697840
317.552811,612.876398,1924.535449,8734.430116
317.553119,1838.629195,2368.659014,8660.409521
317.553427,2451.505594,1480.411884,8956.491898
317.553736,1915.238745,592.164754,8734.430116
317.554044,1838.629195,-1480.411884,10288.862594
317.554352,0.000000,-3330.926739,11177.109724
317.554660,-459.657299,-4071.132681,12731.542202
317.554968,-1532.190996,-3701.029710,12509.480420
317.555276,-1685.410096,-1554.432478,11325.150913
317.555584,-612.876398,-0.000000,10584.944971
317.555892,0.000000,1554.432478,9104.533087
317.556200,1838.629195,2812.782580,9104.533087
317.556509,2145.067394,2146.597232,7624.121203
317.556817,1149.143247,1702.473667,8068.244768
317.557125,842.705048,444.123565,9474.636058
317.557433,459.657299,296.082377,9474.636058
317.557741,-306.438199,666.185348,9992.780217
317.558049,229.828649,1184.329507,9400.615463
317.558357,459.657299,2516.700203,8882.471304
317.558665,1685.410096,2368.659014,9252.574275
317.558973,2757.943793,2220.617826,8512.368333
317.559282,2528.115143,1036.288319,8364.327145
317.559590,2145.067394,-1406.391290,9548.656652
317.559898,-306.438199,-3034.844362,10732.986159
317.560206,-1608.800546,-4071.132681,13175.665768
317.560514,-2145.067394,-4145.153275,12731.542202
317.560822,-2681.334243,-1998.556043,11177.109724
317.561130,-1532.190996,-518.144159,10658.965565
317.561438,1149.143247,1184.329507,9178.553681
317.561746,536.266849,3108.864956,7179.997637
317.562055,2987.772442,2220.617826,8290.306550
317.562363,2451.505594,1776.494261,6587.832884
317.562671,306.438199,2072.576638,7105.977043
317.562979,1455.581446,-296.082377,10436.903782
317.563287,0.000000,444.123565,9474.636058
317.563595,229.828649,1258.350101,9918.759623
317.563903,919.314598,1554.432478,9400.615463
317.564211,1455.581446,2368.659014,9178.553681
317.564519,1532.190996,888.247130,9252.574275
317.564828,2068.457845,-0.000000,9622.677246
317.565136,1608.800546,-1628.453072,9622.677246
317.565444,76.609550,-3775.050304,10807.006753
317.565752,-1225.752797,-4367.215058,12213.398043
317.566060,-1532.190996,-4071.132681,12509.480420
317.566368,-1455.581446,-2590.720797,11843.295072
317.566676,-919.314598,-370.102971,9992.780217
317.566984,1225.752797,1702.473667,8364.327145
317.567292,2374.896044,2664.741391,8808.450710
317.567601,2145.067394,2590.720797,7402.059420
317.567909,2068.457845,1998.556043,7846.182985
317.568217,1532.190996,1036.288319,8660.409521
317.568525,383.047749,370.102971,9474.636058
317.568833,842.705048,-0.000000,9992.780217
317.569141,0.000000,1258.350101,9548.656652
317.569449,1149.143247,2442.679609,9326.594869
317.569757,1685.410096,2590.720797,8808.450710
317.570065,1915.238745,2294.638420,8660.409521
317.570374,2451.505594,592.164754,9104.533087
317.570682,1455.581446,-814.226536,9326.594869
317.570990,0.000000,-2664.741391,11251.130318
317.571298,-995.924147,-4589.276840,13027.624579
317.571606,-1838.629195,-3849.070898,13471.748144
317.571914,-2451.505594,-2220.617826,12287.418637
317.572222,-1532.190996,-370.102971,10955.047942
317.572530,0.000000,1702.473667,9622.677246
317.572838,1685.410096,2368.659014,8512.368333
317.573147,2145.067394,2368.659014,7550.100608
317.573455,2604.724693,2220.617826,7698.141797
317.573763,2451.505594,1184.329507,7698.141797
317.574071,1378.971896,888.247130,8808.450710
317.574379,1302.362347,740.205942,9474.636058
317.574687,1532.190996,2072.576638,8660.409521
317.574995,1378.971896,2516.700203,8290.306550
317.575303,1991.848295,2960.823768,8660.409521
317.575611,2528.115143,1850.514855,9178.553681
317.575919,2374.896044,592.164754,9178.553681
317.576227,1838.629195,-1480.411884,9844.739029
317.576535,0.000000,-3627.009116,11177.109724
317.576844,-1149.143247,-4663.297435,12879.583391
317.577152,-2221.676944,-4441.235652,13545.768739
317.577460,-2068.457845,-2294.638420,11325.150913
317.577768,-766.095498,-296.082377,10288.862594
317.578076,536.266849,1110.308913,8808.450710
317.578384,1225.752797,2220.617826,8142.265362
317.578692,1608.800546,1850.514855,8956.491898
317.579000,2221.676944,2294.638420,7920.203579
317.579308,766.095498,1258.350101,8586.388927
317.579616,536.266849,444.123565,9622.677246
317.579924,459.657299,148.041188,9548.656652
317.580232,536.266849,1480.411884,9622.677246
317.580540,1072.533697,2146.597232,8956.491898
317.580848,2221.676944,1998.556043,7846.182985
317.581156,2145.067394,1184.329507,8660.409521
317.581464,2451.505594,-0.000000,9030.512492
317.581773,2145.067394,-1480.411884,8882.471304
317.582081,229.828649,-2886.803174,10140.821405
317.582389,-612.876398,-4071.132681,11843.295072
317.582697,-1302.362347,-3478.967927,11843.295072
317.583005,-1915.238745,-1850.514855,11695.253884
317.583313,-1378.971896,-740.205942,10881.027347
317.583621,229.828649,1776.494261,9548.656652
317.583929,1225.752797,2146.597232,9104.533087
317.584237,1455.581446,2146.597232,8438.347739
317.584545,1302.362347,1702.473667,7772.162391
317.584853,766.095498,962.267725,9474.636058
317.585161,306.438199,-0.000000,9622.677246
317.585469,0.000000,592.164754,9474.636058
317.585777,0.000000,962.267725,10066.800811
317.586085,0.000000,2368.659014,9252.574275
317.586393,2068.457845,2294.638420,8882.471304
317.586702,2604.724693,2368.659014,8290.306550
317.587010,2987.772442,1258.350101,7994.224174
317.587318,2451.505594,-370.102971,8808.450710
317.587626,842.705048,-1480.411884,10362.883188
317.587934,1072.533697,-3552.988522,12287.418637
317.588242,-2604.724693,-3034.844362,10955.047942
317.588550,-1378.971896,-2590.720797,11991.336260
317.588858,-1455.581446,-814.226536,10807.006753
317.589166,-1072.533697,1184.329507,9474.636058
317.589474,842.705048,1628.453072,10066.800811
317.589782,1991.848295,2590.720797,7476.080014
317.590090,1455.581446,1998.556043,7698.141797
317.590398,1838.629195,222.061783,8438.347739
317.590706,1762.019645,296.082377,9400.615463
317.591014,0.000000,296.082377,10066.800811
317.591323,536.266849,814.226536,9474.636058
317.591631,766.095498,2442.679609,9474.636058
317.591939,1532.190996,1702.473667,9326.594869
317.592247,2298.286494,1776.494261,8660.409521
317.592555,2298.286494,666.185348,8734.430116
317.592863,2604.724693,-1480.411884,9474.636058
317.593171,689.485948,-3182.885551,9992.780217
317.593479,-919.314598,-4441.235652,11695.253884
317.593787,-1149.143247,-4589.276840,12731.542202
317.594095,-1762.019645,-2294.638420,11029.068536
317.594403,-1225.752797,-740.205942,10436.903782
317.594711,306.438199,962.267725,9622.677246
317.595019,1149.143247,2368.659014,8882.471304
317.595327,2298.286494,2294.638420,8364.327145
317.595635,2451.505594,2442.679609,7550.100608
317.595943,2068.457845,1332.370696,8216.285956
317.596252,1455.581446,370.102971,9474.636058
317.596560,612.876398,1110.308913,9326.594869
317.596868,919.314598,1258.350101,9178.553681
317.597176,1302.362347,2368.659014,8586.388927
317.597484,1762.019645,2590.720797,8290.306550
317.597792,2681.334243,1924.535449,8882.471304
317.598100,2911.162892,444.123565,8438.347739
317.598408,2451.505594,-592.164754,9104.533087
317.598716,919.314598,-3108.864956,11029.068536
317.599024,-919.314598,-3923.091493,11843.295072
317.599332,-2298.286494,-3478.967927,12509.480420
317.599640,-2374.896044,-2590.720797,12435.459826
317.599948,-1838.629195,-592.164754,10658.965565
317.600256,-1072.533697,1036.288319,10510.924376
317.600564,842.705048,1258.350101,9696.697840
317.600872,1302.362347,1998.556043,8438.347739
317.601181,995.924147,1258.350101,8808.450710
317.601489,1149.143247,962.267725,8734.430116
317.601797,612.876398,666.185348,8956.491898
317.602105,383.047749,666.185348,9844.739029
317.602413,612.876398,1776.494261,8364.327145
317.602721,1838.629195,2664.741391,8290.306550
317.603029,2374.896044,2590.720797,7994.224174
317.603337,3217.601092,2442.679609,7550.100608
317.603645,3294.210641,1258.350101,8068.244768
317.603953,2528.115143,-666.185348,8660.409521
317.604261,766.095498,-1998.556043,9844.739029
317.604569,-459.657299,-3627.009116,11621.233289
317.604877,-1915.238745,-3627.009116,12805.562797
317.605185,-2757.943793,-3330.926739,12657.521608
317.605493,-1991.848295,-1184.329507,11547.212695
317.605802,-1149.143247,222.061783,11621.233289
317.606110,-306.438199,740.205942,10510.924376
317.606418,383.047749,814.226536,9622.677246
317.606726,383.047749,814.226536,8364.327145
317.607034,536.266849,-0.000000,9918.759623
317.607342,153.219100,-0.000000,9770.718434
317.607650,-306.438199,592.164754,9844.739029
317.607958,459.657299,1554.432478,9030.512492
317.608266,1225.752797,2590.720797,7846.182985
317.608574,1762.019645,2886.803174,8290.306550
317.608882,2911.162892,2664.741391,7920.203579
317.609190,3217.601092,1702.473667,7846.182985
317.609498,3370.820191,-74.020594,8216.285956
317.609806,1302.362347,-1776.494261,9474.636058
317.610114,0.000000,-3552.988522,11621.233289
317.610422,-1302.362347,-4293.194464,12361.439231
317.610731,-1991.848295,-2146.597232,11325.150913
317.611039,-1302.362347,-962.267725,10807.006753
317.611347,0.000000,814.226536,9918.759623
317.611655,536.266849,1702.473667,9696.697840
317.611963,689.485948,1776.494261,8586.388927
317.612271,1608.800546,1036.288319,8290.306550
317.612579,689.485948,1184.329507,9252.574275
317.612887,0.000000,-0.000000,10140.821405
317.613195,0.000000,444.123565,10584.944971
317.613503,0.000000,1628.453072,10436.903782
317.613811,229.828649,1776.494261,9770.718434
317.614119,995.924147,2738.761985,8512.368333
317.614427,2451.505594,2886.803174,8660.409521
317.614735,2987.772442,1184.329507,8438.347739
317.615043,2681.334243,-74.020594,7994.224174
317.615351,1685.410096,-1924.535449,10066.800811
317.615660,689.485948,-3849.070898,11547.212695
317.615968,-1302.362347,-2738.761985,10955.047942
317.616276,-1455.581446,-1924.535449,11251.130318
317.616584,-1072.533697,-666.185348,10362.883188
317.616892,-459.657299,1110.308913,9548.656652
317.617200,1072.533697,1850.514855,9770.718434
317.617508,2145.067394,2294.638420,7846.182985
317.617816,2145.067394,2072.576638,7698.141797
317.618124,2221.676944,1110.308913,8882.471304
317.618432,995.924147,296.082377,9770.718434
317.618740,-153.219100,-0.000000,10881.027347
317.619048,229.828649,666.185348,10288.862594
317.619356,689.485948,1998.556043,9252.574275
317.619664,995.924147,1998.556043,8734.430116
317.619972,2451.505594,1554.432478,9104.533087
317.620280,3447.429741,962.267725,8364.327145
317.620589,2298.286494,-0.000000,8956.491898
317.620897,1608.800546,-2442.679609,9770.718434
317.621205,0.000000,-3108.864956,10881.027347
317.621513,-1225.752797,-3404.947333,12435.459826
317.621821,-1762.019645,-2516.700203,11103.089130
317.622129,-1378.971896,-666.185348,10510.924376
317.622437,0.000000,222.061783,10288.862594
317.622745,306.438199,1554.432478,9104.533087
317.623053,1915.238745,1998.556043,8512.368333
317.623361,1608.800546,1480.411884,8512.368333
317.623669,1072.533697,888.247130,8290.306550
317.623977,612.876398,296.082377,9252.574275
317.624285,536.266849,444.123565,9474.636058
317.624593,0.000000,1702.473667,9400.615463
317.624901,1685.410096,2294.638420,9178.553681
317.625210,1991.848295,2590.720797,8586.388927
317.625518,2451.505594,2294.638420,7994.224174
317.625826,2604.724693,1332.370696,8438.347739
317.626134,2604.724693,-740.205942,9104.533087
317.626442,1072.533697,-1998.556043,9622.677246
317.626750,-842.705048,-3552.988522,11621.233289
317.627058,-1225.752797,-4145.153275,12213.398043
317.627366,-2681.334243,-2442.679609,11991.336260
317.627674,-1915.238745,-1258.350101,11547.212695
317.627982,-995.924147,-0.000000,10362.883188
317.628290,459.657299,1776.494261,9400.615463
317.628598,1532.190996,1628.453072,8734.430116
317.628906,1685.410096,1702.473667,8290.306550
317.629214,1455.581446,888.247130,8734.430116
317.629522,766.095498,444.123565,9030.512492
317.629830,689.485948,888.247130,9400.615463
317.630139,1072.533697,1480.411884,9474.636058
317.630447,1378.971896,2294.638420,9030.512492
317.630755,2068.457845,2886.803174,7994.224174
317.631063,2221.676944,2368.659014,7772.162391
317.631371,2757.943793,888.247130,8586.388927
317.631679,2451.505594,-148.041188,8882.471304
317.631987,1455.581446,-1924.535449,9992.780217
317.632295,383.047749,-3775.050304,11029.068536
317.632603,-1149.143247,-3701.029710,11843.295072
317.632911,-2068.457845,-2590.720797,12805.562797
317.633219,-1838.629195,-1036.288319,11325.150913
317.633527,-919.314598,740.205942,10288.862594
317.633835,0.000000,1998.556043,9474.636058
317.634143,1455.581446,1924.535449,8808.450710
317.634451,1302.362347,1702.473667,8586.388927
317.634759,1532.190996,444.123565,9104.533087
317.635068,229.828649,-74.020594,9622.677246
317.635376,76.609550,-0.000000,10510.924376
317.635684,-153.219100,222.061783,10436.903782
317.635992,0.000000,1776.494261,9474.636058
317.636300,1378.971896,2220.617826,9030.512492
317.636608,2451.505594,2072.576638,8290.306550
317.636916,3294.210641,1702.473667,8216.285956
317.637224,3294.210641,222.061783,8068.244768
317.637532,2221.676944,-1332.370696,8956.491898
317.637840,919.314598,-2294.638420,10066.800811
317.638148,-612.876398,-2886.803174,11029.068536
317.638456,-1455.581446,-2368.659014,11029.068536
317.638764,-1225.752797,-148.041188,10288.862594
317.639072,-689.485948,1258.350101,9252.574275
317.639380,0.000000,2368.659014,9474.636058
317.639689,1762.019645,1258.350101,9400.615463
317.639997,1378.971896,1036.288319,8512.368333
317.640305,842.705048,-370.102971,9400.615463
317.640613,0.000000,-666.185348,10066.800811
317.640921,-766.095498,-888.247130,10955.047942
317.641229,-995.924147,-518.144159,11399.171507
317.641537,0.000000,1036.288319,9474.636058
317.641845,995.924147,1998.556043,9474.636058
317.642153,2451.505594,1776.494261,8808.450710
317.642461,2987.772442,1850.514855,8142.265362
317.642769,3677.258390,-0.000000,8586.388927
317.643077,2145.067394,-814.226536,8512.368333
317.643385,995.924147,-2294.638420,10214.842000
317.643693,-383.047749,-3404.947333,11621.233289
317.644001,-1225.752797,-1628.453072,10732.986159
317.644309,-1455.581446,-592.164754,10066.800811
317.644618,-1149.143247,666.185348,9918.759623
317.644926,842.705048,2072.576638,9474.636058
317.645234,1532.190996,1924.535449,8808.450710
317.645542,1378.971896,1702.473667,8290.306550
317.645850,1225.752797,444.123565,9104.533087
317.646158,229.828649,222.061783,9918.759623
317.646466,0.000000,-0.000000,10732.986159
317.646774,0.000000,1258.350101,9326.594869
317.647082,536.266849,1406.391290,9326.594869
317.647390,1302.362347,2516.700203,8660.409521
317.647698,2374.896044,1998.556043,8660.409521
317.648006,2757.943793,1036.288319,9178.553681
317.648314,2451.505594,-0.000000,8068.244768
317.648622,842.705048,-1998.556043,9992.780217
317.648930,153.219100,-3478.967927,11843.295072
317.649238,-1072.533697,-4219.173869,11769.274478
317.649547,-1762.019645,-2072.576638,11029.068536
317.649855,-1455.581446,-1110.308913,10732.986159
317.650163,-153.219100,888.247130,10066.800811
317.650471,383.047749,2146.597232,8512.368333
317.650779,2221.676944,1776.494261,8290.306550
317.651087,1991.848295,1998.556043,7105.977043
317.651395,1685.410096,1406.391290,7994.224174
317.651703,1225.752797,1036.288319,8882.471304
317.652011,229.828649,370.102971,9992.780217
317.652319,536.266849,-370.102971,10510.924376
317.652627,-383.047749,1036.288319,9474.636058
317.652935,306.438199,1850.514855,10362.883188
317.653243,842.705048,888.247130,10362.883188
317.653551,1915.238745,1258.350101,9696.697840
317.653859,1838.629195,-148.041188,9178.553681
317.654167,1225.752797,-2072.576638,9992.780217
317.654476,459.657299,-2664.741391,11251.130318
317.654784,-919.314598,-2886.803174,12287.418637
317.655092,-1455.581446,-1776.494261,11917.315666
317.655400,-1455.581446,-0.000000,10288.862594
317.655708,-383.047749,1554.432478,9992.780217
317.656016,689.485948,2664.741391,8586.388927
317.656324,1915.238745,2960.823768,7994.224174
317.656632,2298.286494,2812.782580,7698.141797
317.656940,2068.457845,1628.453072,8364.327145
317.657248,1072.533697,518.144159,8882.471304
317.657556,842.705048,148.041188,9992.780217
317.657864,0.000000,518.144159,10066.800811
317.658172,459.657299,888.247130,9696.697840
317.658480,1225.752797,1850.514855,9400.615463
317.658788,2145.067394,1628.453072,8660.409521
317.659097,2834.553343,962.267725,8364.327145
317.659405,2834.553343,148.041188,8290.306550
317.659713,2298.286494,-1924.535449,9844.739029
317.660021,153.219100,-3404.947333,11103.089130
317.660329,-766.095498,-3552.988522,11843.295072
317.660637,-1608.800546,-2812.782580,11399.171507
317.660945,-1685.410096,-1554.432478,10584.944971
317.661253,-1072.533697,148.041188,10140.821405
317.661561,-306.438199,1184.329507,9400.615463
317.661869,1072.533697,1480.411884,8734.430116
317.662177,842.705048,1776.494261,7550.100608
317.662485,1532.190996,1036.288319,7846.182985
317.662793,1532.190996,222.061783,9252.574275
317.663101,536.266849,444.123565,9622.677246
317.663409,383.047749,444.123565,9622.677246
317.663717,919.314598,740.205942,8734.430116
317.664026,1302.362347,1850.514855,9104.533087
317.664334,2145.067394,1702.473667,8660.409521
317.664642,2451.505594,1702.473667,8290.306550
317.664950,1762.019645,148.041188,8808.450710
317.665258,2987.772442,-2738.761985,10881.027347
317.665566,-1685.410096,-2368.659014,9104.533087
317.665874,-1225.752797,-3701.029710,12879.583391
317.666182,-1532.190996,-3330.926739,12583.501014
317.666490,-2451.505594,-0.000000,9844.739029
317.666798,-383.047749,592.164754,10584.944971
317.667106,1072.533697,2812.782580,7772.162391
317.667414,919.314598,3108.864956,8290.306550
317.667722,1685.410096,2960.823768,7254.018232
317.668030,1608.800546,2368.659014,7920.203579
317.668338,306.438199,1036.288319,10140.821405
317.668646,459.657299,-222.061783,10436.903782
317.668955,-383.047749,1184.329507,9992.780217
317.669263,229.828649,-0.000000,10807.006753
317.669571,689.485948,1110.308913,9844.739029
317.669879,1378.971896,1702.473667,8808.450710
317.670187,2528.115143,592.164754,9474.636058
317.670495,1915.238745,-888.247130,9474.636058
317.670803,1608.800546,-1702.473667,9770.718434
317.671111,612.876398,-4071.132681,12287.418637
317.671419,-919.314598,-3256.906145,11547.212695
317.671727,-1608.800546,-3108.864956,12065.356855
317.672035,-766.095498,-814.226536,10584.944971
317.672343,-612.876398,1332.370696,9178.553681
317.672651,1302.362347,2812.782580,8068.244768
317.672959,2145.067394,3701.029710,7476.080014
317.673267,2145.067394,2812.782580,6957.935855
317.673575,1685.410096,1998.556043,6957.935855
317.673884,1532.190996,1036.288319,8808.450710
317.674192,306.438199,-0.000000,9992.780217
317.674500,-536.266849,-0.000000,9992.780217
317.674808,-459.657299,444.123565,10214.842000
317.675116,229.828649,740.205942,9992.780217
317.675424,1762.019645,1110.308913,9770.718434
317.675732,2221.676944,740.205942,9400.615463
317.676040,2911.162892,-814.226536,10066.800811
317.676348,1915.238745,-2368.659014,9622.677246
317.676656,459.657299,-3627.009116,11325.150913
317.676964,-1378.971896,-4367.215058,12583.501014
317.677272,-1915.238745,-2590.720797,11843.295072
317.677580,-1149.143247,-1628.453072,11473.192101
317.677888,-995.924147,814.226536,9400.615463
317.678196,459.657299,2220.617826,8882.471304
317.678504,1991.848295,2442.679609,8586.388927
317.678812,1762.019645,3256.906145,7254.018232
317.679120,2145.067394,1554.432478,7328.038826
317.679428,1532.190996,1406.391290,8364.327145
317.679736,1225.752797,1036.288319,9992.780217
317.680044,459.657299,1110.308913,8882.471304
317.680352,766.095498,1924.535449,9548.656652
317.680660,1302.362347,1776.494261,9252.574275
317.680968,2068.457845,2590.720797,9474.636058
317.681277,2451.505594,1258.350101,9400.615463
317.681585,2145.067394,-444.123565,8808.450710
317.681893,1838.629195,-2294.638420,10288.862594
317.682201,0.000000,-3478.967927,11695.253884
317.682509,-1685.410096,-4589.276840,12657.521608
317.682817,-2374.896044,-3997.112087,13323.706956
317.683125,-1915.238745,-1776.494261,10955.047942
317.683433,-1378.971896,-0.000000,10807.006753
317.683741,76.609550,1480.411884,9474.636058
317.684049,2145.067394,2590.720797,8512.368333
317.684357,2451.505594,3330.926739,7550.100608
317.684665,2068.457845,2886.803174,7328.038826
317.684973,1532.190996,2072.576638,7920.203579
317.685281,1149.143247,1332.370696,8882.471304
317.685589,766.095498,1258.350101,8808.450710
317.685897,0.000000,1924.535449,9178.553681
317.686205,1072.533697,1332.370696,8956.491898
317.686513,1685.410096,1480.411884,8660.409521
317.686821,2451.505594,962.267725,9474.636058
317.687129,2604.724693,-518.144159,8586.388927
317.687437,1685.410096,-1776.494261,9770.718434
317.687745,459.657299,-3478.967927,11769.274478
317.688053,-689.485948,-4145.153275,11917.315666
317.688361,-1762.019645,-2812.782580,11843.295072
317.688669,-1302.362347,-1702.473667,11843.295072
317.688977,-995.924147,444.123565,9992.780217
317.689285,306.438199,1554.432478,8956.491898
317.689593,1225.752797,2516.700203,8512.368333
317.689901,1225.752797,2442.679609,7476.080014
317.690209,1149.143247,1850.514855,8216.285956
317.690517,612.876398,740.205942,9252.574275
317.690825,-459.657299,-0.000000,9918.759623
317.691133,-766.095498,-296.082377,10214.842000
317.691441,-842.705048,1184.329507,9844.739029
317.691749,229.828649,1998.556043,9474.636058
317.692057,2068.457845,1924.535449,9326.594869
317.692365,2911.162892,1628.453072,7920.203579
317.692674,3140.991542,666.185348,7846.182985
317.692982,2757.943793,-1110.308913,8364.327145
317.693290,1532.190996,-2590.720797,10510.924376
317.693598,306.438199,-4219.173869,12065.356855
317.693906,-766.095498,-3108.864956,11547.212695
317.694214,-1302.362347,-1776.494261,11103.089130
317.694522,-766.095498,-74.020594,10214.842000
317.694830,76.609550,1332.370696,9770.718434
317.695138,1225.752797,2294.638420,8882.471304
317.695446,1762.019645,2294.638420,7105.977043
317.695754,1149.143247,1406.391290,7994.224174
317.696062,0.000000,296.082377,8882.471304
317.696370,229.828649,592.164754,10066.800811
317.696678,-766.095498,814.226536,10140.821405
317.696986,0.000000,1184.329507,10214.842000
317.697294,306.438199,2516.700203,8660.409521
317.697602,1838.629195,2442.679609,9030.512492
317.697910,2528.115143,1850.514855,9104.533087
317.698218,3064.381992,740.205942,9178.553681
317.698526,2221.676944,-1480.411884,9696.697840
317.698834,766.095498,-3034.844362,10436.903782
317.699142,-766.095498,-4293.194464,12361.439231
317.699450,-1532.190996,-3997.112087,12879.583391
317.699758,-1455.581446,-2220.617826,11325.150913
317.700066,-995.924147,-148.041188,9918.759623
317.700374,766.095498,962.267725,9474.636058
317.700682,2374.896044,2590.720797,7772.162391
317.700990,2681.334243,3034.844362,7402.059420
317.701298,2757.943793,2516.700203,7550.100608
317.701606,1762.019645,1924.535449,7772.162391
317.701914,1302.362347,1554.432478,9104.533087
317.702222,612.876398,1702.473667,9030.512492
317.702530,536.266849,2294.638420,9622.677246
317.702838,995.924147,2368.659014,9326.594869
317.703146,1378.971896,2294.638420,8660.409521
317.703454,1455.581446,962.267725,9992.780217
317.703763,2221.676944,-740.205942,10362.883188
317.704071,1302.362347,-2072.576638,9918.759623
317.704379,-459.657299,-3775.050304,11103.089130
317.704687,-1608.800546,-5181.441594,12879.583391
317.704995,-2528.115143,-4367.215058,13249.686362
317.705303,-2374.896044,-2368.659014,12509.480420
317.705611,-919.314598,-888.247130,10362.883188
317.705919,-383.047749,1850.514855,9178.553681
317.706227,2068.457845,2812.782580,8216.285956
317.706535,2757.943793,2812.782580,7179.997637
317.706843,2374.896044,2738.761985,7328.038826
317.707151,1608.800546,1776.494261,7994.224174
317.707459,1302.362347,1480.411884,8290.306550
317.707767,766.095498,1406.391290,8956.491898
317.708075,0.000000,1702.473667,9400.615463
317.708383,1072.533697,2072.576638,9178.553681
317.708691,1455.581446,2146.597232,9326.594869
317.708999,1838.629195,962.267725,8808.450710
317.709307,2068.457845,-222.061783,9252.574275
317.709615,919.314598,-1480.411884,9992.780217
317.709923,0.000000,-3034.844362,11621.233289
317.710231,-1378.971896,-4145.153275,12361.439231
317.710539,-2911.162892,-3997.112087,13175.665768
317.710847,-3217.601092,-3034.844362,11991.336260
317.711155,-995.924147,-888.247130,10362.883188
317.711463,-1072.533697,740.205942,10214.842000
317.711771,459.657299,2146.597232,9400.615463
317.712079,1991.848295,1776.494261,8438.347739
317.712387,612.876398,1776.494261,7105.977043
317.712695,1608.800546,1110.308913,8956.491898
317.713003,1455.581446,888.247130,8438.347739
317.713311,76.609550,1924.535449,7994.224174
317.713619,1378.971896,1554.432478,9030.512492
317.713927,1608.800546,3404.947333,7328.038826
317.714235,2145.067394,2368.659014,9326.594869
317.714543,3447.429741,2368.659014,7179.997637
317.714852,3830.477490,962.267725,7846.182985
317.715160,2451.505594,-888.247130,9178.553681
317.715468,766.095498,-3404.947333,10955.047942
317.715776,-1072.533697,-4145.153275,12287.418637
317.716084,-2681.334243,-4737.318029,13767.830521
317.716392,-2604.724693,-2812.782580,12435.459826
317.716700,-1762.019645,-1184.329507,10881.027347
317.717008,-306.438199,518.144159,11251.130318
317.717316,842.705048,1628.453072,9104.533087
317.717624,2068.457845,2442.679609,7550.100608
317.717932,1685.410096,2294.638420,7624.121203
317.718240,1072.533697,1184.329507,7624.121203
317.718548,536.266849,1184.329507,9178.553681
317.718856,842.705048,1998.556043,9696.697840
317.719164,842.705048,1924.535449,9104.533087
317.719472,1455.581446,2664.741391,7920.203579
317.719780,2604.724693,2664.741391,9104.533087
317.720088,3064.381992,1628.453072,8882.471304
317.720396,3294.210641,148.041188,8660.409521
317.720704,2911.162892,-1406.391290,9622.677246
317.721012,1378.971896,-3627.009116,11325.150913
317.721320,-842.705048,-4589.276840,12139.377449
317.721628,-2298.286494,-3923.091493,12805.562797
317.721936,-2221.676944,-2294.638420,12213.398043
317.722244,-1378.971896,-592.164754,10584.944971
317.722552,536.266849,1702.473667,9918.759623
317.722860,1072.533697,2442.679609,8290.306550
317.723168,1762.019645,2516.700203,7624.121203
317.723476,1149.143247,2368.659014,8068.244768
317.723784,995.924147,1998.556043,8586.388927
317.724092,229.828649,962.267725,9400.615463
317.724400,-766.095498,814.226536,10362.883188
317.724708,229.828649,1702.473667,9844.739029
317.725016,0.000000,1924.535449,9400.615463
317.725324,1455.581446,2146.597232,8956.491898
317.725632,1838.629195,814.226536,8364.327145
317.725940,2298.286494,-0.000000,8660.409521
317.726249,1991.848295,-1628.453072,9696.697840
317.726557,536.266849,-3108.864956,9992.780217
317.726865,-995.924147,-3997.112087,11917.315666
317.727173,-1762.019645,-4145.153275,12583.501014
317.727481,-1149.143247,-2146.597232,11473.192101
317.727789,-995.924147,-740.205942,10436.903782
317.728097,995.924147,1036.288319,8882.471304
317.728405,1991.848295,2812.782580,8660.409521
317.728713,2068.457845,2738.761985,8142.265362
317.729021,1685.410096,1850.514855,7994.224174
317.729329,1532.190996,1258.350101,8882.471304
317.729637,383.047749,740.205942,9178.553681
317.729945,-383.047749,666.185348,10140.821405
317.730253,-383.047749,592.164754,10140.821405
317.730561,766.095498,1554.432478,9474.636058
317.730869,919.314598,1924.535449,8808.450710
317.731177,2528.115143,1036.288319,8808.450710
317.731485,2834.553343,518.144159,8364.327145
317.731793,1991.848295,-814.226536,8660.409521
317.732101,1378.971896,-2886.803174,10732.986159
317.732409,306.438199,-3108.864956,11325.150913
317.732717,-1838.629195,-3478.967927,12065.356855
317.733025,-1915.238745,-2664.741391,11843.295072
317.733333,-1915.238745,-444.123565,10807.006753
317.733641,-153.219100,518.144159,10214.842000
317.733949,612.876398,1924.535449,8216.285956
317.734257,1302.362347,1628.453072,8142.265362
317.734565,1149.143247,1406.391290,8882.471304
317.734873,919.314598,592.164754,8882.471304
317.735181,842.705048,962.267725,9030.512492
317.735489,536.266849,1110.308913,10066.800811
317.735797,1072.533697,1998.556043,9178.553681
317.736105,1302.362347,2960.823768,8216.285956
317.736413,2604.724693,3108.864956,8438.347739
317.736721,3294.210641,2516.700203,7624.121203
317.737029,3370.820191,1702.473667,7698.141797
317.737338,2451.505594,-1184.329507,8956.491898
317.737646,1149.143247,-2220.617826,9918.759623
317.737954,-842.705048,-3997.112087,12213.398043
317.738262,-2221.676944,-4293.194464,13545.768739
317.738570,-2604.724693,-3034.844362,12213.398043
317.738878,-2451.505594,-1554.432478,11103.089130
317.739186,-1532.190996,-74.020594,10658.965565
317.739494,383.047749,1554.432478,9696.697840
317.739802,842.705048,2072.576638,9104.533087
317.740110,842.705048,1258.350101,7846.182985
317.740418,1455.581446,1184.329507,9104.533087
317.740726,153.219100,1184.329507,9844.739029
317.741034,0.000000,1628.453072,9844.739029
317.741342,383.047749,1924.535449,9696.697840
317.741650,1685.410096,2960.823768,8956.491898
317.741958,1838.629195,2812.782580,7772.162391
317.742266,2604.724693,2072.576638,7920.203579
317.742574,2681.334243,888.247130,8290.306550
317.742882,2681.334243,-0.000000,8512.368333
317.743190,1532.190996,-1998.556043,10436.903782
317.743498,0.000000,-3478.967927,11325.150913
317.743806,-1532.190996,-3478.967927,12065.356855
317.744114,-2221.676944,-2368.659014,12065.356855
317.744422,-1302.362347,-888.247130,10732.986159
317.744730,-995.924147,666.185348,10066.800811
317.745038,612.876398,962.267725,10214.842000
317.745346,842.705048,1702.473667,8586.388927
317.745654,76.609550,1480.411884,8734.430116
317.745962,689.485948,-74.020594,9474.636058
317.746270,0.000000,-0.000000,9326.594869
317.746578,-229.828649,148.041188,10807.006753
317.746886,536.266849,1036.288319,9696.697840
317.747194,383.047749,2368.659014,8364.327145
317.747502,1991.848295,2368.659014,8882.471304
317.747810,2911.162892,2368.659014,7920.203579
317.748118,3140.991542,1554.432478,7772.162391
317.748426,2681.334243,-0.000000,8068.244768
317.748735,1608.800546,-1406.391290,9474.636058
317.749043,-229.828649,-2960.823768,11177.109724
317.749351,-1762.019645,-3552.988522,11991.336260
317.749659,-2145.067394,-2146.597232,11473.192101
317.749967,-1225.752797,-888.247130,10955.047942
317.750275,-1225.752797,222.061783,10140.821405
317.750583,-306.438199,1924.535449,9400.615463
317.750891,1149.143247,1702.473667,9104.533087
317.751199,842.705048,1480.411884,8438.347739
317.751507,766.095498,888.247130,8512.368333
317.751815,689.485948,592.164754,9992.780217
317.752123,76.609550,296.082377,10362.883188
317.752431,689.485948,1184.329507,9178.553681
317.752739,766.095498,1850.514855,9326.594869
317.753047,1762.019645,2368.659014,9104.533087
317.753355,2604.724693,1998.556043,8142.265362
317.753663,2987.772442,1480.411884,7994.224174
317.753971,2451.505594,-370.102971,8512.368333
317.754279,1762.019645,-2146.597232,10066.800811
317.754587,0.000000,-3627.009116,11103.089130
317.754895,-766.095498,-4071.132681,11917.315666
317.755203,-1915.238745,-3108.864956,11103.089130
317.755511,-1762.019645,-740.205942,10955.047942
317.755819,0.000000,740.205942,9696.697840
317.756127,995.924147,1924.535449,8364.327145
317.756435,1762.019645,2146.597232,8290.306550
317.756743,2145.067394,1850.514855,8068.244768
317.757051,1149.143247,1184.329507,8734.430116
317.757359,1762.019645,-148.041188,9918.759623
317.757667,0.000000,740.205942,9844.739029
317.757975,459.657299,666.185348,9474.636058
317.758283,995.924147,1628.453072,9252.574275
317.758591,1685.410096,1702.473667,9400.615463
317.758899,2681.334243,1850.514855,8216.285956
317.759207,3064.381992,740.205942,8586.388927
317.759515,2604.724693,-962.267725,9252.574275
317.759824,1378.971896,-2442.679609,9474.636058
317.760132,-459.657299,-3404.947333,11399.171507
317.760440,-1455.581446,-3404.947333,12509.480420
317.760748,-1762.019645,-2220.617826,11547.212695
317.761056,-1762.019645,-0.000000,10955.047942
317.761364,-229.828649,1406.391290,10362.883188
317.761672,1225.752797,2072.576638,8438.347739
317.761980,2068.457845,2886.803174,8142.265362
317.762288,2451.505594,1406.391290,8142.265362
317.762596,1225.752797,1554.432478,8808.450710
317.762904,536.266849,740.205942,9548.656652
317.763212,0.000000,740.205942,9992.780217
317.763520,0.000000,1406.391290,9400.615463
317.763828,766.095498,1776.494261,9474.636058
317.764136,2145.067394,1850.514855,8808.450710
317.764444,2451.505594,1480.411884,8512.368333
317.764752,2451.505594,296.082377,8808.450710
317.765060,1991.848295,-814.226536,8734.430116
317.765368,766.095498,-1998.556043,9548.656652
317.765676,-689.485948,-3849.070898,12139.377449
317.765984,-1455.581446,-3478.967927,12065.356855
317.766292,-2451.505594,-1998.556043,11251.130318
317.766600,-1532.190996,-1110.308913,11251.130318
317.766908,-995.924147,296.082377,9474.636058
317.767216,689.485948,1924.535449,9474.636058
317.767524,1225.752797,1776.494261,8882.471304
317.767832,1072.533697,1702.473667,7476.080014
317.768140,919.314598,1184.329507,8512.368333
317.768448,383.047749,370.102971,9548.656652
317.768756,-153.219100,666.185348,9696.697840
317.769064,0.000000,296.082377,10066.800811
317.769372,383.047749,888.247130,9400.615463
317.769680,766.095498,1332.370696,9104.533087
317.769988,2681.334243,1406.391290,8586.388927
317.770296,2911.162892,1258.350101,7920.203579
317.770604,3140.991542,-296.082377,8364.327145
317.770912,1532.190996,-1480.411884,8882.471304
317.771221,153.219100,-3256.906145,10732.986159
317.771529,-1455.581446,-3404.947333,11325.150913
317.771837,-1608.800546,-1850.514855,11695.253884
317.772145,-1455.581446,-592.164754,11399.171507
317.772453,-919.314598,1036.288319,9844.739029
317.772761,459.657299,1998.556043,9474.636058
317.773069,842.705048,2146.597232,8882.471304
317.773377,1302.362347,2072.576638,7994.224174
317.773685,459.657299,1036.288319,9252.574275
317.773993,0.000000,518.144159,9844.739029
317.774301,-306.438199,-592.164754,11177.109724
317.774609,306.438199,-0.000000,10362.883188
317.774917,153.219100,1554.432478,9252.574275
317.775225,1991.848295,1332.370696,9252.574275
317.775533,2604.724693,1702.473667,8512.368333
317.775841,3140.991542,592.164754,8512.368333
317.776149,3140.991542,-0.000000,7254.018232
317.776457,2298.286494,-1628.453072,8882.471304
317.776765,306.438199,-3256.906145,10584.944971
317.777073,-612.876398,-2738.761985,11695.253884
317.777381,-1378.971896,-2146.597232,11769.274478
317.777689,-1915.238745,-296.082377,10066.800811
317.777997,-306.438199,962.267725,10510.924376
317.778305,766.095498,2072.576638,8956.491898
317.778613,689.485948,2146.597232,8290.306550
317.778921,1762.019645,1554.432478,8512.368333
317.779229,1378.971896,222.061783,8142.265362
317.779537,-153.219100,-0.000000,10140.821405
317.779844,-306.438199,-370.102971,10658.965565
317.780152,-306.438199,-0.000000,10955.047942
317.780460,0.000000,814.226536,10288.862594
317.780768,1532.190996,1702.473667,8808.450710
317.781076,2911.162892,1554.432478,8734.430116
317.781384,2528.115143,296.082377,8512.368333
317.781692,3294.210641,-296.082377,7772.162391
317.782000,1915.238745,-1406.391290,9548.656652
317.782308,766.095498,-2516.700203,11251.130318
317.782616,-536.266849,-2960.823768,11547.212695
317.782923,-1225.752797,-1480.411884,12065.356855
317.783231,-1072.533697,-518.144159,10510.924376
317.783539,-536.266849,1406.391290,9178.553681
317.783847,1532.190996,2220.617826,9400.615463
317.784155,1915.238745,2220.617826,7994.224174
317.784463,1685.410096,3034.844362,7994.224174
317.784771,1455.581446,1480.411884,8512.368333
317.785079,612.876398,888.247130,9474.636058
317.785387,0.000000,444.123565,9844.739029
317.785694,-229.828649,518.144159,10288.862594
317.786002,-153.219100,1036.288319,10066.800811
317.786310,2145.067394,1406.391290,9844.739029
317.786618,2374.896044,814.226536,9918.759623
317.786926,2068.457845,-0.000000,8586.388927
317.787234,2604.724693,-666.185348,9696.697840
317.787542,1225.752797,-2220.617826,10140.821405
317.787850,-229.828649,-3182.885551,11029.068536
317.788158,-842.705048,-3478.967927,11843.295072
317.788465,-766.095498,-1480.411884,10732.986159
317.788773,-995.924147,-962.267725,10436.903782
317.789081,76.609550,518.144159,9844.739029
317.789389,1838.629195,1776.494261,8438.347739
317.789697,1455.581446,2664.741391,8290.306550
317.790005,1608.800546,2294.638420,7550.100608
317.790313,1532.190996,1776.494261,8290.306550
317.790621,459.657299,740.205942,9030.512492
317.790929,-383.047749,-74.020594,10510.924376
317.791237,0.000000,-148.041188,10066.800811
317.791544,536.266849,666.185348,9918.759623
317.791852,229.828649,518.144159,9030.512492
317.792160,2221.676944,592.164754,9548.656652
317.792468,2451.505594,962.267725,8364.327145
317.792776,2374.896044,-0.000000,8364.327145
317.793084,1762.019645,-1702.473667,9178.553681
317.793392,306.438199,-2368.659014,10362.883188
317.793700,-766.095498,-3478.967927,11695.253884
317.794008,-1455.581446,-2146.597232,11917.315666
317.794315,-1455.581446,-888.247130,11177.109724
317.794623,-766.095498,222.061783,10658.965565
317.794931,229.828649,1332.370696,9252.574275
317.795239,1378.971896,2368.659014,7994.224174
317.795547,1455.581446,2072.576638,7698.141797
317.795855,1225.752797,1776.494261,7920.203579
317.796163,1072.533697,814.226536,8512.368333
317.796471,612.876398,888.247130,9474.636058
317.796779,306.438199,1776.494261,9252.574275
317.797087,1149.143247,1702.473667,8660.409521
317.797394,1991.848295,2146.597232,8586.388927
317.797702,2757.943793,2072.576638,8364.327145
317.798010,3064.381992,1332.370696,8586.388927
317.798318,2451.505594,-0.000000,8882.471304
317.798626,766.095498,-2072.576638,10214.842000
317.798934,-689.485948,-3552.988522,11695.253884
317.799242,-1225.752797,-3775.050304,12731.542202
317.799550,-2374.896044,-3034.844362,11991.336260
317.799858,-1838.629195,-1332.370696,11769.274478
317.800165,-306.438199,-74.020594,11103.089130
317.800473,459.657299,1924.535449,9474.636058
317.800781,1149.143247,2368.659014,8142.265362
317.801089,1991.848295,2368.659014,8364.327145
317.801397,1455.581446,2368.659014,7846.182985
317.801705,766.095498,1036.288319,8882.471304
317.802013,0.000000,1036.288319,9548.656652
317.802321,76.609550,1184.329507,9474.636058
317.802629,1149.143247,1332.370696,9030.512492
317.802936,1225.752797,2072.576638,9104.533087
317.803244,2221.676944,1406.391290,9030.512492
317.803552,2528.115143,222.061783,9252.574275
317.803860,2068.457845,-444.123565,9474.636058
317.804168,1762.019645,-1776.494261,10066.800811
317.804476,76.609550,-3256.906145,10881.027347
317.804784,-995.924147,-3478.967927,11843.295072
317.805092,-1608.800546,-3256.906145,11399.171507
317.805400,-766.095498,-1480.411884,10881.027347
317.805708,-459.657299,148.041188,9844.739029
317.806015,842.705048,1258.350101,9252.574275
317.806323,842.705048,2220.617826,8956.491898
317.806631,1302.362347,1628.453072,8660.409521
317.806939,612.876398,1332.370696,8512.368333
317.807247,0.000000,1184.329507,8808.450710
317.807555,-306.438199,148.041188,10658.965565
317.807863,-536.266849,1036.288319,10214.842000
317.808171,383.047749,1480.411884,9770.718434
317.808479,766.095498,1628.453072,9178.553681
317.808786,1608.800546,1850.514855,9030.512492
317.809094,2834.553343,962.267725,9030.512492
317.809402,2451.505594,296.082377,8882.471304
317.809710,1608.800546,-1554.432478,9104.533087
317.810018,229.828649,-2516.700203,9770.718434
317.810326,-1225.752797,-3034.844362,12139.377449
317.810634,-1762.019645,-3108.864956,12139.377449
317.810942,-1915.238745,-592.164754,10584.944971
317.811250,-383.047749,-0.000000,9474.636058
317.811557,995.924147,1184.329507,9252.574275
317.811865,1225.752797,2442.679609,8882.471304
317.812173,1608.800546,2442.679609,7772.162391
317.812481,1225.752797,1924.535449,8142.265362
317.812789,689.485948,1332.370696,8808.450710
317.813097,842.705048,296.082377,9918.759623
317.813405,-612.876398,814.226536,9770.718434
317.813713,383.047749,1110.308913,9992.780217
317.814021,1072.533697,1924.535449,8956.491898
317.814329,2145.067394,1332.370696,8882.471304
317.814636,2528.115143,592.164754,9326.594869
317.814944,2145.067394,-0.000000,9030.512492
317.815252,1685.410096,-2294.638420,9992.780217
317.815560,-536.266849,-3256.906145,10584.944971
317.815868,-1072.533697,-4145.153275,12287.418637
317.816176,-1608.800546,-3552.988522,11547.212695
317.816484,-1149.143247,-2220.617826,11177.109724
317.816792,-229.828649,-222.061783,10140.821405
317.817100,1225.752797,1480.411884,8956.491898
317.817407,2068.457845,2516.700203,8364.327145
317.817715,1838.629195,2516.700203,7031.956449
317.818023,2221.676944,2664.741391,7254.018232
317.818331,2834.553343,1036.288319,9918.759623
317.818639,0.000000,1406.391290,7846.182985
317.818947,1302.362347,1480.411884,10288.862594
317.819255,306.438199,1554.432478,10288.862594
317.819563,0.000000,1998.556043,8660.409521
317.819871,1685.410096,1554.432478,9622.677246
317.820179,2604.724693,1554.432478,8216.285956
317.820486,2068.457845,-740.205942,9252.574275
317.820794,1532.190996,-1776.494261,8956.491898
317.821102,459.657299,-3256.906145,11473.192101
317.821410,-1455.581446,-4441.235652,12879.583391
317.821718,-2298.286494,-3330.926739,11917.315666
317.822026,-1915.238745,-1184.329507,11843.295072
317.822334,-383.047749,-222.061783,10140.821405
317.822642,842.705048,2368.659014,8660.409521
317.822950,1685.410096,3627.009116,8068.244768
317.823257,2604.724693,2960.823768,8068.244768
317.823565,1455.581446,2294.638420,8142.265362
317.823873,766.095498,1554.432478,8216.285956
317.824181,306.438199,444.123565,9770.718434
317.824489,0.000000,962.267725,9178.553681
317.824797,306.438199,1480.411884,9178.553681
317.825105,1302.362347,1850.514855,9326.594869
317.825413,2451.505594,1702.473667,8290.306550
317.825721,2911.162892,740.205942,9030.512492
317.826028,3140.991542,-296.082377,8956.491898
317.826336,1915.238745,-1924.535449,9104.533087
317.826644,153.219100,-3775.050304,11621.233289
317.826952,-689.485948,-3923.091493,11991.336260
317.827260,-2221.676944,-3330.926739,11769.274478
317.827568,-1608.800546,-2294.638420,11991.336260
317.827876,0.000000,-0.000000,9548.656652
317.828184,0.000000,1924.535449,8956.491898
317.828492,1532.190996,1332.370696,8734.430116
317.828800,2451.505594,1776.494261,7698.141797
317.829107,383.047749,2146.597232,7772.162391
317.829415,153.219100,296.082377,9622.677246
317.829723,-383.047749,370.102971,9548.656652
317.830031,-689.485948,888.247130,9696.697840
317.830339,-459.657299,1184.329507,9918.759623
317.830647,1685.410096,2590.720797,7846.182985
317.830955,1991.848295,2146.597232,8512.368333
317.831263,2528.115143,1258.350101,8734.430116
317.831571,2757.943793,148.041188,8216.285956
317.831878,1455.581446,-1184.329507,9104.533087
317.832186,0.000000,-3182.885551,10732.986159
317.832494,-1378.971896,-4145.153275,11695.253884
317.832802,-1608.800546,-3775.050304,12361.439231
317.833110,-2145.067394,-2294.638420,11547.212695
317.833418,-842.705048,-1258.350101,10362.883188
317.833726,229.828649,666.185348,10288.862594
317.834034,1225.752797,2072.576638,8512.368333
317.834342,1762.019645,2072.576638,7550.100608
317.834649,1455.581446,1702.473667,8068.244768
317.834957,536.266849,1184.329507,9104.533087
317.835265,612.876398,888.247130,9696.697840
317.835573,-153.219100,814.226536,9696.697840
317.835881,995.924147,2220.617826,9030.512492
317.836189,1915.238745,2368.659014,8364.327145
317.836497,2068.457845,2886.803174,8956.491898
317.836805,2757.943793,1480.411884,9326.594869
317.837113,2528.115143,666.185348,8364.327145
317.837421,1302.362347,-1036.288319,9548.656652
317.837728,153.219100,-3256.906145,11547.212695
317.838036,-1225.752797,-3997.112087,12361.439231
317.838344,-1915.238745,-4145.153275,13101.645173
317.838652,-1378.971896,-2516.700203,12287.418637
317.838960,-153.219100,-296.082377,9474.636058
317.839268,766.095498,1850.514855,8882.471304
317.839576,2221.676944,2146.597232,8660.409521
317.839884,2528.115143,3108.864956,7402.059420
317.840192,2068.457845,2368.659014,7550.100608
317.840499,1455.581446,1406.391290,8882.471304
317.840807,612.876398,1480.411884,9326.594869
317.841115,0.000000,1184.329507,9696.697840
317.841423,0.000000,1628.453072,9696.697840
317.841731,1072.533697,2738.761985,8734.430116
317.842039,2451.505594,2368.659014,9548.656652
317.842347,2451.505594,1628.453072,8956.491898
317.842655,2221.676944,-0.000000,9474.636058
317.842963,689.485948,-2146.597232,10584.944971
317.843271,-536.266849,-3775.050304,11547.212695
317.843578,-1532.190996,-4367.215058,12805.562797
317.843886,-2221.676944,-4515.256246,12435.459826
317.844194,-2298.286494,-2812.782580,11769.274478
317.844502,-1455.581446,-1406.391290,10881.027347
317.844810,689.485948,740.205942,9474.636058
317.845118,919.314598,1702.473667,8142.265362
317.845426,2298.286494,1702.473667,8586.388927
317.845734,1915.238745,1480.411884,7254.018232
317.846042,1225.752797,1480.411884,8882.471304
317.846349,1072.533697,962.267725,9844.739029
317.846657,612.876398,1702.473667,9474.636058
317.846965,536.266849,2516.700203,8956.491898
317.847273,1991.848295,2886.803174,8512.368333
317.847581,2834.553343,2960.823768,7920.203579
317.847889,2451.505594,1628.453072,8512.368333
317.848197,2221.676944,592.164754,8956.491898
317.848505,1915.238745,-1110.308913,8956.491898
317.848813,-229.828649,-3108.864956,10732.986159
317.849120,-1608.800546,-4293.194464,12139.377449
317.849428,-2374.896044,-3775.050304,12435.459826
317.849736,-1915.238745,-2812.782580,12065.356855
317.850044,-842.705048,-1406.391290,9770.718434
317.850352,689.485948,444.123565,9548.656652
317.850660,2374.896044,1480.411884,8882.471304
317.850968,2221.676944,2294.638420,8290.306550
317.851276,1378.971896,1702.473667,8290.306550
317.851584,1072.533697,1258.350101,9104.533087
317.851892,995.924147,1480.411884,9548.656652
317.852199,0.000000,1258.350101,9548.656652
317.852507,1225.752797,2146.597232,9030.512492
317.852815,1991.848295,2738.761985,8142.265362
317.853123,2221.676944,2738.761985,8660.409521
317.853431,3677.258390,370.102971,8660.409521
317.853739,2757.943793,740.205942,7920.203579
317.854047,1608.800546,-1406.391290,9104.533087
317.854355,459.657299,-3256.906145,10732.986159
317.854663,-995.924147,-3849.070898,11917.315666
317.854970,-2068.457845,-4663.297435,12731.542202
317.855278,-2221.676944,-3108.864956,11843.295072
317.855586,-689.485948,-666.185348,10510.924376
317.855894,153.219100,518.144159,10436.903782
317.856202,1225.752797,1924.535449,8882.471304
317.856510,1685.410096,2442.679609,7920.203579
317.856818,1302.362347,2072.576638,8512.368333
317.857126,842.705048,1480.411884,8660.409521
317.857434,229.828649,1628.453072,9548.656652
317.857741,306.438199,1480.411884,10214.842000
317.858049,612.876398,2146.597232,9252.574275
317.858357,1149.143247,2738.761985,8956.491898
317.858665,1838.629195,2590.720797,9474.636058
317.858973,2374.896044,1554.432478,8364.327145
317.859281,2068.457845,962.267725,8660.409521
317.859589,2298.286494,-1924.535449,9622.677246
317.859897,-536.266849,-2294.638420,9252.574275
317.860205,0.000000,-3627.009116,13841.851115
317.860513,-1532.190996,-4367.215058,11769.274478
317.860820,-3064.381992,-1998.556043,11621.233289
317.861128,76.609550,-1850.514855,12879.583391
317.861436,-459.657299,1554.432478,7846.182985
317.861744,995.924147,1406.391290,9918.759623
317.862052,2374.896044,2590.720797,7550.100608
317.862360,1838.629195,1924.535449,8512.368333
317.862668,383.047749,888.247130,9992.780217
317.862976,612.876398,962.267725,9474.636058
317.863284,306.438199,740.205942,10584.944971
317.863591,-536.266849,1258.350101,9178.553681
317.863899,2145.067394,2442.679609,9104.533087
317.864207,1838.629195,2886.803174,7550.100608
317.864515,1991.848295,1850.514855,8142.265362
317.864823,2987.772442,444.123565,8142.265362
317.865131,1838.629195,-740.205942,8586.388927
317.865439,919.314598,-3182.885551,10436.903782
317.865747,-1225.752797,-4293.194464,10732.986159
317.866055,-1378.971896,-3701.029710,12657.521608
317.866362,-2298.286494,-2960.823768,11917.315666
317.866670,-919.314598,-666.185348,10066.800811
317.866978,536.266849,1184.329507,9030.512492
317.867286,1838.629195,1776.494261,8660.409521
317.867594,2604.724693,2146.597232,7994.224174
317.867902,1915.238745,1110.308913,7772.162391
317.868210,919.314598,962.267725,8882.471304
317.868518,-153.219100,666.185348,9400.615463
317.868826,0.000000,962.267725,10140.821405
317.869134,536.266849,1258.350101,9696.697840
317.869441,1302.362347,2368.659014,8586.388927
317.869749,1838.629195,2442.679609,8512.368333
317.870057,2757.943793,814.226536,9400.615463
317.870365,2528.115143,-148.041188,8512.368333
317.870673,1608.800546,-1036.288319,9400.615463
317.870981,459.657299,-2886.803174,10955.047942
317.871289,-1378.971896,-3923.091493,11473.192101
317.871597,-2068.457845,-3775.050304,12583.501014
317.871905,-2145.067394,-3108.864956,12065.356855
317.872212,-1685.410096,-1036.288319,10436.903782
317.872520,689.485948,888.247130,9622.677246
317.872828,1685.410096,1554.432478,9474.636058
317.873136,1608.800546,1924.535449,7846.182985
317.873444,1685.410096,1406.391290,8216.285956
317.873752,919.314598,1480.411884,8956.491898
317.874060,612.876398,888.247130,9770.718434
317.874368,995.924147,1480.411884,10066.800811
317.874676,459.657299,2146.597232,9252.574275
317.874984,1838.629195,2738.761985,8882.471304
317.875291,3217.601092,3108.864956,7550.100608
317.875599,3370.820191,2590.720797,8364.327145
317.875907,3217.601092,814.226536,7920.203579
317.876215,2068.457845,-592.164754,8660.409521
317.876523,459.657299,-1924.535449,10214.842000
317.876831,-919.314598,-3997.112087,12139.377449
317.877139,-2528.115143,-4145.153275,12805.562797
317.877447,-3294.210641,-2960.823768,12509.480420
317.877755,-919.314598,-1480.411884,11621.233289
317.878063,-153.219100,370.102971,10288.862594
317.878371,1149.143247,1776.494261,9104.533087
317.878679,1838.629195,2294.638420,8660.409521
317.878987,2068.457845,1554.432478,8290.306550
317.879295,1072.533697,1184.329507,8660.409521
317.879603,612.876398,1258.350101,10288.862594
317.879911,229.828649,814.226536,9992.780217
317.880219,612.876398,1554.432478,9770.718434
317.880528,1762.019645,2590.720797,8512.368333
317.880836,2757.943793,2738.761985,8068.244768
317.881144,2834.553343,2368.659014,7994.224174
317.881452,3217.601092,1110.308913,8438.347739
317.881760,2834.553343,-518.144159,8808.450710
317.882068,1915.238745,-1998.556043,9844.739029
317.882376,-306.438199,-3256.906145,10881.027347
317.882684,-1378.971896,-3997.112087,12065.356855
317.882992,-1762.019645,-2812.782580,12361.439231
317.883300,-1302.362347,-1036.288319,10584.944971
317.883608,-383.047749,296.082377,9696.697840
317.883916,612.876398,888.247130,9548.656652
317.884224,995.924147,1110.308913,9252.574275
317.884532,995.924147,1184.329507,8660.409521
317.884840,0.000000,222.061783,9252.574275
317.885148,0.000000,-0.000000,9918.759623
317.885456,0.000000,-0.000000,11177.109724
317.885764,76.609550,1184.329507,9918.759623
317.886072,995.924147,2072.576638,9178.553681
317.886380,2145.067394,2516.700203,8438.347739
317.886688,3140.991542,2220.617826,7920.203579
317.886996,2451.505594,1628.453072,7920.203579
317.887304,3064.381992,370.102971,9474.636058
317.887613,1685.410096,-1554.432478,8808.450710
317.887921,-689.485948,-2294.638420,10510.924376
317.888229,-1608.800546,-3552.988522,12435.459826
317.888537,-2528.115143,-3108.864956,11843.295072
317.888845,-2068.457845,-962.267725,10732.986159
317.889153,-919.314598,148.041188,10658.965565
317.889461,919.314598,740.205942,9400.615463
317.889769,1378.971896,2146.597232,8734.430116
317.890077,1225.752797,1332.370696,7994.224174
317.890385,536.266849,592.164754,9104.533087
317.890693,306.438199,370.102971,10066.800811
317.891001,153.219100,592.164754,10288.862594
317.891309,153.219100,1184.329507,9326.594869
317.891617,1762.019645,1850.514855,9252.574275
317.891925,2221.676944,2516.700203,8808.450710
317.892233,2451.505594,1628.453072,8660.409521
317.892541,2987.772442,962.267725,8956.491898
317.892849,2298.286494,296.082377,8808.450710
317.893157,0.000000,-1628.453072,9844.739029
317.893465,-842.705048,-3701.029710,11843.295072
317.893773,-2374.896044,-3330.926739,12361.439231
317.894081,-2451.505594,-2590.720797,12065.356855
317.894389,-2145.067394,-592.164754,11547.212695
317.894698,0.000000,814.226536,9992.780217
317.895006,1302.362347,2368.659014,8586.388927
317.895314,1762.019645,2442.679609,8512.368333
317.895622,1915.238745,2146.597232,8290.306550
317.895930,919.314598,1554.432478,8660.409521
317.896238,1225.752797,814.226536,10140.821405
317.896546,459.657299,592.164754,11251.130318
317.896854,153.219100,1406.391290,9622.677246
317.897162,689.485948,1998.556043,9474.636058
317.897470,1991.848295,2516.700203,9030.512492
317.897778,2451.505594,2072.576638,8142.265362
317.898086,2298.286494,814.226536,9252.574275
317.898394,2911.162892,-518.144159,8438.347739
317.898702,612.876398,-2072.576638,9548.656652
317.899010,-995.924147,-3701.029710,11769.274478
317.899318,-2528.115143,-3701.029710,12435.459826
317.899626,-2528.115143,-2738.761985,12657.521608
317.899934,-2987.772442,-1406.391290,11399.171507
317.900242,-689.485948,296.082377,10214.842000
317.900550,919.314598,1554.432478,9030.512492
317.900858,1532.190996,2368.659014,8808.450710
317.901166,1455.581446,2072.576638,7624.121203
317.901474,229.828649,1184.329507,8882.471304
317.901783,689.485948,370.102971,11325.150913
317.902091,1838.629195,-74.020594,10214.842000
317.902399,-766.095498,2146.597232,8734.430116
317.902707,2298.286494,1406.391290,11029.068536
317.903015,3677.258390,2886.803174,7476.080014
317.903323,2451.505594,2664.741391,8068.244768
317.903631,2681.334243,814.226536,9548.656652
317.903939,3140.991542,148.041188,8808.450710
317.904247,-153.219100,-2072.576638,10584.944971
317.904555,-1838.629195,-4145.153275,12213.398043
317.904863,-2374.896044,-3997.112087,13545.768739
317.905171,-3677.258390,-3478.967927,13027.624579
317.905479,-2604.724693,-1924.535449,11621.233289
317.905787,-383.047749,370.102971,9918.759623
317.906095,1302.362347,1554.432478,9474.636058
317.906403,2145.067394,2516.700203,8438.347739
317.906711,2145.067394,1998.556043,6587.832884
317.907019,2681.334243,1406.391290,8364.327145
317.907327,919.314598,666.185348,9178.553681
317.907635,1608.800546,1406.391290,8660.409521
317.907943,2145.067394,1776.494261,9030.512492
317.908251,1762.019645,2072.576638,7476.080014
317.908559,2911.162892,2368.659014,7846.182985
317.908868,3447.429741,2072.576638,7772.162391
317.909176,3677.258390,962.267725,8068.244768
317.909484,2221.676944,-222.061783,8142.265362
317.909792,1455.581446,-2294.638420,10214.842000
317.910100,-919.314598,-3552.988522,10881.027347
317.910408,-2068.457845,-4071.132681,12065.356855
317.910716,-2221.676944,-2886.803174,11843.295072
317.911024,-1915.238745,-1776.494261,11251.130318
317.911332,0.000000,-0.000000,10362.883188
317.911640,306.438199,1110.308913,8956.491898
317.911948,1762.019645,1850.514855,9030.512492
317.912256,1072.533697,1258.350101,7920.203579
317.912564,459.657299,518.144159,8956.491898
317.912872,76.609550,-0.000000,9918.759623
317.913180,0.000000,-148.041188,10214.842000
317.913488,612.876398,-444.123565,10288.862594
317.913796,766.095498,1924.535449,9030.512492
317.914104,2374.896044,1776.494261,8438.347739
317.914412,2987.772442,2072.576638,8438.347739
317.914720,3140.991542,1184.329507,7698.141797
317.915028,2451.505594,-0.000000,8586.388927
317.915336,995.924147,-1406.391290,9178.553681
317.915644,0.000000,-2368.659014,10362.883188
317.915953,-1762.019645,-2960.823768,11399.171507
317.916261,-2298.286494,-1850.514855,11843.295072
317.916569,-1072.533697,-518.144159,10362.883188
317.916877,0.000000,1554.432478,9326.594869
317.917185,459.657299,2368.659014,9474.636058
317.917493,1378.971896,2294.638420,7994.224174
317.917801,76.609550,1850.514855,8808.450710
317.918109,0.000000,1036.288319,10881.027347
317.918417,-306.438199,-592.164754,10214.842000
317.918725,-842.705048,222.061783,11177.109724
317.919033,0.000000,-222.061783,11103.089130
317.919341,766.095498,1184.329507,9622.677246
317.919649,1838.629195,1776.494261,9474.636058
317.919957,2451.505594,1628.453072,8586.388927
317.920265,2911.162892,1480.411884,8142.265362
317.920573,2911.162892,370.102971,8068.244768
317.920881,1072.533697,-1332.370696,9548.656652
317.921189,153.219100,-2812.782580,11251.130318
317.921497,-1149.143247,-2368.659014,11843.295072
317.921805,-1532.190996,-1850.514855,11695.253884
317.922113,-919.314598,-444.123565,10658.965565
317.922421,76.609550,1332.370696,9622.677246
317.922729,1455.581446,2442.679609,9030.512492
317.923038,1991.848295,2590.720797,7402.059420
317.923346,1608.800546,2220.617826,7994.224174
317.923654,612.876398,1184.329507,8734.430116
317.923962,153.219100,148.041188,10214.842000
317.924270,-459.657299,-222.061783,11547.212695
317.924578,-459.657299,-0.000000,10584.944971
317.924886,153.219100,518.144159,9844.739029
317.925194,1072.533697,1036.288319,9548.656652
317.925502,2374.896044,962.267725,9178.553681
317.925810,2451.505594,962.267725,8512.368333
317.926118,2528.115143,-222.061783,9030.512492
317.926426,1149.143247,-1480.411884,8956.491898
317.926734,-459.657299,-3034.844362,10584.944971
317.927042,-1302.362347,-3701.029710,12361.439231
317.927350,-1762.019645,-2368.659014,11325.150913
317.927658,-1455.581446,-888.247130,9918.759623
317.927966,-536.266849,888.247130,9252.574275
317.928274,1072.533697,1554.432478,9104.533087
317.928582,2221.676944,1998.556043,7550.100608
317.928890,1838.629195,2590.720797,7328.038826
317.929198,1149.143247,1554.432478,8364.327145
317.929506,76.609550,962.267725,9252.574275
317.929814,153.219100,-0.000000,10362.883188
317.930123,0.000000,740.205942,9104.533087
317.930431,306.438199,1184.329507,9178.553681
317.930739,1991.848295,1850.514855,9104.533087
317.931047,2604.724693,1554.432478,8734.430116
317.931355,2451.505594,962.267725,9104.533087
317.931663,2528.115143,-148.041188,8808.450710
317.931971,919.314598,-2072.576638,10140.821405
317.932279,-842.705048,-3701.029710,11917.315666
317.932587,-2068.457845,-3849.070898,12213.398043
317.932895,-2374.896044,-3034.844362,11843.295072
317.933203,-1838.629195,-1332.370696,11325.150913
317.933511,-383.047749,444.123565,10214.842000
317.933819,766.095498,1850.514855,9400.615463
317.934127,1225.752797,2516.700203,8216.285956
317.934435,1608.800546,2220.617826,7402.059420
317.934743,995.924147,1702.473667,8290.306550
317.935051,1302.362347,592.164754,10140.821405
317.935359,459.657299,962.267725,9548.656652
317.935667,459.657299,1702.473667,9400.615463
317.935975,1378.971896,1850.514855,8586.388927
317.936283,2298.286494,2812.782580,8290.306550
317.936591,3217.601092,2368.659014,8142.265362
317.936899,3524.039291,1776.494261,7994.224174
317.937208,2911.162892,-74.020594,9104.533087
317.937516,842.705048,-1480.411884,10066.800811
317.937824,-612.876398,-3849.070898,11769.274478
317.938132,-2528.115143,-4219.173869,12657.521608
317.938440,-2374.896044,-3034.844362,12509.480420
317.938748,-1685.410096,-1110.308913,10881.027347
317.939056,-766.095498,740.205942,10584.944971
317.939364,459.657299,1480.411884,9548.656652
317.939672,1225.752797,2368.659014,8290.306550
317.939980,1149.143247,2960.823768,7994.224174
317.940288,612.876398,1554.432478,9326.594869
317.940596,306.438199,1184.329507,10066.800811
317.940904,229.828649,666.185348,9918.759623
317.941212,-229.828649,814.226536,9770.718434
317.941520,689.485948,1110.308913,9548.656652
317.941828,1762.019645,1924.535449,9326.594869
317.942136,2451.505594,2072.576638,8808.450710
317.942444,3524.039291,1258.350101,8068.244768
317.942752,2834.553343,666.185348,7846.182985
317.943060,1991.848295,-1628.453072,9696.697840
317.943368,536.266849,-2738.761985,10362.883188
317.943676,-229.828649,-3330.926739,11917.315666
317.943984,-1378.971896,-2886.803174,11991.336260
317.944293,-1532.190996,-1554.432478,10288.862594
317.944601,-229.828649,-0.000000,10362.883188
317.944909,306.438199,1554.432478,9474.636058
317.945217,1072.533697,1850.514855,7698.141797
317.945525,1302.362347,2146.597232,7772.162391
317.945833,536.266849,1406.391290,8586.388927
317.946141,76.609550,666.185348,9474.636058
317.946449,-689.485948,296.082377,10510.924376
317.946757,-689.485948,222.061783,10807.006753
317.947065,-229.828649,518.144159,9326.594869
317.947373,689.485948,1406.391290,9252.574275
317.947681,2451.505594,1036.288319,9474.636058
317.947989,2528.115143,740.205942,7920.203579
317.948297,2987.772442,370.102971,9030.512492
317.948605,2068.457845,-1480.411884,8512.368333
317.948913,76.609550,-2812.782580,10436.903782
317.949221,-536.266849,-3478.967927,11843.295072
317.949529,-1225.752797,-2516.700203,10732.986159
317.949837,-995.924147,-1184.329507,10362.883188
317.950145,612.876398,370.102971,9400.615463
317.950453,1608.800546,1924.535449,8290.306550
317.950761,2451.505594,3182.885551,7031.956449
317.951069,2451.505594,2294.638420,7179.997637
317.951378,1762.019645,2146.597232,7402.059420
317.951686,689.485948,1258.350101,9178.553681
317.951994,306.438199,296.082377,10214.842000
317.952302,-689.485948,740.205942,10066.800811
317.952610,-459.657299,1036.288319,10362.883188
317.952918,459.657299,1258.350101,10140.821405
317.953226,2528.115143,962.267725,9992.780217
317.953534,1149.143247,888.247130,8290.306550
317.953842,2604.724693,-1184.329507,9474.636058
317.954150,536.266849,-1924.535449,9622.677246
317.954458,-1762.019645,-3849.070898,11843.295072
317.954766,-1608.800546,-5181.441594,13249.686362
317.955074,-2757.943793,-3478.967927,10955.047942
317.955382,-1532.190996,-2960.823768,11991.336260
317.955690,-995.924147,296.082377,8364.327145
317.955998,1915.238745,2590.720797,9178.553681
317.956306,1838.629195,3330.926739,7254.018232
317.956614,2528.115143,3552.988522,5995.668130
317.956922,2298.286494,2516.700203,7328.038826
317.957230,1302.362347,1554.432478,8512.368333
317.957538,1149.143247,1406.391290,9400.615463
317.957846,689.485948,1110.308913,9474.636058
317.958154,536.266849,1554.432478,9918.759623
317.958463,536.266849,1850.514855,9400.615463
317.958771,2068.457845,1998.556043,9104.533087
317.959079,1608.800546,1258.350101,9326.594869
317.959387,2374.896044,-0.000000,8808.450710
317.959695,1455.581446,-1850.514855,10288.862594
317.960003,-1455.581446,-3330.926739,11621.233289
317.960311,-919.314598,-4737.318029,13693.809927
317.960619,-2145.067394,-3552.988522,12435.459826
317.960927,-2451.505594,-1406.391290,12065.356855
317.961235,-689.485948,-518.144159,10732.986159
317.961543,383.047749,1702.473667,9474.636058
317.961851,1991.848295,2442.679609,8512.368333
317.962159,1762.019645,2442.679609,6513.812290
317.962467,1685.410096,1998.556043,8068.244768
317.962775,1072.533697,-0.000000,10140.821405
317.963083,-459.657299,666.185348,9770.718434
317.963391,76.609550,666.185348,10288.862594
317.963699,919.314598,1258.350101,9474.636058
317.964007,1838.629195,2368.659014,8068.244768
317.964315,2834.553343,2590.720797,7402.059420
317.964623,3524.039291,2072.576638,8142.265362
317.964931,3830.477490,1036.288319,7550.100608
317.965239,2451.505594,-592.164754,8586.388927
317.965548,383.047749,-2886.803174,11251.130318
317.965856,-842.705048,-4367.215058,11769.274478
317.966164,-1915.238745,-3108.864956,11769.274478
317.966472,-1685.410096,-2294.638420,11843.295072
317.966780,-459.657299,-592.164754,10288.862594
317.967088,76.609550,888.247130,9622.677246
317.967396,1378.971896,1776.494261,8216.285956
317.967704,2068.457845,2220.617826,7179.997637
317.968012,1378.971896,1406.391290,9178.553681
317.968320,383.047749,296.082377,9104.533087
317.968628,0.000000,370.102971,9992.780217
317.968936,-383.047749,222.061783,10066.800811
317.969244,76.609550,740.205942,9918.759623
317.969552,842.705048,2220.617826,9326.594869
317.969860,2374.896044,1628.453072,9770.718434
317.970168,2681.334243,1776.494261,7994.224174
317.970476,2528.115143,222.061783,7920.203579
317.970784,1532.190996,-1258.350101,9696.697840
317.971092,306.438199,-3182.885551,10658.965565
317.971400,-1149.143247,-3330.926739,11547.212695
317.971708,-1455.581446,-3182.885551,11991.336260
317.972016,-1225.752797,-1924.535449,11177.109724
317.972324,-689.485948,-0.000000,10140.821405
317.972633,1762.019645,1850.514855,8734.430116
317.972941,2068.457845,2812.782580,7328.038826
317.973249,1915.238745,2738.761985,7476.080014
317.973557,1225.752797,1702.473667,8142.265362
317.973865,153.219100,1184.329507,9178.553681
317.974173,0.000000,444.123565,10214.842000
317.974481,-1455.581446,740.205942,10288.862594
317.974789,-306.438199,814.226536,11251.130318
317.975097,306.438199,1554.432478,9918.759623
317.975405,1302.362347,2368.659014,9104.533087
317.975713,2451.505594,1332.370696,9252.574275
317.976021,2451.505594,592.164754,8142.265362
317.976329,1378.971896,-888.247130,9474.636058
317.976637,306.438199,-3478.967927,10881.027347
317.976945,-842.705048,-4219.173869,11399.171507
317.977253,-2145.067394,-3256.906145,11917.315666
317.977561,-612.876398,-2812.782580,11769.274478
317.977869,0.000000,-0.000000,9178.553681
317.978177,1378.971896,1628.453072,8882.471304
317.978485,2451.505594,2812.782580,7550.100608
317.978793,2528.115143,2960.823768,6883.915261
317.979101,2145.067394,2072.576638,7402.059420
317.979409,1225.752797,1776.494261,8808.450710
317.979717,229.828649,666.185348,9548.656652
317.980025,-306.438199,666.185348,10584.944971
317.980333,0.000000,1110.308913,10510.924376
317.980641,612.876398,1628.453072,9770.718434
317.980949,1915.238745,2072.576638,9104.533087
317.981257,2145.067394,1850.514855,8808.450710
317.981565,2145.067394,222.061783,9030.512492
317.981873,1225.752797,-1406.391290,9844.739029
317.982181,-612.876398,-3108.864956,11325.150913
317.982489,-1455.581446,-4441.235652,12953.603985
317.982798,-2374.896044,-3775.050304,13397.727550
317.983106,-1608.800546,-2886.803174,11991.336260
317.983414,-1149.143247,-814.226536,10436.903782
317.983722,689.485948,1036.288319,9178.553681
317.984030,1991.848295,2368.659014,8364.327145
317.984338,2834.553343,2738.761985,7328.038826
317.984646,2068.457845,2516.700203,6735.874072
317.984954,1991.848295,1702.473667,8808.450710
317.985262,1302.362347,2368.659014,9104.533087
317.985570,689.485948,1924.535449,8586.388927
317.985878,1532.190996,2590.720797,8290.306550
317.986186,1838.629195,2960.823768,7698.141797
317.986494,2757.943793,2960.823768,7994.224174
317.986802,2911.162892,1258.350101,8290.306550
317.987110,1838.629195,-0.000000,9030.512492
317.987418,459.657299,-2516.700203,10436.903782
317.987726,-1532.190996,-4737.318029,12657.521608
317.988034,-3447.429741,-5773.606348,13323.706956
317.988342,-3983.696590,-5255.462188,13915.871710
317.988650,-2757.943793,-3701.029710,12805.562797
317.988958,-1608.800546,-1258.350101,10436.903782
317.989266,919.314598,518.144159,9622.677246
317.989574,2221.676944,1480.411884,8290.306550
317.989882,2451.505594,2960.823768,7031.956449
317.990190,1915.238745,2368.659014,7550.100608
317.990498,2068.457845,2368.659014,7402.059420
317.990806,919.314598,1850.514855,8142.265362
317.991114,1378.971896,1702.473667,9104.533087
317.991422,842.705048,2590.720797,7994.224174
317.991730,1838.629195,2294.638420,8068.244768
317.992038,2757.943793,1998.556043,8216.285956
317.992346,2528.115143,2072.576638,7698.141797
317.992654,2987.772442,592.164754,8586.388927
317.992962,1838.629195,-1036.288319,8142.265362
317.993270,383.047749,-2960.823768,10658.965565
317.993578,-1532.190996,-4145.153275,12213.398043
317.993886,-2145.067394,-4219.173869,12731.542202
317.994194,-2451.505594,-2516.700203,11547.212695
317.994502,-1225.752797,-1184.329507,10732.986159
317.994810,76.609550,592.164754,10288.862594
317.995118,1838.629195,1184.329507,9770.718434
317.995426,1532.190996,2072.576638,7698.141797
317.995734,536.266849,2146.597232,8512.368333
317.996042,995.924147,592.164754,10066.800811
317.996350,0.000000,962.267725,10214.842000
317.996658,-689.485948,888.247130,10362.883188
317.996966,-153.219100,1036.288319,9548.656652
317.997274,2068.457845,2072.576638,9474.636058
317.997582,2604.724693,2960.823768,8142.265362
317.997890,4213.525239,2294.638420,7624.121203
317.998198,4213.525239,1924.535449,7105.977043
317.998506,1685.410096,148.041188,8512.368333
317.998814,459.657299,-2368.659014,11029.068536
317.999122,-2068.457845,-3108.864956,11621.233289
317.999430,-2987.772442,-3034.844362,13915.871710
317.999738,-2528.115143,-2664.741391,12731.542202
318.000046,-766.095498,-518.144159,11991.336260
318.000354,-1149.143247,888.247130,11029.068536
318.000662,612.876398,1258.350101,8956.491898
318.000970,842.705048,2960.823768,8438.347739
318.001278,919.314598,1702.473667,9400.615463
318.001586,229.828649,1406.391290,9400.615463
318.001894,153.219100,1332.370696,9622.677246
318.002202,76.609550,888.247130,10362.883188
318.002510,0.000000,1924.535449,8808.450710
318.002818,1072.533697,2442.679609,9104.533087
318.003126,2681.334243,2146.597232,8956.491898
318.003435,2374.896044,1628.453072,7772.162391
318.003743,2604.724693,1036.288319,7994.224174
318.004051,1838.629195,-1628.453072,9178.553681
318.004359,0.000000,-2664.741391,10140.821405
318.004667,-766.095498,-4367.215058,11843.295072
318.004975,-2145.067394,-4219.173869,11473.192101
318.005283,-1225.752797,-2886.803174,11399.171507
318.005591,0.000000,-1184.329507,10066.800811
318.005899,766.095498,592.164754,8734.430116
318.006207,2374.896044,1480.411884,8216.285956
318.006515,2451.505594,1332.370696,7254.018232
318.006823,1378.971896,1628.453072,7920.203579
318.007131,1762.019645,740.205942,8512.368333
318.007439,689.485948,296.082377,9030.512492
318.007747,383.047749,296.082377,9918.759623
318.008055,459.657299,666.185348,9474.636058
318.008363,689.485948,1258.350101,9326.594869
318.008671,1608.800546,1480.411884,9548.656652
318.008979,2681.334243,1184.329507,8660.409521
318.009287,2374.896044,296.082377,8068.244768
318.009595,1149.143247,-1110.308913,9474.636058
318.009903,153.219100,-2590.720797,11029.068536
318.010211,-1302.362347,-3775.050304,11695.253884
318.010519,-2604.724693,-3627.009116,12213.398043
318.010827,-1762.019645,-2442.679609,11769.274478
318.011135,-1149.143247,-370.102971,10510.924376
318.011443,153.219100,666.185348,9622.677246
318.011751,1991.848295,2664.741391,7698.141797
318.012059,2451.505594,3182.885551,7254.018232
318.012367,2451.505594,2590.720797,7698.141797
318.012675,2145.067394,2220.617826,7772.162391
318.012983,1532.190996,1628.453072,9104.533087
318.013291,229.828649,1258.350101,9548.656652
318.013599,459.657299,1332.370696,9326.594869
318.013907,1378.971896,1776.494261,9474.636058
318.014215,1685.410096,2220.617826,9474.636058
318.014523,2528.115143,1480.411884,8290.306550
318.014831,2145.067394,1184.329507,9104.533087
318.015139,1072.533697,-296.082377,9918.759623
318.015447,-383.047749,-2516.700203,10881.027347
318.015755,-1991.848295,-3552.988522,12805.562797
318.016063,-2757.943793,-4515.256246,13545.768739
318.016371,-2987.772442,-3182.885551,12139.377449
318.016679,-2298.286494,-1332.370696,11473.192101
318.016987,-689.485948,-0.000000,10436.903782
318.017295,766.095498,1406.391290,8882.471304
318.017603,1302.362347,2368.659014,8068.244768
318.017911,1991.848295,1628.453072,7994.224174
318.018219,1685.410096,1332.370696,7994.224174
318.018527,842.705048,740.205942,9104.533087
318.018835,689.485948,888.247130,9474.636058
318.019143,1302.362347,1332.370696,9326.594869
318.019451,1991.848295,2146.597232,8660.409521
318.019759,2298.286494,2516.700203,8808.450710
318.020067,3677.258390,2960.823768,7105.977043
318.020375,3600.648841,2146.597232,7031.956449
318.020683,2911.162892,444.123565,8512.368333
318.020991,842.705048,-1776.494261,9252.574275
318.021299,-459.657299,-2960.823768,11251.130318
318.021607,-1991.848295,-3849.070898,13101.645173
318.021915,-2604.724693,-3256.906145,12361.439231
318.022223,-2068.457845,-1776.494261,12065.356855
318.022531,-1149.143247,-666.185348,10807.006753
318.022839,536.266849,666.185348,9474.636058
318.023147,1072.533697,1406.391290,8660.409521
318.023455,1685.410096,814.226536,8808.450710
318.023763,995.924147,666.185348,8882.471304
318.024072,612.876398,-222.061783,10510.924376
318.024380,612.876398,148.041188,9992.780217
318.024688,995.924147,1184.329507,9178.553681
318.024996,1608.800546,1776.494261,8808.450710
318.025304,2911.162892,2812.782580,8068.244768
318.025612,4213.525239,2664.741391,7105.977043
318.025920,4290.134789,2368.659014,7179.997637
318.026228,3064.381992,518.144159,7105.977043
318.026536,1762.019645,-1110.308913,9400.615463
318.026844,0.000000,-2368.659014,11621.233289
318.027152,-1149.143247,-3108.864956,12435.459826
318.027460,-1838.629195,-2516.700203,11029.068536
318.027768,-2068.457845,-1110.308913,10732.986159
318.028076,-995.924147,-370.102971,10955.047942
318.028384,153.219100,1110.308913,9474.636058
318.028692,383.047749,1110.308913,9474.636058
318.029000,1225.752797,814.226536,8808.450710
318.029308,1149.143247,592.164754,8882.471304
318.029616,-306.438199,518.144159,9844.739029
318.029924,229.828649,148.041188,10584.944971
318.030232,76.609550,814.226536,9696.697840
318.030540,0.000000,1776.494261,9770.718434
318.030848,1762.019645,1850.514855,9400.615463
318.031156,1608.800546,2590.720797,7846.182985
318.031464,2681.334243,1110.308913,8586.388927
318.031772,2145.067394,592.164754,8512.368333
318.032080,1072.533697,-1110.308913,9400.615463
318.032388,-919.314598,-2886.803174,12065.356855
318.032696,-2374.896044,-2664.741391,11547.212695
318.033004,-1608.800546,-2220.617826,12805.562797
318.033312,-2068.457845,-1036.288319,10362.883188
318.033620,0.000000,888.247130,9474.636058
318.033928,1915.238745,1406.391290,8882.471304
318.034236,1455.581446,2220.617826,7772.162391
318.034544,1608.800546,1702.473667,7994.224174
318.034852,689.485948,1406.391290,8660.409521
318.035160,536.266849,-0.000000,10658.965565
318.035468,-612.876398,296.082377,9844.739029
318.035776,306.438199,296.082377,10955.047942
318.036084,306.438199,1332.370696,10140.821405
318.036392,2298.286494,1554.432478,9104.533087
318.036700,2987.772442,1850.514855,8882.471304
318.037008,2911.162892,1776.494261,7624.121203
318.037316,2604.724693,-0.000000,8660.409521
318.037624,1149.143247,-1406.391290,9400.615463
318.037932,0.000000,-3034.844362,11251.130318
318.038240,-1685.410096,-3849.070898,12361.439231
318.038548,-1455.581446,-3182.885551,12287.418637
318.038856,-1532.190996,-1406.391290,11029.068536
318.039164,0.000000,148.041188,9918.759623
318.039472,1532.190996,1776.494261,8808.450710
318.039780,1685.410096,2442.679609,7031.956449
318.040088,2374.896044,1850.514855,7698.141797
318.040396,1608.800546,962.267725,7994.224174
318.040704,1225.752797,592.164754,9178.553681
318.041012,689.485948,-148.041188,10140.821405
318.041320,383.047749,962.267725,9474.636058
318.041628,1378.971896,1110.308913,9918.759623
318.041936,1762.019645,1924.535449,8882.471304
318.042244,2911.162892,2146.597232,7846.182985
318.042552,2757.943793,1776.494261,7846.182985
318.042860,2604.724693,-222.061783,8734.430116
318.043168,459.657299,-2442.679609,9548.656652
318.043476,-1532.190996,-3775.050304,11843.295072
318.043784,-2757.943793,-4589.276840,13175.665768
318.044092,-3217.601092,-3330.926739,12065.356855
318.044400,-2221.676944,-1480.411884,11917.315666
318.044709,-383.047749,370.102971,10066.800811
318.045017,1302.362347,1998.556043,8586.388927
318.045325,2298.286494,2886.803174,7105.977043
318.045633,2834.553343,2146.597232,7624.121203
318.045941,1915.238745,1776.494261,8660.409521
318.046249,842.705048,814.226536,9400.615463
318.046557,612.876398,222.061783,10362.883188
318.046865,383.047749,518.144159,10066.800811
318.047173,995.924147,1110.308913,8956.491898
318.047481,2068.457845,2294.638420,8660.409521
318.047789,3064.381992,2368.659014,8438.347739
318.048097,3140.991542,1776.494261,7624.121203
318.048405,2757.943793,148.041188,8290.306550
318.048713,842.705048,-1406.391290,10066.800811
318.049021,-459.657299,-3552.988522,11473.192101
318.049329,-2451.505594,-3182.885551,12509.480420
318.049637,-2451.505594,-3034.844362,13101.645173
318.049945,-2298.286494,-962.267725,11399.171507
318.050253,-612.876398,888.247130,10658.965565
318.050561,689.485948,2220.617826,9770.718434
318.050869,1838.629195,3034.844362,8142.265362
318.051177,2068.457845,2146.597232,8438.347739
318.051485,306.438199,1258.350101,8290.306550
318.051793,612.876398,444.123565,10066.800811
318.052101,-153.219100,-0.000000,10362.883188
318.052409,0.000000,444.123565,10807.006753
318.052717,459.657299,1110.308913,9400.615463
318.053025,2298.286494,1776.494261,8438.347739
318.053333,3370.820191,1998.556043,8438.347739
318.053641,3600.648841,2220.617826,7031.956449
318.053949,3064.381992,370.102971,7698.141797
318.054257,1685.410096,-1184.329507,9178.553681
318.054565,383.047749,-2664.741391,10288.862594
318.054873,-1608.800546,-3182.885551,11991.336260
318.055181,-1838.629195,-2960.823768,12139.377449
318.055489,-1838.629195,-1184.329507,10881.027347
318.055797,-1072.533697,-0.000000,10881.027347
318.056105,0.000000,1406.391290,9548.656652
318.056413,1072.533697,1776.494261,8068.244768
318.056721,1149.143247,1850.514855,8290.306550
318.057029,76.609550,962.267725,8882.471304
318.057337,-306.438199,-0.000000,9474.636058
318.057645,-1072.533697,-444.123565,10732.986159
318.057953,-1225.752797,-370.102971,9918.759623
318.058261,306.438199,666.185348,9844.739029
318.058569,1762.019645,1406.391290,9474.636058
318.058877,2221.676944,1702.473667,8438.347739
318.059185,3447.429741,1406.391290,7624.121203
318.059493,3217.601092,592.164754,7402.059420
318.059801,1991.848295,-1110.308913,8586.388927
318.060109,536.266849,-2960.823768,9696.697840
318.060417,-612.876398,-2886.803174,11103.089130
318.060725,-919.314598,-2590.720797,11843.295072
318.061033,-383.047749,-592.164754,9474.636058
318.061341,0.000000,1184.329507,9548.656652
318.061649,2221.676944,1702.473667,9992.780217
318.061957,1225.752797,2664.741391,6217.729913
318.062265,1532.190996,2442.679609,8216.285956
318.062573,919.314598,370.102971,9696.697840
318.062881,-536.266849,518.144159,9474.636058
318.063189,-919.314598,-666.185348,11769.274478
318.063497,229.828649,-0.000000,10807.006753
318.063805,-153.219100,296.082377,10214.842000
318.064113,1225.752797,1332.370696,9844.739029
318.064421,2528.115143,1998.556043,8956.491898
318.064729,2451.505594,1258.350101,8438.347739
318.065037,2451.505594,-370.102971,9178.553681
318.065346,1762.019645,-1110.308913,9400.615463
318.065654,153.219100,-3034.844362,11177.109724
318.065962,-1762.019645,-3849.070898,12139.377449
318.066270,-1915.238745,-2146.597232,11769.274478
318.066578,-536.266849,-1110.308913,11843.295072
318.066886,0.000000,444.123565,9474.636058
318.067194,1072.533697,2960.823768,7772.162391
318.067502,2451.505594,2516.700203,8808.450710
318.067810,1991.848295,3404.947333,6143.709319
318.068118,1532.190996,2368.659014,7772.162391
318.068426,842.705048,666.185348,9474.636058
318.068734,-383.047749,370.102971,9918.759623
318.069042,-612.876398,-0.000000,10658.965565
318.069350,0.000000,962.267725,10288.862594
318.069658,766.095498,1184.329507,9918.759623
318.069966,1302.362347,740.205942,9178.553681
318.070274,2221.676944,1036.288319,9104.533087
318.070582,1915.238745,-444.123565,9326.594869
318.070890,612.876398,-1776.494261,9918.759623
318.071198,-536.266849,-2812.782580,11103.089130
318.071506,-1455.581446,-3775.050304,12139.377449
318.071814,-1838.629195,-3034.844362,12287.418637
318.072122,-1838.629195,-1480.411884,11177.109724
318.072430,-459.657299,814.226536,9992.780217
318.072738,459.657299,1998.556043,9104.533087
318.073046,2068.457845,2368.659014,7328.038826
318.073354,1225.752797,1998.556043,7328.038826
318.073662,1149.143247,1258.350101,7994.224174
318.073970,383.047749,592.164754,9104.533087
318.074278,0.000000,-0.000000,9992.780217
318.074586,536.266849,-296.082377,9992.780217
318.074894,-229.828649,666.185348,9252.574275
318.075202,1915.238745,1110.308913,9548.656652
318.075510,3600.648841,1554.432478,8364.327145
318.075818,3447.429741,2072.576638,6809.894666
318.076126,3524.039291,814.226536,8068.244768
318.076434,2374.896044,-1332.370696,8956.491898
318.076742,0.000000,-2516.700203,10658.965565
318.077050,-1072.533697,-3256.906145,12139.377449
318.077358,-1991.848295,-2738.761985,12361.439231
318.077666,-1762.019645,-1850.514855,12065.356855
318.077974,-1072.533697,-592.164754,10584.944971
318.078282,0.000000,1184.329507,9844.739029
318.078590,1225.752797,2220.617826,8808.450710
318.078898,1149.143247,2590.720797,7846.182985
318.079206,842.705048,1850.514855,7920.203579
318.079514,689.485948,592.164754,8882.471304
318.079822,-689.485948,-0.000000,10066.800811
318.080125,153.219100,-0.000000,9770.718434
318.080433,383.047749,370.102971,9622.677246
318.080741,1532.190996,1998.556043,9178.553681
318.081049,2987.772442,2294.638420,8586.388927
318.081357,2911.162892,1850.514855,8216.285956
318.081665,3140.991542,814.226536,8290.306550
318.081973,2451.505594,-518.144159,8660.409521
318.082281,0.000000,-2072.576638,10140.821405
318.082589,-459.657299,-3552.988522,12287.418637
318.082897,-1608.800546,-3182.885551,12361.439231
318.083205,-2221.676944,-2146.597232,12065.356855
318.083513,-995.924147,-962.267725,11029.068536
318.083821,-229.828649,1110.308913,9918.759623
318.084129,612.876398,1776.494261,9178.553681
318.084437,1149.143247,1924.535449,7994.224174
318.084745,0.000000,1776.494261,8512.368333
318.085053,459.657299,370.102971,9622.677246
318.085361,229.828649,592.164754,9548.656652
318.085669,-306.438199,740.205942,9770.718434
318.085977,612.876398,962.267725,10362.883188
318.086285,1685.410096,2368.659014,9104.533087
318.086593,1608.800546,2368.659014,8660.409521
318.086901,2911.162892,1480.411884,9178.553681
318.087209,2068.457845,740.205942,7624.121203
318.087517,1455.581446,-1036.288319,9474.636058
318.087825,229.828649,-2664.741391,11251.130318
318.088133,-1532.190996,-3256.906145,11843.295072
318.088441,-1762.019645,-3034.844362,12583.501014
318.088749,-1762.019645,-1776.494261,11029.068536
318.089057,-306.438199,296.082377,9696.697840
318.089365,766.095498,1776.494261,9104.533087
318.089673,1838.629195,2368.659014,7328.038826
318.089981,2604.724693,2738.761985,6735.874072
318.090289,1378.971896,1110.308913,7624.121203
318.090597,689.485948,888.247130,8660.409521
318.090905,76.609550,148.041188,10436.903782
318.091213,-612.876398,-0.000000,10881.027347
318.091521,-766.095498,518.144159,9918.759623
318.091828,383.047749,962.267725,10066.800811
318.092136,1302.362347,740.205942,9918.759623
318.092444,1455.581446,1036.288319,9030.512492
318.092752,2298.286494,-0.000000,9252.574275
318.093060,1685.410096,-1702.473667,9622.677246
318.093368,229.828649,-2368.659014,9696.697840
318.093676,-842.705048,-3997.112087,11991.336260
318.093984,-1225.752797,-3182.885551,11917.315666
318.094292,-1302.362347,-1628.453072,10510.924376
318.094600,-459.657299,370.102971,9474.636058
318.094908,1608.800546,1628.453072,8438.347739
318.095216,1762.019645,2590.720797,7254.018232
318.095524,2374.896044,2442.679609,7254.018232
318.095832,1225.752797,2072.576638,7476.080014
318.096140,612.876398,1258.350101,8512.368333
318.096448,153.219100,148.041188,9696.697840
318.096756,-766.095498,592.164754,10436.903782
318.097064,0.000000,740.205942,10658.965565
318.097372,1072.533697,1406.391290,9474.636058
318.097680,2298.286494,2294.638420,8660.409521
318.097988,2911.162892,1332.370696,8882.471304
318.098296,2528.115143,740.205942,8290.306550
318.098604,1685.410096,-592.164754,9770.718434
318.098912,153.219100,-3034.844362,11103.089130
318.099220,-1915.238745,-3404.947333,12435.459826
318.099528,-1915.238745,-3701.029710,13101.645173
318.099836,-1762.019645,-2146.597232,11621.233289
318.100144,-842.705048,-296.082377,10362.883188
318.100452,1225.752797,1406.391290,8882.471304
318.100760,1991.848295,2442.679609,8068.244768
318.101068,2145.067394,3034.844362,6809.894666
318.101376,2374.896044,2220.617826,7698.141797
318.101684,1455.581446,1628.453072,8512.368333
318.101992,153.219100,814.226536,8956.491898
318.102300,-76.609550,1332.370696,9918.759623
318.102608,919.314598,962.267725,9622.677246
318.102916,1302.362347,1480.411884,9548.656652
318.103224,2298.286494,1998.556043,9030.512492
318.103532,2604.724693,1850.514855,8364.327145
318.103840,2681.334243,370.102971,8586.388927
318.104148,1378.971896,-1036.288319,9030.512492
318.104456,229.828649,-3478.967927,11769.274478
318.104764,-1685.410096,-4737.318029,12583.501014
318.105072,-2068.457845,-4293.194464,13471.748144
318.105380,-1915.238745,-2738.761985,12213.398043
318.105688,-1149.143247,-1110.308913,10584.944971
318.105996,153.219100,888.247130,9696.697840
318.106304,1608.800546,2516.700203,7846.182985
318.106612,2374.896044,3182.885551,7402.059420
318.106920,1608.800546,2368.659014,7105.977043
318.107228,1302.362347,1480.411884,7772.162391
318.107536,0.000000,888.247130,9030.512492
318.107843,0.000000,592.164754,9844.739029
318.108151,0.000000,1184.329507,9474.636058
318.108459,536.266849,1480.411884,9474.636058
318.108767,1991.848295,1628.453072,8808.450710
318.109075,2451.505594,2146.597232,7698.141797
318.109383,2834.553343,222.061783,8956.491898
318.109691,1915.238745,-1480.411884,8956.491898
318.109999,229.828649,-2442.679609,10436.903782
318.110307,-1302.362347,-4145.153275,12287.418637
318.110615,-2221.676944,-3552.988522,12435.459826
318.110923,-1915.238745,-2294.638420,12879.583391
318.111231,-1302.362347,148.041188,10955.047942
318.111539,536.266849,1406.391290,9844.739029
318.111847,2068.457845,2516.700203,7698.141797
318.112155,1455.581446,2368.659014,7624.121203
318.112463,689.485948,2368.659014,8512.368333
318.112771,0.000000,1406.391290,8734.430116
318.113079,-689.485948,1184.329507,10436.903782
318.113387,-229.828649,-0.000000,10362.883188
318.113695,-1991.848295,2294.638420,8882.471304
318.114003,2145.067394,1776.494261,10140.821405
318.114311,1455.581446,3108.864956,7105.977043
318.114619,2298.286494,2960.823768,7994.224174
318.114927,2528.115143,740.205942,8956.491898
318.115235,459.657299,-148.041188,8290.306550
318.115543,-2068.457845,-2664.741391,11251.130318
318.115851,-2681.334243,-3330.926739,11991.336260
318.116159,-4136.915689,-4367.215058,13619.789333
318.116467,-4290.134789,-3404.947333,12879.583391
318.116775,-2987.772442,-1480.411884,11399.171507
318.117083,-1149.143247,740.205942,10066.800811
318.117391,-919.314598,1406.391290,8660.409521
318.117699,689.485948,3256.906145,6809.894666
318.118007,536.266849,2590.720797,6957.935855
318.118315,306.438199,1332.370696,7994.224174
318.118623,-919.314598,814.226536,8512.368333
318.118931,-995.924147,-0.000000,9918.759623
318.119239,-2068.457845,-296.082377,10510.924376
318.119547,-1991.848295,740.205942,9548.656652
318.119855,-459.657299,296.082377,10066.800811
318.120163,-229.828649,962.267725,8512.368333
318.120471,0.000000,1258.350101,8216.285956
318.120779,612.876398,-296.082377,9030.512492
318.121087,0.000000,-888.247130,8660.409521
318.121395,-1532.190996,-2886.803174,10881.027347
318.121703,-2298.286494,-3775.050304,12509.480420
318.122011,-3677.258390,-3627.009116,12361.439231
318.122319,-3370.820191,-2812.782580,11991.336260
318.122627,-2528.115143,-814.226536,10140.821405
318.122935,-1608.800546,592.164754,9400.615463
318.123243,-459.657299,2072.576638,8364.327145
318.123551,459.657299,2960.823768,7179.997637
318.123858,612.876398,2812.782580,6957.935855
318.124166,919.314598,2590.720797,6883.915261
318.124474,76.609550,1998.556043,7920.203579
318.124782,153.219100,740.205942,9474.636058
318.125090,-842.705048,444.123565,9326.594869
318.125398,-1455.581446,962.267725,9030.512492
318.125706,-1608.800546,1184.329507,9844.739029
318.126014,-1608.800546,1406.391290,9474.636058
318.126322,-766.095498,1776.494261,9696.697840
318.126630,0.000000,1554.432478,9548.656652
318.126938,-995.924147,148.041188,9474.636058
318.127246,-2374.896044,-592.164754,10140.821405
318.127554,-3370.820191,-1850.514855,12361.439231
318.127862,-4673.182538,-3108.864956,13841.851115
318.128170,-5822.325785,-3627.009116,13693.809927
318.128478,-6281.983084,-2960.823768,13323.706956
318.128786,-5286.058936,-2146.597232,13027.624579
318.129094,-4060.306139,-444.123565,10881.027347
318.129402,-2221.676944,2072.576638,8734.430116
318.129710,-229.828649,2960.823768,6883.915261
318.130018,1225.752797,4145.153275,5329.482782
318.130326,2221.676944,3923.091493,5329.482782
318.130634,1991.848295,3182.885551,6143.709319
318.130942,459.657299,1480.411884,7402.059420
318.131250,-919.314598,-592.164754,9474.636058
318.131558,-2604.724693,-2368.659014,10807.006753
318.131866,-3447.429741,-3478.967927,11399.171507
318.132174,-4290.134789,-2368.659014,11917.315666
318.132482,-3064.381992,-962.267725,11251.130318
318.132790,-1378.971896,370.102971,9992.780217
318.133098,995.924147,2146.597232,8290.306550
318.133406,2221.676944,3627.009116,6365.771101
318.133714,1991.848295,3997.112087,6291.750507
318.134022,1532.190996,2442.679609,7698.141797
318.134330,-612.876398,888.247130,9474.636058
318.134638,-3753.867940,-1036.288319,10658.965565
318.134946,-6281.983084,-2590.720797,12879.583391
318.135254,-7507.735880,-3701.029710,14285.974681
318.135562,-7814.174080,-3923.091493,14656.077652
318.135870,-7048.078582,-3478.967927,13989.892304
318.136178,-5056.230287,-2294.638420,11843.295072
318.136486,-2834.553343,-370.102971,9252.574275
318.136794,0.000000,2146.597232,7254.018232
318.137102,1685.410096,3552.988522,5403.503377
318.137410,2834.553343,4737.318029,4145.153275
318.137718,2528.115143,5181.441594,3923.091493
318.138026,1378.971896,4145.153275,5255.462188
318.138334,-383.047749,2072.576638,7772.162391
318.138642,-2604.724693,-148.041188,10140.821405
318.138950,-4979.620737,-2368.659014,12435.459826
318.139258,-6511.811733,-4293.194464,13693.809927
318.139566,-6588.421283,-4885.359217,14804.118840
318.139873,-5822.325785,-4071.132681,13397.727550
318.140181,-3217.601092,-2146.597232,11399.171507
318.140489,-1149.143247,296.082377,8660.409521
318.140797,689.485948,2294.638420,6809.894666
318.141105,2068.457845,4145.153275,5847.626942
318.141413,1838.629195,5625.565159,4885.359217
318.141721,1838.629195,5699.585753,4737.318029
318.142029,306.438199,4663.297435,7402.059420
318.142337,-2451.505594,2294.638420,9178.553681
318.142645,-5745.716235,-666.185348,11399.171507
318.142953,-7967.393179,-3701.029710,14878.139434
318.143261,-10035.851024,-5921.647536,16210.510130
318.143569,-11261.603821,-6957.935855,16876.695478
318.143877,-8886.707777,-6587.832884,17024.736666
318.144185,-6818.249932,-5033.400406,14211.954086
318.144493,-3830.477490,-3034.844362,10510.924376
318.144801,0.000000,-296.082377,7550.100608
318.145109,1685.410096,2664.741391,5403.503377
318.145417,3524.039291,4515.256246,4737.318029
318.145725,5592.497135,6513.812290,3701.029710
318.146033,4903.011187,8438.347739,2368.659014
318.146341,3677.258390,7179.997637,4071.132681
318.146649,2298.286494,5181.441594,5773.606348
318.146957,-766.095498,3256.906145,8512.368333
318.147265,-4213.525239,-148.041188,11399.171507
318.147573,-6511.811733,-2442.679609,13619.789333
318.147881,-7584.345430,-3478.967927,14285.974681
318.148189,-8427.050478,-4441.235652,13989.892304
318.148497,-6281.983084,-3849.070898,14434.015869
318.148805,-5362.668486,-3775.050304,12435.459826
318.149113,-4136.915689,-1776.494261,9548.656652
318.149421,-2221.676944,-740.205942,9400.615463
318.149729,-153.219100,740.205942,8364.327145
318.150037,0.000000,2220.617826,7179.997637
318.150345,842.705048,2812.782580,7105.977043
318.150653,1225.752797,2072.576638,7698.141797
318.150961,76.609550,1332.370696,7994.224174
318.151269,0.000000,1406.391290,9030.512492
318.151577,-766.095498,-0.000000,10140.821405
318.151885,-1838.629195,-1184.329507,10362.883188
318.152193,-2298.286494,-592.164754,9696.697840
318.152501,-2145.067394,-444.123565,9400.615463
318.152809,-1608.800546,-296.082377,8734.430116
318.153117,-995.924147,1110.308913,7846.182985
318.153425,-383.047749,1258.350101,8068.244768
318.153733,-919.314598,592.164754,8438.347739
318.154041,-1378.971896,1554.432478,8734.430116
318.154349,-2451.505594,1628.453072,9548.656652
318.154657,-3677.258390,518.144159,10807.006753
318.154965,-5362.668486,-74.020594,11621.233289
318.155273,-6205.373534,-1406.391290,12953.603985
318.155581,-7354.516781,-2516.700203,13175.665768
318.155888,-7277.907231,-2886.803174,13693.809927
318.156196,-6971.469032,-2812.782580,13619.789333
318.156504,-5132.839837,-2220.617826,12139.377449
318.156812,-3907.087040,-1480.411884,10510.924376
318.157120,-1991.848295,-74.020594,9104.533087
318.157428,-229.828649,1036.288319,7105.977043
318.157736,1072.533697,1998.556043,5921.647536
318.158044,2145.067394,2664.741391,5847.626942
318.158352,1685.410096,2738.761985,6069.688724
318.158660,1838.629195,2368.659014,6735.874072
318.158968,76.609550,1702.473667,7624.121203
318.159276,-459.657299,1332.370696,8586.388927
318.159584,-1455.581446,444.123565,9992.780217
318.159892,-2757.943793,-370.102971,10510.924376
318.160200,-3064.381992,-518.144159,10732.986159
318.160508,-3064.381992,-444.123565,11473.192101
318.160816,-2451.505594,-666.185348,10955.047942
318.161124,-2757.943793,-370.102971,10362.883188
318.161432,-2145.067394,-74.020594,9548.656652
318.161740,-1532.190996,-74.020594,9918.759623
318.162048,-1915.238745,444.123565,9622.677246
318.162356,-1762.019645,592.164754,9770.718434
318.162664,-2068.457845,740.205942,9696.697840
318.162972,-1762.019645,518.144159,9770.718434
318.163280,-2221.676944,222.061783,10288.862594
318.163588,-2374.896044,-74.020594,10584.944971
318.163896,-2298.286494,-74.020594,10584.944971
318.164204,-2374.896044,222.061783,10288.862594
318.164512,-1915.238745,444.123565,9918.759623
318.164820,-1762.019645,740.205942,9844.739029
318.165128,-1149.143247,740.205942,9474.636058
318.165436,-919.314598,666.185348,8882.471304
318.165744,-536.266849,740.205942,8512.368333
318.166052,-383.047749,888.247130,8364.327145
318.166360,-842.705048,1332.370696,8586.388927
318.166668,-1455.581446,1258.350101,8660.409521
318.166976,-1915.238745,1036.288319,9178.553681
318.167284,-2528.115143,518.144159,9474.636058
318.167592,-3217.601092,-222.061783,10288.862594
318.167900,-3753.867940,-740.205942,10584.944971
318.168208,-4136.915689,-1332.370696,11029.068536
318.168516,-3983.696590,-1776.494261,11029.068536
318.168824,-4060.306139,-1036.288319,11325.150913
318.169132,-3524.039291,-814.226536,10584.944971
318.169440,-3064.381992,-592.164754,10288.862594
318.169748,-2374.896044,-444.123565,9770.718434
318.170056,-1762.019645,-518.144159,9474.636058
318.170364,-1378.971896,-0.000000,9474.636058
318.170672,-1685.410096,-148.041188,9104.533087
318.170980,-153.219100,-222.061783,8956.491898
318.171288,-459.657299,296.082377,9252.574275
318.171595,-459.657299,444.123565,8364.327145
318.171903,0.000000,1110.308913,8216.285956
318.172211,306.438199,1406.391290,8068.244768
318.172519,459.657299,1776.494261,7846.182985
318.172827,383.047749,1702.473667,8290.306550
318.173135,0.000000,2072.576638,8142.265362
318.173443,-919.314598,1184.329507,9104.533087
318.173751,-1762.019645,740.205942,9474.636058
318.174059,-2451.505594,296.082377,10288.862594
318.174367,-2987.772442,296.082377,10732.986159
318.174675,-3524.039291,-0.000000,10881.027347
318.174983,-3907.087040,370.102971,11325.150913
318.175291,-4213.525239,518.144159,11769.274478
318.175599,-4519.963438,-0.000000,11251.130318
318.175907,-4443.353888,-0.000000,11177.109724
318.176215,-3753.867940,148.041188,10658.965565
318.176523,-3447.429741,-0.000000,10288.862594
318.176831,-3370.820191,444.123565,9918.759623
318.177139,-3140.991542,814.226536,9622.677246
318.177447,-2374.896044,592.164754,9178.553681
318.177755,-2681.334243,1036.288319,9252.574275
318.178063,-2834.553343,592.164754,9104.533087
318.178371,-3140.991542,666.185348,8956.491898
318.178679,-3907.087040,888.247130,9030.512492
318.178987,-3524.039291,518.144159,9400.615463
318.179295,-3830.477490,222.061783,9474.636058
318.179603,-4060.306139,-148.041188,9696.697840
318.179911,-4213.525239,-0.000000,9918.759623
318.180219,-4213.525239,-370.102971,9770.718434
318.180527,-3830.477490,-666.185348,10140.821405
318.180835,-3907.087040,-814.226536,9474.636058
318.181143,-4060.306139,-518.144159,9622.677246
318.181450,-4136.915689,-740.205942,9474.636058
318.181758,-3907.087040,-592.164754,9400.615463
318.182066,-3907.087040,-740.205942,9400.615463
318.182374,-3677.258390,-1036.288319,9696.697840
318.182682,-3677.258390,-1258.350101,10288.862594
318.182990,-3217.601092,-1480.411884,10584.944971
318.183298,-3447.429741,-1628.453072,10658.965565
318.183606,-2604.724693,-1776.494261,10510.924376
318.183914,-2451.505594,-1184.329507,10288.862594
318.184222,-1685.410096,-1036.288319,10140.821405
318.184530,-612.876398,-592.164754,9474.636058
318.184838,0.000000,-0.000000,8734.430116
318.185146,689.485948,444.123565,7772.162391
318.185454,1532.190996,1406.391290,7698.141797
318.185762,1302.362347,2072.576638,7179.997637
318.186070,1455.581446,2516.700203,6809.894666
318.186377,1608.800546,2960.823768,7105.977043
318.186685,766.095498,3404.947333,7031.956449
318.186993,-229.828649,3108.864956,7772.162391
318.187301,-842.705048,3034.844362,8438.347739
318.187609,-1991.848295,2146.597232,10288.862594
318.187917,-2757.943793,1628.453072,11695.253884
318.188225,-3447.429741,592.164754,11769.274478
318.188533,-4519.963438,-814.226536,12583.501014
318.188841,-5439.278036,-1184.329507,12657.521608
318.189149,-5209.449386,-1702.473667,13101.645173
318.189457,-4903.011187,-1776.494261,12583.501014
318.189765,-4519.963438,-2146.597232,12435.459826
318.190073,-3907.087040,-1480.411884,11695.253884
318.190381,-2911.162892,-1776.494261,10955.047942
318.190689,-2298.286494,-1554.432478,10436.903782
318.190997,-1302.362347,-74.020594,9104.533087
318.191304,-536.266849,148.041188,8882.471304
318.191612,-306.438199,814.226536,7994.224174
