#time,accel_x,accel_y,accel_z
747.726125,-57.427742,-937.986459,-9571.290400
747.728905,-57.427742,-899.701298,-9628.718142
747.731685,-76.570323,-899.701298,-9686.145885
747.734465,-133.998066,-823.130974,-9705.288466
747.737245,-133.998066,-937.986459,-9686.145885
747.740025,-76.570323,-880.558717,-9628.718142
747.742805,-95.712904,-880.558717,-9647.860723
747.745585,-57.427742,-918.843878,-9571.290400
747.748365,-57.427742,-880.558717,-9667.003304
747.751145,-114.855485,-918.843878,-9686.145885
747.753925,-76.570323,-918.843878,-9571.290400
747.756705,-76.570323,-957.129040,-9571.290400
747.759485,-114.855485,-918.843878,-9667.003304
747.762265,-57.427742,-918.843878,-9686.145885
747.765045,-114.855485,-880.558717,-9628.718142
747.767825,-172.283227,-880.558717,-9571.290400
747.770605,-95.712904,-937.986459,-9686.145885
747.773384,-95.712904,-880.558717,-9628.718142
747.776164,-114.855485,-880.558717,-9571.290400
747.778944,-76.570323,-861.416136,-9513.862658
747.781724,38.285162,-1014.556782,-9284.151688
747.784504,229.710970,-1741.974853,-9341.579430
747.787284,-76.570323,-2622.533570,-9494.720077
747.790064,-459.421939,-5264.209720,-9341.579430
747.792844,-363.709035,-7637.889739,-9934.999435
747.795624,-440.279358,-10547.562021,-8231.309744
747.798404,-765.703232,-8135.596840,-11064.411702
747.801184,-248.853550,-5053.641331,-12844.671717
747.803964,-746.560651,-2450.250342,-8231.309744
747.806744,5283.352301,708.275490,-7925.028451
747.809524,-153.140646,4843.072942,-7216.752962
747.812215,-4957.928427,2411.965181,-11696.116869
747.814905,6278.766502,-12059.825904,-7465.606512
747.817596,-4345.365842,-5168.496816,-6948.756830
747.820287,191.425808,-8480.163294,-18951.154992
747.822978,2239.681954,-7197.610381,-4479.363907
747.825668,-2794.816797,4479.363907,-6355.336826
747.828359,1301.695494,6661.618118,-19334.006608
747.831050,-76.570323,6029.912952,-1435.693560
747.833741,-191.425808,3924.229064,-8843.872330
747.836431,440.279358,-823.130974,-16079.767872
747.839122,-1129.412267,-5819.344563,-3962.514226
747.841813,535.992262,-8346.165229,-9265.009107
747.844504,-1205.982590,-7503.891674,-14031.511726
747.847194,440.279358,-3235.096155,-6642.475538
747.849885,95.712904,4211.367776,-10777.272990
747.852576,-1263.410333,4536.791650,-10068.997501
747.855267,3464.807125,2833.101958,-8805.587168
747.857957,-3139.383251,4823.930362,-10509.276859
747.860648,1320.838075,-4498.506488,-11562.118803
747.863339,-669.990328,-5302.494882,-5781.059402
747.866030,-2029.113565,-4192.225195,-11657.831707
747.868720,2488.535504,-9896.714274,-9035.298138
747.871411,-2220.539373,-803.988394,-12136.396227
747.874102,1339.980656,2928.814862,-8939.585234
747.876793,57.427742,2143.969050,-5436.492947
747.879483,-76.570323,5800.201982,-14108.082050
747.882174,-746.560651,4747.360038,-7676.174901
747.884865,210.568389,-3541.377448,-7101.897477
747.887555,-229.710970,-5034.498750,-12519.247843
747.890246,267.996131,-6508.477472,-10317.851051
747.892937,-95.712904,-4555.934230,-7657.032320
747.895628,-191.425808,-1244.267752,-13323.236237
747.898318,-535.992262,2622.533570,-8173.882002
747.901009,803.988394,1378.265818,-6814.758765
747.903700,-76.570323,4173.082614,-14069.796888
747.906391,-612.562586,803.988394,-6451.049730
747.909081,669.990328,-3617.947771,-9169.296203
747.911772,516.849682,-3617.947771,-11964.113000
747.914463,-1014.556782,-4287.938099,-7446.463931
747.917154,133.998066,-2009.970984,-10509.276859
747.919784,-918.843878,-325.423874,-10700.702667
747.922414,76.570323,-765.703232,-8595.018779
747.925043,593.420005,2009.970984,-9896.714274
747.927673,631.705166,325.423874,-9494.720077
747.930303,-2431.107762,593.420005,-10260.423309
747.932933,1244.267752,306.281293,-6757.331022
747.935563,-248.853550,-2775.674216,-12117.253646
747.938193,38.285162,-3579.662610,-7542.176835
747.940823,248.853550,-1780.260014,-9609.575562
747.943453,-1091.127106,-1416.550979,-11676.974288
747.946083,937.986459,-2009.970984,-8346.165229
747.948713,-306.281293,2699.103893,-10336.993632
747.951343,-248.853550,861.416136,-8633.303941
747.953972,-76.570323,574.277424,-9379.864592
747.956602,-57.427742,287.138712,-9858.429112
747.959232,-574.277424,-4230.510357,-9265.009107
747.961862,-708.275490,-3675.375514,-10241.280728
747.964492,-535.992262,-2737.389054,-8939.585234
747.967122,478.564520,-3771.088418,-12997.812363
747.969752,880.558717,1665.404530,-6661.618118
747.972382,-1971.685822,2660.818731,-6719.045861
747.975012,3158.525832,-2737.389054,-11504.691061
747.977642,-3445.664544,4575.076811,-10260.423309
747.980272,880.558717,-172.283227,-8078.169098
747.982901,1493.121302,-5455.635528,-9915.856854
747.985531,-2909.672282,-440.279358,-10815.558152
747.988161,1761.117434,-5321.637462,-8767.302006
747.990791,-248.853550,-2163.111630,-8977.870395
747.993421,-4173.082614,5015.356170,-13763.515595
747.996051,3005.385186,-2124.826469,-6451.049730
747.998681,880.558717,-57.427742,-5876.772306
748.001311,-2756.531635,1301.695494,-17515.461432
748.003941,2258.824534,-4957.928427,-4498.506488
748.006571,-1110.269686,-38.285162,-8020.741355
748.009201,-344.566454,-1837.687757,-16405.191746
748.011830,842.273555,-3254.238736,-3483.949706
748.014460,-803.988394,287.138712,-10777.272990
748.017090,-210.568389,1359.123237,-15448.062706
748.019720,95.712904,-612.562586,-2239.681954
748.022350,440.279358,459.421939,-11389.835576
748.024939,-842.273555,-727.418070,-13552.947206
748.027528,-344.566454,-2258.824534,-4881.358104
748.030117,765.703232,-1167.697429,-10643.274925
748.032705,-1225.125171,-1933.400661,-13170.095590
748.035294,306.281293,-1818.545176,-6221.338760
748.037883,2316.252277,-1493.121302,-8901.300072
748.040472,-3732.803256,2277.967115,-14682.359474
748.043061,-650.847747,2105.683888,-6049.055533
748.045650,4632.504554,-3771.088418,-6929.614250
748.048238,-4555.934230,-1435.693560,-13916.656242
748.050827,2124.826469,-2967.100024,-10068.997501
748.053416,-1473.978722,727.418070,-7752.745224
748.056005,-1071.984525,-2239.681954,-16922.041427
748.058594,1990.828403,-344.566454,-4613.361973
748.061182,-1397.408398,2833.101958,-8173.882002
748.063771,401.994197,-2277.967115,-13820.943338
748.066360,-172.283227,535.992262,-7618.747158
748.068949,-95.712904,-669.990328,-7925.028451
748.071538,210.568389,-4498.506488,-11772.687192
748.074127,-746.560651,-574.277424,-10088.140082
748.076715,1014.556782,-2507.678085,-6814.758765
748.079304,-1416.550979,-478.564520,-11619.546546
748.081893,229.710970,1148.554848,-11696.116869
748.084482,1837.687757,-1397.408398,-5570.491013
748.087071,-1339.980656,1378.265818,-10279.565890
748.089660,-325.423874,229.710970,-13859.228499
748.092248,-880.558717,-1799.402595,-6183.053598
748.094837,976.271621,-3522.234867,-8193.024582
748.097426,-574.277424,-1703.689691,-14261.222696
748.100015,133.998066,-2488.535504,-5666.203917
748.102604,325.423874,-38.285162,-11026.126541
748.105193,-976.271621,1052.841944,-12672.388490
748.107781,1282.552914,-2182.254211,-4785.645200
748.110370,-861.416136,1014.556782,-12270.394293
748.112959,669.990328,-1703.689691,-10375.278794
748.115548,-421.136778,-1569.691626,-5551.348432
748.118137,-1416.550979,1473.978722,-12729.816232
748.120726,1320.838075,-3215.953574,-9513.862658
748.123314,1837.687757,-1129.412267,-10643.274925
748.125903,-4153.940034,3388.236802,-10796.415571
748.128468,3158.525832,-4651.647134,-5551.348432
748.131035,-4402.793584,-478.564520,-14950.355605
748.133601,2163.111630,-1703.689691,-9245.866526
748.136168,-957.129040,-1607.976787,-5015.356170
748.138734,-765.703232,153.140646,-16290.336261
748.141301,2335.394858,-593.420005,-5493.920690
748.143867,-2679.961312,-803.988394,-8154.739421
748.146434,1550.549045,-1914.258080,-15773.486579
748.149000,-823.130974,1071.984525,-4823.930362
748.151567,-229.710970,-2029.113565,-7389.036189
748.154133,421.136778,-784.845813,-16749.758200
748.156700,-1033.699363,191.425808,-5072.783912
748.159266,976.271621,-3024.527766,-7714.460062
748.161833,555.134843,-1205.982590,-14031.511726
748.164399,-2124.826469,459.421939,-8078.169098
748.166966,1091.127106,-1110.269686,-7255.038123
748.169532,-1091.127106,0.000000,-16118.053034
748.172099,803.988394,-1378.265818,-6297.909083
748.174665,459.421939,-1799.402595,-7446.463931
748.177232,-2009.970984,1378.265818,-13648.660110
748.179798,1646.261949,-2967.100024,-7886.743290
748.182365,-899.701298,133.998066,-8384.450390
748.184931,-76.570323,-153.140646,-12787.243974
748.187498,363.709035,-3139.383251,-7369.893608
748.190064,-803.988394,497.707101,-9456.434915
748.192631,38.285162,-976.271621,-12346.964616
748.195197,-1703.689691,-363.709035,-6412.764568
748.197763,2124.826469,-459.421939,-10279.565890
748.200330,-191.425808,-1493.121302,-12098.111066
748.202896,-1569.691626,-593.420005,-6278.766502
748.205463,2009.970984,-1205.982590,-11045.269122
748.208029,-1435.693560,-823.130974,-9781.858789
748.210576,2201.396792,-4173.082614,-8231.309744
748.213122,-3541.377448,3483.949706,-13361.521398
748.215668,2890.529701,-1933.400661,-6355.336826
748.218214,-976.271621,-76.570323,-9418.149754
748.220760,-918.843878,2067.398726,-13495.519464
748.223306,1646.261949,-3177.668413,-5245.067139
748.225852,-1244.267752,-1014.556782,-11542.976222
748.228398,-76.570323,-1148.554848,-12155.538808
748.230945,918.843878,-3981.656806,-5417.350366
748.233491,-899.701298,95.712904,-11868.400096
748.236037,-76.570323,0.000000,-11925.827838
748.238583,784.845813,-1627.119368,-4460.221326
748.241129,-1397.408398,1799.402595,-13246.665914
748.243675,-555.134843,-191.425808,-11485.548480
748.246221,842.273555,-3101.098090,-4153.940034
748.248767,-114.855485,-2105.683888,-13323.236237
748.251313,-1588.834206,-1952.543242,-10451.849117
748.253860,1722.832272,-4747.360038,-6336.194245
748.256406,1148.554848,133.998066,-11638.689126
748.258952,-880.558717,2794.816797,-13820.943338
748.261498,-1301.695494,2258.824534,-1225.125171
748.264044,1741.974853,19.142581,-13093.525267
748.266590,-2392.822600,-1607.976787,-12327.822035
748.269136,918.843878,-3120.240670,-6776.473603
748.271682,-133.998066,-3139.383251,-10758.130410
748.274228,-727.418070,-3445.664544,-10317.851051
748.276775,248.853550,229.710970,-8920.442653
748.279321,38.285162,535.992262,-8824.729749
748.281867,-478.564520,-153.140646,-9475.577496
748.284413,344.566454,1454.836141,-6853.043926
748.286959,-229.710970,325.423874,-13438.091722
748.289505,-1320.838075,-2143.969050,-9188.438784
748.292051,1110.269686,-2469.392923,-6393.621987
748.294597,133.998066,-4747.360038,-13706.087853
748.297143,-899.701298,-2986.242605,-10164.710405
748.299690,1378.265818,593.420005,-5876.772306
748.302236,784.845813,-1416.550979,-10183.852986
748.304782,-1741.974853,2545.963246,-13878.371080
748.307328,-210.568389,4096.512291,-4919.643266
748.309874,3024.527766,-3330.809059,-9858.429112
748.312409,-3560.520029,631.705166,-12557.533005
748.314944,1703.689691,-3081.955509,-6738.188442
748.317478,-631.705166,-4575.076811,-6489.334891
748.320013,76.570323,-2699.103893,-11485.548480
748.322548,555.134843,-38.285162,-5149.354235
748.325083,-823.130974,-574.277424,-11083.554283
748.327618,344.566454,1512.263883,-13131.810429
748.330153,-267.996131,2909.672282,-4613.361973
748.332687,535.992262,-2507.678085,-12232.109131
748.335222,-1339.980656,153.140646,-9590.432981
748.337757,-114.855485,-1607.976787,-9954.142016
748.340292,1263.410333,-4536.791650,-9571.290400
748.342827,-421.136778,-1627.119368,-10164.710405
748.345362,-344.566454,-2373.680019,-8288.737486
748.347896,1607.976787,-1741.974853,-10394.421374
748.350431,-574.277424,2258.824534,-8537.591037
748.352966,-2469.392923,1339.980656,-12385.249778
748.355501,1761.117434,1263.410333,-6604.190376
748.358036,-1205.982590,1244.267752,-12748.958813
748.360571,114.855485,-3426.521963,-11542.976222
748.363105,-76.570323,-3062.812928,-4709.074877
748.365640,267.996131,-2622.533570,-14873.785282
748.368175,-1722.832272,-2258.824534,-6604.190376
748.370710,1301.695494,-153.140646,-8958.727814
748.373245,-1531.406464,1588.834206,-13036.097525
748.375780,650.847747,-1033.699363,-6508.477472
748.378314,114.855485,2277.967115,-9686.145885
748.380849,-555.134843,-516.849682,-12748.958813
748.383384,-918.843878,-1646.261949,-6642.475538
748.385919,114.855485,-727.418070,-10375.278794
748.388454,19.142581,-5168.496816,-9131.011042
748.390988,-803.988394,-2258.824534,-11715.259450
748.393523,918.843878,306.281293,-9954.142016
748.396058,-401.994197,976.271621,-8805.587168
748.398593,-689.132909,957.129040,-11351.550414
748.401128,1014.556782,1875.972918,-8671.589102
748.403663,-1110.269686,-1320.838075,-8652.446522
748.406197,746.560651,-3120.240670,-12595.818166
748.408732,842.273555,-1990.828403,-7982.456194
748.411267,-1110.269686,-3311.666478,-7389.036189
748.413802,497.707101,-1397.408398,-12729.816232
748.416337,-421.136778,-114.855485,-8193.024582
748.418872,133.998066,-1416.550979,-8059.026517
748.421406,-0.000000,1493.121302,-12614.960747
748.423941,-516.849682,114.855485,-7369.893608
748.426476,516.849682,-2258.824534,-9054.440718
748.429011,-459.421939,-287.138712,-10298.708470
748.431546,-2354.537438,-784.845813,-9360.722011
748.434073,2143.969050,-4287.938099,-11428.120738
748.436601,153.140646,1071.984525,-8805.587168
748.439128,803.988394,-880.558717,-5551.348432
748.441656,-880.558717,-995.414202,-15122.638832
748.444184,95.712904,363.709035,-8480.163294
748.446711,593.420005,-2641.676150,-4383.651003
748.449239,-727.418070,-784.845813,-16577.474973
748.451766,-133.998066,-229.710970,-8288.737486
748.454294,650.847747,-2565.105827,-4728.217458
748.456821,-1454.836141,478.564520,-16290.336261
748.459349,746.560651,-1186.840010,-8690.731683
748.461876,306.281293,-1971.685822,-4594.219392
748.464404,-937.986459,574.277424,-15237.494317
748.466932,-114.855485,-1761.117434,-8901.300072
748.469459,535.992262,-1378.265818,-4766.502619
748.471987,-344.566454,248.853550,-15505.490448
748.474514,1110.269686,-1646.261949,-6278.766502
748.477042,-880.558717,-803.988394,-9016.155557
748.479569,-1416.550979,1684.547110,-13610.374949
748.482097,1588.834206,-2526.820666,-7446.463931
748.484624,-708.275490,-440.279358,-7618.747158
748.487152,-1033.699363,842.273555,-14433.505923
748.489680,1359.123237,-3790.230998,-5417.350366
748.492207,-899.701298,-267.996131,-10068.997501
748.494735,-669.990328,114.855485,-13093.525267
748.497262,1110.269686,-3043.670347,-4632.504554
748.499790,-1071.984525,574.277424,-11906.685258
748.502317,19.142581,-842.273555,-11562.118803
748.504845,1014.556782,-2507.678085,-5876.772306
748.507372,95.712904,459.421939,-11676.974288
748.509900,-0.000000,76.570323,-11753.544611
748.512428,325.423874,-2565.105827,-4689.932296
748.514948,-172.283227,95.712904,-11734.402030
748.517469,-746.560651,-1225.125171,-12404.392358
748.519989,574.277424,-2163.111630,-5130.211654
748.522510,497.707101,-497.707101,-12155.538808
748.525031,-1378.265818,-1339.980656,-10700.702667
748.527551,861.416136,-1301.695494,-7389.036189
748.530072,823.130974,-689.132909,-9399.007173
748.532593,-76.570323,-2220.539373,-10662.417506
748.535113,-3062.812928,2967.100024,-11581.261384
748.537634,2565.105827,-957.129040,-6412.764568
748.540154,-937.986459,-1971.685822,-10030.712339
748.542675,-1033.699363,401.994197,-12500.105262
748.545196,899.701298,-3483.949706,-7810.172966
748.547716,-1282.552914,-2373.680019,-11351.550414
748.550237,-2277.967115,2392.822600,-10796.415571
748.552757,2048.256146,-861.416136,-6661.618118
748.555278,1761.117434,-3598.805190,-8441.878133
748.557799,-2239.681954,1665.404530,-15716.058837
748.560319,2105.683888,-1761.117434,-6393.621987
748.562840,-1569.691626,-535.992262,-3560.520029
748.565361,574.277424,-995.414202,-17898.313048
748.567881,-1339.980656,-2354.537438,-6489.334891
748.570402,1167.697429,-1741.974853,-7657.032320
748.572922,-861.416136,669.990328,-13916.656242
748.575443,516.849682,-2545.963246,-7121.040058
748.577964,1741.974853,-1301.695494,-8327.022648
748.580484,-2852.244539,2220.539373,-15467.205286
748.583005,2220.539373,-2411.965181,-2699.103893
748.585526,-746.560651,-267.996131,-11753.544611
748.588046,-1225.125171,555.134843,-11523.833642
748.590567,1646.261949,-4862.215523,-6853.043926
748.593087,-1052.841944,-669.990328,-11925.827838
748.595608,363.709035,-1052.841944,-8939.585234
748.598129,-593.420005,344.566454,-7867.600709
748.600649,765.703232,2009.970984,-14165.509792
748.603170,746.560651,-1110.269686,-5493.920690
748.605690,-2143.969050,-669.990328,-8556.733618
748.608211,2143.969050,-3101.098090,-13840.085918
748.610732,-2603.390989,-2009.970984,-6661.618118
748.613252,1703.689691,-2258.824534,-9667.003304
748.615768,-1186.840010,-114.855485,-11600.403965
748.618284,593.420005,-1914.258080,-7829.315547
748.620799,-133.998066,-421.136778,-7695.317482
748.623315,1225.125171,-421.136778,-12270.394293
748.625831,-880.558717,-1071.984525,-7848.458128
748.628347,-1799.402595,1722.832272,-8671.589102
748.630862,1607.976787,-1473.978722,-10815.558152
748.633378,-1588.834206,-2163.111630,-9934.999435
748.635894,1091.127106,-708.275490,-9150.153622
748.638409,-248.853550,-957.129040,-7905.885870
748.640925,-95.712904,-2373.680019,-12787.243974
748.643441,-1091.127106,2086.541307,-8595.018779
748.645957,401.994197,-1052.841944,-9016.155557
748.648472,976.271621,-2718.246474,-9973.284597
748.650988,-689.132909,918.843878,-11408.978157
748.653504,-535.992262,-2354.537438,-6814.758765
748.656020,918.843878,-1320.838075,-10317.851051
748.658535,-1607.976787,1339.980656,-12270.394293
748.661051,1473.978722,-3139.383251,-7178.467800
748.663567,-1416.550979,-306.281293,-10279.565890
748.666082,440.279358,478.564520,-11504.691061
748.668598,-459.421939,-1990.828403,-6163.911018
748.671114,-172.283227,-421.136778,-12078.968485
748.673630,-114.855485,172.283227,-10700.702667
748.676145,937.986459,-2469.392923,-6795.616184
748.678661,-976.271621,880.558717,-10758.130410
748.681177,95.712904,-803.988394,-11179.267187
748.683692,-19.142581,-2526.820666,-5991.627790
748.686208,229.710970,-114.855485,-12576.675586
748.688724,-95.712904,-1741.974853,-9839.286531
748.691240,-19.142581,-631.705166,-6853.043926
748.693755,-248.853550,-325.423874,-12557.533005
748.696271,-593.420005,-1282.552914,-8537.591037
748.698787,708.275490,-1665.404530,-7657.032320
748.701302,-1091.127106,823.130974,-13438.091722
748.703818,2297.109696,-3656.232933,-5627.918755
748.706334,-3388.236802,1627.119368,-12653.245909
748.708850,2392.822600,-555.134843,-8499.305875
748.711365,-1569.691626,-1512.263883,-8882.157491
748.713881,-708.275490,1033.699363,-9896.714274
748.716293,1473.978722,-2067.398726,-11562.118803
748.718705,-344.566454,-2297.109696,-6604.190376
748.721117,-325.423874,287.138712,-10949.556218
748.723529,-38.285162,-1856.830338,-10968.698798
748.725941,-306.281293,-1167.697429,-6738.188442
748.728353,19.142581,823.130974,-12634.103328
748.730765,-229.710970,-2163.111630,-8461.020714
748.733177,76.570323,-2794.816797,-6967.899411
748.735589,-133.998066,1014.556782,-12614.960747
748.738001,-401.994197,-1148.554848,-8078.169098
748.740413,459.421939,-1971.685822,-9188.438784
748.742825,-861.416136,1148.554848,-11542.976222
748.745237,-478.564520,-1454.836141,-7829.315547
748.747649,1914.258080,-1875.972918,-9303.294269
748.750061,-1875.972918,746.560651,-11255.837510
748.752473,727.418070,-3924.229064,-6585.047795
748.754885,114.855485,-1837.687757,-11217.552349
748.757297,1033.699363,-1837.687757,-12021.540742
748.759709,-2277.967115,535.992262,-6336.194245
748.762121,2239.681954,1607.976787,-9628.718142
748.764533,-1397.408398,842.273555,-14108.082050
748.766945,287.138712,-784.845813,-4441.078746
748.769357,-153.140646,-765.703232,-10853.843314
748.771769,-1110.269686,-689.132909,-12997.812363
748.774181,650.847747,-842.273555,-5857.629725
748.776593,-19.142581,2660.818731,-11006.983960
748.779005,-1071.984525,4996.213589,-11236.694930
748.781417,612.562586,5130.211654,-8652.446522
748.783829,-95.712904,5570.491013,-8977.870395
748.786241,-497.707101,3081.955509,-10164.710405
748.788653,306.281293,1588.834206,-11160.124606
748.791065,-459.421939,421.136778,-7503.891674
748.793477,-0.000000,-765.703232,-11294.122672
748.795889,-153.140646,363.709035,-8480.163294
748.798301,-229.710970,1416.550979,-11255.837510
748.800713,-76.570323,2163.111630,-9169.296203
748.803125,-172.283227,2775.674216,-9418.149754
748.805537,-19.142581,-1129.412267,-10222.138147
748.807949,-976.271621,19.142581,-11217.552349
748.810361,401.994197,-57.427742,-8116.454259
748.812803,-0.000000,1569.691626,-10164.710405
748.815246,-153.140646,6125.625856,-10892.128475
748.817689,229.710970,8116.454259,-7771.887805
748.820132,172.283227,9609.575562,-10662.417506
748.822575,-612.562586,6967.899411,-10777.272990
748.825017,421.136778,153.140646,-7484.749093
748.827460,153.140646,-3656.232933,-10088.140082
748.829903,-899.701298,-2124.826469,-11676.974288
748.832346,803.988394,-4670.789715,-7599.604578
748.834789,-842.273555,937.986459,-10585.847182
748.837232,478.564520,2105.683888,-9801.001370
748.839674,-76.570323,4919.643266,-8154.739421
748.842117,325.423874,3617.947771,-10872.985894
748.844560,-669.990328,-1550.549045,-9533.005238
748.847003,-1033.699363,-4881.358104,-7274.180704
748.849446,2277.967115,-6068.198114,-13514.662045
748.851889,-1435.693560,-5034.498750,-7465.606512
748.854331,-287.138712,-2488.535504,-9743.573627
748.856774,459.421939,3062.812928,-9609.575562
748.859217,-363.709035,3464.807125,-10107.282662
748.861660,995.414202,3656.232933,-9533.005238
748.864103,-1703.689691,2316.252277,-8078.169098
748.866546,689.132909,-3292.523898,-10490.134278
748.868988,-57.427742,-3139.383251,-11657.831707
748.871431,-1454.836141,-4651.647134,-5417.350366
748.873874,1952.543242,-7197.610381,-11332.407834
748.876317,-1703.689691,1014.556782,-9169.296203
748.878760,2220.539373,382.851616,-8958.727814
748.881202,-2048.256146,2450.250342,-10528.419440
748.883645,593.420005,3924.229064,-9877.571693
748.886088,267.996131,76.570323,-7293.323285
748.888531,-899.701298,-1397.408398,-11466.405899
748.890974,-1167.697429,-2182.254211,-11447.263318
748.893417,1761.117434,-6853.043926,-7274.180704
748.895859,-191.425808,-3503.092286,-9954.142016
748.898302,-1186.840010,1627.119368,-11160.124606
748.900745,1607.976787,-1071.984525,-7925.028451
748.903188,-937.986459,2909.672282,-9877.571693
748.905631,669.990328,1818.545176,-10930.413637
748.908074,-459.421939,-478.564520,-6680.760699
748.910539,-478.564520,-459.421939,-12289.536874
748.913004,-382.851616,-2699.103893,-9552.147819
748.915469,-535.992262,-4517.649069,-6661.618118
748.917934,459.421939,-2488.535504,-12959.527202
748.920399,-535.992262,-95.712904,-10394.421374
748.922864,899.701298,-1033.699363,-5589.633594
748.925329,-1129.412267,2603.390989,-13093.525267
748.927794,267.996131,1244.267752,-9533.005238
748.930260,631.705166,153.140646,-5915.057467
748.932725,-1148.554848,421.136778,-13801.800757
748.935190,727.418070,-4192.225195,-7523.034254
748.937655,-172.283227,-2852.244539,-7561.319416
748.940120,-76.570323,-2086.541307,-14127.224630
748.942585,-267.996131,-3215.953574,-7771.887805
748.945050,-57.427742,1110.269686,-8327.022648
748.947515,-172.283227,1416.550979,-12021.540742
748.949980,-363.709035,516.849682,-8307.880067
748.952446,-880.558717,2086.541307,-9322.436850
748.954911,746.560651,-631.705166,-10796.415571
748.957376,-478.564520,-4766.502619,-5781.059402
748.959841,1875.972918,-3924.229064,-15046.068509
748.962306,-2679.961312,-823.130974,-6872.186507
748.964771,287.138712,-4249.652938,-8116.454259
748.967236,957.129040,-114.855485,-16060.625291
748.969701,-669.990328,1895.115499,-2909.672282
748.972166,574.277424,1052.841944,-10260.423309
748.974632,-957.129040,3024.527766,-14873.785282
748.977097,38.285162,-555.134843,-2565.105827
748.979562,803.988394,-2526.820666,-11753.544611
748.982027,-3120.240670,-1990.828403,-14778.072378
748.984492,3503.092286,-7140.182638,-5225.924558
748.986957,-2373.680019,76.570323,-8154.739421
748.989422,612.562586,2048.256146,-15716.058837
748.991887,440.279358,344.566454,-3598.805190
748.994352,-765.703232,2163.111630,-10451.849117
748.996818,401.994197,-650.847747,-13189.238171
748.999283,-1225.125171,-1531.406464,-5627.918755
749.001748,957.129040,-1914.258080,-12059.825904
749.004213,-1052.841944,-2182.254211,-7886.743290
749.006678,3215.953574,-5742.774240,-8805.587168
749.009079,-3215.953574,937.986459,-11868.400096
749.011481,401.994197,-1416.550979,-10566.704602
749.013882,1473.978722,-1052.841944,-5666.203917
749.016283,-1837.687757,2909.672282,-12270.394293
749.018685,727.418070,-1052.841944,-10700.702667
749.021086,19.142581,823.130974,-6585.047795
749.023488,-880.558717,401.994197,-14242.080115
749.025889,-823.130974,-3828.516160,-8518.448456
749.028290,2143.969050,-3675.375514,-9379.864592
749.030692,-1588.834206,1014.556782,-9073.583299
749.033093,306.281293,-2277.967115,-11542.976222
749.035494,133.998066,880.558717,-7523.034254
749.037896,-918.843878,1435.693560,-9896.714274
749.040297,-344.566454,-459.421939,-12270.394293
749.042699,-1607.976787,2756.531635,-11026.126541
749.045100,1014.556782,-1454.836141,-1646.261949
749.047501,1588.834206,-5723.631659,-10011.569758
749.049903,363.709035,-2775.674216,-20769.700168
749.052304,-1512.263883,-1301.695494,-191.425808
749.054705,823.130974,-2335.394858,-5934.200048
749.057107,-1454.836141,995.414202,-19257.436285
749.059508,-287.138712,1512.263883,-1014.556782
749.061910,2029.113565,-631.705166,-4211.367776
749.064311,-2239.681954,2067.398726,-21305.692430
749.066712,-497.707101,-1339.980656,-5474.778109
749.069114,1569.691626,-3924.229064,-1588.834206
749.071515,-210.568389,-2507.678085,-21305.692430
749.073916,-1110.269686,-2469.392923,-5608.776174
749.076318,1186.840010,-363.709035,-3866.801322
749.078719,306.281293,325.423874,-16424.334326
749.081120,3732.803256,-3656.232933,-4709.074877
749.083522,-2852.244539,1569.691626,-5072.783912
749.085923,-19.142581,-1665.404530,-24981.067944
749.088325,708.275490,-880.558717,-5111.069074
749.090726,-3139.383251,4211.367776,2258.824534
749.093127,995.414202,-2890.529701,-22377.676955
749.095529,-1263.410333,-478.564520,421.136778
749.097930,3062.812928,-2392.822600,-6010.770371
749.100331,-3158.525832,-2182.254211,-19487.147254
749.102733,38.285162,-1225.125171,-2545.963246
749.105171,2220.539373,-631.705166,-8173.882002
749.107608,-2526.820666,-421.136778,-18166.309179
749.110045,861.416136,-267.996131,-5206.781978
749.112482,459.421939,401.994197,-4785.645200
749.114920,-1512.263883,-1741.974853,-17917.455629
749.117357,631.705166,459.421939,-7389.036189
749.119794,-325.423874,-1263.410333,-2756.531635
749.122231,-421.136778,-3847.658741,-18013.168533
749.124669,421.136778,-325.423874,-7752.745224
749.127106,-95.712904,-1933.400661,-5800.201982
749.129543,-325.423874,-1818.545176,-13840.085918
749.131981,-1205.982590,4421.936165,-1052.841944
749.134418,1818.545176,-421.136778,-13744.373014
749.136855,-2143.969050,-248.853550,-13342.378818
749.139292,363.709035,459.421939,-3675.375514
749.141730,746.560651,-3962.514226,-10336.993632
749.144167,-1780.260014,-3330.809059,-13897.513661
749.146604,1014.556782,-1148.554848,-5647.061336
749.149042,-382.851616,-2258.824534,-9150.153622
749.151479,-861.416136,210.568389,-14222.937534
749.153916,1148.554848,1148.554848,-5264.209720
749.156353,-918.843878,746.560651,-9647.860723
749.158791,650.847747,-57.427742,-13304.093656
749.161228,-555.134843,-937.986459,-5053.641331
749.163665,535.992262,-3349.951640,-10624.132344
749.166102,-535.992262,-1818.545176,-8690.731683
749.168540,-2048.256146,-1473.978722,-9590.432981
749.170977,2775.674216,-4900.500685,-14510.076246
749.173414,-2775.674216,4230.510357,-2450.250342
749.175852,2258.824534,-918.843878,-12691.531070
749.178289,-1473.978722,1091.127106,-11657.831707
749.180726,287.138712,1722.832272,-5895.914886
749.183163,287.138712,-3560.520029,-10853.843314
749.185601,-1569.691626,-1550.549045,-12634.103328
749.188038,1761.117434,-1646.261949,-5340.780043
749.190475,-1971.685822,-2660.818731,-9054.440718
749.192912,1684.547110,-2431.107762,-15754.343998
749.195350,-918.843878,1148.554848,-3617.947771
749.197787,669.990328,-1244.267752,-11370.692995
749.200224,-708.275490,2143.969050,-13859.228499
749.202690,612.562586,823.130974,-5915.057467
749.205156,-267.996131,-2813.959378,-13093.525267
749.207622,421.136778,-1071.984525,-9016.155557
749.210088,344.566454,-1646.261949,-6853.043926
749.212555,-631.705166,-3273.381317,-13954.941403
749.215021,-1435.693560,995.414202,-9341.579430
749.217487,1569.691626,-1665.404530,-5359.922624
749.219953,-1569.691626,-765.703232,-13629.517530
749.222419,535.992262,1378.265818,-10145.567824
749.224885,459.421939,-861.416136,-4364.508422
749.227351,-823.130974,-555.134843,-14452.648504
749.229817,-248.853550,325.423874,-10834.700733
749.232283,574.277424,-2641.676150,-2833.101958
749.234749,-861.416136,-995.414202,-14299.507858
749.237215,995.414202,-2316.252277,-10949.556218
749.239681,-727.418070,-1607.976787,-4881.358104
749.242147,38.285162,-1205.982590,-13667.802691
749.244613,-1971.685822,1818.545176,-9437.292334
749.247079,1473.978722,-2124.826469,-5436.492947
749.249545,363.709035,172.283227,-14720.644635
749.252011,-1129.412267,1416.550979,-4900.500685
749.254477,2086.541307,-3177.668413,-11083.554283
749.256943,-1033.699363,1091.127106,-12002.398162
749.259409,-1052.841944,-2679.961312,-4651.647134
749.261875,1071.984525,-5053.641331,-13533.804626
749.264341,-1033.699363,-76.570323,-10432.706536
749.266807,382.851616,-1818.545176,-6833.901346
749.269273,76.570323,153.140646,-10279.565890
749.271739,-995.414202,2239.681954,-11849.257515
749.274206,746.560651,-516.849682,-10049.854920
749.276672,-325.423874,-401.994197,-8039.883936
749.279138,-842.273555,-1071.984525,-10547.562021
749.281604,880.558717,-4996.213589,-10585.847182
749.284070,-1091.127106,-1473.978722,-8480.163294
749.286536,976.271621,-918.843878,-10777.272990
749.289002,-2105.683888,-1186.840010,-9418.149754
749.291468,1282.552914,287.138712,-9877.571693
749.293934,478.564520,918.843878,-8805.587168
749.296400,-1091.127106,612.562586,-8633.303941
749.298866,593.420005,899.701298,-12672.388490
749.301353,325.423874,-1780.260014,-5666.203917
749.303841,-401.994197,-3560.520029,-8939.585234
749.306329,-1033.699363,-1550.549045,-16232.908518
749.308816,727.418070,-4019.941968,-3445.664544
749.311304,-57.427742,-2258.824534,-10662.417506
749.313791,-593.420005,2507.678085,-12863.814298
749.316279,440.279358,1167.697429,-3809.373579
749.318766,-1320.838075,1531.406464,-12576.675586
749.321254,574.277424,746.560651,-12614.960747
749.323741,38.285162,-2756.531635,-1512.263883
749.326229,-57.427742,-3732.803256,-15294.922059
749.328717,-133.998066,-2813.959378,-13150.953010
749.331204,-248.853550,-2890.529701,-459.421939
749.333692,-1110.269686,-344.566454,-15926.627226
749.336179,210.568389,-325.423874,-11255.837510
749.338667,1914.258080,-19.142581,-3790.230998
749.341154,-1722.832272,3751.945837,-13361.521398
749.343642,1167.697429,-1148.554848,-10777.272990
749.346129,57.427742,-669.990328,-4766.502619
749.348617,-95.712904,-1339.980656,-14184.652373
749.351105,-1607.976787,-3483.949706,-9284.151688
749.353592,1569.691626,-5398.207786,-5915.057467
749.356080,-1033.699363,76.570323,-14567.503989
749.358567,-555.134843,-191.425808,-9054.440718
749.361055,995.414202,1225.125171,-6336.194245
749.363542,-1741.974853,3809.373579,-14433.505923
749.366030,267.996131,191.425808,-7082.754896
749.368518,497.707101,-861.416136,-4115.654872
749.371005,57.427742,-4555.934230,-17458.033690
749.373493,-2067.398726,-4996.213589,-7274.180704
749.375980,2316.252277,-3081.955509,-6757.331022
749.378468,-3005.385186,229.710970,-15065.211090
749.380955,727.418070,-1339.980656,-6336.194245
749.383443,1205.982590,2852.244539,-9858.429112
749.385930,-1167.697429,2871.387120,-13935.798822
749.388418,727.418070,-459.421939,-8920.442653
749.390906,19.142581,401.994197,-7810.172966
749.393393,401.994197,-4077.369710,-10624.132344
749.395881,-1588.834206,-4919.643266,-8939.585234
749.398368,363.709035,-2124.826469,-11408.978157
749.400871,248.853550,-2871.387120,-9035.298138
749.403375,-1416.550979,440.279358,-9054.440718
749.405878,1205.982590,1952.543242,-10202.995566
749.408381,-574.277424,2163.111630,-9456.434915
749.410884,-2163.111630,3828.516160,-12212.966550
749.413387,-574.277424,325.423874,-10068.997501
749.415890,2067.398726,-5283.352301,1148.554848
749.418394,1761.117434,-6106.483275,-17534.604013
749.420897,-2584.248408,-4173.082614,-14739.787216
749.423400,1033.699363,-3330.809059,4536.791650
749.425903,612.562586,-229.710970,-16864.613685
749.428406,-1856.830338,4211.367776,-15888.342064
749.430910,1320.838075,2239.681954,1875.972918
749.433413,2201.396792,555.134843,-13323.236237
749.435916,-3522.234867,-535.992262,-15352.349802
749.438419,1856.830338,-4115.654872,-3656.232933
749.440922,1378.265818,-3809.373579,-8116.454259
749.443425,650.847747,-7503.891674,-11428.120738
749.445929,-516.849682,-3885.943902,-9743.573627
749.448432,-2392.822600,3560.520029,-11370.692995
749.450935,1780.260014,440.279358,-13514.662045
749.453438,-3043.670347,8327.022648,-4900.500685
749.455941,1818.545176,1703.689691,-7197.610381
749.458444,-478.564520,-880.558717,-15084.353670
749.460948,401.994197,-2469.392923,-4575.076811
749.463451,267.996131,-5876.772306,-12710.673651
749.465954,-1607.976787,-6642.475538,-11006.983960
749.468457,765.703232,-1550.549045,-6355.336826
749.470960,-727.418070,267.996131,-11236.694930
749.473464,459.421939,153.140646,-12710.673651
749.475967,267.996131,5149.354235,-5513.063270
749.478470,-114.855485,3139.383251,-9571.290400
749.480973,210.568389,287.138712,-12748.958813
749.483476,-803.988394,-1282.552914,-7542.176835
749.485979,669.990328,-6987.041992,-8097.311678
749.488483,-95.712904,-5340.780043,-12595.818166
749.490986,612.562586,-3292.523898,-7006.184573
749.493489,-306.281293,-3254.238736,-9858.429112
749.495992,-19.142581,2239.681954,-10700.702667
749.498495,-267.996131,5551.348432,-7159.325219
749.501010,38.285162,3024.527766,-9437.292334
749.503525,-1301.695494,1512.263883,-11179.267187
749.506040,1531.406464,-4326.223261,-8595.018779
749.508556,-440.279358,-7044.469734,-8097.311678
749.511071,-497.707101,-3771.088418,-14414.363342
749.513586,-382.851616,-3579.662610,-5761.916821
749.516101,-1129.412267,-1818.545176,-9226.723946
749.518616,2048.256146,1512.263883,-15543.775610
749.521131,-1244.267752,4594.219392,-2584.248408
749.523646,593.420005,3828.516160,-12710.673651
749.526161,-976.271621,2220.539373,-10987.841379
749.528676,306.281293,-3617.947771,-4594.219392
749.531191,-191.425808,-3790.230998,-13954.941403
749.533706,-344.566454,-5742.774240,-9896.714274
749.536221,-401.994197,-4862.215523,-6833.901346
749.538736,267.996131,-727.418070,-11830.114934
749.541251,-306.281293,3388.236802,-10088.140082
749.543766,95.712904,2756.531635,-8499.305875
749.546281,803.988394,4096.512291,-10834.700733
749.548797,-1990.828403,1263.410333,-6221.338760
749.551312,2545.963246,-7082.754896,-10796.415571
749.553827,-2411.965181,-2852.244539,-14950.355605
749.556342,325.423874,-5493.920690,-4575.076811
749.558857,76.570323,-3694.518094,-8958.727814
749.561372,-823.130974,2775.674216,-16520.047230
749.563887,823.130974,1952.543242,-3292.523898
749.566402,-210.568389,3579.662610,-9265.009107
749.568917,-133.998066,1205.982590,-15735.201418
749.571432,38.285162,-2277.967115,-2775.674216
749.573947,-267.996131,-4364.508422,-11983.255581
749.576462,-210.568389,-2909.672282,-14146.367211
749.578977,-153.140646,-4134.797453,-2928.814862
749.581492,325.423874,-1895.115499,-12844.671717
749.584007,-344.566454,2067.398726,-13074.382686
749.586522,535.992262,1129.412267,-3675.375514
749.589038,-95.712904,2565.105827,-12940.384621
749.591553,1091.127106,-191.425808,-10662.417506
749.594068,-2009.970984,-1607.976787,-3866.801322
749.596583,746.560651,-3464.807125,-17343.178205
749.599098,-382.851616,-4709.074877,-5608.776174
749.601623,-76.570323,-3503.092286,-7159.325219
749.604148,-689.132909,842.273555,-17611.174336
749.606674,19.142581,612.562586,-3407.379382
749.609199,-1110.269686,1071.984525,-8575.876198
749.611724,3081.955509,-1282.552914,-18147.166598
749.614249,-2220.539373,1416.550979,-1722.832272
749.616775,803.988394,-937.986459,-10317.851051
749.619300,-976.271621,-765.703232,-14931.213024
749.621825,-306.281293,-4498.506488,-3522.234867
749.624350,593.420005,-3885.943902,-11045.269122
749.626875,-1301.695494,-497.707101,-14222.937534
749.629401,880.558717,-2220.539373,-4957.928427
749.631926,-593.420005,1799.402595,-10547.562021
749.634451,325.423874,287.138712,-10662.417506
749.636976,861.416136,708.275490,-7982.456194
749.639502,-1454.836141,2794.816797,-11198.409768
749.642027,-76.570323,-3235.096155,-8039.883936
749.644552,746.560651,-5091.926493,-9705.288466
749.647077,-1205.982590,-535.992262,-12959.527202
749.649603,823.130974,-2277.967115,-9571.290400
749.652128,-1722.832272,-76.570323,-6278.766502
749.654653,1091.127106,210.568389,-13476.376883
749.657178,669.990328,-287.138712,-10432.706536
749.659704,-1110.269686,2775.674216,-2603.390989
749.662229,1110.269686,-172.283227,-18070.596275
749.664754,-689.132909,-2220.539373,-4843.072942
749.667279,478.564520,-2641.676150,-6757.331022
749.669805,-363.709035,-2928.814862,-16922.041427
749.672330,-612.562586,-3349.951640,-4134.797453
749.674855,937.986459,-861.416136,-10164.710405
749.677380,-937.986459,976.271621,-12959.527202
749.679906,382.851616,555.134843,-6565.905214
749.682431,-344.566454,2335.394858,-10604.989763
749.684956,19.142581,-1339.980656,-12346.964616
749.687481,38.285162,-3158.525832,-5781.059402
749.690007,57.427742,38.285162,-12768.101394
749.692532,-478.564520,-1378.265818,-9226.723946
749.695057,-1780.260014,-2143.969050,-3675.375514
749.697582,3311.666478,-4096.512291,-19142.580800
749.700108,-2660.818731,57.427742,-4670.789715
749.702639,516.849682,-325.423874,-7274.180704
749.705171,861.416136,325.423874,-16041.482710
749.707703,-1665.404530,957.129040,-4881.358104
749.710235,1205.982590,401.994197,-9360.722011
749.712767,-2756.531635,-210.568389,-13150.953010
749.715299,3024.527766,-5953.342629,-9820.143950
749.717831,-1320.838075,1282.552914,-4862.215523
749.720363,823.130974,-1435.693560,-18549.160795
749.722894,-0.000000,-1856.830338,-4900.500685
749.725426,-1071.984525,1512.263883,-7465.606512
749.727958,957.129040,-823.130974,-15103.496251
749.730490,-1263.410333,229.710970,-6125.625856
749.733022,574.277424,631.705166,-10336.993632
749.735554,382.851616,-2526.820666,-11217.552349
749.738086,-1722.832272,-1014.556782,-8250.452325
749.740617,823.130974,-574.277424,-8422.735552
749.743149,-306.281293,-2967.100024,-12270.394293
749.745681,-191.425808,-1684.547110,-7791.030386
749.748213,631.705166,191.425808,-9418.149754
749.750745,-727.418070,-344.566454,-12653.245909
749.753277,401.994197,229.710970,-7465.606512
749.755809,-421.136778,-38.285162,-7867.600709
749.758341,-172.283227,-3330.809059,-11485.548480
749.760872,2048.256146,-5302.494882,-6393.621987
749.763404,-1933.400661,-3751.945837,-8173.882002
749.765936,899.701298,-7293.323285,-14376.078181
749.768468,-650.847747,-5685.346498,-6833.901346
