#time,accel_x,accel_y,accel_z
85.129070,0.000000,-1036.288319,10436.903782
85.129378,766.095498,-1258.350101,10658.965565
85.129686,536.266849,-1036.288319,10510.924376
85.129994,1149.143247,-592.164754,9770.718434
85.130302,1532.190996,-518.144159,9622.677246
85.130610,1991.848295,-444.123565,9400.615463
85.130918,1991.848295,-296.082377,9326.594869
85.131226,2451.505594,-0.000000,9400.615463
85.131535,3064.381992,-0.000000,9030.512492
85.131843,2911.162892,-0.000000,9104.533087
85.132151,2987.772442,-296.082377,8882.471304
85.132459,2987.772442,-0.000000,8808.450710
85.132767,2528.115143,-74.020594,9326.594869
85.133075,2604.724693,-74.020594,9474.636058
85.133383,2374.896044,-222.061783,9474.636058
85.133691,2221.676944,-222.061783,9326.594869
85.133999,2221.676944,-74.020594,9696.697840
85.134307,2528.115143,518.144159,9474.636058
85.134615,2604.724693,1036.288319,9400.615463
85.134924,2604.724693,1184.329507,9548.656652
85.135232,2681.334243,1776.494261,8882.471304
85.135540,2528.115143,1776.494261,8882.471304
85.135848,2451.505594,1554.432478,9326.594869
85.136156,1838.629195,962.267725,9844.739029
85.136464,1149.143247,-0.000000,10362.883188
85.136772,459.657299,-370.102971,10362.883188
85.137080,689.485948,-370.102971,11029.068536
85.137388,842.705048,-0.000000,11103.089130
85.137696,842.705048,296.082377,10436.903782
85.138004,1685.410096,814.226536,9622.677246
85.138313,2068.457845,1480.411884,9030.512492
85.138621,2528.115143,1850.514855,8660.409521
85.138929,3447.429741,1998.556043,8660.409521
85.139237,3524.039291,2072.576638,8438.347739
85.139545,2451.505594,1036.288319,8364.327145
85.139853,2068.457845,518.144159,8956.491898
85.140161,612.876398,-0.000000,10066.800811
85.140469,0.000000,-592.164754,10584.944971
85.140777,-459.657299,-1258.350101,10732.986159
85.141085,-612.876398,-1406.391290,10955.047942
85.141394,-842.705048,-1258.350101,10881.027347
85.141702,0.000000,-814.226536,10955.047942
85.142010,842.705048,-740.205942,10066.800811
85.142318,1149.143247,-518.144159,9474.636058
85.142626,1608.800546,296.082377,8882.471304
85.142934,1685.410096,444.123565,8956.491898
85.143242,1685.410096,518.144159,8734.430116
85.143550,1072.533697,592.164754,8734.430116
85.143858,536.266849,592.164754,9474.636058
85.144166,153.219100,-518.144159,9622.677246
85.144474,689.485948,-814.226536,9992.780217
85.144783,459.657299,-1036.288319,9992.780217
85.145091,612.876398,-740.205942,9844.739029
85.145399,689.485948,-666.185348,9918.759623
85.145707,689.485948,-888.247130,9548.656652
85.146015,1072.533697,-296.082377,9622.677246
85.146323,1915.238745,-0.000000,9326.594869
85.146631,2221.676944,666.185348,8956.491898
85.146939,1915.238745,666.185348,8808.450710
85.147247,1915.238745,1110.308913,8882.471304
85.147555,1532.190996,1110.308913,8808.450710
85.147864,1225.752797,814.226536,9030.512492
85.148172,842.705048,444.123565,9400.615463
85.148480,459.657299,-0.000000,9844.739029
85.148788,612.876398,-148.041188,10362.883188
85.149096,0.000000,-222.061783,10732.986159
85.149404,0.000000,-518.144159,10955.047942
85.149712,153.219100,-740.205942,10584.944971
85.150020,459.657299,-0.000000,10510.924376
85.150328,689.485948,-0.000000,10288.862594
85.150636,919.314598,370.102971,9918.759623
85.150944,842.705048,666.185348,9474.636058
85.151253,1378.971896,814.226536,9326.594869
85.151561,1762.019645,444.123565,9400.615463
85.151869,1072.533697,814.226536,9622.677246
85.152177,1532.190996,814.226536,9400.615463
85.152485,1225.752797,814.226536,8956.491898
85.152793,995.924147,444.123565,9030.512492
85.153101,1072.533697,592.164754,9178.553681
85.153409,1149.143247,222.061783,9326.594869
85.153717,766.095498,-0.000000,9474.636058
85.154025,1225.752797,-0.000000,9770.718434
85.154333,689.485948,222.061783,9548.656652
85.154642,612.876398,518.144159,10066.800811
85.154950,536.266849,296.082377,9770.718434
85.155258,689.485948,370.102971,9548.656652
85.155566,306.438199,370.102971,9548.656652
85.155874,383.047749,296.082377,9696.697840
85.156182,689.485948,-0.000000,9918.759623
85.156490,459.657299,-222.061783,9770.718434
85.156798,766.095498,-370.102971,9992.780217
85.157106,383.047749,-222.061783,9770.718434
85.157414,383.047749,-296.082377,10066.800811
85.157723,459.657299,-222.061783,9992.780217
85.158031,383.047749,-0.000000,9770.718434
85.158339,459.657299,222.061783,9622.677246
85.158647,1072.533697,222.061783,9400.615463
85.158955,1225.752797,148.041188,9400.615463
85.159263,689.485948,740.205942,9178.553681
85.159571,689.485948,592.164754,9178.553681
85.159879,383.047749,814.226536,8660.409521
85.160187,536.266849,518.144159,9104.533087
85.160495,459.657299,518.144159,9400.615463
85.160803,766.095498,518.144159,9474.636058
85.161112,0.000000,222.061783,9992.780217
85.161420,153.219100,-222.061783,9548.656652
85.161728,-153.219100,-370.102971,9844.739029
85.162036,-689.485948,-148.041188,10214.842000
85.162344,-306.438199,-296.082377,10288.862594
85.162652,-536.266849,-148.041188,9844.739029
85.162960,-153.219100,-222.061783,9622.677246
85.163268,0.000000,-0.000000,9696.697840
85.163576,0.000000,296.082377,9844.739029
85.163884,229.828649,370.102971,9918.759623
85.164192,0.000000,592.164754,9696.697840
85.164500,0.000000,148.041188,9400.615463
85.164808,0.000000,222.061783,9474.636058
85.165116,0.000000,222.061783,9548.656652
85.165424,229.828649,148.041188,9326.594869
85.165732,229.828649,222.061783,9474.636058
85.166040,612.876398,-148.041188,9252.574275
85.166348,383.047749,-74.020594,9696.697840
85.166656,229.828649,296.082377,9474.636058
85.166964,153.219100,-0.000000,9474.636058
85.167272,153.219100,148.041188,9474.636058
85.167580,229.828649,296.082377,9696.697840
85.167888,0.000000,222.061783,9696.697840
85.168196,76.609550,148.041188,9696.697840
85.168504,76.609550,-0.000000,9918.759623
85.168811,76.609550,-74.020594,9622.677246
85.169119,383.047749,-148.041188,10066.800811
85.169427,459.657299,-148.041188,9770.718434
85.169735,459.657299,-0.000000,9696.697840
85.170043,689.485948,-0.000000,9622.677246
85.170351,536.266849,148.041188,9844.739029
85.170659,612.876398,222.061783,9770.718434
85.170967,766.095498,-296.082377,9474.636058
85.171275,995.924147,296.082377,9622.677246
85.171583,919.314598,-74.020594,9400.615463
85.171891,1532.190996,148.041188,9326.594869
85.172199,766.095498,444.123565,9252.574275
85.172507,1149.143247,444.123565,9400.615463
85.172815,1378.971896,592.164754,9252.574275
85.173123,1378.971896,444.123565,9178.553681
85.173431,1455.581446,444.123565,9548.656652
85.173739,919.314598,-0.000000,9326.594869
85.174047,1608.800546,222.061783,9548.656652
85.174355,1378.971896,370.102971,9622.677246
85.174663,1149.143247,-0.000000,9622.677246
85.174971,919.314598,370.102971,9770.718434
85.175279,1225.752797,-0.000000,9622.677246
85.175587,1072.533697,296.082377,9696.697840
85.175895,1225.752797,296.082377,9844.739029
85.176202,1072.533697,222.061783,9992.780217
85.176510,1072.533697,666.185348,9992.780217
85.176818,766.095498,370.102971,10066.800811
85.177126,995.924147,444.123565,9474.636058
85.177434,1072.533697,444.123565,9622.677246
85.177742,1149.143247,592.164754,9622.677246
85.178050,1149.143247,296.082377,9400.615463
85.178358,1149.143247,592.164754,9474.636058
85.178666,1225.752797,-0.000000,9770.718434
85.178974,1072.533697,370.102971,9622.677246
85.179282,1149.143247,222.061783,9474.636058
85.179590,1072.533697,444.123565,9622.677246
85.179898,842.705048,370.102971,9622.677246
85.180206,919.314598,296.082377,9696.697840
85.180514,689.485948,370.102971,9622.677246
85.180822,459.657299,444.123565,9992.780217
85.181130,919.314598,-74.020594,9770.718434
85.181438,1072.533697,-0.000000,9400.615463
85.181746,536.266849,-0.000000,9622.677246
85.182054,612.876398,222.061783,9400.615463
85.182362,766.095498,444.123565,9548.656652
85.182670,689.485948,-0.000000,9474.636058
85.182978,153.219100,74.020594,9622.677246
85.183286,459.657299,-0.000000,9474.636058
85.183593,459.657299,-0.000000,9696.697840
85.183901,306.438199,-222.061783,9326.594869
85.184209,306.438199,296.082377,9474.636058
85.184517,229.828649,-0.000000,9474.636058
85.184825,383.047749,-0.000000,9548.656652
85.185133,229.828649,-0.000000,9474.636058
85.185441,229.828649,-0.000000,9696.697840
85.185749,0.000000,-0.000000,9474.636058
85.186057,383.047749,-0.000000,9844.739029
85.186365,0.000000,370.102971,9992.780217
85.186673,229.828649,-0.000000,9696.697840
85.186981,153.219100,-0.000000,9474.636058
85.187289,306.438199,-0.000000,9622.677246
85.187597,229.828649,-0.000000,9622.677246
85.187905,919.314598,-0.000000,9548.656652
85.188213,229.828649,-0.000000,9548.656652
85.188521,306.438199,148.041188,9770.718434
85.188829,689.485948,-0.000000,9548.656652
85.189137,0.000000,222.061783,9918.759623
85.189445,306.438199,370.102971,9548.656652
85.189753,459.657299,370.102971,9474.636058
85.190061,229.828649,296.082377,9474.636058
85.190369,536.266849,296.082377,9622.677246
85.190677,459.657299,444.123565,9474.636058
85.190985,536.266849,74.020594,9770.718434
85.191292,689.485948,296.082377,9770.718434
85.191600,459.657299,148.041188,9622.677246
85.191908,306.438199,444.123565,9696.697840
85.192216,383.047749,-0.000000,9548.656652
85.192524,306.438199,222.061783,9844.739029
85.192832,459.657299,-296.082377,9622.677246
85.193140,536.266849,-0.000000,9918.759623
85.193448,612.876398,222.061783,9400.615463
85.193756,842.705048,-0.000000,9622.677246
85.194064,306.438199,-0.000000,9622.677246
85.194372,612.876398,-0.000000,9622.677246
85.194680,842.705048,444.123565,9548.656652
85.194988,919.314598,370.102971,9474.636058
85.195296,1149.143247,-0.000000,9474.636058
85.195604,1072.533697,296.082377,9326.594869
85.195912,919.314598,444.123565,9770.718434
85.196220,1225.752797,296.082377,9178.553681
85.196528,1149.143247,370.102971,9548.656652
85.196836,689.485948,370.102971,9696.697840
85.197144,842.705048,222.061783,9622.677246
85.197452,919.314598,296.082377,9474.636058
85.197760,919.314598,296.082377,9696.697840
85.198068,919.314598,-0.000000,9548.656652
85.198376,766.095498,-0.000000,9474.636058
85.198683,612.876398,518.144159,9918.759623
85.198991,536.266849,-0.000000,9622.677246
85.199299,612.876398,222.061783,9696.697840
85.199607,689.485948,-0.000000,9992.780217
85.199915,536.266849,-0.000000,9770.718434
85.200223,919.314598,-0.000000,9696.697840
85.200531,995.924147,-0.000000,9622.677246
85.200839,612.876398,296.082377,9992.780217
85.201147,1072.533697,444.123565,9992.780217
85.201455,995.924147,-0.000000,9178.553681
85.201763,1225.752797,370.102971,9474.636058
85.202071,842.705048,-0.000000,9548.656652
85.202379,919.314598,148.041188,9104.533087
85.202687,766.095498,444.123565,9400.615463
85.202995,842.705048,-0.000000,9326.594869
85.203303,689.485948,-74.020594,9474.636058
85.203611,689.485948,-0.000000,9474.636058
85.203919,842.705048,-0.000000,9400.615463
85.204227,689.485948,296.082377,9474.636058
85.204535,842.705048,296.082377,9548.656652
85.204843,919.314598,148.041188,9696.697840
85.205151,842.705048,-0.000000,9474.636058
85.205459,766.095498,-0.000000,9622.677246
85.205767,766.095498,-148.041188,9622.677246
85.206074,612.876398,-296.082377,9474.636058
85.206382,536.266849,-0.000000,9400.615463
85.206690,612.876398,222.061783,9622.677246
85.206998,536.266849,222.061783,9474.636058
85.207306,459.657299,-0.000000,9474.636058
85.207614,842.705048,-74.020594,9326.594869
85.207922,536.266849,-0.000000,9548.656652
85.208230,919.314598,-0.000000,9992.780217
85.208538,919.314598,-0.000000,9918.759623
85.208846,459.657299,296.082377,9474.636058
85.209154,689.485948,518.144159,9474.636058
85.209462,536.266849,370.102971,9400.615463
85.209770,689.485948,444.123565,9474.636058
85.210078,612.876398,-0.000000,9622.677246
85.210386,689.485948,-0.000000,9844.739029
85.210694,536.266849,444.123565,9696.697840
85.211002,536.266849,222.061783,9844.739029
85.211310,76.609550,-0.000000,9548.656652
85.211618,153.219100,-0.000000,9474.636058
85.211926,383.047749,148.041188,9696.697840
85.212234,229.828649,-0.000000,9770.718434
85.212542,383.047749,-0.000000,9918.759623
85.212850,536.266849,-0.000000,9622.677246
85.213158,0.000000,370.102971,10066.800811
85.213465,536.266849,370.102971,9918.759623
85.213773,612.876398,592.164754,9474.636058
85.214081,459.657299,740.205942,9474.636058
85.214389,612.876398,666.185348,9474.636058
85.214697,612.876398,370.102971,9326.594869
85.215005,0.000000,-0.000000,9844.739029
85.215313,-229.828649,-0.000000,9770.718434
85.215621,306.438199,-0.000000,9992.780217
85.215929,153.219100,-148.041188,9844.739029
85.216237,229.828649,-0.000000,9622.677246
85.216545,153.219100,148.041188,9696.697840
85.216853,306.438199,148.041188,9696.697840
85.217161,229.828649,148.041188,9622.677246
85.217469,766.095498,370.102971,9474.636058
85.217777,1072.533697,592.164754,9696.697840
85.218085,919.314598,518.144159,9548.656652
85.218393,536.266849,-0.000000,9474.636058
85.218701,459.657299,222.061783,9622.677246
85.219009,459.657299,370.102971,9696.697840
85.219317,306.438199,-0.000000,9770.718434
85.219625,229.828649,-0.000000,9918.759623
85.219933,153.219100,-74.020594,9844.739029
85.220241,306.438199,-148.041188,9622.677246
85.220549,306.438199,370.102971,10066.800811
85.220856,153.219100,-74.020594,9178.553681
85.221164,383.047749,-0.000000,9622.677246
85.221472,536.266849,370.102971,9400.615463
85.221780,536.266849,222.061783,9326.594869
85.222088,536.266849,370.102971,9474.636058
85.222396,766.095498,592.164754,9400.615463
85.222704,612.876398,222.061783,9104.533087
85.223012,842.705048,592.164754,9252.574275
85.223320,995.924147,592.164754,9474.636058
85.223628,612.876398,222.061783,9548.656652
85.223936,229.828649,-0.000000,9770.718434
85.224244,229.828649,-0.000000,9770.718434
85.224552,153.219100,-148.041188,9622.677246
85.224860,383.047749,-666.185348,9770.718434
85.225168,766.095498,-0.000000,9992.780217
85.225476,612.876398,-74.020594,9770.718434
85.225784,612.876398,148.041188,9622.677246
85.226092,536.266849,296.082377,9548.656652
85.226400,766.095498,370.102971,9474.636058
85.226708,842.705048,370.102971,9548.656652
85.227016,459.657299,148.041188,9474.636058
85.227324,995.924147,-0.000000,9474.636058
85.227632,919.314598,-74.020594,9400.615463
85.227940,995.924147,-0.000000,9548.656652
85.228248,612.876398,-0.000000,9696.697840
85.228555,766.095498,-0.000000,9474.636058
85.228863,766.095498,-0.000000,9474.636058
85.229171,919.314598,296.082377,9474.636058
85.229479,842.705048,-0.000000,9474.636058
85.229787,995.924147,74.020594,9474.636058
85.230095,1149.143247,222.061783,9326.594869
85.230403,1149.143247,-0.000000,9548.656652
85.230711,612.876398,-0.000000,9474.636058
85.231019,919.314598,148.041188,9696.697840
85.231327,842.705048,296.082377,9474.636058
85.231635,612.876398,296.082377,9696.697840
85.231943,689.485948,222.061783,9992.780217
85.232251,842.705048,148.041188,9474.636058
85.232559,689.485948,-0.000000,9548.656652
85.232867,1532.190996,296.082377,9474.636058
85.233175,766.095498,-0.000000,9548.656652
85.233483,995.924147,370.102971,9844.739029
85.233791,842.705048,296.082377,9548.656652
85.234099,919.314598,370.102971,9474.636058
85.234407,1225.752797,222.061783,9474.636058
85.234715,1378.971896,444.123565,9770.718434
85.235023,1225.752797,222.061783,9474.636058
85.235331,1455.581446,370.102971,9696.697840
85.235639,995.924147,370.102971,9770.718434
85.235946,689.485948,370.102971,9622.677246
85.236254,919.314598,-0.000000,9844.739029
85.236562,766.095498,222.061783,9548.656652
85.236870,1072.533697,-296.082377,9696.697840
85.237178,1072.533697,-0.000000,9918.759623
85.237486,1149.143247,148.041188,9844.739029
85.237794,1149.143247,-222.061783,9622.677246
85.238102,766.095498,444.123565,9696.697840
85.238410,842.705048,444.123565,9548.656652
85.238718,919.314598,592.164754,9548.656652
85.239026,995.924147,592.164754,9548.656652
85.239334,689.485948,148.041188,9104.533087
85.239642,766.095498,-0.000000,9770.718434
85.239950,689.485948,-0.000000,9918.759623
85.240258,689.485948,-148.041188,9474.636058
85.240566,536.266849,74.020594,9844.739029
85.240874,536.266849,-74.020594,9696.697840
85.241182,536.266849,296.082377,9622.677246
85.241490,383.047749,296.082377,9770.718434
85.241798,766.095498,-0.000000,9770.718434
85.242106,459.657299,-0.000000,9474.636058
85.242414,995.924147,222.061783,9770.718434
85.242722,689.485948,148.041188,9252.574275
85.243030,459.657299,370.102971,9622.677246
85.243337,383.047749,370.102971,9548.656652
85.243645,306.438199,222.061783,9474.636058
85.243953,459.657299,-0.000000,9622.677246
85.244261,383.047749,-0.000000,9770.718434
85.244569,0.000000,-148.041188,9770.718434
85.244877,306.438199,-0.000000,9548.656652
85.245185,689.485948,-0.000000,9992.780217
85.245493,229.828649,222.061783,9474.636058
85.245801,383.047749,-0.000000,9622.677246
85.246109,536.266849,-0.000000,9622.677246
85.246417,459.657299,444.123565,9474.636058
85.246725,612.876398,222.061783,9622.677246
85.247033,153.219100,444.123565,9548.656652
85.247341,306.438199,296.082377,9548.656652
85.247649,459.657299,296.082377,9474.636058
85.247957,383.047749,296.082377,9474.636058
85.248265,842.705048,222.061783,9474.636058
85.248573,306.438199,222.061783,9622.677246
85.248881,306.438199,222.061783,9992.780217
85.249189,459.657299,-0.000000,9770.718434
85.249497,306.438199,-296.082377,9918.759623
85.249805,229.828649,-148.041188,9844.739029
85.250113,306.438199,-0.000000,9992.780217
85.250421,76.609550,-0.000000,9770.718434
85.250728,766.095498,370.102971,9770.718434
85.251036,536.266849,296.082377,9474.636058
85.251344,306.438199,296.082377,9474.636058
85.251652,76.609550,-74.020594,9548.656652
85.251960,995.924147,296.082377,9474.636058
85.252268,76.609550,-0.000000,9770.718434
85.252576,229.828649,-0.000000,9400.615463
85.252884,536.266849,-0.000000,9400.615463
85.253192,766.095498,296.082377,9622.677246
85.253500,612.876398,296.082377,9622.677246
85.253808,612.876398,148.041188,9474.636058
85.254116,919.314598,-0.000000,9548.656652
85.254424,1302.362347,-0.000000,9844.739029
85.254732,1225.752797,444.123565,9844.739029
85.255040,1072.533697,-0.000000,9548.656652
85.255348,612.876398,74.020594,9474.636058
85.255656,1149.143247,148.041188,9474.636058
85.255964,612.876398,296.082377,9548.656652
85.256272,919.314598,296.082377,9696.697840
85.256580,766.095498,-444.123565,9474.636058
85.256888,689.485948,-0.000000,9918.759623
85.257196,766.095498,-0.000000,9696.697840
85.257504,1149.143247,-74.020594,9548.656652
85.257812,919.314598,222.061783,9400.615463
85.258119,689.485948,296.082377,9548.656652
85.258427,766.095498,222.061783,9548.656652
85.258735,612.876398,222.061783,9696.697840
85.259043,1072.533697,-0.000000,9622.677246
85.259351,689.485948,222.061783,9696.697840
85.259659,536.266849,444.123565,9844.739029
85.259967,919.314598,370.102971,9770.718434
85.260275,689.485948,148.041188,9770.718434
85.260583,766.095498,222.061783,9696.697840
85.260891,612.876398,444.123565,9474.636058
85.261199,766.095498,148.041188,9622.677246
85.261507,766.095498,-0.000000,9622.677246
85.261815,766.095498,518.144159,9770.718434
85.262123,612.876398,296.082377,9696.697840
85.262431,536.266849,-0.000000,9622.677246
85.262739,536.266849,296.082377,9844.739029
85.263047,612.876398,296.082377,9400.615463
85.263355,459.657299,222.061783,9548.656652
85.263663,536.266849,518.144159,9696.697840
85.263971,612.876398,-0.000000,9844.739029
85.264279,689.485948,-0.000000,9548.656652
85.264587,76.609550,-0.000000,9252.574275
85.264895,612.876398,-0.000000,9474.636058
85.265203,153.219100,296.082377,9474.636058
85.265511,229.828649,370.102971,9770.718434
85.265818,306.438199,-0.000000,9696.697840
85.266126,306.438199,370.102971,9696.697840
85.266434,383.047749,-74.020594,10066.800811
85.266742,153.219100,-148.041188,10214.842000
85.267050,383.047749,-444.123565,9992.780217
85.267358,229.828649,-74.020594,9622.677246
85.267666,0.000000,-0.000000,9844.739029
85.267974,229.828649,-0.000000,9770.718434
85.268282,153.219100,148.041188,9622.677246
85.268590,229.828649,296.082377,9474.636058
85.268898,1072.533697,296.082377,9770.718434
85.269206,383.047749,-0.000000,9770.718434
85.269514,459.657299,-74.020594,9844.739029
85.269822,612.876398,-0.000000,9474.636058
85.270130,612.876398,518.144159,9474.636058
85.270438,536.266849,370.102971,9474.636058
85.270746,536.266849,444.123565,9474.636058
85.271054,689.485948,370.102971,9474.636058
85.271362,689.485948,370.102971,9474.636058
85.271670,536.266849,148.041188,9696.697840
85.271978,536.266849,74.020594,9252.574275
85.272286,229.828649,-0.000000,9622.677246
85.272594,459.657299,-0.000000,9622.677246
85.272902,383.047749,222.061783,9474.636058
85.273209,459.657299,296.082377,9696.697840
85.273517,536.266849,148.041188,9770.718434
85.273825,995.924147,-148.041188,9696.697840
85.274133,536.266849,-74.020594,9992.780217
85.274441,689.485948,-0.000000,9918.759623
85.274749,229.828649,222.061783,9548.656652
85.275057,536.266849,-0.000000,9696.697840
85.275365,383.047749,-0.000000,9622.677246
85.275673,766.095498,222.061783,9474.636058
85.275981,919.314598,222.061783,9474.636058
85.276289,842.705048,296.082377,9548.656652
85.276597,919.314598,74.020594,9400.615463
85.276905,1378.971896,-0.000000,9696.697840
85.277213,766.095498,296.082377,9474.636058
85.277521,766.095498,296.082377,9400.615463
85.277829,766.095498,-0.000000,9548.656652
85.278137,689.485948,-0.000000,9696.697840
85.278445,536.266849,-0.000000,9548.656652
85.278753,1225.752797,222.061783,9992.780217
85.279061,919.314598,-74.020594,9696.697840
85.279369,383.047749,222.061783,9696.697840
85.279677,842.705048,-0.000000,9770.718434
85.279985,383.047749,296.082377,9474.636058
85.280293,842.705048,-0.000000,9474.636058
85.280600,919.314598,-0.000000,9474.636058
85.280908,842.705048,-0.000000,9474.636058
85.281216,612.876398,-74.020594,9770.718434
85.281524,1072.533697,-0.000000,10066.800811
85.281832,766.095498,-0.000000,9992.780217
85.282140,536.266849,-0.000000,9622.677246
85.282448,919.314598,222.061783,9474.636058
85.282756,919.314598,148.041188,9400.615463
85.283064,842.705048,296.082377,9474.636058
85.283372,1149.143247,148.041188,9474.636058
85.283680,1225.752797,222.061783,9548.656652
85.283988,1072.533697,-0.000000,9474.636058
85.284296,919.314598,-0.000000,9474.636058
85.284604,1072.533697,-0.000000,9400.615463
85.284912,842.705048,-0.000000,9548.656652
85.285220,766.095498,444.123565,9622.677246
85.285528,766.095498,444.123565,9770.718434
85.285836,766.095498,-0.000000,9844.739029
85.286144,306.438199,-222.061783,10140.821405
85.286452,612.876398,-0.000000,9918.759623
85.286760,919.314598,-0.000000,9548.656652
85.287068,766.095498,-0.000000,9474.636058
85.287376,689.485948,-0.000000,9622.677246
85.287684,459.657299,222.061783,9696.697840
85.287991,919.314598,-0.000000,9548.656652
85.288299,1225.752797,222.061783,9400.615463
85.288607,919.314598,444.123565,9474.636058
85.288915,766.095498,296.082377,9696.697840
85.289223,459.657299,444.123565,9548.656652
85.289531,1149.143247,444.123565,9548.656652
85.289839,919.314598,222.061783,9474.636058
85.290147,766.095498,370.102971,9548.656652
85.290455,612.876398,444.123565,9474.636058
85.290763,612.876398,296.082377,9474.636058
85.291071,536.266849,-0.000000,9474.636058
85.291379,995.924147,-0.000000,9622.677246
85.291687,995.924147,222.061783,9844.739029
85.291995,0.000000,518.144159,9844.739029
85.292303,383.047749,-0.000000,9622.677246
85.292611,459.657299,-0.000000,9918.759623
85.292919,383.047749,148.041188,9918.759623
85.293227,229.828649,296.082377,9992.780217
85.293535,612.876398,148.041188,9992.780217
85.293843,995.924147,-0.000000,9696.697840
85.294151,689.485948,-0.000000,9622.677246
85.294459,612.876398,-74.020594,9770.718434
85.294767,612.876398,296.082377,9474.636058
85.295074,842.705048,370.102971,9474.636058
85.295382,1072.533697,370.102971,9400.615463
85.295690,842.705048,444.123565,9252.574275
85.295998,1225.752797,222.061783,9252.574275
85.296306,1149.143247,666.185348,9252.574275
85.296614,1072.533697,518.144159,9178.553681
85.296922,689.485948,148.041188,9474.636058
85.297230,689.485948,444.123565,9548.656652
85.297538,536.266849,-0.000000,9696.697840
85.297846,689.485948,296.082377,9696.697840
85.298154,0.000000,-0.000000,9548.656652
85.298462,76.609550,-148.041188,9474.636058
85.298770,536.266849,-0.000000,9992.780217
85.299078,229.828649,-74.020594,9844.739029
85.299386,459.657299,-0.000000,9548.656652
85.299694,459.657299,148.041188,9622.677246
85.300002,306.438199,222.061783,9770.718434
85.300310,842.705048,296.082377,9844.739029
85.300618,1302.362347,-0.000000,9474.636058
85.300926,689.485948,296.082377,9104.533087
85.301234,536.266849,814.226536,9696.697840
85.301542,766.095498,222.061783,9622.677246
85.301850,459.657299,222.061783,9548.656652
85.302158,536.266849,-0.000000,9326.594869
85.302465,536.266849,370.102971,9400.615463
85.302773,536.266849,-0.000000,9474.636058
85.303081,612.876398,-222.061783,9696.697840
85.303389,766.095498,-0.000000,9326.594869
85.303697,459.657299,370.102971,9030.512492
85.304005,612.876398,888.247130,9696.697840
85.304313,766.095498,296.082377,9474.636058
85.304621,842.705048,296.082377,9548.656652
85.304929,689.485948,296.082377,9474.636058
85.305237,459.657299,222.061783,9474.636058
85.305545,153.219100,-0.000000,9696.697840
85.305853,229.828649,-444.123565,9770.718434
85.306161,612.876398,-148.041188,9770.718434
85.306469,383.047749,-0.000000,9992.780217
85.306777,76.609550,-0.000000,9622.677246
85.307085,306.438199,-74.020594,9918.759623
85.307393,612.876398,-0.000000,9622.677246
85.307701,536.266849,-0.000000,9400.615463
85.308009,919.314598,444.123565,9474.636058
85.308317,689.485948,518.144159,9622.677246
85.308625,1149.143247,222.061783,9844.739029
85.308933,1225.752797,518.144159,9474.636058
85.309241,995.924147,518.144159,9326.594869
85.309549,1225.752797,444.123565,9252.574275
85.309856,689.485948,518.144159,9474.636058
85.310164,612.876398,518.144159,9474.636058
85.310472,459.657299,222.061783,9474.636058
85.310780,612.876398,-0.000000,9696.697840
85.311088,153.219100,-0.000000,9770.718434
85.311396,0.000000,-222.061783,9770.718434
85.311704,459.657299,-0.000000,9622.677246
85.312012,383.047749,-0.000000,9696.697840
85.312320,459.657299,-0.000000,10140.821405
85.312628,306.438199,-0.000000,9918.759623
85.312936,306.438199,444.123565,9844.739029
85.313244,842.705048,222.061783,9622.677246
85.313552,1532.190996,444.123565,9696.697840
85.313860,842.705048,666.185348,9918.759623
85.314168,919.314598,518.144159,9474.636058
85.314476,766.095498,370.102971,9252.574275
85.314784,766.095498,296.082377,9474.636058
85.315092,689.485948,148.041188,9770.718434
85.315400,383.047749,-0.000000,9918.759623
85.315708,536.266849,370.102971,9844.739029
85.316016,76.609550,-0.000000,9548.656652
85.316324,919.314598,-0.000000,9622.677246
85.316632,689.485948,296.082377,9474.636058
85.316940,689.485948,370.102971,9474.636058
85.317247,612.876398,296.082377,9474.636058
85.317555,536.266849,444.123565,9548.656652
85.317863,612.876398,370.102971,9696.697840
85.318171,306.438199,-0.000000,9548.656652
85.318479,1072.533697,518.144159,9696.697840
85.318787,536.266849,-74.020594,9918.759623
85.319095,153.219100,-0.000000,9844.739029
85.319403,306.438199,-0.000000,9844.739029
85.319711,306.438199,-0.000000,9770.718434
85.320019,229.828649,-0.000000,9918.759623
85.320327,153.219100,-0.000000,9918.759623
85.320635,459.657299,-0.000000,9548.656652
85.320943,153.219100,-148.041188,9918.759623
85.321251,766.095498,444.123565,9474.636058
85.321559,766.095498,370.102971,9474.636058
85.321867,689.485948,370.102971,9400.615463
85.322175,689.485948,444.123565,9474.636058
85.322483,536.266849,518.144159,9474.636058
85.322791,842.705048,518.144159,9104.533087
85.323099,1149.143247,148.041188,9178.553681
85.323407,612.876398,296.082377,9844.739029
85.323715,306.438199,-0.000000,9622.677246
85.324023,306.438199,-0.000000,9696.697840
85.324331,153.219100,-0.000000,9770.718434
85.324638,0.000000,-74.020594,9992.780217
85.324946,459.657299,-0.000000,9918.759623
85.325254,0.000000,-148.041188,10140.821405
85.325562,76.609550,-74.020594,9770.718434
85.325870,459.657299,-0.000000,9696.697840
85.326178,536.266849,148.041188,9770.718434
85.326486,536.266849,148.041188,9474.636058
85.326794,689.485948,592.164754,9400.615463
85.327102,842.705048,296.082377,9252.574275
85.327410,919.314598,222.061783,9104.533087
85.327718,306.438199,74.020594,9474.636058
85.328026,459.657299,296.082377,9844.739029
85.328334,766.095498,-0.000000,9696.697840
85.328642,229.828649,-74.020594,9548.656652
85.328950,229.828649,-0.000000,9696.697840
85.329258,612.876398,148.041188,9622.677246
85.329566,612.876398,296.082377,9474.636058
85.329874,919.314598,148.041188,9548.656652
85.330182,919.314598,-0.000000,9696.697840
85.330490,536.266849,222.061783,9992.780217
85.330798,536.266849,-0.000000,9770.718434
85.331106,919.314598,-0.000000,9548.656652
85.331414,612.876398,-0.000000,9696.697840
85.331722,689.485948,-0.000000,9696.697840
85.332029,383.047749,-0.000000,9770.718434
85.332337,459.657299,296.082377,9696.697840
85.332645,919.314598,-74.020594,9548.656652
85.332953,1072.533697,444.123565,9844.739029
85.333261,1072.533697,-0.000000,9696.697840
85.333569,766.095498,296.082377,9474.636058
85.333877,919.314598,518.144159,9474.636058
85.334185,842.705048,666.185348,9252.574275
85.334493,1072.533697,592.164754,9474.636058
85.334801,919.314598,518.144159,9400.615463
85.335109,689.485948,370.102971,9474.636058
85.335417,919.314598,148.041188,9770.718434
85.335725,766.095498,-0.000000,9918.759623
85.336033,459.657299,-0.000000,9992.780217
85.336341,536.266849,-0.000000,9844.739029
85.336649,536.266849,-0.000000,9622.677246
85.336957,612.876398,-222.061783,9696.697840
85.337265,766.095498,-148.041188,9770.718434
85.337573,919.314598,148.041188,9622.677246
85.337881,459.657299,-0.000000,9696.697840
85.338189,919.314598,-222.061783,9400.615463
85.338497,1149.143247,296.082377,9400.615463
85.338805,919.314598,444.123565,9474.636058
85.339113,1149.143247,444.123565,9548.656652
85.339420,995.924147,370.102971,9474.636058
85.339728,1149.143247,222.061783,9326.594869
85.340036,842.705048,-0.000000,9770.718434
85.340344,536.266849,148.041188,9400.615463
85.340652,612.876398,148.041188,9474.636058
85.340960,383.047749,-0.000000,9548.656652
85.341268,612.876398,222.061783,9622.677246
85.341576,689.485948,296.082377,9622.677246
85.341884,689.485948,148.041188,9622.677246
85.342192,842.705048,-222.061783,9696.697840
85.342500,612.876398,-0.000000,9622.677246
85.342808,612.876398,222.061783,9770.718434
85.343116,842.705048,-0.000000,9844.739029
85.343424,536.266849,-0.000000,9474.636058
85.343732,612.876398,-0.000000,9548.656652
85.344040,766.095498,148.041188,9918.759623
85.344348,842.705048,-0.000000,9622.677246
85.344656,1072.533697,-0.000000,9548.656652
85.344964,1072.533697,148.041188,9474.636058
85.345272,689.485948,-0.000000,9400.615463
85.345580,766.095498,-0.000000,9696.697840
85.345888,919.314598,-0.000000,9548.656652
85.346196,842.705048,-0.000000,9474.636058
85.346504,459.657299,-0.000000,9474.636058
85.346811,459.657299,-0.000000,9252.574275
85.347119,536.266849,-0.000000,9474.636058
85.347427,536.266849,222.061783,9622.677246
85.347735,612.876398,-0.000000,9178.553681
85.348043,1225.752797,-0.000000,9400.615463
85.348351,229.828649,296.082377,9474.636058
85.348659,689.485948,148.041188,9548.656652
85.348967,383.047749,148.041188,9770.718434
85.349275,536.266849,-0.000000,9696.697840
85.349583,459.657299,296.082377,9770.718434
85.349891,76.609550,370.102971,9844.739029
85.350199,459.657299,222.061783,10288.862594
85.350507,612.876398,-222.061783,9770.718434
85.350815,383.047749,-0.000000,9770.718434
85.351123,306.438199,-0.000000,9548.656652
85.351431,306.438199,222.061783,9770.718434
85.351739,459.657299,222.061783,9474.636058
85.352047,689.485948,-0.000000,9400.615463
85.352355,766.095498,-0.000000,9548.656652
85.352663,612.876398,370.102971,9104.533087
85.352971,842.705048,222.061783,9622.677246
85.353279,612.876398,518.144159,9548.656652
85.353587,919.314598,444.123565,9400.615463
85.353895,459.657299,-0.000000,9474.636058
85.354202,229.828649,296.082377,9696.697840
85.354510,536.266849,-0.000000,9622.677246
85.354818,383.047749,-0.000000,9548.656652
85.355126,383.047749,-0.000000,9696.697840
85.355434,689.485948,-0.000000,9770.718434
85.355742,459.657299,-0.000000,9770.718434
85.356050,612.876398,-0.000000,9622.677246
85.356358,612.876398,-0.000000,9696.697840
85.356666,766.095498,-0.000000,9474.636058
85.356974,919.314598,222.061783,9548.656652
85.357282,612.876398,-0.000000,9770.718434
85.357590,536.266849,-0.000000,9992.780217
85.357898,459.657299,-0.000000,9622.677246
85.358206,612.876398,-0.000000,9474.636058
85.358514,689.485948,444.123565,9474.636058
85.358822,766.095498,370.102971,9474.636058
85.359130,842.705048,444.123565,9474.636058
85.359438,1302.362347,222.061783,9474.636058
85.359746,459.657299,296.082377,9548.656652
85.360054,306.438199,148.041188,9844.739029
85.360362,536.266849,296.082377,9548.656652
85.360670,383.047749,222.061783,9474.636058
85.360978,383.047749,296.082377,9696.697840
85.361286,536.266849,148.041188,9474.636058
85.361593,306.438199,148.041188,9844.739029
85.361901,0.000000,148.041188,9770.718434
85.362209,1072.533697,-0.000000,9474.636058
85.362517,536.266849,-0.000000,9992.780217
85.362825,383.047749,-0.000000,9548.656652
85.363133,612.876398,-74.020594,9622.677246
85.363441,536.266849,148.041188,9548.656652
85.363749,689.485948,296.082377,9326.594869
85.364057,536.266849,-0.000000,9474.636058
85.364365,536.266849,-0.000000,9622.677246
85.364673,612.876398,-0.000000,9474.636058
85.364981,689.485948,-0.000000,9548.656652
85.365289,383.047749,222.061783,9622.677246
85.365597,612.876398,296.082377,9548.656652
85.365905,536.266849,296.082377,9548.656652
85.366213,612.876398,296.082377,9474.636058
85.366521,459.657299,370.102971,9548.656652
85.366829,459.657299,-0.000000,9622.677246
85.367137,612.876398,-148.041188,9918.759623
85.367445,383.047749,222.061783,9622.677246
85.367753,536.266849,148.041188,9770.718434
85.368061,536.266849,-0.000000,9696.697840
85.368369,459.657299,148.041188,9548.656652
85.368677,306.438199,-0.000000,9622.677246
85.368985,383.047749,-0.000000,9918.759623
85.369293,459.657299,-0.000000,9548.656652
85.369601,612.876398,222.061783,9770.718434
85.369909,766.095498,148.041188,9622.677246
85.370217,766.095498,-0.000000,9548.656652
85.370525,612.876398,222.061783,9474.636058
85.370833,766.095498,222.061783,9400.615463
85.371141,766.095498,518.144159,9474.636058
85.371449,766.095498,518.144159,9474.636058
85.371757,842.705048,-0.000000,9252.574275
85.372065,1302.362347,-0.000000,9030.512492
85.372373,842.705048,-0.000000,9474.636058
85.372681,842.705048,222.061783,9696.697840
85.372989,689.485948,296.082377,9548.656652
85.373297,612.876398,-0.000000,9622.677246
85.373605,612.876398,-0.000000,9696.697840
85.373913,459.657299,-0.000000,9696.697840
85.374221,689.485948,-0.000000,9474.636058
85.374529,842.705048,-0.000000,9770.718434
85.374837,612.876398,-74.020594,9918.759623
85.375145,612.876398,-148.041188,9474.636058
85.375453,536.266849,148.041188,9844.739029
85.375761,842.705048,222.061783,9474.636058
85.376069,842.705048,370.102971,9548.656652
85.376377,689.485948,296.082377,9474.636058
85.376685,766.095498,-0.000000,9548.656652
85.376993,919.314598,-74.020594,9400.615463
85.377301,689.485948,-0.000000,9770.718434
85.377608,919.314598,-0.000000,9474.636058
85.377916,689.485948,-0.000000,9622.677246
85.378224,995.924147,296.082377,9474.636058
85.378532,689.485948,222.061783,9474.636058
85.378840,766.095498,296.082377,9548.656652
85.379148,612.876398,148.041188,9770.718434
85.379456,689.485948,222.061783,9696.697840
85.379764,459.657299,-0.000000,9548.656652
85.380072,1302.362347,222.061783,9696.697840
85.380380,689.485948,-0.000000,9770.718434
85.380688,536.266849,-0.000000,9844.739029
85.380996,536.266849,-0.000000,9622.677246
85.381304,229.828649,-0.000000,9696.697840
85.381612,306.438199,-74.020594,9548.656652
85.381920,1072.533697,148.041188,9844.739029
85.382228,612.876398,-0.000000,9474.636058
85.382536,766.095498,222.061783,9622.677246
85.382844,766.095498,296.082377,9474.636058
85.383152,766.095498,222.061783,9474.636058
85.383460,766.095498,444.123565,9400.615463
85.383768,766.095498,296.082377,9474.636058
85.384076,995.924147,370.102971,9400.615463
85.384384,459.657299,-0.000000,9622.677246
85.384692,536.266849,-0.000000,9770.718434
85.385000,766.095498,-74.020594,9474.636058
85.385308,306.438199,296.082377,9622.677246
85.385616,383.047749,-0.000000,9844.739029
85.385924,459.657299,-0.000000,9548.656652
85.386232,766.095498,-0.000000,9548.656652
85.386540,383.047749,-0.000000,9844.739029
85.386848,383.047749,-0.000000,9622.677246
85.387156,459.657299,-0.000000,9474.636058
85.387464,459.657299,-0.000000,9696.697840
85.387772,919.314598,296.082377,9622.677246
85.388080,766.095498,148.041188,9696.697840
85.388388,612.876398,370.102971,9474.636058
85.388696,766.095498,296.082377,9474.636058
85.389004,995.924147,222.061783,9696.697840
85.389312,459.657299,-0.000000,9622.677246
85.389620,1378.971896,296.082377,9696.697840
85.389928,536.266849,-0.000000,9696.697840
85.390236,842.705048,-0.000000,9622.677246
85.390544,612.876398,-0.000000,9474.636058
85.390852,919.314598,296.082377,9474.636058
85.391160,919.314598,296.082377,9622.677246
85.391468,1149.143247,-0.000000,9474.636058
85.391776,459.657299,-0.000000,9548.656652
85.392084,689.485948,222.061783,9992.780217
85.392392,306.438199,-148.041188,9844.739029
85.392700,536.266849,296.082377,9474.636058
85.393008,612.876398,-0.000000,9696.697840
85.393316,383.047749,-0.000000,9696.697840
85.393624,612.876398,-0.000000,9696.697840
85.393932,459.657299,-0.000000,9992.780217
85.394240,842.705048,-222.061783,9992.780217
85.394548,383.047749,-0.000000,9918.759623
85.394856,306.438199,-74.020594,9696.697840
85.395164,766.095498,-0.000000,9400.615463
85.395472,842.705048,370.102971,9474.636058
85.395780,1072.533697,370.102971,9326.594869
85.396088,1225.752797,592.164754,9326.594869
85.396395,1532.190996,592.164754,9474.636058
85.396703,1455.581446,148.041188,9400.615463
85.397011,1072.533697,-296.082377,9252.574275
85.397319,689.485948,148.041188,9548.656652
85.397627,536.266849,148.041188,9622.677246
85.397935,766.095498,-0.000000,9770.718434
85.398243,153.219100,-0.000000,9770.718434
85.398551,229.828649,74.020594,9770.718434
85.398859,536.266849,-222.061783,9252.574275
85.399167,689.485948,-0.000000,9992.780217
85.399475,459.657299,-0.000000,9770.718434
85.399783,306.438199,-444.123565,9548.656652
85.400091,306.438199,148.041188,9548.656652
85.400399,459.657299,-0.000000,9696.697840
85.400707,612.876398,148.041188,9474.636058
85.401015,612.876398,592.164754,9474.636058
85.401323,766.095498,-0.000000,9474.636058
85.401631,1072.533697,296.082377,9474.636058
85.401939,229.828649,518.144159,9770.718434
85.402247,766.095498,-0.000000,9548.656652
85.402555,383.047749,296.082377,9622.677246
85.402863,383.047749,148.041188,9474.636058
85.403171,612.876398,-0.000000,9548.656652
85.403479,153.219100,74.020594,9400.615463
85.403787,383.047749,-0.000000,9474.636058
85.404095,306.438199,-0.000000,9696.697840
85.404403,459.657299,222.061783,9770.718434
85.404711,689.485948,222.061783,9400.615463
85.405019,536.266849,148.041188,9474.636058
85.405327,229.828649,148.041188,9474.636058
85.405635,383.047749,-0.000000,9696.697840
85.405943,612.876398,-148.041188,9844.739029
85.406251,153.219100,-0.000000,9770.718434
85.406559,383.047749,-74.020594,9844.739029
85.406867,0.000000,-0.000000,9770.718434
85.407175,306.438199,-0.000000,9770.718434
85.407483,689.485948,-0.000000,9622.677246
85.407791,995.924147,222.061783,9474.636058
85.408099,689.485948,370.102971,9474.636058
85.408407,995.924147,666.185348,9696.697840
85.408715,766.095498,592.164754,9474.636058
85.409023,995.924147,518.144159,9030.512492
85.409331,1838.629195,740.205942,9326.594869
85.409639,919.314598,370.102971,9178.553681
85.409947,766.095498,518.144159,9474.636058
85.410255,383.047749,148.041188,9548.656652
85.410563,306.438199,-0.000000,9918.759623
85.410871,229.828649,-0.000000,10214.842000
85.411179,306.438199,-148.041188,9696.697840
85.411487,153.219100,-148.041188,9770.718434
85.411795,229.828649,-0.000000,9696.697840
85.412103,153.219100,-0.000000,9548.656652
85.412411,766.095498,-0.000000,9770.718434
85.412719,459.657299,-0.000000,9474.636058
85.413027,536.266849,370.102971,9474.636058
85.413335,919.314598,296.082377,9622.677246
85.413643,766.095498,296.082377,9696.697840
85.413951,919.314598,148.041188,9548.656652
85.414259,1302.362347,666.185348,9548.656652
85.414567,919.314598,296.082377,9178.553681
85.414875,536.266849,370.102971,9474.636058
85.415182,689.485948,-0.000000,9622.677246
85.415490,689.485948,148.041188,9548.656652
85.415798,459.657299,-370.102971,9474.636058
85.416106,842.705048,-148.041188,9622.677246
85.416414,1072.533697,-148.041188,9918.759623
85.416722,612.876398,-74.020594,9696.697840
85.417030,612.876398,370.102971,9622.677246
85.417338,842.705048,370.102971,9474.636058
85.417646,689.485948,148.041188,9474.636058
85.417954,689.485948,370.102971,9696.697840
85.418262,689.485948,370.102971,9548.656652
85.418570,612.876398,-74.020594,9770.718434
85.418878,383.047749,-296.082377,9770.718434
85.419186,536.266849,-518.144159,9992.780217
85.419494,306.438199,-222.061783,9918.759623
85.419802,229.828649,-0.000000,9622.677246
85.420110,612.876398,148.041188,9844.739029
85.420418,459.657299,148.041188,9474.636058
85.420726,1225.752797,296.082377,9474.636058
85.421034,842.705048,296.082377,9474.636058
85.421342,1762.019645,444.123565,9252.574275
85.421650,1302.362347,370.102971,9326.594869
85.421958,995.924147,518.144159,9252.574275
85.422266,842.705048,518.144159,9548.656652
85.422574,536.266849,444.123565,9400.615463
85.422882,229.828649,222.061783,9622.677246
85.423190,76.609550,-148.041188,10214.842000
85.423498,229.828649,-74.020594,9918.759623
85.423806,229.828649,-222.061783,9844.739029
85.424114,153.219100,-370.102971,9992.780217
85.424422,229.828649,-222.061783,9770.718434
85.424730,153.219100,148.041188,9918.759623
85.425038,229.828649,148.041188,9770.718434
85.425346,459.657299,222.061783,9770.718434
85.425654,689.485948,-0.000000,9400.615463
85.425962,1532.190996,222.061783,9548.656652
85.426270,612.876398,370.102971,9178.553681
85.426578,612.876398,-0.000000,9326.594869
85.426886,766.095498,148.041188,9474.636058
85.427194,689.485948,-0.000000,9178.553681
85.427502,689.485948,-0.000000,9474.636058
85.427810,383.047749,-0.000000,9622.677246
85.428118,689.485948,148.041188,9400.615463
85.428426,995.924147,-222.061783,9770.718434
85.428734,536.266849,222.061783,9844.739029
85.429042,689.485948,592.164754,9622.677246
85.429350,919.314598,592.164754,9474.636058
85.429658,842.705048,592.164754,9474.636058
85.429966,689.485948,444.123565,9474.636058
85.430274,766.095498,592.164754,9548.656652
85.430582,689.485948,-0.000000,9992.780217
85.430890,689.485948,-148.041188,9770.718434
85.431198,842.705048,-222.061783,9844.739029
85.431506,0.000000,-148.041188,9918.759623
85.431814,76.609550,-74.020594,9992.780217
85.432122,536.266849,-0.000000,9844.739029
85.432430,766.095498,148.041188,9770.718434
85.432738,153.219100,222.061783,9696.697840
85.433046,919.314598,-0.000000,9474.636058
85.433354,995.924147,-0.000000,9622.677246
85.433662,919.314598,222.061783,9400.615463
85.433970,995.924147,296.082377,9400.615463
85.434277,995.924147,740.205942,9326.594869
85.434585,1072.533697,518.144159,9474.636058
85.434893,689.485948,444.123565,9400.615463
85.435201,919.314598,444.123565,9474.636058
85.435509,1072.533697,-0.000000,9622.677246
85.435817,842.705048,-0.000000,9400.615463
85.436125,766.095498,-0.000000,9918.759623
85.436433,919.314598,-0.000000,10140.821405
85.436741,536.266849,-74.020594,9696.697840
85.437049,459.657299,-0.000000,9844.739029
85.437357,612.876398,-0.000000,9770.718434
85.437665,612.876398,-0.000000,9770.718434
85.437973,919.314598,-0.000000,9696.697840
85.438281,689.485948,-0.000000,9474.636058
85.438589,919.314598,-0.000000,9696.697840
85.438897,995.924147,518.144159,9474.636058
85.439205,842.705048,370.102971,9474.636058
85.439513,1149.143247,370.102971,9400.615463
85.439821,995.924147,444.123565,9474.636058
85.440129,919.314598,222.061783,9474.636058
85.440437,995.924147,222.061783,9474.636058
85.440745,766.095498,296.082377,9400.615463
85.441053,1149.143247,222.061783,9474.636058
85.441361,612.876398,296.082377,9770.718434
85.441669,612.876398,222.061783,9548.656652
85.441977,842.705048,222.061783,9770.718434
85.442285,612.876398,222.061783,9696.697840
85.442593,383.047749,222.061783,9622.677246
85.442901,536.266849,148.041188,9770.718434
85.443209,995.924147,296.082377,9696.697840
85.443517,842.705048,-0.000000,9474.636058
85.443825,842.705048,-0.000000,9622.677246
85.444133,229.828649,-0.000000,9696.697840
85.444441,536.266849,-0.000000,9844.739029
85.444749,459.657299,-0.000000,9844.739029
85.445057,306.438199,-0.000000,9918.759623
85.445365,919.314598,-0.000000,9548.656652
85.445673,612.876398,222.061783,9696.697840
85.445981,1072.533697,-0.000000,9696.697840
85.446289,766.095498,296.082377,9696.697840
85.446597,919.314598,370.102971,9622.677246
85.446905,1072.533697,518.144159,9400.615463
85.447213,919.314598,370.102971,9178.553681
85.447521,1378.971896,592.164754,9474.636058
85.447829,1378.971896,740.205942,9252.574275
85.448137,1072.533697,740.205942,9696.697840
85.448445,842.705048,370.102971,9770.718434
85.448753,766.095498,148.041188,9474.636058
85.449061,306.438199,-0.000000,9770.718434
85.449369,153.219100,-0.000000,9770.718434
85.449677,459.657299,-0.000000,9696.697840
85.449985,459.657299,-0.000000,9844.739029
85.450293,459.657299,-296.082377,10214.842000
85.450601,383.047749,-296.082377,9770.718434
85.450909,536.266849,-0.000000,9622.677246
85.451217,229.828649,-0.000000,9696.697840
85.451525,689.485948,148.041188,9622.677246
85.451833,766.095498,518.144159,9326.594869
85.452141,766.095498,148.041188,9326.594869
85.452449,842.705048,444.123565,9474.636058
85.452757,995.924147,370.102971,9548.656652
85.453064,842.705048,370.102971,9474.636058
85.453372,612.876398,222.061783,9400.615463
85.453680,689.485948,370.102971,9474.636058
85.453988,842.705048,444.123565,9400.615463
85.454296,612.876398,296.082377,9474.636058
85.454604,689.485948,296.082377,9474.636058
85.454912,153.219100,-0.000000,9474.636058
85.455220,766.095498,-296.082377,9548.656652
85.455528,612.876398,-444.123565,9548.656652
85.455836,536.266849,-74.020594,9770.718434
85.456144,76.609550,-148.041188,9844.739029
85.456452,306.438199,-0.000000,10066.800811
85.456760,306.438199,-0.000000,9696.697840
85.457068,536.266849,-0.000000,9770.718434
85.457376,459.657299,-0.000000,9844.739029
85.457684,612.876398,444.123565,9548.656652
85.457992,229.828649,-0.000000,9400.615463
85.458300,995.924147,-222.061783,9400.615463
85.458608,536.266849,296.082377,9326.594869
85.458916,689.485948,592.164754,9252.574275
85.459224,842.705048,444.123565,9252.574275
85.459532,689.485948,370.102971,9548.656652
85.459840,689.485948,148.041188,9622.677246
85.460148,766.095498,-0.000000,9770.718434
85.460456,536.266849,148.041188,9474.636058
85.460764,76.609550,-0.000000,9918.759623
85.461072,612.876398,-0.000000,9696.697840
85.461380,536.266849,-0.000000,9400.615463
85.461688,383.047749,222.061783,9474.636058
85.461996,459.657299,148.041188,9696.697840
85.462304,919.314598,222.061783,9844.739029
85.462612,689.485948,-0.000000,9844.739029
85.462920,306.438199,-0.000000,9696.697840
85.463228,306.438199,148.041188,9992.780217
85.463536,153.219100,370.102971,9770.718434
85.463844,306.438199,148.041188,9696.697840
85.464152,459.657299,296.082377,9770.718434
85.464460,689.485948,-0.000000,9548.656652
85.464768,229.828649,-0.000000,9548.656652
85.465076,689.485948,-0.000000,9770.718434
85.465384,153.219100,-0.000000,9918.759623
85.465692,689.485948,222.061783,9474.636058
85.466000,766.095498,370.102971,9474.636058
85.466308,612.876398,296.082377,9400.615463
85.466616,459.657299,370.102971,9474.636058
85.466924,766.095498,296.082377,9548.656652
85.467232,459.657299,222.061783,9474.636058
85.467540,612.876398,-0.000000,9770.718434
85.467848,766.095498,-0.000000,9474.636058
85.468156,842.705048,-74.020594,9622.677246
85.468464,306.438199,-0.000000,9474.636058
85.468772,229.828649,148.041188,9770.718434
85.469080,459.657299,-0.000000,9770.718434
85.469388,229.828649,-0.000000,9696.697840
85.469696,536.266849,444.123565,10066.800811
85.470004,383.047749,296.082377,9622.677246
85.470312,919.314598,-0.000000,9474.636058
85.470620,995.924147,-0.000000,9548.656652
85.470928,842.705048,-0.000000,9474.636058
85.471236,612.876398,296.082377,9400.615463
85.471544,536.266849,296.082377,9548.656652
85.471852,842.705048,222.061783,9548.656652
85.472160,689.485948,148.041188,9474.636058
85.472468,842.705048,-0.000000,9548.656652
85.472776,536.266849,296.082377,9622.677246
85.473084,766.095498,518.144159,9474.636058
85.473392,536.266849,666.185348,9770.718434
85.473700,842.705048,-0.000000,9400.615463
85.474008,536.266849,148.041188,9474.636058
85.474316,536.266849,-0.000000,9474.636058
85.474624,306.438199,518.144159,9770.718434
85.474931,229.828649,-0.000000,9622.677246
85.475239,459.657299,-296.082377,9696.697840
85.475547,536.266849,-0.000000,9696.697840
85.475855,689.485948,-0.000000,9696.697840
85.476163,536.266849,222.061783,9622.677246
85.476471,536.266849,296.082377,9474.636058
85.476779,459.657299,-0.000000,9548.656652
85.477087,689.485948,-0.000000,9474.636058
85.477395,766.095498,-0.000000,9400.615463
85.477703,995.924147,296.082377,9548.656652
85.478011,842.705048,370.102971,9770.718434
85.478319,842.705048,296.082377,9474.636058
85.478627,612.876398,370.102971,9474.636058
85.478935,689.485948,296.082377,9326.594869
85.479243,459.657299,296.082377,9474.636058
85.479551,919.314598,-0.000000,9696.697840
85.479859,459.657299,370.102971,9696.697840
85.480167,842.705048,-0.000000,9770.718434
85.480475,229.828649,-0.000000,9918.759623
85.480783,383.047749,-0.000000,9770.718434
85.481091,229.828649,-0.000000,9548.656652
85.481399,459.657299,-0.000000,9844.739029
85.481707,459.657299,148.041188,9622.677246
85.482015,536.266849,-148.041188,9696.697840
85.482323,1149.143247,-0.000000,9696.697840
85.482631,842.705048,296.082377,9844.739029
85.482939,1455.581446,-0.000000,9252.574275
85.483247,919.314598,296.082377,9696.697840
85.483555,842.705048,148.041188,9474.636058
85.483863,689.485948,370.102971,9548.656652
85.484171,919.314598,444.123565,9548.656652
85.484479,1072.533697,-0.000000,9918.759623
85.484787,536.266849,-0.000000,9992.780217
85.485095,766.095498,-0.000000,9918.759623
85.485403,1149.143247,222.061783,9696.697840
85.485711,536.266849,148.041188,9326.594869
85.486019,842.705048,444.123565,9474.636058
85.486327,842.705048,296.082377,9548.656652
85.486635,689.485948,222.061783,9474.636058
85.486943,919.314598,-74.020594,9548.656652
85.487251,-76.609550,370.102971,9918.759623
85.487559,383.047749,296.082377,10288.862594
85.487867,459.657299,-0.000000,9992.780217
85.488175,612.876398,222.061783,9696.697840
85.488483,766.095498,444.123565,9770.718434
85.488791,919.314598,296.082377,9622.677246
85.489099,689.485948,296.082377,9474.636058
85.489407,766.095498,-0.000000,9400.615463
85.489715,612.876398,518.144159,9474.636058
85.490023,1072.533697,296.082377,9696.697840
85.490331,919.314598,296.082377,9622.677246
85.490639,919.314598,296.082377,9326.594869
85.490947,842.705048,296.082377,9474.636058
85.491255,842.705048,296.082377,9474.636058
85.491563,766.095498,222.061783,9770.718434
85.491871,842.705048,370.102971,9844.739029
85.492179,766.095498,148.041188,9992.780217
85.492487,766.095498,592.164754,10066.800811
85.492795,612.876398,370.102971,9770.718434
85.493103,536.266849,-0.000000,9844.739029
85.493411,383.047749,222.061783,9770.718434
85.493719,689.485948,-0.000000,9622.677246
85.494027,766.095498,-0.000000,9622.677246
85.494335,766.095498,-0.000000,9622.677246
85.494643,689.485948,518.144159,9992.780217
85.494951,689.485948,296.082377,9696.697840
85.495259,229.828649,444.123565,10066.800811
85.495567,612.876398,222.061783,9400.615463
85.495875,1072.533697,222.061783,9474.636058
85.496183,689.485948,444.123565,9474.636058
85.496491,689.485948,592.164754,9474.636058
85.496799,689.485948,666.185348,9474.636058
85.497107,919.314598,370.102971,9548.656652
85.497415,842.705048,296.082377,9622.677246
85.497723,766.095498,444.123565,9770.718434
85.498031,536.266849,222.061783,9474.636058
85.498339,536.266849,296.082377,9548.656652
85.498647,383.047749,296.082377,9548.656652
85.498955,536.266849,148.041188,9548.656652
85.499263,536.266849,-0.000000,9474.636058
85.499571,306.438199,-0.000000,9622.677246
85.499879,766.095498,-74.020594,9622.677246
85.500187,612.876398,-0.000000,9696.697840
85.500495,612.876398,-0.000000,9548.656652
85.500803,689.485948,-0.000000,9622.677246
85.501111,536.266849,148.041188,9474.636058
85.501419,383.047749,296.082377,9400.615463
85.501727,459.657299,-0.000000,9474.636058
85.502035,1225.752797,-0.000000,9474.636058
85.502342,1149.143247,296.082377,9400.615463
85.502650,612.876398,-0.000000,9696.697840
85.502958,536.266849,296.082377,9474.636058
85.503266,689.485948,148.041188,9474.636058
85.503574,459.657299,148.041188,9548.656652
85.503882,76.609550,-0.000000,9622.677246
85.504190,689.485948,-0.000000,9400.615463
85.504498,153.219100,444.123565,9252.574275
85.504806,1225.752797,-0.000000,9326.594869
85.505114,612.876398,296.082377,9474.636058
85.505422,536.266849,296.082377,9400.615463
85.505730,306.438199,148.041188,9770.718434
85.506038,229.828649,-0.000000,9844.739029
85.506346,229.828649,-370.102971,10066.800811
85.506654,383.047749,-296.082377,10066.800811
85.506962,153.219100,-444.123565,9918.759623
85.507270,229.828649,-222.061783,9474.636058
85.507578,766.095498,-148.041188,9622.677246
85.507886,459.657299,-0.000000,9770.718434
85.508194,536.266849,148.041188,9622.677246
85.508502,766.095498,370.102971,9622.677246
85.508810,995.924147,518.144159,9400.615463
85.509118,1378.971896,444.123565,9252.574275
85.509426,1149.143247,370.102971,8956.491898
85.509734,1072.533697,740.205942,9326.594869
85.510042,842.705048,370.102971,9104.533087
85.510350,612.876398,444.123565,9548.656652
85.510658,459.657299,370.102971,9844.739029
85.510966,383.047749,-0.000000,9770.718434
85.511274,536.266849,-74.020594,9696.697840
85.511582,0.000000,-74.020594,9696.697840
85.511890,153.219100,-74.020594,9992.780217
85.512198,0.000000,-148.041188,9918.759623
85.512506,153.219100,-148.041188,9992.780217
85.512814,536.266849,-0.000000,9622.677246
85.513122,536.266849,296.082377,9474.636058
85.513430,689.485948,740.205942,9548.656652
85.513738,995.924147,592.164754,9400.615463
85.514046,842.705048,370.102971,9326.594869
85.514354,1149.143247,370.102971,9474.636058
85.514662,1072.533697,444.123565,9474.636058
85.514970,229.828649,370.102971,9474.636058
85.515278,689.485948,444.123565,9474.636058
85.515586,536.266849,296.082377,9548.656652
85.515894,995.924147,296.082377,9474.636058
85.516202,919.314598,222.061783,9992.780217
85.516510,1072.533697,-0.000000,9548.656652
85.516818,383.047749,-148.041188,9548.656652
85.517126,689.485948,-74.020594,9622.677246
85.517434,689.485948,-0.000000,9622.677246
85.517742,306.438199,370.102971,9474.636058
85.518050,766.095498,-0.000000,9696.697840
85.518358,383.047749,296.082377,9770.718434
85.518666,229.828649,-74.020594,9474.636058
85.518974,306.438199,-148.041188,9992.780217
85.519282,612.876398,-74.020594,9770.718434
85.519590,459.657299,-148.041188,9992.780217
85.519898,383.047749,-74.020594,9844.739029
85.520206,383.047749,-0.000000,9622.677246
85.520514,536.266849,-0.000000,9548.656652
85.520822,612.876398,370.102971,9474.636058
85.521130,995.924147,296.082377,9400.615463
85.521438,995.924147,518.144159,9030.512492
85.521746,689.485948,518.144159,9474.636058
85.522054,842.705048,666.185348,9622.677246
85.522362,766.095498,370.102971,9474.636058
85.522670,459.657299,444.123565,9326.594869
85.522978,536.266849,518.144159,9474.636058
85.523286,229.828649,-0.000000,9474.636058
85.523594,383.047749,296.082377,9696.697840
85.523902,153.219100,-0.000000,9918.759623
85.524210,306.438199,-222.061783,10140.821405
85.524518,0.000000,-0.000000,9844.739029
85.524826,153.219100,-0.000000,10066.800811
85.525134,229.828649,-0.000000,9992.780217
85.525442,306.438199,-0.000000,10066.800811
85.525750,383.047749,370.102971,9696.697840
85.526058,383.047749,-0.000000,9400.615463
85.526366,919.314598,-0.000000,9474.636058
85.526674,766.095498,-0.000000,9474.636058
85.526982,383.047749,-0.000000,9474.636058
85.527290,459.657299,148.041188,9474.636058
85.527598,536.266849,222.061783,9474.636058
85.527906,612.876398,148.041188,9622.677246
85.528214,612.876398,222.061783,9548.656652
85.528522,76.609550,74.020594,9548.656652
85.528830,766.095498,444.123565,9770.718434
85.529138,689.485948,296.082377,9696.697840
85.529446,1072.533697,222.061783,9770.718434
85.529754,842.705048,370.102971,9474.636058
85.530061,842.705048,444.123565,9622.677246
85.530369,612.876398,296.082377,9474.636058
85.530677,612.876398,222.061783,9548.656652
85.530985,383.047749,222.061783,9474.636058
85.531293,153.219100,-296.082377,9474.636058
85.531601,76.609550,-0.000000,9770.718434
85.531909,842.705048,-0.000000,9696.697840
85.532217,459.657299,-0.000000,9844.739029
85.532525,919.314598,-0.000000,9474.636058
85.532833,766.095498,-0.000000,9548.656652
85.533141,919.314598,222.061783,9696.697840
85.533449,766.095498,-0.000000,9548.656652
85.533757,1608.800546,222.061783,9622.677246
85.534065,919.314598,518.144159,9548.656652
85.534373,1149.143247,962.267725,9622.677246
85.534681,995.924147,444.123565,9400.615463
85.534989,995.924147,444.123565,9474.636058
85.535297,766.095498,370.102971,9474.636058
85.535605,459.657299,222.061783,9548.656652
85.535913,766.095498,-74.020594,9844.739029
85.536221,1072.533697,-0.000000,9474.636058
85.536529,919.314598,-0.000000,9548.656652
85.536837,995.924147,-222.061783,9770.718434
85.537145,612.876398,222.061783,9548.656652
85.537453,612.876398,148.041188,9770.718434
85.537761,612.876398,-0.000000,9770.718434
85.538069,689.485948,-0.000000,9548.656652
85.538377,612.876398,-0.000000,9474.636058
85.538685,1072.533697,370.102971,9844.739029
85.538993,995.924147,-0.000000,9252.574275
85.539301,1149.143247,148.041188,9474.636058
85.539609,1072.533697,148.041188,9252.574275
85.539917,766.095498,222.061783,9474.636058
85.540225,689.485948,148.041188,9622.677246
85.540533,689.485948,-0.000000,9622.677246
85.540841,689.485948,296.082377,9548.656652
85.541149,919.314598,-0.000000,9474.636058
85.541457,766.095498,148.041188,9548.656652
85.541765,689.485948,148.041188,9400.615463
85.542073,766.095498,370.102971,9622.677246
85.542381,612.876398,-0.000000,9696.697840
85.542689,536.266849,296.082377,9474.636058
85.542997,766.095498,-0.000000,9770.718434
85.543305,842.705048,-0.000000,9770.718434
85.543613,383.047749,-0.000000,9474.636058
85.543921,766.095498,-0.000000,9844.739029
85.544229,612.876398,-0.000000,9770.718434
85.544537,536.266849,-0.000000,9770.718434
85.544845,229.828649,-0.000000,9622.677246
85.545153,536.266849,148.041188,9696.697840
85.545461,536.266849,-444.123565,9622.677246
85.545769,1302.362347,148.041188,9918.759623
85.546077,995.924147,-0.000000,9474.636058
85.546385,842.705048,222.061783,9474.636058
85.546693,612.876398,370.102971,9770.718434
85.547001,766.095498,444.123565,9548.656652
85.547309,766.095498,296.082377,9474.636058
85.547617,919.314598,518.144159,9326.594869
85.547925,919.314598,444.123565,9474.636058
85.548233,1225.752797,-0.000000,9474.636058
85.548541,612.876398,222.061783,9548.656652
85.548849,612.876398,-0.000000,9622.677246
85.549157,536.266849,-0.000000,9548.656652
85.549465,153.219100,-0.000000,9696.697840
85.549773,383.047749,-0.000000,9622.677246
85.550081,459.657299,296.082377,9770.718434
85.550389,689.485948,-74.020594,9770.718434
85.550697,459.657299,-222.061783,9918.759623
85.551005,689.485948,148.041188,10140.821405
85.551313,0.000000,-0.000000,9918.759623
85.551621,766.095498,-0.000000,9622.677246
85.551929,689.485948,444.123565,9548.656652
85.552237,842.705048,444.123565,9548.656652
85.552545,766.095498,370.102971,9252.574275
85.552853,842.705048,222.061783,9252.574275
85.553161,766.095498,-0.000000,9400.615463
85.553469,536.266849,-0.000000,9474.636058
85.553777,766.095498,666.185348,9696.697840
85.554085,229.828649,296.082377,9548.656652
85.554393,689.485948,444.123565,9622.677246
85.554701,689.485948,148.041188,9696.697840
85.555009,612.876398,222.061783,9474.636058
85.555317,612.876398,-0.000000,9622.677246
85.555625,0.000000,-222.061783,9844.739029
85.555933,76.609550,-0.000000,9622.677246
85.556241,689.485948,-0.000000,9844.739029
85.556549,536.266849,-0.000000,9400.615463
85.556857,459.657299,148.041188,9474.636058
85.557165,383.047749,222.061783,9474.636058
85.557472,689.485948,-0.000000,9474.636058
85.557780,766.095498,296.082377,9474.636058
85.558088,306.438199,-0.000000,9696.697840
85.558396,306.438199,-0.000000,9992.780217
85.558704,689.485948,-0.000000,9844.739029
85.559012,536.266849,-0.000000,9696.697840
85.559320,612.876398,296.082377,9474.636058
85.559628,689.485948,-0.000000,9548.656652
85.559936,689.485948,444.123565,9326.594869
85.560244,612.876398,-0.000000,9252.574275
85.560552,612.876398,-0.000000,9104.533087
85.560860,612.876398,148.041188,9400.615463
85.561168,153.219100,-0.000000,9474.636058
85.561476,306.438199,-0.000000,9622.677246
85.561784,229.828649,-0.000000,9548.656652
85.562092,229.828649,-0.000000,9696.697840
85.562400,229.828649,-0.000000,9918.759623
85.562708,459.657299,-0.000000,9992.780217
85.563016,459.657299,-0.000000,9844.739029
85.563324,0.000000,-0.000000,9992.780217
85.563632,383.047749,-74.020594,9696.697840
85.563940,536.266849,-0.000000,9622.677246
85.564248,229.828649,148.041188,9474.636058
85.564556,536.266849,444.123565,9474.636058
85.564864,842.705048,296.082377,9326.594869
85.565172,1072.533697,-0.000000,9326.594869
85.565480,536.266849,148.041188,9474.636058
85.565788,689.485948,74.020594,9548.656652
85.566096,76.609550,222.061783,9918.759623
85.566404,612.876398,370.102971,9474.636058
85.566712,842.705048,518.144159,9696.697840
85.567013,689.485948,296.082377,9622.677246
85.567321,612.876398,148.041188,9548.656652
85.567629,766.095498,518.144159,10288.862594
85.567937,229.828649,-222.061783,9770.718434
85.568245,76.609550,370.102971,9770.718434
85.568553,766.095498,-222.061783,9548.656652
85.568861,383.047749,-0.000000,9548.656652
85.569169,536.266849,296.082377,9548.656652
85.569477,459.657299,296.082377,9622.677246
85.569785,536.266849,222.061783,9622.677246
85.570093,536.266849,-0.000000,9326.594869
85.570401,612.876398,296.082377,9474.636058
85.570709,1072.533697,-222.061783,9622.677246
85.571017,995.924147,-0.000000,9326.594869
85.571325,612.876398,518.144159,9844.739029
85.571633,689.485948,148.041188,9622.677246
85.571941,842.705048,148.041188,9474.636058
85.572249,919.314598,222.061783,9474.636058
85.572557,459.657299,518.144159,9474.636058
85.572865,1302.362347,222.061783,9474.636058
85.573173,1455.581446,296.082377,9622.677246
85.573481,689.485948,296.082377,9474.636058
85.573789,842.705048,296.082377,9474.636058
85.574097,766.095498,296.082377,9548.656652
85.574405,612.876398,296.082377,9696.697840
85.574713,459.657299,296.082377,9844.739029
85.575021,612.876398,-0.000000,9918.759623
85.575329,919.314598,148.041188,9918.759623
85.575637,919.314598,-222.061783,9992.780217
85.575945,766.095498,-148.041188,9918.759623
85.576253,842.705048,-0.000000,9918.759623
85.576561,612.876398,148.041188,9622.677246
85.576869,536.266849,-0.000000,9548.656652
85.577176,842.705048,296.082377,9474.636058
85.577484,689.485948,296.082377,9474.636058
85.577792,995.924147,222.061783,9622.677246
85.578100,1302.362347,148.041188,9474.636058
85.578408,536.266849,296.082377,9474.636058
85.578716,612.876398,296.082377,9474.636058
85.579024,689.485948,444.123565,9548.656652
85.579332,842.705048,296.082377,9474.636058
85.579640,536.266849,-0.000000,9474.636058
85.579948,612.876398,222.061783,9548.656652
85.580256,-76.609550,-0.000000,9918.759623
85.580564,842.705048,-0.000000,9918.759623
85.580872,306.438199,-148.041188,9918.759623
85.581180,383.047749,-74.020594,9696.697840
85.581488,229.828649,-0.000000,9918.759623
85.581796,76.609550,-0.000000,9696.697840
85.582104,536.266849,-0.000000,9622.677246
85.582412,689.485948,296.082377,9844.739029
85.582720,612.876398,296.082377,9400.615463
85.583028,766.095498,296.082377,9696.697840
85.583336,1149.143247,-0.000000,9326.594869
85.583644,842.705048,296.082377,9474.636058
85.583952,842.705048,444.123565,9474.636058
85.584260,689.485948,444.123565,9474.636058
85.584568,842.705048,148.041188,9474.636058
85.584876,766.095498,-222.061783,9918.759623
85.585184,459.657299,518.144159,9992.780217
85.585492,612.876398,-0.000000,9474.636058
85.585800,383.047749,-0.000000,9548.656652
85.586108,612.876398,370.102971,9770.718434
85.586416,766.095498,-0.000000,9474.636058
85.586724,612.876398,222.061783,9474.636058
85.587032,383.047749,-0.000000,9474.636058
85.587340,919.314598,148.041188,9696.697840
85.587648,76.609550,222.061783,9548.656652
85.587956,766.095498,740.205942,9844.739029
85.588264,536.266849,-0.000000,9622.677246
85.588572,383.047749,370.102971,9622.677246
85.588880,536.266849,-0.000000,9622.677246
85.589188,689.485948,-0.000000,9622.677246
85.589496,1225.752797,-0.000000,9474.636058
85.589804,459.657299,148.041188,10066.800811
85.590112,842.705048,222.061783,9474.636058
85.590420,536.266849,370.102971,9622.677246
85.590728,995.924147,1036.288319,9696.697840
85.591036,919.314598,296.082377,9474.636058
85.591344,919.314598,518.144159,9400.615463
85.591652,919.314598,296.082377,9474.636058
85.591960,842.705048,370.102971,9548.656652
85.592268,1302.362347,-0.000000,9770.718434
85.592576,612.876398,-0.000000,9326.594869
85.592884,842.705048,-0.000000,10362.883188
85.593192,689.485948,-148.041188,9770.718434
85.593500,612.876398,-0.000000,9770.718434
85.593808,383.047749,-0.000000,9918.759623
85.594116,612.876398,-148.041188,9770.718434
85.594424,536.266849,-0.000000,9548.656652
85.594732,919.314598,-0.000000,9696.697840
85.595040,995.924147,222.061783,9474.636058
85.595348,1149.143247,444.123565,9548.656652
85.595656,995.924147,370.102971,9548.656652
85.595964,1302.362347,296.082377,9400.615463
85.596272,919.314598,370.102971,9474.636058
85.596579,842.705048,444.123565,9548.656652
85.596887,842.705048,-0.000000,9474.636058
85.597195,766.095498,-0.000000,9696.697840
85.597503,459.657299,-222.061783,9770.718434
85.597811,766.095498,-74.020594,9844.739029
85.598119,383.047749,296.082377,9622.677246
85.598427,766.095498,148.041188,9548.656652
85.598735,459.657299,222.061783,9622.677246
85.599043,842.705048,296.082377,9696.697840
85.599351,766.095498,370.102971,9770.718434
85.599659,689.485948,-0.000000,9918.759623
85.599967,919.314598,-0.000000,9474.636058
85.600275,612.876398,-74.020594,9696.697840
85.600583,612.876398,-0.000000,9548.656652
85.600891,612.876398,-0.000000,9400.615463
85.601199,689.485948,222.061783,9474.636058
85.601507,689.485948,222.061783,9622.677246
85.601815,612.876398,296.082377,9474.636058
85.602123,459.657299,148.041188,9474.636058
85.602431,-459.657299,370.102971,9474.636058
85.602739,766.095498,-0.000000,9622.677246
85.603047,229.828649,296.082377,9548.656652
85.603355,612.876398,296.082377,9548.656652
85.603663,459.657299,222.061783,9548.656652
85.603971,306.438199,222.061783,9548.656652
85.604279,153.219100,296.082377,9992.780217
85.604587,306.438199,222.061783,9992.780217
85.604895,76.609550,-0.000000,9844.739029
85.605203,1072.533697,-0.000000,9622.677246
85.605511,612.876398,370.102971,9918.759623
85.605819,229.828649,-148.041188,9474.636058
85.606127,383.047749,-0.000000,9622.677246
85.606435,536.266849,-0.000000,9622.677246
85.606743,689.485948,-0.000000,9696.697840
85.607051,919.314598,-0.000000,9622.677246
85.607359,919.314598,222.061783,9770.718434
85.607667,919.314598,296.082377,9400.615463
85.607975,995.924147,222.061783,9770.718434
85.608283,766.095498,518.144159,9326.594869
85.608591,766.095498,370.102971,9474.636058
85.608899,766.095498,592.164754,9474.636058
85.609207,612.876398,666.185348,9474.636058
85.609515,689.485948,296.082377,9770.718434
85.609823,612.876398,-0.000000,9696.697840
85.610131,459.657299,296.082377,9622.677246
85.610439,76.609550,-0.000000,9918.759623
85.610747,306.438199,-0.000000,10140.821405
85.611055,0.000000,-0.000000,10066.800811
85.611363,0.000000,-0.000000,9770.718434
85.611671,689.485948,148.041188,9918.759623
85.611979,919.314598,-0.000000,9622.677246
85.612287,842.705048,518.144159,10066.800811
85.612595,459.657299,-0.000000,9474.636058
85.612903,689.485948,148.041188,9548.656652
85.613211,919.314598,370.102971,9548.656652
85.613519,1072.533697,740.205942,9474.636058
85.613827,995.924147,740.205942,9178.553681
85.614135,1149.143247,666.185348,9178.553681
85.614443,1225.752797,222.061783,9326.594869
85.614751,1072.533697,-0.000000,9474.636058
85.615059,689.485948,222.061783,9622.677246
85.615367,612.876398,-0.000000,9918.759623
85.615675,229.828649,148.041188,9770.718434
85.615982,383.047749,-0.000000,9548.656652
85.616290,229.828649,-0.000000,9548.656652
85.616598,306.438199,-0.000000,9548.656652
85.616906,689.485948,-74.020594,9770.718434
85.617214,306.438199,-0.000000,9622.677246
85.617522,306.438199,-0.000000,9918.759623
85.617830,229.828649,222.061783,9548.656652
85.618138,766.095498,296.082377,9548.656652
85.618446,766.095498,222.061783,9474.636058
85.618754,612.876398,148.041188,9770.718434
85.619062,306.438199,370.102971,9770.718434
85.619370,842.705048,-0.000000,9548.656652
85.619678,766.095498,296.082377,9844.739029
85.619986,919.314598,-0.000000,9474.636058
85.620294,689.485948,148.041188,9104.533087
85.620602,689.485948,444.123565,9326.594869
85.620910,842.705048,296.082377,9326.594869
85.621218,766.095498,370.102971,9326.594869
85.621526,919.314598,296.082377,9252.574275
85.621834,766.095498,222.061783,9770.718434
85.622142,919.314598,-0.000000,9622.677246
85.622450,842.705048,-74.020594,9696.697840
85.622758,76.609550,-0.000000,9474.636058
85.623066,306.438199,-0.000000,9548.656652
85.623374,383.047749,222.061783,9696.697840
85.623682,229.828649,-0.000000,9696.697840
85.623990,536.266849,-0.000000,9918.759623
85.624298,766.095498,-296.082377,9696.697840
85.624606,229.828649,-296.082377,9844.739029
85.624914,229.828649,-444.123565,9770.718434
85.625222,306.438199,-0.000000,9918.759623
85.625530,306.438199,-0.000000,9770.718434
85.625838,536.266849,296.082377,9548.656652
85.626146,766.095498,444.123565,9474.636058
85.626454,919.314598,148.041188,9104.533087
85.626762,995.924147,296.082377,9326.594869
85.627070,1072.533697,370.102971,9178.553681
85.627378,995.924147,370.102971,9030.512492
85.627686,689.485948,296.082377,9326.594869
85.627994,612.876398,370.102971,9474.636058
85.628302,612.876398,444.123565,9326.594869
85.628610,459.657299,222.061783,9474.636058
85.628918,919.314598,222.061783,9548.656652
85.629226,842.705048,74.020594,9770.718434
85.629534,1072.533697,-0.000000,9696.697840
85.629842,995.924147,-0.000000,9770.718434
85.630150,689.485948,-0.000000,9696.697840
85.630458,612.876398,222.061783,9770.718434
85.630766,842.705048,-0.000000,9918.759623
85.631074,536.266849,148.041188,9696.697840
85.631382,1225.752797,-0.000000,9992.780217
85.631690,766.095498,-0.000000,9844.739029
85.631998,842.705048,-148.041188,9770.718434
85.632306,1072.533697,-0.000000,9474.636058
85.632614,995.924147,296.082377,9326.594869
85.632922,1225.752797,296.082377,9326.594869
85.633230,995.924147,296.082377,9474.636058
85.633538,1225.752797,518.144159,9474.636058
85.633846,995.924147,592.164754,9400.615463
85.634154,1302.362347,666.185348,9548.656652
85.634462,1378.971896,444.123565,9252.574275
85.634770,995.924147,296.082377,9548.656652
85.635078,919.314598,296.082377,9622.677246
85.635385,536.266849,370.102971,9474.636058
85.635693,536.266849,296.082377,9548.656652
85.636001,842.705048,148.041188,9622.677246
85.636309,842.705048,-0.000000,9844.739029
85.636617,612.876398,-0.000000,9992.780217
85.636925,995.924147,148.041188,9696.697840
85.637233,229.828649,-74.020594,9844.739029
85.637541,689.485948,-148.041188,9992.780217
85.637849,842.705048,-0.000000,9844.739029
85.638157,689.485948,222.061783,9696.697840
85.638465,766.095498,296.082377,9474.636058
85.638773,766.095498,592.164754,9844.739029
85.639081,995.924147,444.123565,9622.677246
85.639389,1072.533697,370.102971,9474.636058
85.639697,1072.533697,296.082377,9252.574275
85.640005,995.924147,518.144159,9474.636058
85.640313,995.924147,370.102971,9474.636058
85.640621,689.485948,296.082377,9474.636058
85.640929,842.705048,222.061783,9474.636058
85.641237,536.266849,-0.000000,9770.718434
85.641545,536.266849,-0.000000,9474.636058
85.641853,919.314598,-0.000000,9622.677246
85.642161,536.266849,-0.000000,9770.718434
85.642469,306.438199,148.041188,9770.718434
85.642777,536.266849,-0.000000,9770.718434
85.643085,536.266849,-0.000000,9844.739029
85.643393,536.266849,-0.000000,9622.677246
85.643701,536.266849,-74.020594,9770.718434
85.644009,0.000000,-0.000000,9844.739029
85.644317,536.266849,-0.000000,9696.697840
85.644625,612.876398,148.041188,9844.739029
85.644933,842.705048,444.123565,9622.677246
85.645241,842.705048,444.123565,9474.636058
85.645549,612.876398,444.123565,9622.677246
85.645857,536.266849,296.082377,9474.636058
85.646165,919.314598,148.041188,9474.636058
85.646473,1072.533697,148.041188,9326.594869
85.646781,919.314598,-0.000000,9474.636058
85.647089,842.705048,370.102971,9400.615463
85.647397,689.485948,444.123565,9474.636058
85.647705,919.314598,370.102971,9474.636058
85.648013,689.485948,370.102971,9474.636058
85.648321,842.705048,222.061783,9400.615463
85.648629,612.876398,-0.000000,10066.800811
85.648937,536.266849,148.041188,9844.739029
85.649245,0.000000,-0.000000,9844.739029
85.649553,229.828649,-370.102971,9918.759623
85.649861,76.609550,-0.000000,9770.718434
85.650169,76.609550,-0.000000,10140.821405
85.650477,306.438199,-0.000000,9918.759623
85.650785,612.876398,-0.000000,9918.759623
85.651093,766.095498,-0.000000,9622.677246
85.651401,919.314598,-0.000000,9030.512492
85.651709,1225.752797,148.041188,9030.512492
85.652017,612.876398,222.061783,9400.615463
85.652325,766.095498,222.061783,9178.553681
85.652633,919.314598,296.082377,9326.594869
85.652941,536.266849,-0.000000,9474.636058
85.653249,612.876398,222.061783,9548.656652
85.653557,919.314598,-0.000000,9622.677246
85.653865,919.314598,518.144159,9474.636058
85.654173,842.705048,222.061783,9474.636058
85.654481,689.485948,370.102971,9696.697840
85.654788,689.485948,370.102971,9474.636058
85.655096,536.266849,296.082377,9548.656652
85.655404,459.657299,-0.000000,9696.697840
85.655712,612.876398,-74.020594,9844.739029
85.656020,383.047749,-148.041188,9548.656652
85.656328,383.047749,-74.020594,10288.862594
85.656636,766.095498,-0.000000,9770.718434
85.656944,689.485948,-0.000000,9474.636058
85.657252,383.047749,370.102971,9474.636058
85.657560,842.705048,222.061783,9474.636058
85.657868,842.705048,592.164754,9252.574275
85.658176,1149.143247,592.164754,9252.574275
85.658484,1302.362347,370.102971,9474.636058
85.658792,842.705048,148.041188,9326.594869
85.659100,1149.143247,222.061783,9696.697840
85.659408,383.047749,222.061783,9474.636058
85.659716,383.047749,222.061783,9474.636058
85.660024,229.828649,148.041188,9696.697840
85.660332,459.657299,148.041188,9622.677246
85.660640,536.266849,-74.020594,9474.636058
85.660948,612.876398,-0.000000,9770.718434
85.661256,76.609550,-0.000000,9992.780217
85.661564,459.657299,370.102971,9992.780217
85.661872,459.657299,222.061783,9844.739029
85.662180,459.657299,148.041188,9622.677246
85.662488,229.828649,296.082377,9696.697840
85.662796,459.657299,370.102971,9548.656652
85.663104,536.266849,222.061783,9474.636058
85.663412,306.438199,-74.020594,9622.677246
85.663720,689.485948,-148.041188,9770.718434
85.664028,229.828649,-0.000000,9770.718434
85.664336,536.266849,222.061783,9696.697840
85.664644,459.657299,222.061783,9622.677246
85.664952,536.266849,222.061783,9400.615463
85.665260,689.485948,222.061783,9474.636058
85.665568,1455.581446,-0.000000,9400.615463
85.665876,842.705048,148.041188,9548.656652
85.666184,1072.533697,-0.000000,9548.656652
85.666492,919.314598,444.123565,9474.636058
85.666800,459.657299,370.102971,9696.697840
85.667108,612.876398,370.102971,9770.718434
85.667416,612.876398,-0.000000,9548.656652
85.667724,536.266849,148.041188,9844.739029
85.668032,689.485948,148.041188,9844.739029
85.668340,459.657299,-74.020594,9474.636058
85.668648,536.266849,-0.000000,9844.739029
85.668956,306.438199,-0.000000,9548.656652
85.669264,383.047749,-0.000000,9696.697840
85.669572,536.266849,370.102971,9844.739029
85.669880,612.876398,444.123565,9622.677246
85.670188,612.876398,222.061783,9474.636058
85.670496,766.095498,296.082377,9474.636058
85.670804,995.924147,666.185348,9474.636058
85.671112,1225.752797,-0.000000,9400.615463
85.671420,1149.143247,-0.000000,9548.656652
85.671728,689.485948,222.061783,9474.636058
85.672036,536.266849,222.061783,9474.636058
85.672344,612.876398,222.061783,9548.656652
85.672652,536.266849,222.061783,9548.656652
85.672960,306.438199,296.082377,9770.718434
85.673268,536.266849,-0.000000,9622.677246
85.673576,689.485948,148.041188,9474.636058
85.673884,689.485948,222.061783,9622.677246
85.674192,459.657299,-0.000000,9844.739029
85.674500,536.266849,148.041188,9548.656652
85.674808,536.266849,222.061783,9548.656652
85.675116,459.657299,222.061783,9622.677246
85.675424,689.485948,148.041188,9696.697840
85.675732,612.876398,-0.000000,9770.718434
85.676040,459.657299,296.082377,9844.739029
85.676348,689.485948,296.082377,9400.615463
85.676656,76.609550,-0.000000,9770.718434
85.676964,383.047749,296.082377,9622.677246
85.677272,612.876398,-0.000000,9548.656652
85.677580,536.266849,-0.000000,9400.615463
85.677888,536.266849,296.082377,9474.636058
85.678196,842.705048,222.061783,9622.677246
85.678504,689.485948,-0.000000,9622.677246
85.678812,766.095498,296.082377,9548.656652
85.679120,766.095498,370.102971,9400.615463
85.679428,689.485948,518.144159,9622.677246
85.679736,689.485948,444.123565,9548.656652
85.680044,536.266849,296.082377,9548.656652
85.680352,766.095498,-74.020594,9696.697840
85.680660,229.828649,-0.000000,9918.759623
85.680968,306.438199,-148.041188,9992.780217
85.681276,0.000000,-444.123565,9844.739029
85.681584,306.438199,-74.020594,9696.697840
85.681892,306.438199,-0.000000,9622.677246
85.682200,459.657299,-0.000000,9770.718434
85.682508,536.266849,222.061783,9474.636058
85.682816,1225.752797,-0.000000,9474.636058
85.683124,1072.533697,-0.000000,9474.636058
85.683432,1225.752797,-0.000000,9474.636058
85.683740,766.095498,296.082377,9474.636058
85.684048,766.095498,370.102971,9400.615463
85.684356,766.095498,370.102971,9474.636058
85.684664,689.485948,296.082377,9474.636058
85.684972,536.266849,444.123565,9474.636058
85.685280,689.485948,296.082377,9474.636058
85.685588,383.047749,148.041188,9696.697840
85.685896,0.000000,-0.000000,9770.718434
85.686204,0.000000,-0.000000,10066.800811
85.686512,612.876398,-0.000000,9696.697840
85.686820,612.876398,-0.000000,9548.656652
85.687128,612.876398,296.082377,9696.697840
85.687436,612.876398,-0.000000,9696.697840
85.687744,1149.143247,-0.000000,9770.718434
85.688052,1072.533697,222.061783,9696.697840
85.688360,995.924147,-148.041188,9474.636058
85.688668,1225.752797,222.061783,9622.677246
85.688976,842.705048,296.082377,9622.677246
85.689284,842.705048,-0.000000,9622.677246
85.689592,919.314598,222.061783,9474.636058
85.689900,842.705048,222.061783,9474.636058
85.690208,842.705048,-0.000000,9696.697840
85.690516,1072.533697,-74.020594,9918.759623
85.690824,842.705048,444.123565,9844.739029
85.691132,842.705048,444.123565,9622.677246
85.691440,1149.143247,444.123565,9622.677246
85.691748,919.314598,444.123565,9474.636058
85.692056,766.095498,444.123565,9474.636058
85.692364,842.705048,296.082377,9548.656652
85.692672,1455.581446,-0.000000,9474.636058
85.692980,766.095498,-0.000000,9918.759623
85.693288,612.876398,-0.000000,9992.780217
85.693596,0.000000,-0.000000,9696.697840
85.693904,536.266849,-74.020594,9844.739029
85.694212,536.266849,-0.000000,9844.739029
85.694520,383.047749,-0.000000,9696.697840
85.694828,536.266849,222.061783,9696.697840
85.695136,1149.143247,-0.000000,9622.677246
85.695444,1302.362347,-0.000000,9548.656652
85.695752,1302.362347,296.082377,9474.636058
85.696060,919.314598,296.082377,9252.574275
85.696368,995.924147,518.144159,9474.636058
85.696676,919.314598,592.164754,9474.636058
85.696984,689.485948,296.082377,9474.636058
85.697292,536.266849,222.061783,9474.636058
85.697600,766.095498,148.041188,9548.656652
85.697908,229.828649,-0.000000,9770.718434
85.698216,766.095498,-74.020594,9400.615463
85.698524,306.438199,-296.082377,9918.759623
85.698832,306.438199,-0.000000,9844.739029
85.699140,459.657299,-0.000000,9918.759623
85.699448,229.828649,-0.000000,9770.718434
85.699756,383.047749,222.061783,9770.718434
85.700064,536.266849,296.082377,9844.739029
85.700372,689.485948,-74.020594,10066.800811
85.700680,536.266849,-0.000000,9474.636058
85.700988,0.000000,-0.000000,9696.697840
85.701296,536.266849,-0.000000,9622.677246
85.701604,229.828649,-0.000000,9696.697840
85.701912,612.876398,-0.000000,9548.656652
85.702220,766.095498,-0.000000,9326.594869
85.702528,689.485948,148.041188,9400.615463
85.702836,229.828649,592.164754,9622.677246
85.703144,842.705048,444.123565,9178.553681
85.703452,995.924147,-0.000000,9326.594869
85.703760,842.705048,444.123565,9400.615463
85.704068,766.095498,222.061783,9400.615463
85.704376,612.876398,370.102971,9474.636058
85.704684,919.314598,370.102971,9474.636058
85.704992,612.876398,296.082377,9622.677246
85.705300,306.438199,-0.000000,9548.656652
85.705608,229.828649,296.082377,10288.862594
85.705916,229.828649,-148.041188,9992.780217
85.706224,306.438199,-0.000000,9696.697840
85.706532,383.047749,-74.020594,9844.739029
85.706840,612.876398,-0.000000,9844.739029
85.707148,536.266849,-0.000000,9474.636058
85.707456,612.876398,-0.000000,9770.718434
85.707764,919.314598,-0.000000,9622.677246
85.708072,766.095498,592.164754,9770.718434
85.708380,919.314598,518.144159,9474.636058
85.708688,995.924147,518.144159,9326.594869
85.708996,1149.143247,740.205942,9104.533087
85.709304,1072.533697,740.205942,9326.594869
85.709612,995.924147,518.144159,9400.615463
85.709920,459.657299,-74.020594,9474.636058
85.710228,766.095498,-0.000000,9326.594869
85.710536,536.266849,-0.000000,9844.739029
85.710844,306.438199,370.102971,10288.862594
85.711152,536.266849,-74.020594,9918.759623
85.711460,689.485948,-0.000000,9844.739029
85.711768,536.266849,370.102971,9770.718434
85.712076,459.657299,148.041188,9622.677246
85.712384,459.657299,222.061783,10214.842000
85.712692,1072.533697,-74.020594,9474.636058
85.713000,919.314598,222.061783,9474.636058
85.713308,536.266849,518.144159,9696.697840
85.713616,612.876398,444.123565,9548.656652
85.713924,459.657299,296.082377,9474.636058
85.714232,689.485948,222.061783,9474.636058
85.714540,1072.533697,518.144159,9326.594869
85.714848,1072.533697,222.061783,9252.574275
85.715156,919.314598,296.082377,9326.594869
85.715464,612.876398,296.082377,9548.656652
85.715772,306.438199,-0.000000,9474.636058
85.716080,306.438199,370.102971,9474.636058
85.716388,536.266849,518.144159,9844.739029
85.716696,306.438199,-0.000000,9696.697840
85.717004,459.657299,148.041188,9696.697840
85.717312,229.828649,-0.000000,9844.739029
85.717620,0.000000,-0.000000,9844.739029
85.717928,-153.219100,-74.020594,9474.636058
85.718236,612.876398,-0.000000,9844.739029
85.718544,383.047749,-0.000000,9622.677246
85.718852,229.828649,296.082377,9770.718434
85.719160,229.828649,-0.000000,9844.739029
85.719468,306.438199,-0.000000,9770.718434
85.719776,459.657299,-0.000000,9400.615463
85.720084,536.266849,370.102971,9548.656652
85.720392,766.095498,-0.000000,9474.636058
85.720700,306.438199,148.041188,9696.697840
85.721008,689.485948,148.041188,9400.615463
85.721316,689.485948,296.082377,9326.594869
85.721624,689.485948,370.102971,9474.636058
85.721932,842.705048,444.123565,9474.636058
85.722240,536.266849,-0.000000,9844.739029
85.722548,612.876398,-0.000000,9622.677246
85.722856,459.657299,148.041188,9252.574275
85.723164,689.485948,592.164754,9474.636058
85.723472,536.266849,-0.000000,9622.677246
85.723780,459.657299,296.082377,9770.718434
85.724088,383.047749,-0.000000,9696.697840
85.724396,383.047749,-0.000000,9770.718434
85.724704,459.657299,-74.020594,9844.739029
85.725012,459.657299,-74.020594,9918.759623
85.725320,76.609550,-74.020594,9474.636058
85.725628,689.485948,-74.020594,9696.697840
85.725936,459.657299,-0.000000,9548.656652
85.726244,612.876398,222.061783,9474.636058
85.726552,766.095498,148.041188,9474.636058
85.726860,459.657299,-0.000000,9474.636058
85.727168,1072.533697,-0.000000,9400.615463
85.727476,76.609550,-0.000000,9474.636058
85.727784,1149.143247,-0.000000,9252.574275
85.728092,919.314598,148.041188,9474.636058
85.728400,842.705048,370.102971,9474.636058
85.728708,689.485948,370.102971,9548.656652
85.729016,612.876398,444.123565,9622.677246
85.729324,383.047749,-0.000000,9474.636058
85.729632,1149.143247,370.102971,9548.656652
85.729940,1072.533697,-74.020594,9474.636058
85.730248,689.485948,-0.000000,9918.759623
85.730556,612.876398,296.082377,9622.677246
85.730864,766.095498,-0.000000,9992.780217
85.731172,689.485948,-0.000000,9918.759623
85.731480,383.047749,-74.020594,9770.718434
85.731788,766.095498,222.061783,9844.739029
85.732096,995.924147,-0.000000,9992.780217
85.732404,919.314598,370.102971,9548.656652
85.732712,842.705048,-0.000000,9400.615463
85.733020,995.924147,518.144159,9474.636058
85.733328,919.314598,370.102971,9474.636058
85.733636,1072.533697,444.123565,9622.677246
85.733944,1149.143247,518.144159,9474.636058
85.734252,689.485948,444.123565,9400.615463
85.734560,1302.362347,296.082377,9622.677246
85.734868,995.924147,-0.000000,9770.718434
85.735176,612.876398,222.061783,9474.636058
85.735484,766.095498,-0.000000,9770.718434
85.735792,536.266849,222.061783,9622.677246
85.736100,612.876398,-0.000000,9696.697840
85.736408,536.266849,-0.000000,9770.718434
85.736716,689.485948,296.082377,9918.759623
85.737024,1072.533697,148.041188,9696.697840
85.737332,919.314598,-0.000000,9770.718434
85.737640,1072.533697,518.144159,10066.800811
85.737948,919.314598,-0.000000,9844.739029
85.738256,842.705048,-0.000000,9622.677246
85.738564,919.314598,222.061783,9474.636058
85.738872,842.705048,222.061783,9474.636058
85.739180,766.095498,-0.000000,9400.615463
85.739488,995.924147,-74.020594,9548.656652
85.739796,1225.752797,444.123565,9696.697840
85.740104,842.705048,444.123565,9474.636058
85.740412,919.314598,-0.000000,9548.656652
85.740720,536.266849,148.041188,9548.656652
85.741028,919.314598,222.061783,9474.636058
85.741336,919.314598,518.144159,9474.636058
85.741644,995.924147,222.061783,9696.697840
85.741952,1149.143247,148.041188,9474.636058
85.742260,995.924147,370.102971,9918.759623
85.742568,766.095498,296.082377,9770.718434
85.742876,459.657299,-0.000000,9696.697840
85.743184,536.266849,-0.000000,9548.656652
85.743492,459.657299,-0.000000,9696.697840
85.743800,766.095498,222.061783,9770.718434
85.744108,766.095498,296.082377,9770.718434
85.744416,76.609550,-0.000000,9844.739029
85.744724,612.876398,222.061783,9918.759623
85.745032,536.266849,222.061783,10140.821405
85.745340,689.485948,148.041188,9696.697840
85.745648,919.314598,370.102971,9474.636058
85.745956,995.924147,370.102971,9400.615463
85.746264,919.314598,444.123565,9252.574275
85.746572,1149.143247,444.123565,9770.718434
85.746880,766.095498,444.123565,9474.636058
85.747188,842.705048,-0.000000,9622.677246
85.747496,1225.752797,444.123565,9622.677246
85.747804,459.657299,148.041188,9548.656652
85.748112,766.095498,-0.000000,9622.677246
85.748420,459.657299,148.041188,9474.636058
85.748728,612.876398,222.061783,9622.677246
85.749036,689.485948,-0.000000,9474.636058
85.749344,536.266849,370.102971,9770.718434
85.749652,459.657299,444.123565,9844.739029
85.749960,612.876398,-0.000000,9918.759623
85.750268,383.047749,148.041188,9622.677246
85.750576,0.000000,148.041188,9918.759623
85.750884,383.047749,-0.000000,9844.739029
85.751192,306.438199,222.061783,9770.718434
85.751500,306.438199,444.123565,9992.780217
85.751808,383.047749,-0.000000,9918.759623
85.752116,919.314598,296.082377,9770.718434
85.752424,689.485948,-0.000000,9474.636058
85.752732,536.266849,296.082377,9474.636058
85.753040,766.095498,370.102971,9474.636058
85.753348,612.876398,222.061783,9326.594869
85.753656,306.438199,444.123565,9400.615463
85.753964,536.266849,370.102971,9474.636058
85.754272,689.485948,592.164754,9770.718434
85.754580,842.705048,-0.000000,9548.656652
85.754888,383.047749,222.061783,9474.636058
85.755196,383.047749,222.061783,9400.615463
85.755504,229.828649,-0.000000,9474.636058
85.755812,306.438199,-74.020594,9770.718434
85.756120,383.047749,-0.000000,9696.697840
85.756428,383.047749,-74.020594,9474.636058
85.756736,76.609550,-0.000000,9474.636058
85.757044,459.657299,-74.020594,9696.697840
85.757352,766.095498,222.061783,9770.718434
85.757660,919.314598,-0.000000,9548.656652
85.757968,919.314598,296.082377,9474.636058
85.758276,689.485948,296.082377,9400.615463
85.758584,842.705048,222.061783,9474.636058
85.758892,1149.143247,518.144159,9622.677246
85.759200,995.924147,296.082377,9326.594869
85.759508,1149.143247,-0.000000,9326.594869
85.759816,842.705048,-0.000000,9474.636058
85.760124,766.095498,-0.000000,9400.615463
85.760432,306.438199,-0.000000,9622.677246
85.760740,536.266849,-0.000000,9622.677246
85.761048,536.266849,-0.000000,9622.677246
85.761356,689.485948,-74.020594,9474.636058
85.761664,1072.533697,222.061783,9622.677246
85.761972,536.266849,370.102971,9770.718434
85.762280,689.485948,74.020594,9696.697840
85.762588,459.657299,-0.000000,9918.759623
85.762896,306.438199,296.082377,9548.656652
85.763204,766.095498,-0.000000,9918.759623
85.763512,536.266849,-0.000000,9400.615463
85.763820,766.095498,-0.000000,9696.697840
85.764128,689.485948,-0.000000,9770.718434
85.764436,0.000000,-74.020594,9548.656652
85.764744,459.657299,-0.000000,9474.636058
85.765052,459.657299,222.061783,9548.656652
85.765360,612.876398,296.082377,9770.718434
85.765668,689.485948,444.123565,9474.636058
85.765976,842.705048,666.185348,9696.697840
85.766284,919.314598,296.082377,9622.677246
85.766592,306.438199,-0.000000,9474.636058
85.766900,306.438199,-0.000000,9992.780217
85.767208,76.609550,-74.020594,9696.697840
85.767516,306.438199,-0.000000,9696.697840
85.767824,306.438199,-0.000000,9770.718434
85.768132,306.438199,-0.000000,9770.718434
85.768440,383.047749,-74.020594,9770.718434
85.768748,536.266849,444.123565,9844.739029
85.769056,766.095498,-0.000000,9770.718434
85.769364,1532.190996,-0.000000,9474.636058
85.769672,383.047749,518.144159,9844.739029
85.769980,766.095498,370.102971,9548.656652
85.770288,766.095498,296.082377,9548.656652
85.770596,842.705048,296.082377,9400.615463
85.770904,689.485948,148.041188,9622.677246
85.771212,842.705048,222.061783,9474.636058
85.771520,459.657299,-0.000000,9474.636058
85.771828,689.485948,-0.000000,9474.636058
85.772136,766.095498,-0.000000,9474.636058
85.772444,689.485948,222.061783,9548.656652
85.772752,689.485948,222.061783,9326.594869
85.773060,842.705048,444.123565,9474.636058
85.773368,842.705048,296.082377,9548.656652
85.773676,459.657299,-148.041188,9400.615463
85.773984,995.924147,296.082377,9622.677246
85.774292,1072.533697,222.061783,9770.718434
85.774600,612.876398,-0.000000,9770.718434
85.774908,306.438199,-74.020594,9548.656652
85.775216,306.438199,-0.000000,9770.718434
85.775524,459.657299,-0.000000,9696.697840
85.775832,229.828649,74.020594,9548.656652
85.776140,459.657299,148.041188,9474.636058
85.776449,919.314598,-0.000000,9696.697840
85.776757,842.705048,148.041188,9474.636058
85.777065,689.485948,222.061783,9474.636058
85.777373,995.924147,370.102971,9474.636058
85.777681,919.314598,296.082377,9400.615463
85.777989,689.485948,592.164754,9548.656652
85.778297,1225.752797,-296.082377,9548.656652
85.778605,995.924147,-0.000000,9474.636058
85.778913,0.000000,-0.000000,9770.718434
85.779221,1072.533697,-296.082377,9548.656652
85.779529,383.047749,222.061783,9548.656652
85.779837,536.266849,-0.000000,9548.656652
85.780145,536.266849,-0.000000,9548.656652
85.780453,536.266849,222.061783,9696.697840
85.780761,536.266849,-74.020594,9622.677246
85.781069,842.705048,-148.041188,9548.656652
85.781377,612.876398,-0.000000,9474.636058
85.781685,919.314598,222.061783,9918.759623
85.781993,689.485948,148.041188,9474.636058
85.782301,612.876398,148.041188,9474.636058
85.782609,536.266849,296.082377,9474.636058
85.782917,919.314598,296.082377,9474.636058
85.783225,842.705048,-0.000000,9548.656652
85.783533,919.314598,-0.000000,9548.656652
85.783841,1225.752797,296.082377,9474.636058
85.784149,995.924147,222.061783,9622.677246
85.784457,689.485948,444.123565,9622.677246
85.784765,689.485948,222.061783,9696.697840
85.785073,689.485948,518.144159,9548.656652
85.785381,536.266849,222.061783,9548.656652
85.785689,612.876398,-0.000000,9844.739029
85.785997,995.924147,-74.020594,9770.718434
85.786305,995.924147,-74.020594,9696.697840
85.786613,612.876398,-148.041188,9622.677246
85.786921,766.095498,296.082377,9696.697840
85.787229,842.705048,296.082377,9696.697840
85.787537,689.485948,222.061783,9770.718434
85.787845,842.705048,222.061783,9622.677246
85.788153,919.314598,370.102971,9696.697840
85.788461,842.705048,-0.000000,9474.636058
85.788769,459.657299,370.102971,9992.780217
85.789077,1072.533697,74.020594,9770.718434
85.789385,689.485948,-0.000000,9474.636058
85.789693,689.485948,296.082377,9474.636058
85.790001,842.705048,296.082377,9622.677246
85.790309,766.095498,296.082377,9474.636058
85.790617,842.705048,222.061783,9326.594869
85.790925,919.314598,222.061783,9326.594869
85.791233,612.876398,-0.000000,9326.594869
85.791541,766.095498,370.102971,9548.656652
85.791849,689.485948,518.144159,9548.656652
85.792157,689.485948,296.082377,9474.636058
85.792465,689.485948,296.082377,9622.677246
85.792774,536.266849,148.041188,9696.697840
85.793082,612.876398,-0.000000,10066.800811
85.793390,919.314598,-296.082377,9770.718434
85.793698,306.438199,-592.164754,9548.656652
85.794006,306.438199,-74.020594,10214.842000
85.794314,153.219100,-222.061783,9696.697840
85.794622,536.266849,-0.000000,9622.677246
85.794930,612.876398,-0.000000,9548.656652
85.795238,842.705048,370.102971,9326.594869
85.795546,766.095498,370.102971,9400.615463
85.795854,1532.190996,370.102971,9326.594869
85.796162,1302.362347,222.061783,9326.594869
85.796470,1455.581446,-0.000000,9548.656652
85.796778,995.924147,296.082377,9474.636058
85.797086,766.095498,296.082377,9474.636058
85.797394,842.705048,296.082377,9474.636058
85.797702,459.657299,-0.000000,9548.656652
85.798010,229.828649,-0.000000,9622.677246
85.798318,153.219100,-0.000000,9844.739029
85.798626,459.657299,-0.000000,9918.759623
85.798934,536.266849,-0.000000,9696.697840
85.799242,383.047749,-0.000000,9844.739029
85.799550,383.047749,148.041188,9696.697840
85.799858,383.047749,222.061783,9770.718434
85.800166,536.266849,148.041188,9770.718434
85.800474,229.828649,-0.000000,9918.759623
85.800782,766.095498,296.082377,9548.656652
85.801090,459.657299,-74.020594,9474.636058
85.801398,612.876398,592.164754,9844.739029
85.801706,689.485948,296.082377,9770.718434
85.802014,612.876398,296.082377,9548.656652
85.802322,383.047749,296.082377,9474.636058
85.802630,383.047749,-0.000000,9252.574275
85.802938,306.438199,296.082377,9548.656652
85.803246,459.657299,-0.000000,9622.677246
85.803554,689.485948,222.061783,9770.718434
85.803862,383.047749,-0.000000,9770.718434
85.804170,766.095498,296.082377,9548.656652
85.804478,689.485948,444.123565,9474.636058
85.804786,536.266849,518.144159,9696.697840
85.805094,842.705048,296.082377,9474.636058
85.805402,612.876398,-0.000000,9548.656652
85.805710,0.000000,-0.000000,9548.656652
85.806018,383.047749,-0.000000,10140.821405
85.806326,459.657299,444.123565,9992.780217
85.806634,536.266849,-0.000000,9992.780217
85.806942,306.438199,-0.000000,9696.697840
85.807250,306.438199,-0.000000,9844.739029
85.807558,459.657299,-0.000000,9548.656652
85.807866,766.095498,222.061783,9844.739029
85.808174,383.047749,-74.020594,9104.533087
85.808482,1072.533697,518.144159,9622.677246
85.808791,766.095498,740.205942,9400.615463
85.809099,1072.533697,592.164754,9252.574275
85.809407,919.314598,592.164754,9252.574275
85.809715,995.924147,518.144159,9400.615463
85.810023,689.485948,-0.000000,9400.615463
85.810331,229.828649,-74.020594,9622.677246
85.810639,229.828649,-0.000000,9400.615463
85.810947,536.266849,-148.041188,9622.677246
85.811255,0.000000,-148.041188,9474.636058
85.811563,383.047749,-0.000000,9474.636058
85.811871,689.485948,222.061783,9548.656652
85.812179,536.266849,-0.000000,9696.697840
85.812487,153.219100,-0.000000,9770.718434
85.812795,459.657299,370.102971,9770.718434
85.813103,689.485948,370.102971,9622.677246
85.813411,919.314598,296.082377,9622.677246
85.813719,689.485948,296.082377,9474.636058
85.814027,689.485948,296.082377,9474.636058
85.814335,612.876398,222.061783,9548.656652
85.814643,383.047749,-0.000000,9400.615463
85.814951,1455.581446,-0.000000,9622.677246
85.815259,612.876398,-0.000000,9622.677246
85.815567,459.657299,-0.000000,9696.697840
85.815875,459.657299,-0.000000,9696.697840
85.816183,459.657299,-0.000000,9474.636058
85.816491,842.705048,222.061783,9622.677246
85.816799,766.095498,444.123565,9474.636058
85.817107,689.485948,444.123565,9474.636058
85.817415,689.485948,666.185348,9474.636058
85.817723,842.705048,296.082377,9548.656652
85.818031,766.095498,518.144159,9770.718434
85.818339,689.485948,222.061783,9622.677246
85.818647,459.657299,296.082377,9548.656652
85.818955,229.828649,-0.000000,9918.759623
85.819263,229.828649,-74.020594,9622.677246
85.819571,229.828649,-0.000000,9918.759623
85.819879,612.876398,148.041188,9696.697840
85.820187,689.485948,-222.061783,9474.636058
85.820495,383.047749,-0.000000,9622.677246
85.820803,1072.533697,-0.000000,9770.718434
85.821111,536.266849,-0.000000,9548.656652
85.821419,612.876398,518.144159,9474.636058
85.821727,689.485948,444.123565,9400.615463
85.822035,536.266849,518.144159,9622.677246
85.822343,919.314598,-0.000000,9696.697840
85.822651,459.657299,148.041188,9474.636058
85.822959,995.924147,370.102971,9474.636058
85.823267,919.314598,222.061783,9770.718434
85.823575,459.657299,296.082377,9622.677246
85.823883,306.438199,-0.000000,9770.718434
85.824191,306.438199,-0.000000,9548.656652
85.824499,229.828649,-0.000000,9622.677246
85.824807,229.828649,-74.020594,9400.615463
85.825116,459.657299,-0.000000,9992.780217
85.825424,76.609550,-74.020594,9770.718434
85.825732,383.047749,222.061783,10140.821405
85.826040,383.047749,222.061783,9622.677246
85.826348,229.828649,296.082377,9622.677246
85.826656,612.876398,148.041188,9548.656652
85.826964,536.266849,148.041188,9474.636058
85.827272,919.314598,-0.000000,9252.574275
85.827580,689.485948,296.082377,9622.677246
85.827888,383.047749,444.123565,9474.636058
85.828196,842.705048,-0.000000,9474.636058
85.828504,459.657299,-0.000000,9252.574275
85.828812,383.047749,444.123565,9474.636058
85.829120,766.095498,296.082377,9622.677246
85.829428,612.876398,148.041188,9696.697840
85.829736,995.924147,74.020594,9770.718434
85.830044,306.438199,-74.020594,9696.697840
85.830352,919.314598,-0.000000,9844.739029
85.830660,383.047749,148.041188,9770.718434
85.830968,612.876398,74.020594,9622.677246
85.831276,842.705048,222.061783,9400.615463
85.831584,766.095498,296.082377,9474.636058
85.831892,766.095498,-0.000000,9400.615463
85.832200,1072.533697,222.061783,9622.677246
85.832508,1149.143247,296.082377,9696.697840
85.832816,919.314598,-0.000000,9548.656652
85.833124,1149.143247,-0.000000,9326.594869
85.833432,689.485948,148.041188,9844.739029
85.833740,919.314598,222.061783,9770.718434
85.834048,842.705048,-0.000000,9696.697840
85.834356,1072.533697,518.144159,9548.656652
85.834664,536.266849,148.041188,9770.718434
85.834972,842.705048,-0.000000,9622.677246
85.835280,1302.362347,-0.000000,9326.594869
85.835588,1302.362347,222.061783,9104.533087
85.835896,766.095498,370.102971,9326.594869
85.836204,842.705048,-0.000000,9474.636058
85.836512,689.485948,222.061783,9400.615463
85.836820,536.266849,-0.000000,9548.656652
85.837128,689.485948,592.164754,9770.718434
85.837436,689.485948,222.061783,9918.759623
85.837744,536.266849,-222.061783,9918.759623
85.838052,1072.533697,-0.000000,9918.759623
85.838360,919.314598,-0.000000,9622.677246
85.838668,919.314598,296.082377,9696.697840
85.838976,612.876398,222.061783,9474.636058
85.839284,1838.629195,370.102971,9474.636058
85.839592,1072.533697,444.123565,9474.636058
85.839900,919.314598,222.061783,9474.636058
85.840208,1149.143247,296.082377,9474.636058
85.840516,766.095498,444.123565,9548.656652
85.840824,919.314598,370.102971,9474.636058
85.841133,689.485948,296.082377,9548.656652
85.841441,459.657299,222.061783,9474.636058
85.841749,612.876398,148.041188,9770.718434
85.842057,536.266849,518.144159,10288.862594
85.842365,689.485948,-0.000000,9918.759623
85.842673,842.705048,-0.000000,9770.718434
85.842981,612.876398,-0.000000,10140.821405
85.843289,383.047749,148.041188,9696.697840
85.843597,689.485948,296.082377,9622.677246
85.843905,689.485948,-0.000000,9474.636058
85.844213,689.485948,222.061783,9474.636058
85.844521,306.438199,222.061783,9918.759623
85.844829,612.876398,-0.000000,9770.718434
85.845137,842.705048,-74.020594,9622.677246
85.845445,459.657299,296.082377,9548.656652
85.845753,689.485948,-0.000000,9622.677246
85.846061,766.095498,222.061783,9548.656652
85.846369,612.876398,444.123565,9548.656652
85.846677,766.095498,370.102971,9548.656652
85.846985,919.314598,370.102971,9622.677246
85.847293,689.485948,222.061783,9844.739029
85.847601,1225.752797,296.082377,9474.636058
85.847909,536.266849,296.082377,9252.574275
85.848217,689.485948,370.102971,9252.574275
85.848525,459.657299,370.102971,9474.636058
85.848833,383.047749,148.041188,9548.656652
85.849141,383.047749,-0.000000,9622.677246
85.849449,612.876398,-0.000000,9696.697840
85.849757,229.828649,-0.000000,9622.677246
85.850065,383.047749,-222.061783,10140.821405
85.850373,459.657299,-74.020594,9918.759623
85.850681,459.657299,-0.000000,10066.800811
85.850989,229.828649,-0.000000,9548.656652
85.851297,612.876398,-0.000000,9474.636058
85.851605,919.314598,592.164754,9400.615463
85.851913,995.924147,296.082377,9400.615463
85.852221,995.924147,-0.000000,9474.636058
85.852529,1072.533697,518.144159,9474.636058
85.852837,842.705048,296.082377,9400.615463
85.853145,766.095498,222.061783,9326.594869
85.853453,766.095498,148.041188,9400.615463
85.853761,689.485948,-0.000000,9252.574275
85.854069,995.924147,222.061783,9622.677246
85.854377,995.924147,222.061783,9696.697840
85.854685,689.485948,-74.020594,9844.739029
85.854993,536.266849,296.082377,9844.739029
85.855301,612.876398,-0.000000,9474.636058
85.855609,612.876398,-0.000000,9474.636058
85.855917,383.047749,222.061783,9696.697840
85.856225,459.657299,-0.000000,9474.636058
85.856533,689.485948,-0.000000,9696.697840
85.856841,383.047749,-222.061783,9844.739029
85.857150,153.219100,-296.082377,9622.677246
85.857458,153.219100,-444.123565,9696.697840
85.857766,229.828649,-0.000000,9696.697840
85.858074,689.485948,370.102971,9474.636058
85.858382,995.924147,518.144159,9548.656652
85.858690,1072.533697,666.185348,9400.615463
85.858998,1225.752797,592.164754,9030.512492
85.859306,1149.143247,518.144159,9030.512492
85.859614,1608.800546,740.205942,9400.615463
85.859922,919.314598,296.082377,9770.718434
85.860230,306.438199,148.041188,9548.656652
85.860538,229.828649,-0.000000,9474.636058
85.860846,0.000000,148.041188,9770.718434
85.861154,306.438199,-0.000000,9992.780217
85.861462,459.657299,-148.041188,9696.697840
85.861770,306.438199,-444.123565,10066.800811
85.862078,459.657299,-74.020594,9992.780217
85.862386,229.828649,-74.020594,10066.800811
85.862694,383.047749,-0.000000,9918.759623
85.863002,459.657299,370.102971,9474.636058
85.863310,536.266849,296.082377,9474.636058
85.863618,536.266849,370.102971,9326.594869
85.863926,995.924147,296.082377,9548.656652
85.864234,612.876398,592.164754,9622.677246
85.864542,536.266849,-0.000000,9474.636058
85.864850,536.266849,-148.041188,9548.656652
85.865158,306.438199,222.061783,9770.718434
85.865466,612.876398,148.041188,9696.697840
85.865774,459.657299,-0.000000,9474.636058
85.866082,383.047749,148.041188,9548.656652
85.866390,766.095498,148.041188,9326.594869
85.866698,536.266849,296.082377,9696.697840
85.867006,766.095498,444.123565,9770.718434
85.867314,919.314598,-0.000000,9474.636058
85.867622,536.266849,-0.000000,9474.636058
85.867930,459.657299,222.061783,9548.656652
85.868238,612.876398,222.061783,9548.656652
85.868546,229.828649,-0.000000,9474.636058
85.868854,1149.143247,-296.082377,9992.780217
85.869162,459.657299,-148.041188,10066.800811
85.869470,153.219100,-0.000000,10140.821405
85.869778,766.095498,-0.000000,9696.697840
85.870086,383.047749,-74.020594,9770.718434
85.870394,689.485948,370.102971,9696.697840
85.870702,766.095498,444.123565,9474.636058
85.871010,919.314598,296.082377,9400.615463
85.871318,1072.533697,592.164754,9696.697840
85.871625,383.047749,148.041188,9474.636058
85.871933,766.095498,-0.000000,9326.594869
85.872241,842.705048,370.102971,9474.636058
85.872549,689.485948,296.082377,9474.636058
85.872857,536.266849,370.102971,9548.656652
85.873165,766.095498,222.061783,9474.636058
85.873473,919.314598,148.041188,9696.697840
85.873781,612.876398,-0.000000,9548.656652
85.874089,383.047749,370.102971,9770.718434
85.874397,306.438199,222.061783,9844.739029
85.874705,306.438199,-74.020594,9844.739029
85.875013,536.266849,-0.000000,9770.718434
85.875321,459.657299,296.082377,9770.718434
85.875628,536.266849,-0.000000,9770.718434
85.875936,383.047749,-0.000000,9474.636058
85.876244,842.705048,518.144159,9844.739029
85.876552,689.485948,222.061783,9844.739029
85.876860,766.095498,296.082377,9326.594869
85.877168,689.485948,-0.000000,9696.697840
85.877476,536.266849,74.020594,9474.636058
85.877784,919.314598,-0.000000,9548.656652
85.878092,536.266849,296.082377,9474.636058
85.878400,919.314598,444.123565,9622.677246
85.878708,612.876398,-0.000000,9252.574275
85.879016,842.705048,370.102971,9474.636058
85.879324,995.924147,222.061783,9992.780217
85.879631,536.266849,-0.000000,9474.636058
85.879939,612.876398,296.082377,9400.615463
85.880247,536.266849,74.020594,9548.656652
85.880555,536.266849,-0.000000,9770.718434
85.880863,536.266849,-0.000000,9696.697840
85.881171,612.876398,-222.061783,9844.739029
85.881479,383.047749,-0.000000,9770.718434
85.881787,536.266849,148.041188,9918.759623
85.882095,842.705048,-222.061783,9548.656652
85.882403,842.705048,296.082377,9474.636058
85.882711,766.095498,592.164754,9400.615463
85.883019,766.095498,444.123565,9474.636058
85.883327,995.924147,370.102971,9474.636058
85.883634,1072.533697,-0.000000,9326.594869
85.883942,689.485948,-444.123565,9178.553681
85.884250,1072.533697,-148.041188,9474.636058
85.884558,536.266849,-74.020594,9474.636058
85.884866,459.657299,-0.000000,9548.656652
85.885174,612.876398,-0.000000,9400.615463
85.885482,536.266849,148.041188,9474.636058
85.885790,229.828649,370.102971,9696.697840
85.886098,995.924147,370.102971,9844.739029
85.886406,842.705048,-74.020594,9474.636058
85.886714,1225.752797,296.082377,9326.594869
85.887022,612.876398,370.102971,9770.718434
85.887330,459.657299,-0.000000,9474.636058
85.887637,842.705048,148.041188,9696.697840
85.887945,459.657299,222.061783,9622.677246
85.888253,536.266849,222.061783,9770.718434
85.888561,383.047749,74.020594,9770.718434
85.888869,612.876398,148.041188,9548.656652
85.889177,1149.143247,518.144159,9770.718434
85.889485,995.924147,444.123565,9918.759623
85.889793,842.705048,370.102971,9474.636058
85.890101,766.095498,518.144159,9548.656652
85.890409,995.924147,370.102971,9474.636058
85.890717,612.876398,592.164754,9474.636058
85.891025,383.047749,74.020594,9474.636058
85.891333,995.924147,444.123565,9622.677246
85.891640,766.095498,370.102971,10066.800811
85.891948,383.047749,-0.000000,9696.697840
85.892256,383.047749,296.082377,9992.780217
85.892564,612.876398,148.041188,9844.739029
85.892872,383.047749,148.041188,9844.739029
85.893180,842.705048,-0.000000,9770.718434
85.893488,766.095498,-0.000000,9918.759623
85.893796,689.485948,-370.102971,9992.780217
85.894104,919.314598,-370.102971,9918.759623
85.894412,689.485948,-0.000000,9770.718434
85.894720,766.095498,370.102971,9474.636058
85.895028,842.705048,222.061783,9326.594869
85.895336,766.095498,370.102971,9474.636058
85.895643,995.924147,518.144159,9326.594869
85.895951,1302.362347,370.102971,9622.677246
85.896259,1302.362347,592.164754,9622.677246
85.896567,1072.533697,444.123565,9770.718434
85.896875,995.924147,148.041188,9252.574275
85.897183,842.705048,370.102971,9548.656652
85.897491,459.657299,-0.000000,9548.656652
85.897799,536.266849,148.041188,9622.677246
85.898107,689.485948,-148.041188,9474.636058
85.898415,612.876398,-0.000000,9918.759623
85.898723,1149.143247,-0.000000,9548.656652
85.899031,842.705048,-0.000000,9770.718434
85.899339,383.047749,-0.000000,9622.677246
85.899646,459.657299,-0.000000,9622.677246
85.899954,383.047749,-0.000000,9548.656652
85.900262,459.657299,-0.000000,9770.718434
85.900570,689.485948,-148.041188,9474.636058
85.900878,995.924147,-0.000000,9474.636058
85.901186,995.924147,-74.020594,9474.636058
85.901494,1072.533697,370.102971,9474.636058
85.901802,995.924147,-0.000000,9548.656652
85.902110,919.314598,-0.000000,9400.615463
85.902418,612.876398,296.082377,9326.594869
85.902726,536.266849,-0.000000,9400.615463
85.903034,383.047749,-222.061783,9474.636058
85.903342,995.924147,148.041188,9400.615463
85.903649,919.314598,518.144159,9548.656652
85.903957,383.047749,-0.000000,9252.574275
85.904265,383.047749,296.082377,9548.656652
85.904573,612.876398,-0.000000,9622.677246
85.904881,459.657299,-0.000000,9400.615463
85.905189,536.266849,-0.000000,9474.636058
85.905497,459.657299,-74.020594,9474.636058
85.905805,689.485948,-222.061783,9770.718434
85.906113,459.657299,-0.000000,9548.656652
85.906421,459.657299,-296.082377,9474.636058
85.906729,383.047749,-0.000000,9548.656652
85.907037,383.047749,-0.000000,9696.697840
85.907345,459.657299,370.102971,9474.636058
85.907652,612.876398,296.082377,9400.615463
85.907960,1072.533697,148.041188,9548.656652
85.908268,612.876398,-0.000000,9622.677246
85.908576,1149.143247,296.082377,9770.718434
85.908884,766.095498,-0.000000,9474.636058
85.909192,1149.143247,518.144159,9326.594869
85.909500,842.705048,592.164754,9400.615463
85.909808,689.485948,148.041188,9474.636058
85.910116,383.047749,296.082377,9696.697840
85.910424,-306.438199,222.061783,10214.842000
85.910732,689.485948,296.082377,9844.739029
85.911040,383.047749,-0.000000,9992.780217
85.911348,536.266849,-0.000000,9992.780217
85.911655,306.438199,-0.000000,9770.718434
85.911963,459.657299,296.082377,9696.697840
85.912271,536.266849,148.041188,9844.739029
85.912579,459.657299,-0.000000,9548.656652
85.912887,995.924147,296.082377,9918.759623
85.913195,766.095498,-0.000000,9474.636058
85.913503,689.485948,444.123565,9770.718434
85.913811,995.924147,-0.000000,9622.677246
85.914119,919.314598,-0.000000,9474.636058
85.914427,612.876398,518.144159,9474.636058
85.914735,689.485948,-0.000000,9252.574275
85.915043,842.705048,-0.000000,9474.636058
85.915351,536.266849,-0.000000,9696.697840
85.915658,383.047749,370.102971,9548.656652
85.915966,842.705048,-148.041188,9474.636058
85.916274,766.095498,-0.000000,9622.677246
85.916582,459.657299,296.082377,9548.656652
85.916890,536.266849,296.082377,9696.697840
85.917198,689.485948,148.041188,9548.656652
85.917506,229.828649,148.041188,9918.759623
85.917814,153.219100,-0.000000,10214.842000
85.918122,536.266849,-222.061783,9918.759623
85.918430,383.047749,-148.041188,9696.697840
85.918738,383.047749,-148.041188,9696.697840
85.919046,459.657299,-0.000000,9548.656652
85.919354,536.266849,-0.000000,9770.718434
85.919661,459.657299,-0.000000,9622.677246
85.919969,536.266849,370.102971,9400.615463
85.920277,919.314598,148.041188,9400.615463
85.920585,1149.143247,370.102971,9548.656652
85.920893,842.705048,296.082377,9474.636058
85.921201,842.705048,370.102971,9104.533087
85.921509,689.485948,592.164754,9474.636058
85.921817,612.876398,296.082377,9326.594869
85.922125,536.266849,296.082377,9696.697840
85.922433,153.219100,-0.000000,9474.636058
85.922741,459.657299,-0.000000,9622.677246
85.923049,536.266849,222.061783,9548.656652
85.923357,306.438199,-0.000000,9548.656652
85.923664,459.657299,222.061783,9918.759623
85.923972,0.000000,-74.020594,9548.656652
85.924280,76.609550,-0.000000,9992.780217
85.924588,229.828649,-0.000000,9622.677246
85.924896,0.000000,-296.082377,9844.739029
85.925204,842.705048,-74.020594,9770.718434
85.925512,689.485948,-0.000000,9696.697840
85.925820,612.876398,-0.000000,9548.656652
85.926128,689.485948,-0.000000,10140.821405
85.926436,536.266849,296.082377,9474.636058
85.926744,689.485948,222.061783,9474.636058
85.927052,919.314598,-0.000000,9548.656652
85.927360,459.657299,148.041188,9400.615463
85.927667,306.438199,222.061783,9474.636058
85.927975,766.095498,-0.000000,9474.636058
85.928283,766.095498,222.061783,9474.636058
85.928591,766.095498,222.061783,9696.697840
85.928899,536.266849,370.102971,9622.677246
85.929207,689.485948,444.123565,9548.656652
85.929515,536.266849,444.123565,9474.636058
85.929823,842.705048,518.144159,9474.636058
85.930131,919.314598,-0.000000,9548.656652
85.930439,612.876398,-0.000000,9696.697840
85.930747,536.266849,-74.020594,10140.821405
85.931055,0.000000,-0.000000,9918.759623
85.931363,383.047749,-74.020594,9844.739029
85.931670,229.828649,-0.000000,10066.800811
85.931978,459.657299,-74.020594,9696.697840
85.932286,842.705048,148.041188,9326.594869
85.932594,536.266849,74.020594,9400.615463
85.932902,1608.800546,148.041188,9400.615463
85.933210,1455.581446,296.082377,9178.553681
85.933518,1302.362347,518.144159,9104.533087
85.933826,1149.143247,666.185348,9104.533087
85.934134,1455.581446,666.185348,9252.574275
85.934442,1149.143247,518.144159,9474.636058
85.934750,842.705048,222.061783,9770.718434
85.935058,842.705048,296.082377,9622.677246
85.935366,766.095498,-222.061783,9770.718434
85.935673,459.657299,-148.041188,9622.677246
85.935981,229.828649,-222.061783,9622.677246
85.936289,536.266849,-74.020594,10066.800811
85.936597,536.266849,-0.000000,9918.759623
85.936905,459.657299,-0.000000,9770.718434
85.937213,383.047749,-148.041188,10140.821405
85.937521,766.095498,-148.041188,9696.697840
85.937829,1225.752797,-0.000000,9548.656652
85.938137,842.705048,-0.000000,9622.677246
85.938445,919.314598,296.082377,9474.636058
85.938753,919.314598,370.102971,9474.636058
85.939061,1072.533697,444.123565,9400.615463
85.939369,842.705048,444.123565,9252.574275
85.939676,995.924147,148.041188,9474.636058
85.939984,766.095498,-0.000000,9548.656652
85.940292,919.314598,-74.020594,9326.594869
85.940600,995.924147,-148.041188,9622.677246
85.940908,766.095498,222.061783,9474.636058
85.941216,689.485948,296.082377,9622.677246
85.941524,612.876398,-0.000000,9622.677246
85.941832,766.095498,296.082377,9622.677246
85.942140,689.485948,-0.000000,9622.677246
85.942448,766.095498,518.144159,9622.677246
85.942756,229.828649,-0.000000,9844.739029
85.943064,612.876398,222.061783,9844.739029
85.943372,612.876398,222.061783,9474.636058
85.943679,459.657299,222.061783,9474.636058
85.943987,383.047749,148.041188,9696.697840
85.944295,536.266849,-74.020594,9696.697840
85.944603,689.485948,-0.000000,9918.759623
85.944911,1072.533697,-0.000000,10214.842000
85.945219,689.485948,-74.020594,9622.677246
85.945527,153.219100,-0.000000,9696.697840
85.945835,459.657299,-0.000000,9844.739029
85.946143,612.876398,222.061783,9474.636058
85.946451,689.485948,370.102971,9400.615463
85.946759,842.705048,444.123565,9474.636058
85.947067,1149.143247,592.164754,9474.636058
85.947375,919.314598,518.144159,9474.636058
85.947682,1302.362347,370.102971,9400.615463
85.947990,536.266849,296.082377,9178.553681
85.948298,536.266849,148.041188,9474.636058
85.948606,766.095498,444.123565,9770.718434
85.948914,306.438199,-0.000000,9696.697840
85.949222,229.828649,-0.000000,9770.718434
85.949530,383.047749,-0.000000,9992.780217
85.949838,0.000000,-296.082377,10066.800811
85.950146,306.438199,-0.000000,10510.924376
85.950454,76.609550,-0.000000,10362.883188
85.950762,76.609550,-0.000000,9696.697840
85.951070,306.438199,296.082377,9918.759623
85.951378,842.705048,-0.000000,9548.656652
85.951685,766.095498,370.102971,9548.656652
85.951993,842.705048,296.082377,9770.718434
85.952301,766.095498,296.082377,9400.615463
85.952609,459.657299,222.061783,9326.594869
85.952917,766.095498,518.144159,9178.553681
85.953225,1072.533697,592.164754,9178.553681
85.953533,766.095498,444.123565,9104.533087
85.953841,612.876398,296.082377,9474.636058
85.954149,459.657299,-0.000000,9474.636058
85.954457,536.266849,-0.000000,9770.718434
85.954765,306.438199,-74.020594,10140.821405
85.955073,383.047749,-0.000000,9844.739029
85.955381,306.438199,-444.123565,10140.821405
85.955688,306.438199,-0.000000,9844.739029
85.955996,383.047749,-0.000000,9918.759623
85.956304,229.828649,-0.000000,9770.718434
85.956612,459.657299,-74.020594,9696.697840
85.956920,459.657299,-0.000000,9474.636058
85.957228,1072.533697,-0.000000,9474.636058
85.957536,1149.143247,518.144159,9178.553681
85.957844,766.095498,740.205942,9104.533087
85.958152,919.314598,666.185348,9326.594869
85.958460,919.314598,518.144159,9178.553681
85.958768,919.314598,370.102971,9400.615463
85.959076,689.485948,296.082377,9548.656652
85.959384,766.095498,-148.041188,9770.718434
85.959691,153.219100,-296.082377,9696.697840
85.959999,612.876398,-74.020594,9696.697840
85.960307,-153.219100,-296.082377,9918.759623
85.960615,153.219100,-74.020594,9696.697840
85.960923,459.657299,-0.000000,9622.677246
85.961231,229.828649,148.041188,9622.677246
85.961539,459.657299,370.102971,9474.636058
85.961847,306.438199,-0.000000,9474.636058
85.962155,0.000000,370.102971,9474.636058
85.962463,383.047749,222.061783,9400.615463
85.962771,383.047749,-0.000000,9474.636058
85.963079,306.438199,-0.000000,9844.739029
85.963387,459.657299,-0.000000,9770.718434
85.963694,306.438199,148.041188,9696.697840
85.964002,536.266849,222.061783,9844.739029
85.964310,842.705048,-148.041188,9400.615463
85.964618,842.705048,-0.000000,9918.759623
85.964926,612.876398,-148.041188,9474.636058
85.965234,766.095498,-0.000000,9474.636058
85.965542,459.657299,296.082377,9400.615463
85.965850,995.924147,222.061783,9474.636058
85.966158,689.485948,592.164754,9400.615463
85.966466,612.876398,370.102971,9326.594869
85.966774,995.924147,-0.000000,9326.594869
85.967082,536.266849,592.164754,9770.718434
85.967389,306.438199,370.102971,9992.780217
85.967697,383.047749,370.102971,9992.780217
85.968005,536.266849,222.061783,9992.780217
85.968313,383.047749,-0.000000,9992.780217
85.968621,306.438199,148.041188,9918.759623
85.968929,612.876398,-0.000000,9992.780217
85.969237,153.219100,148.041188,9696.697840
85.969545,306.438199,-0.000000,9918.759623
85.969853,919.314598,-0.000000,9770.718434
85.970161,612.876398,444.123565,9252.574275
85.970469,842.705048,370.102971,9474.636058
85.970777,766.095498,444.123565,9474.636058
85.971084,1149.143247,444.123565,9326.594869
85.971392,919.314598,296.082377,9326.594869
85.971700,766.095498,296.082377,9400.615463
