#time,accel_x,accel_y,accel_z
420.382099,-401.994197,38.285162,-8441.878133
420.384641,38.285162,-1569.691626,-12002.398162
420.387182,248.853550,-1512.263883,-7503.891674
420.389724,-803.988394,-2086.541307,-10317.851051
420.392265,861.416136,-2775.674216,-9513.862658
420.394807,-784.845813,-2048.256146,-9954.142016
420.397348,-0.000000,-2086.541307,-8384.450390
420.399890,325.423874,-1416.550979,-9820.143950
420.402431,-765.703232,-784.845813,-11715.259450
420.404973,421.136778,-497.707101,-5915.057467
420.407514,-382.851616,-1052.841944,-13725.230434
420.410056,-133.998066,-1091.127106,-6163.911018
420.412598,382.851616,-1971.685822,-8078.169098
420.415139,-421.136778,-1588.834206,-12270.394293
420.417681,95.712904,-995.414202,-7389.036189
420.420222,229.710970,-995.414202,-11045.269122
420.422764,-478.564520,-957.129040,-9552.147819
420.425305,267.996131,-918.843878,-9054.440718
420.427847,-401.994197,-727.418070,-10068.997501
420.430388,-133.998066,-1014.556782,-10011.569758
420.432930,57.427742,-803.988394,-9188.438784
420.435471,-153.140646,-918.843878,-9494.720077
420.438013,-19.142581,-995.414202,-10738.987829
420.440554,-172.283227,-727.418070,-8193.024582
420.443096,-153.140646,-1014.556782,-10585.847182
420.445637,-95.712904,-1052.841944,-9839.286531
420.448179,-267.996131,-842.273555,-8882.157491
420.450720,-172.283227,-995.414202,-10853.843314
420.453262,-38.285162,-746.560651,-8997.012976
420.455803,-114.855485,-957.129040,-9533.005238
420.458345,172.283227,-1186.840010,-9973.284597
420.460886,-95.712904,-957.129040,-9513.862658
420.463428,-172.283227,-784.845813,-9877.571693
420.465969,-0.000000,-861.416136,-9667.003304
420.468511,-19.142581,-1014.556782,-9724.431046
420.471052,-57.427742,-861.416136,-9188.438784
420.473594,-76.570323,-861.416136,-10049.854920
420.476136,-76.570323,-937.986459,-9667.003304
420.478677,-0.000000,-842.273555,-9360.722011
420.481219,-133.998066,-1110.269686,-10030.712339
420.483610,-57.427742,-880.558717,-9552.147819
420.486001,-95.712904,-880.558717,-9513.862658
420.488392,-76.570323,-1033.699363,-10088.140082
420.490783,-76.570323,-899.701298,-9265.009107
420.493174,-133.998066,-842.273555,-9820.143950
420.495565,-38.285162,-957.129040,-9743.573627
420.497955,-133.998066,-861.416136,-9475.577496
420.500346,-153.140646,-861.416136,-9552.147819
420.502737,-172.283227,-937.986459,-9934.999435
420.505128,-38.285162,-899.701298,-9552.147819
420.507519,-38.285162,-995.414202,-9628.718142
420.509910,-95.712904,-976.271621,-9820.143950
420.512301,-133.998066,-861.416136,-9437.292334
420.514692,-114.855485,-937.986459,-9628.718142
420.517083,-133.998066,-899.701298,-9743.573627
420.519474,-133.998066,-918.843878,-9552.147819
420.521865,-57.427742,-899.701298,-9820.143950
420.524256,-133.998066,-957.129040,-9571.290400
420.526647,-133.998066,-1014.556782,-9571.290400
420.529038,-95.712904,-957.129040,-9820.143950
420.531429,-76.570323,-823.130974,-9609.575562
420.533820,-95.712904,-1014.556782,-9590.432981
420.536211,-57.427742,-1033.699363,-9647.860723
420.538602,-172.283227,-784.845813,-9896.714274
420.540993,-76.570323,-823.130974,-9456.434915
420.543384,-153.140646,-861.416136,-9686.145885
420.545775,-133.998066,-976.271621,-9571.290400
420.548166,-133.998066,-842.273555,-9475.577496
420.550557,-153.140646,-918.843878,-9762.716208
420.552948,-114.855485,-842.273555,-9494.720077
420.555339,-114.855485,-823.130974,-9667.003304
420.557730,-76.570323,-861.416136,-9743.573627
420.560121,-57.427742,-976.271621,-9475.577496
420.562512,-95.712904,-976.271621,-9839.286531
420.564903,-133.998066,-861.416136,-9743.573627
420.567294,-114.855485,-937.986459,-9494.720077
420.569685,-95.712904,-976.271621,-9743.573627
420.572076,-95.712904,-957.129040,-9877.571693
420.574467,-95.712904,-957.129040,-9437.292334
420.576858,-133.998066,-1071.984525,-9705.288466
420.579300,-95.712904,-918.843878,-9686.145885
420.581742,-0.000000,-899.701298,-9513.862658
420.584184,-57.427742,-918.843878,-9724.431046
420.586626,-57.427742,-957.129040,-9667.003304
420.589067,-76.570323,-899.701298,-9667.003304
420.591509,-114.855485,-937.986459,-9743.573627
420.593951,-153.140646,-918.843878,-9628.718142
420.596393,-57.427742,-861.416136,-9628.718142
420.598835,-114.855485,-880.558717,-9743.573627
420.601277,-153.140646,-842.273555,-9513.862658
420.603718,-0.000000,-899.701298,-9667.003304
420.606160,-95.712904,-957.129040,-9743.573627
420.608602,-76.570323,-899.701298,-9571.290400
420.611044,-76.570323,-918.843878,-9571.290400
420.613486,-153.140646,-957.129040,-9858.429112
420.615928,-114.855485,-918.843878,-9571.290400
420.618369,-95.712904,-861.416136,-9513.862658
420.620811,-76.570323,-899.701298,-9667.003304
420.623253,-57.427742,-823.130974,-9571.290400
420.625695,-76.570323,-880.558717,-9609.575562
420.628137,-76.570323,-976.271621,-9781.858789
420.630579,-38.285162,-957.129040,-9552.147819
420.633020,-114.855485,-823.130974,-9571.290400
420.635462,-38.285162,-823.130974,-9743.573627
420.637904,-172.283227,-708.275490,-9801.001370
420.640346,-57.427742,-976.271621,-9418.149754
420.642788,-57.427742,-1014.556782,-9571.290400
420.645230,-191.425808,-593.420005,-10049.854920
420.647671,-133.998066,-899.701298,-9552.147819
420.650113,-95.712904,-1167.697429,-9379.864592
420.652555,-57.427742,-842.273555,-10011.569758
420.654997,-114.855485,-746.560651,-9494.720077
420.657439,-76.570323,-861.416136,-9667.003304
420.659881,-38.285162,-1110.269686,-9705.288466
420.662322,-76.570323,-918.843878,-9571.290400
420.664764,-38.285162,-861.416136,-9762.716208
420.667206,-95.712904,-842.273555,-9513.862658
420.669648,-76.570323,-880.558717,-9667.003304
420.672090,-153.140646,-957.129040,-9762.716208
420.674532,-38.285162,-957.129040,-9475.577496
420.677007,-76.570323,-899.701298,-9667.003304
420.679482,-95.712904,-880.558717,-9954.142016
420.681957,-95.712904,-957.129040,-9379.864592
420.684432,-76.570323,-957.129040,-9686.145885
420.686907,-38.285162,-937.986459,-9858.429112
420.689382,-153.140646,-899.701298,-9456.434915
420.691857,-114.855485,-880.558717,-9647.860723
420.694332,-133.998066,-861.416136,-9724.431046
420.696807,-57.427742,-976.271621,-9647.860723
420.699282,-95.712904,-995.414202,-9743.573627
420.701757,-95.712904,-899.701298,-9609.575562
420.704232,-114.855485,-842.273555,-9705.288466
420.706707,-172.283227,-842.273555,-9781.858789
420.709182,-76.570323,-842.273555,-9533.005238
420.711657,-95.712904,-918.843878,-9609.575562
420.714132,-38.285162,-1071.984525,-9781.858789
420.716607,-38.285162,-995.414202,-9590.432981
420.719082,-114.855485,-880.558717,-9667.003304
420.721557,-114.855485,-937.986459,-9552.147819
420.724032,-114.855485,-918.843878,-9628.718142
420.726507,-76.570323,-880.558717,-9571.290400
420.728982,-133.998066,-861.416136,-9686.145885
420.731457,-133.998066,-823.130974,-9705.288466
420.733932,-133.998066,-823.130974,-9667.003304
420.736407,-95.712904,-899.701298,-9667.003304
420.738882,-95.712904,-861.416136,-9667.003304
420.741357,-19.142581,-1071.984525,-9667.003304
420.743832,-76.570323,-1071.984525,-9705.288466
420.746307,-95.712904,-880.558717,-9705.288466
420.748782,-133.998066,-746.560651,-9724.431046
420.751257,-114.855485,-880.558717,-9686.145885
420.753732,-57.427742,-1033.699363,-9456.434915
420.756207,-76.570323,-937.986459,-9781.858789
420.758682,-133.998066,-823.130974,-9724.431046
420.761157,-172.283227,-823.130974,-9667.003304
420.763632,-133.998066,-1014.556782,-9705.288466
420.766107,-38.285162,-957.129040,-9686.145885
420.768582,-95.712904,-937.986459,-9571.290400
420.771057,-172.283227,-823.130974,-9571.290400
420.773532,-95.712904,-976.271621,-9513.862658
420.775926,-95.712904,-995.414202,-9590.432981
420.778320,-38.285162,-918.843878,-9781.858789
420.780714,-38.285162,-899.701298,-9743.573627
420.783108,-57.427742,-937.986459,-9628.718142
420.785502,-133.998066,-861.416136,-9686.145885
420.787896,-76.570323,-957.129040,-9628.718142
420.790290,-95.712904,-995.414202,-9647.860723
420.792684,-57.427742,-880.558717,-9647.860723
420.795077,-76.570323,-918.843878,-9667.003304
420.797471,-95.712904,-957.129040,-9781.858789
420.799865,-133.998066,-861.416136,-9628.718142
420.802259,-114.855485,-957.129040,-9552.147819
420.804653,-95.712904,-957.129040,-9686.145885
420.807047,-95.712904,-918.843878,-9667.003304
420.809441,-114.855485,-918.843878,-9647.860723
420.811835,-133.998066,-957.129040,-9628.718142
420.814229,-114.855485,-918.843878,-9667.003304
420.816623,-57.427742,-880.558717,-9743.573627
420.819017,-38.285162,-861.416136,-9686.145885
420.821411,-95.712904,-861.416136,-9571.290400
420.823805,-114.855485,-823.130974,-9628.718142
420.826198,-172.283227,-765.703232,-9705.288466
420.828592,-57.427742,-899.701298,-9647.860723
420.830986,-57.427742,-880.558717,-9743.573627
420.833380,-57.427742,-937.986459,-9571.290400
420.835774,-57.427742,-880.558717,-9571.290400
420.838168,-76.570323,-880.558717,-9743.573627
420.840562,-133.998066,-823.130974,-9667.003304
420.842956,-114.855485,-1033.699363,-9533.005238
420.845350,-95.712904,-995.414202,-9667.003304
420.847744,-57.427742,-995.414202,-9647.860723
420.850138,-133.998066,-708.275490,-9705.288466
420.852532,-172.283227,-861.416136,-9686.145885
420.854926,-0.000000,-995.414202,-9552.147819
420.857319,-0.000000,-918.843878,-9647.860723
420.859713,-76.570323,-937.986459,-9667.003304
420.862107,-95.712904,-918.843878,-9781.858789
420.864501,-114.855485,-880.558717,-9686.145885
420.866895,-57.427742,-937.986459,-9667.003304
420.869289,-57.427742,-937.986459,-9686.145885
420.871735,-76.570323,-823.130974,-9647.860723
420.874180,-95.712904,-880.558717,-9609.575562
420.876626,-76.570323,-918.843878,-9686.145885
420.879071,-76.570323,-995.414202,-9667.003304
420.881517,-133.998066,-899.701298,-9609.575562
420.883962,-57.427742,-937.986459,-9686.145885
420.886407,-76.570323,-861.416136,-9743.573627
420.888853,-114.855485,-918.843878,-9647.860723
420.891298,-76.570323,-937.986459,-9743.573627
420.893744,-114.855485,-937.986459,-9571.290400
420.896189,-114.855485,-880.558717,-9647.860723
420.898635,-76.570323,-861.416136,-9571.290400
420.901080,-114.855485,-880.558717,-9686.145885
420.903526,-95.712904,-899.701298,-9571.290400
420.905971,-38.285162,-976.271621,-9801.001370
420.908417,-95.712904,-823.130974,-9609.575562
420.910862,-38.285162,-918.843878,-9743.573627
420.913308,-133.998066,-861.416136,-9628.718142
420.915753,-95.712904,-918.843878,-9762.716208
420.918199,-153.140646,-918.843878,-9743.573627
420.920644,-76.570323,-937.986459,-9667.003304
420.923090,-57.427742,-957.129040,-9533.005238
420.925535,-57.427742,-918.843878,-9686.145885
420.927981,-57.427742,-899.701298,-9628.718142
420.930426,-57.427742,-937.986459,-9609.575562
420.932872,-38.285162,-918.843878,-9743.573627
420.935317,-57.427742,-937.986459,-9609.575562
420.937763,-76.570323,-995.414202,-9705.288466
420.940208,-114.855485,-842.273555,-9762.716208
420.942654,-133.998066,-765.703232,-9724.431046
420.945099,-153.140646,-995.414202,-9590.432981
420.947545,-114.855485,-1033.699363,-9647.860723
420.949990,-133.998066,-842.273555,-9781.858789
420.952436,-114.855485,-823.130974,-9628.718142
420.954881,-114.855485,-842.273555,-9609.575562
420.957327,-114.855485,-861.416136,-9667.003304
420.959772,-57.427742,-937.986459,-9667.003304
420.962218,-95.712904,-842.273555,-9743.573627
420.964663,-114.855485,-899.701298,-9628.718142
420.967109,-114.855485,-937.986459,-9762.716208
420.969590,-133.998066,-765.703232,-9705.288466
420.972072,-95.712904,-899.701298,-9552.147819
420.974553,-76.570323,-957.129040,-9743.573627
420.977035,-76.570323,-937.986459,-9609.575562
420.979516,-95.712904,-937.986459,-9571.290400
420.981998,-95.712904,-918.843878,-9724.431046
420.984479,-57.427742,-937.986459,-9628.718142
420.986961,-76.570323,-918.843878,-9647.860723
420.989442,-133.998066,-823.130974,-9705.288466
420.991924,-133.998066,-880.558717,-9781.858789
420.994405,-76.570323,-880.558717,-9552.147819
420.996887,-76.570323,-899.701298,-9647.860723
420.999368,-114.855485,-880.558717,-9647.860723
421.001850,-172.283227,-1033.699363,-9475.577496
421.004331,-95.712904,-880.558717,-9743.573627
421.006813,-95.712904,-861.416136,-9781.858789
421.009294,-95.712904,-803.988394,-9647.860723
421.011776,-57.427742,-899.701298,-9571.290400
421.014257,-95.712904,-899.701298,-9705.288466
421.016739,-76.570323,-842.273555,-9781.858789
421.019220,-133.998066,-765.703232,-9686.145885
421.021702,-133.998066,-861.416136,-9494.720077
421.024183,-133.998066,-823.130974,-9781.858789
421.026665,-95.712904,-957.129040,-9360.722011
421.029146,-38.285162,-995.414202,-9705.288466
421.031628,-114.855485,-1033.699363,-9647.860723
421.034109,-57.427742,-957.129040,-9647.860723
421.036591,-133.998066,-689.132909,-9896.714274
421.039072,-19.142581,-918.843878,-9533.005238
421.041554,-57.427742,-1033.699363,-9513.862658
421.044035,-57.427742,-861.416136,-10030.712339
421.046517,-172.283227,-727.418070,-9647.860723
421.048998,-95.712904,-995.414202,-9399.007173
421.051480,-133.998066,-937.986459,-9743.573627
421.053961,-76.570323,-727.418070,-9705.288466
421.056443,-114.855485,-823.130974,-9647.860723
421.058924,-114.855485,-976.271621,-9724.431046
421.061405,-76.570323,-976.271621,-9437.292334
421.063887,-57.427742,-995.414202,-9686.145885
421.066368,-95.712904,-784.845813,-9820.143950
421.068877,-38.285162,-861.416136,-9456.434915
421.071385,-57.427742,-1033.699363,-9896.714274
421.073893,-38.285162,-1014.556782,-9571.290400
421.076402,-57.427742,-918.843878,-9667.003304
421.078910,-172.283227,-880.558717,-9743.573627
421.081418,-76.570323,-937.986459,-9494.720077
421.083927,-172.283227,-937.986459,-9667.003304
421.086435,-133.998066,-861.416136,-9973.284597
421.088943,-114.855485,-803.988394,-9590.432981
421.091451,-57.427742,-880.558717,-9628.718142
421.093960,-95.712904,-880.558717,-9667.003304
421.096468,-76.570323,-861.416136,-9609.575562
421.098976,-153.140646,-803.988394,-9647.860723
421.101485,-57.427742,-937.986459,-9667.003304
421.103993,-153.140646,-861.416136,-9533.005238
421.106501,-153.140646,-861.416136,-9743.573627
421.109009,-133.998066,-937.986459,-9647.860723
421.111518,-76.570323,-1033.699363,-9686.145885
421.114026,-57.427742,-880.558717,-9647.860723
421.116534,-76.570323,-746.560651,-9724.431046
421.119043,-95.712904,-861.416136,-9533.005238
421.121551,-38.285162,-995.414202,-9628.718142
421.124059,-76.570323,-899.701298,-9667.003304
421.126568,-114.855485,-880.558717,-9686.145885
421.129076,-133.998066,-918.843878,-9686.145885
421.131584,-19.142581,-1033.699363,-9628.718142
421.134092,-133.998066,-1014.556782,-9533.005238
421.136601,-38.285162,-823.130974,-9705.288466
421.139109,-57.427742,-899.701298,-9628.718142
421.141617,-114.855485,-727.418070,-9724.431046
421.144126,-95.712904,-918.843878,-9647.860723
421.146634,-0.000000,-995.414202,-9552.147819
421.149142,-0.000000,-861.416136,-9705.288466
421.151650,-172.283227,-880.558717,-9667.003304
421.154159,-76.570323,-918.843878,-9571.290400
421.156667,-76.570323,-880.558717,-9571.290400
421.159175,-38.285162,-880.558717,-9781.858789
421.161684,-114.855485,-918.843878,-9667.003304
421.164192,-114.855485,-937.986459,-9686.145885
421.166700,-95.712904,-918.843878,-9686.145885
421.169227,-76.570323,-880.558717,-9686.145885
421.171753,-114.855485,-995.414202,-9609.575562
421.174278,-95.712904,-995.414202,-9571.290400
421.176804,-114.855485,-957.129040,-9762.716208
421.179330,-114.855485,-899.701298,-9609.575562
421.181856,-57.427742,-823.130974,-9571.290400
421.184382,-76.570323,-880.558717,-9647.860723
421.186908,-114.855485,-899.701298,-9628.718142
421.189434,-114.855485,-899.701298,-9667.003304
421.191960,-114.855485,-880.558717,-9667.003304
421.194486,-114.855485,-899.701298,-9686.145885
421.197011,-76.570323,-918.843878,-9686.145885
421.199537,-38.285162,-976.271621,-9628.718142
421.202063,-95.712904,-937.986459,-9667.003304
421.204589,-95.712904,-918.843878,-9609.575562
421.207115,-95.712904,-861.416136,-9667.003304
421.209641,-133.998066,-842.273555,-9628.718142
421.212167,-57.427742,-937.986459,-9667.003304
421.214693,-114.855485,-918.843878,-9667.003304
421.217219,-95.712904,-823.130974,-9743.573627
421.219745,-76.570323,-823.130974,-9571.290400
421.222270,-38.285162,-957.129040,-9552.147819
421.224796,-76.570323,-861.416136,-9743.573627
421.227322,-114.855485,-918.843878,-9686.145885
421.229848,-114.855485,-1014.556782,-9590.432981
421.232374,-133.998066,-842.273555,-9705.288466
421.234900,-133.998066,-708.275490,-9667.003304
421.237426,-57.427742,-899.701298,-9667.003304
421.239952,-38.285162,-1052.841944,-9533.005238
421.242478,-57.427742,-880.558717,-9743.573627
421.245003,-153.140646,-669.990328,-9781.858789
421.247529,-38.285162,-899.701298,-9590.432981
421.250055,-114.855485,-976.271621,-9609.575562
421.252581,-57.427742,-957.129040,-9762.716208
421.255107,-0.000000,-957.129040,-9590.432981
421.257633,-172.283227,-880.558717,-9686.145885
421.260159,-114.855485,-880.558717,-9609.575562
421.262685,-76.570323,-880.558717,-9628.718142
421.265211,-38.285162,-918.843878,-9762.716208
421.267737,-57.427742,-937.986459,-9552.147819
421.270275,-133.998066,-899.701298,-9743.573627
421.272813,-95.712904,-899.701298,-9743.573627
421.275351,-57.427742,-899.701298,-9609.575562
421.277889,-114.855485,-918.843878,-9667.003304
421.280427,-114.855485,-880.558717,-9628.718142
421.282965,-57.427742,-937.986459,-9667.003304
421.285503,-76.570323,-842.273555,-9647.860723
421.288041,-133.998066,-880.558717,-9686.145885
421.290579,-57.427742,-995.414202,-9705.288466
421.293118,-133.998066,-899.701298,-9743.573627
421.295656,-133.998066,-803.988394,-9724.431046
421.298194,-114.855485,-880.558717,-9628.718142
421.300732,-114.855485,-957.129040,-9686.145885
421.303270,-114.855485,-995.414202,-9705.288466
421.305808,-114.855485,-823.130974,-9667.003304
421.308346,-57.427742,-937.986459,-9628.718142
421.310884,-57.427742,-937.986459,-9628.718142
421.313422,-57.427742,-937.986459,-9667.003304
421.315961,-95.712904,-842.273555,-9743.573627
421.318499,-76.570323,-937.986459,-9667.003304
421.321037,-76.570323,-880.558717,-9743.573627
421.323575,-0.000000,-880.558717,-9647.860723
421.326113,-95.712904,-880.558717,-9609.575562
421.328651,-95.712904,-861.416136,-9743.573627
421.331189,-133.998066,-880.558717,-9724.431046
421.333727,-95.712904,-823.130974,-9571.290400
421.336265,-38.285162,-957.129040,-9743.573627
421.338803,-76.570323,-899.701298,-9513.862658
421.341342,-95.712904,-803.988394,-9705.288466
421.343880,-57.427742,-880.558717,-9686.145885
421.346418,-95.712904,-1014.556782,-9590.432981
421.348956,-114.855485,-937.986459,-9571.290400
421.351494,-95.712904,-899.701298,-9571.290400
421.354032,-57.427742,-957.129040,-9628.718142
421.356570,-153.140646,-995.414202,-9533.005238
421.359108,-114.855485,-823.130974,-9686.145885
421.361646,-76.570323,-957.129040,-9571.290400
421.364184,-76.570323,-861.416136,-9762.716208
421.366723,-38.285162,-976.271621,-9552.147819
421.369261,-95.712904,-918.843878,-9743.573627
421.371736,-114.855485,-899.701298,-9743.573627
421.374212,-57.427742,-861.416136,-9552.147819
421.376688,-38.285162,-1014.556782,-9667.003304
421.379163,-114.855485,-842.273555,-9762.716208
421.381639,-133.998066,-803.988394,-9724.431046
421.384114,-133.998066,-899.701298,-9647.860723
421.386590,-133.998066,-899.701298,-9762.716208
421.389066,-76.570323,-784.845813,-9456.434915
421.391541,-114.855485,-842.273555,-9724.431046
421.394017,-133.998066,-1014.556782,-9705.288466
421.396493,-114.855485,-880.558717,-9609.575562
421.398968,-19.142581,-899.701298,-9724.431046
421.401444,-57.427742,-937.986459,-9686.145885
421.403920,-57.427742,-842.273555,-9494.720077
421.406395,-76.570323,-880.558717,-9647.860723
421.408871,-76.570323,-957.129040,-9743.573627
421.411346,-57.427742,-899.701298,-9494.720077
421.413822,-57.427742,-784.845813,-9801.001370
421.416298,-114.855485,-880.558717,-9571.290400
421.418773,-133.998066,-899.701298,-9571.290400
421.421249,-57.427742,-1071.984525,-9705.288466
421.423725,-133.998066,-880.558717,-9686.145885
421.426200,-95.712904,-899.701298,-9743.573627
421.428676,-38.285162,-1167.697429,-9475.577496
421.431151,-38.285162,-918.843878,-9667.003304
421.433627,-133.998066,-650.847747,-9858.429112
421.436103,-76.570323,-861.416136,-9571.290400
421.438578,-114.855485,-976.271621,-9647.860723
421.441054,-38.285162,-1110.269686,-9379.864592
421.443530,-57.427742,-899.701298,-9781.858789
421.446005,-114.855485,-784.845813,-9724.431046
421.448481,-76.570323,-880.558717,-9571.290400
421.450957,-95.712904,-957.129040,-9743.573627
421.453432,-19.142581,-976.271621,-9686.145885
421.455908,-95.712904,-861.416136,-9801.001370
421.458383,-57.427742,-995.414202,-9705.288466
421.460859,-133.998066,-995.414202,-9667.003304
421.463335,-76.570323,-1014.556782,-9628.718142
421.465810,-38.285162,-880.558717,-9609.575562
421.468286,-57.427742,-861.416136,-9686.145885
421.470788,-133.998066,-880.558717,-9609.575562
421.473290,-57.427742,-899.701298,-9686.145885
421.475792,-38.285162,-861.416136,-9743.573627
421.478294,-133.998066,-1014.556782,-9667.003304
421.480796,-133.998066,-861.416136,-9743.573627
421.483298,-95.712904,-842.273555,-9552.147819
421.485800,-95.712904,-803.988394,-9705.288466
421.488302,-38.285162,-861.416136,-9743.573627
421.490803,-0.000000,-861.416136,-9533.005238
421.493305,-95.712904,-957.129040,-9743.573627
421.495807,-76.570323,-880.558717,-9571.290400
421.498309,-76.570323,-823.130974,-9647.860723
421.500811,-38.285162,-899.701298,-9743.573627
421.503313,-133.998066,-957.129040,-9533.005238
421.505815,-0.000000,-803.988394,-9667.003304
421.508317,-172.283227,-880.558717,-9762.716208
421.510819,-114.855485,-842.273555,-9801.001370
421.513321,-76.570323,-995.414202,-9379.864592
421.515823,-114.855485,-1014.556782,-9667.003304
421.518325,-57.427742,-861.416136,-9743.573627
421.520827,-95.712904,-861.416136,-9686.145885
421.523329,-114.855485,-1033.699363,-9494.720077
421.525831,-57.427742,-937.986459,-9609.575562
421.528333,-76.570323,-803.988394,-9781.858789
421.530835,-133.998066,-784.845813,-9762.716208
421.533337,-95.712904,-995.414202,-9609.575562
421.535839,19.142581,-1033.699363,-9609.575562
421.538341,-76.570323,-880.558717,-9781.858789
421.540842,-153.140646,-727.418070,-9705.288466
421.543344,-95.712904,-957.129040,-9628.718142
421.545846,-95.712904,-1071.984525,-9494.720077
421.548348,-95.712904,-918.843878,-9686.145885
421.550850,-38.285162,-957.129040,-9571.290400
421.553352,-114.855485,-880.558717,-9609.575562
421.555854,-57.427742,-995.414202,-9647.860723
421.558356,-38.285162,-1014.556782,-9590.432981
421.560858,-95.712904,-842.273555,-9743.573627
421.563360,-38.285162,-861.416136,-9552.147819
421.565862,-76.570323,-995.414202,-9628.718142
421.568364,-114.855485,-937.986459,-9686.145885
421.570885,-38.285162,-976.271621,-9743.573627
421.573406,-133.998066,-918.843878,-9686.145885
421.575927,38.285162,-976.271621,-9628.718142
421.578449,-57.427742,-899.701298,-9686.145885
421.580970,-133.998066,-861.416136,-9743.573627
421.583491,-76.570323,-803.988394,-9647.860723
421.586012,-76.570323,-937.986459,-9609.575562
421.588533,-114.855485,-937.986459,-9686.145885
421.591055,-153.140646,-861.416136,-9686.145885
421.593576,-114.855485,-823.130974,-9724.431046
421.596097,-57.427742,-918.843878,-9628.718142
421.598618,-57.427742,-918.843878,-9628.718142
421.601139,-38.285162,-957.129040,-9552.147819
421.603660,-133.998066,-861.416136,-9743.573627
421.606182,-76.570323,-918.843878,-9762.716208
421.608703,-57.427742,-937.986459,-9647.860723
421.611224,-95.712904,-823.130974,-9743.573627
421.613745,-114.855485,-918.843878,-9571.290400
421.616266,-38.285162,-918.843878,-9647.860723
421.618787,-76.570323,-918.843878,-9571.290400
421.621309,-133.998066,-937.986459,-9571.290400
421.623830,-95.712904,-823.130974,-9705.288466
421.626351,-76.570323,-861.416136,-9647.860723
421.628872,-19.142581,-1033.699363,-9628.718142
421.631393,-95.712904,-995.414202,-9628.718142
421.633914,-76.570323,-823.130974,-9609.575562
421.636436,-114.855485,-765.703232,-9781.858789
421.638957,-76.570323,-1071.984525,-9494.720077
421.641478,-57.427742,-1033.699363,-9647.860723
421.643999,-38.285162,-918.843878,-9743.573627
421.646520,-76.570323,-918.843878,-9571.290400
421.649042,-133.998066,-899.701298,-9743.573627
421.651563,-114.855485,-937.986459,-9609.575562
421.654084,-172.283227,-842.273555,-9762.716208
421.656605,-95.712904,-899.701298,-9705.288466
421.659126,-114.855485,-918.843878,-9686.145885
421.661647,-76.570323,-880.558717,-9667.003304
421.664169,-133.998066,-861.416136,-9552.147819
421.666690,-133.998066,-957.129040,-9667.003304
421.669211,-114.855485,-880.558717,-9628.718142
421.671746,-95.712904,-937.986459,-9686.145885
421.674281,-76.570323,-880.558717,-9590.432981
421.676816,-95.712904,-823.130974,-9609.575562
421.679351,-76.570323,-784.845813,-9724.431046
421.681886,-114.855485,-937.986459,-9647.860723
421.684420,-38.285162,-976.271621,-9762.716208
421.686955,-133.998066,-957.129040,-9762.716208
421.689490,-76.570323,-861.416136,-9513.862658
421.692025,-76.570323,-899.701298,-9571.290400
421.694560,-38.285162,-918.843878,-9686.145885
421.697095,-133.998066,-861.416136,-9686.145885
421.699630,-95.712904,-918.843878,-9667.003304
421.702165,-133.998066,-937.986459,-9628.718142
421.704700,-133.998066,-918.843878,-9686.145885
421.707235,-76.570323,-803.988394,-9667.003304
421.709770,-133.998066,-823.130974,-9590.432981
421.712305,-172.283227,-918.843878,-9628.718142
421.714840,-76.570323,-937.986459,-9494.720077
421.717375,-95.712904,-899.701298,-9743.573627
421.719909,-76.570323,-957.129040,-9513.862658
421.722444,-95.712904,-918.843878,-9571.290400
421.724979,-76.570323,-899.701298,-9628.718142
421.727514,-76.570323,-823.130974,-9724.431046
421.730049,-76.570323,-823.130974,-9743.573627
421.732584,-153.140646,-861.416136,-9858.429112
421.735119,-76.570323,-1071.984525,-9513.862658
421.737654,-95.712904,-1071.984525,-9705.288466
421.740189,-114.855485,-842.273555,-9801.001370
421.742724,-114.855485,-823.130974,-9513.862658
421.745259,-38.285162,-1014.556782,-9533.005238
421.747794,-133.998066,-823.130974,-9781.858789
421.750329,-57.427742,-918.843878,-9647.860723
421.752864,-38.285162,-861.416136,-9571.290400
421.755399,-38.285162,-918.843878,-9686.145885
421.757933,-76.570323,-842.273555,-9609.575562
421.760468,-38.285162,-899.701298,-9743.573627
421.763003,-57.427742,-995.414202,-9686.145885
421.765538,-76.570323,-937.986459,-9628.718142
421.768073,-38.285162,-918.843878,-9743.573627
421.770608,-114.855485,-937.986459,-9667.003304
421.773154,-95.712904,-899.701298,-9762.716208
421.775700,-57.427742,-957.129040,-9647.860723
421.778246,-95.712904,-937.986459,-9571.290400
421.780792,-95.712904,-899.701298,-9571.290400
421.783337,-114.855485,-937.986459,-9590.432981
421.785883,-57.427742,-880.558717,-9762.716208
421.788429,-95.712904,-803.988394,-9647.860723
421.790975,-114.855485,-918.843878,-9647.860723
421.793521,-57.427742,-957.129040,-9686.145885
421.796067,-38.285162,-823.130974,-9609.575562
421.798613,-57.427742,-880.558717,-9686.145885
421.801158,-95.712904,-918.843878,-9513.862658
421.803704,-38.285162,-861.416136,-9762.716208
421.806250,-57.427742,-880.558717,-9667.003304
421.808796,-133.998066,-823.130974,-9724.431046
421.811342,-57.427742,-880.558717,-9667.003304
421.813888,-114.855485,-880.558717,-9628.718142
421.816434,-114.855485,-746.560651,-9724.431046
421.818980,-76.570323,-823.130974,-9686.145885
421.821525,-114.855485,-899.701298,-9628.718142
421.824071,-114.855485,-957.129040,-9609.575562
421.826617,-133.998066,-669.990328,-9820.143950
421.829163,-95.712904,-842.273555,-9743.573627
421.831709,-114.855485,-1033.699363,-9475.577496
421.834255,-95.712904,-1071.984525,-9628.718142
421.836801,-133.998066,-669.990328,-9858.429112
421.839346,-0.000000,-899.701298,-9705.288466
421.841892,-57.427742,-1033.699363,-9475.577496
421.844438,-76.570323,-842.273555,-9896.714274
421.846984,-133.998066,-976.271621,-9801.001370
421.849530,-133.998066,-957.129040,-9437.292334
421.852076,-76.570323,-899.701298,-9628.718142
421.854622,-38.285162,-861.416136,-9456.434915
421.857167,-95.712904,-957.129040,-9743.573627
421.859713,-76.570323,-803.988394,-9705.288466
421.862259,-38.285162,-918.843878,-9552.147819
421.864805,-38.285162,-957.129040,-9743.573627
421.867351,-76.570323,-976.271621,-9571.290400
421.869897,-19.142581,-823.130974,-9762.716208
421.872443,-114.855485,-918.843878,-9628.718142
421.874996,-172.283227,-899.701298,-9609.575562
421.877549,-76.570323,-937.986459,-9705.288466
421.880102,-76.570323,-899.701298,-9762.716208
421.882655,-95.712904,-784.845813,-9456.434915
421.885208,-76.570323,-880.558717,-9743.573627
421.887761,-172.283227,-765.703232,-9609.575562
421.890315,-76.570323,-937.986459,-9628.718142
421.892868,-76.570323,-918.843878,-9762.716208
421.895421,-114.855485,-880.558717,-9647.860723
421.897974,-133.998066,-842.273555,-9513.862658
421.900527,-76.570323,-995.414202,-9590.432981
421.903080,-114.855485,-995.414202,-9628.718142
421.905633,-95.712904,-880.558717,-9686.145885
421.908187,-95.712904,-918.843878,-9686.145885
421.910740,-76.570323,-918.843878,-9628.718142
421.913293,-38.285162,-957.129040,-9647.860723
421.915846,-95.712904,-995.414202,-9628.718142
421.918399,-38.285162,-899.701298,-9839.286531
421.920952,-95.712904,-803.988394,-9571.290400
421.923505,-153.140646,-861.416136,-9762.716208
421.926059,-133.998066,-918.843878,-9628.718142
421.928612,-19.142581,-1110.269686,-9513.862658
421.931165,-76.570323,-957.129040,-9724.431046
421.933718,-153.140646,-803.988394,-9628.718142
421.936271,-95.712904,-784.845813,-9571.290400
421.938824,-95.712904,-1091.127106,-9513.862658
421.941377,-57.427742,-937.986459,-9609.575562
421.943930,-76.570323,-842.273555,-9839.286531
421.946484,-76.570323,-880.558717,-9667.003304
421.949037,-76.570323,-880.558717,-9686.145885
421.951590,-0.000000,-976.271621,-9667.003304
421.954143,-38.285162,-823.130974,-9724.431046
421.956696,-133.998066,-899.701298,-9456.434915
421.959249,-133.998066,-937.986459,-9571.290400
421.961802,-57.427742,-880.558717,-9552.147819
421.964356,-38.285162,-880.558717,-9743.573627
421.966909,-38.285162,-957.129040,-9743.573627
421.969462,-38.285162,-995.414202,-9533.005238
421.972015,-95.712904,-976.271621,-9628.718142
421.974568,-95.712904,-861.416136,-9762.716208
421.977126,-95.712904,-880.558717,-9571.290400
421.979684,-114.855485,-823.130974,-9628.718142
421.982241,-76.570323,-899.701298,-9743.573627
421.984799,-38.285162,-861.416136,-9513.862658
421.987357,-133.998066,-976.271621,-9552.147819
421.989915,-57.427742,-880.558717,-9571.290400
421.992472,-38.285162,-823.130974,-9724.431046
421.995030,-76.570323,-918.843878,-9628.718142
421.997588,-114.855485,-899.701298,-9743.573627
422.000146,-114.855485,-880.558717,-9571.290400
422.002703,-95.712904,-880.558717,-9667.003304
422.005261,-76.570323,-803.988394,-9781.858789
422.007819,-95.712904,-957.129040,-9513.862658
422.010376,-114.855485,-880.558717,-9571.290400
422.012934,-95.712904,-861.416136,-9724.431046
422.015492,-153.140646,-842.273555,-9628.718142
422.018050,-114.855485,-937.986459,-9609.575562
422.020607,-76.570323,-957.129040,-9686.145885
422.023165,-95.712904,-899.701298,-9647.860723
422.025723,-153.140646,-861.416136,-9686.145885
422.028281,-95.712904,-823.130974,-9647.860723
422.030838,-172.283227,-784.845813,-9571.290400
422.033396,-133.998066,-995.414202,-9762.716208
422.035954,-133.998066,-1091.127106,-9494.720077
422.038512,-38.285162,-937.986459,-9686.145885
422.041069,-153.140646,-669.990328,-9820.143950
422.043627,-95.712904,-842.273555,-9456.434915
422.046185,-76.570323,-957.129040,-9552.147819
422.048743,-76.570323,-995.414202,-9915.856854
422.051300,-57.427742,-880.558717,-9571.290400
422.053858,-114.855485,-918.843878,-9667.003304
422.056416,-38.285162,-918.843878,-9839.286531
422.058974,-95.712904,-899.701298,-9494.720077
422.061531,-57.427742,-937.986459,-9686.145885
422.064089,-38.285162,-957.129040,-9552.147819
422.066647,-133.998066,-823.130974,-9667.003304
422.069204,-133.998066,-918.843878,-9686.145885
422.071762,-76.570323,-880.558717,-9628.718142
422.074320,-0.000000,-957.129040,-9647.860723
422.076878,-76.570323,-976.271621,-9743.573627
422.079384,-172.283227,-784.845813,-9781.858789
422.081891,-153.140646,-803.988394,-9705.288466
422.084397,-133.998066,-937.986459,-9628.718142
422.086904,-0.000000,-957.129040,-9590.432981
422.089411,-95.712904,-823.130974,-9705.288466
422.091917,-133.998066,-918.843878,-9781.858789
422.094424,-133.998066,-918.843878,-9609.575562
422.096930,-57.427742,-899.701298,-9667.003304
422.099437,-95.712904,-899.701298,-9552.147819
422.101943,-76.570323,-842.273555,-9552.147819
422.104450,-172.283227,-937.986459,-9571.290400
422.106957,-133.998066,-918.843878,-9743.573627
422.109463,-57.427742,-918.843878,-9686.145885
422.111970,-38.285162,-803.988394,-9705.288466
422.114476,-95.712904,-803.988394,-9705.288466
422.116983,-133.998066,-1014.556782,-9724.431046
422.119490,-76.570323,-918.843878,-9571.290400
422.121996,-76.570323,-918.843878,-9743.573627
422.124503,-114.855485,-880.558717,-9762.716208
422.127009,-153.140646,-880.558717,-9686.145885
422.129516,-95.712904,-1014.556782,-9571.290400
422.132022,-95.712904,-976.271621,-9724.431046
422.134529,-95.712904,-823.130974,-9609.575562
422.137036,-153.140646,-880.558717,-9686.145885
422.139542,-76.570323,-1110.269686,-9513.862658
422.142049,-57.427742,-918.843878,-9705.288466
422.144555,-38.285162,-861.416136,-9705.288466
422.147062,-95.712904,-899.701298,-9743.573627
422.149568,-153.140646,-976.271621,-9456.434915
422.152075,-95.712904,-937.986459,-9609.575562
422.154582,-95.712904,-918.843878,-9877.571693
422.157088,-38.285162,-957.129040,-9513.862658
422.159595,-95.712904,-899.701298,-9609.575562
422.162101,-76.570323,-784.845813,-9820.143950
422.164608,-114.855485,-937.986459,-9341.579430
422.167115,-133.998066,-880.558717,-9667.003304
422.169621,-38.285162,-995.414202,-9781.858789
422.172128,-114.855485,-937.986459,-9552.147819
422.174634,-133.998066,-861.416136,-9743.573627
422.177141,-38.285162,-823.130974,-9647.860723
422.179665,-57.427742,-918.843878,-9571.290400
422.182188,-38.285162,-861.416136,-9743.573627
422.184710,-95.712904,-918.843878,-9667.003304
422.187232,-133.998066,-976.271621,-9552.147819
422.189755,-133.998066,-957.129040,-9552.147819
422.192277,-114.855485,-823.130974,-9686.145885
422.194799,-76.570323,-880.558717,-9667.003304
422.197322,-0.000000,-842.273555,-9590.432981
422.199844,-0.000000,-899.701298,-9667.003304
422.202366,-76.570323,-976.271621,-9513.862658
422.204889,-153.140646,-823.130974,-10011.569758
422.207411,-114.855485,-957.129040,-9513.862658
422.209933,-133.998066,-861.416136,-9743.573627
422.212456,-19.142581,-957.129040,-9494.720077
422.214978,-95.712904,-803.988394,-9590.432981
422.217500,-76.570323,-937.986459,-9609.575562
422.220023,-153.140646,-803.988394,-9705.288466
422.222545,-114.855485,-995.414202,-9647.860723
422.225067,-0.000000,-1071.984525,-9437.292334
422.227590,-38.285162,-823.130974,-9705.288466
422.230112,-114.855485,-784.845813,-9781.858789
422.232634,-153.140646,-861.416136,-9456.434915
422.235157,-57.427742,-1033.699363,-9590.432981
422.237679,-38.285162,-918.843878,-9667.003304
422.240201,-76.570323,-880.558717,-9781.858789
422.242724,-153.140646,-803.988394,-9667.003304
422.245246,-0.000000,-1014.556782,-9475.577496
422.247768,-114.855485,-918.843878,-9686.145885
422.250291,-76.570323,-880.558717,-9667.003304
422.252813,-114.855485,-918.843878,-9609.575562
422.255336,-57.427742,-918.843878,-9609.575562
422.257858,-114.855485,-823.130974,-9686.145885
422.260380,-95.712904,-899.701298,-9686.145885
422.262903,-19.142581,-937.986459,-9552.147819
422.265425,-95.712904,-957.129040,-9743.573627
422.267947,-57.427742,-823.130974,-9667.003304
422.270470,-172.283227,-937.986459,-9667.003304
422.272992,-133.998066,-957.129040,-9647.860723
422.275514,-0.000000,-995.414202,-9686.145885
422.278037,-133.998066,-842.273555,-9743.573627
422.280571,-114.855485,-899.701298,-9590.432981
422.283104,-114.855485,-823.130974,-9628.718142
422.285638,-38.285162,-861.416136,-9743.573627
422.288172,-57.427742,-880.558717,-9686.145885
422.290706,-76.570323,-918.843878,-9571.290400
422.293240,-95.712904,-937.986459,-9437.292334
422.295774,-95.712904,-899.701298,-9686.145885
422.298308,-114.855485,-899.701298,-9762.716208
422.300842,-76.570323,-918.843878,-9609.575562
422.303376,-95.712904,-976.271621,-9475.577496
422.305910,-57.427742,-861.416136,-9839.286531
422.308444,-133.998066,-784.845813,-9724.431046
422.310978,-114.855485,-823.130974,-9628.718142
422.313512,-114.855485,-880.558717,-9686.145885
422.316046,-114.855485,-899.701298,-9686.145885
422.318580,-114.855485,-842.273555,-9533.005238
422.321114,-95.712904,-823.130974,-9667.003304
422.323648,-133.998066,-842.273555,-9686.145885
422.326181,-153.140646,-803.988394,-9705.288466
422.328715,-38.285162,-937.986459,-9590.432981
422.331249,-38.285162,-976.271621,-9590.432981
422.333783,-0.000000,-1014.556782,-9667.003304
422.336317,-95.712904,-803.988394,-9801.001370
422.338851,-153.140646,-746.560651,-9839.286531
422.341385,-133.998066,-976.271621,-9590.432981
422.343919,-57.427742,-937.986459,-9667.003304
422.346453,-57.427742,-823.130974,-9743.573627
422.348987,-57.427742,-937.986459,-9571.290400
422.351521,-133.998066,-937.986459,-9513.862658
422.354055,-38.285162,-937.986459,-9743.573627
422.356589,-76.570323,-918.843878,-9762.716208
422.359123,-95.712904,-880.558717,-9762.716208
422.361657,-38.285162,-957.129040,-9456.434915
422.364191,-95.712904,-918.843878,-9762.716208
422.366725,-76.570323,-918.843878,-9628.718142
422.369259,-114.855485,-918.843878,-9686.145885
422.371792,-57.427742,-899.701298,-9609.575562
422.374326,-57.427742,-937.986459,-9667.003304
422.376860,-76.570323,-803.988394,-9609.575562
422.379394,-76.570323,-880.558717,-9762.716208
422.381938,-114.855485,-842.273555,-9705.288466
422.384482,-95.712904,-899.701298,-9667.003304
422.387025,-57.427742,-918.843878,-9705.288466
422.389569,-57.427742,-823.130974,-9647.860723
422.392113,-76.570323,-899.701298,-9647.860723
422.394656,-57.427742,-937.986459,-9628.718142
422.397200,-95.712904,-803.988394,-9705.288466
422.399744,-133.998066,-861.416136,-9494.720077
422.402287,-114.855485,-880.558717,-9628.718142
422.404831,-114.855485,-899.701298,-9743.573627
422.407375,-76.570323,-899.701298,-9628.718142
422.409919,-38.285162,-861.416136,-9762.716208
422.412462,-57.427742,-918.843878,-9628.718142
422.415006,-76.570323,-918.843878,-9628.718142
422.417550,-57.427742,-937.986459,-9743.573627
422.420093,-57.427742,-918.843878,-9686.145885
422.422637,-57.427742,-880.558717,-9667.003304
422.425181,-95.712904,-995.414202,-9609.575562
422.427724,-76.570323,-1014.556782,-9590.432981
422.430268,-133.998066,-823.130974,-9647.860723
422.432812,-95.712904,-861.416136,-9781.858789
422.435355,-76.570323,-957.129040,-9571.290400
422.437899,-38.285162,-1110.269686,-9552.147819
422.440443,-133.998066,-880.558717,-9896.714274
422.442986,-57.427742,-746.560651,-9724.431046
422.445530,-114.855485,-957.129040,-9628.718142
422.448074,-76.570323,-823.130974,-9647.860723
422.450617,-57.427742,-823.130974,-9686.145885
422.453161,-57.427742,-880.558717,-9705.288466
422.455705,-95.712904,-957.129040,-9552.147819
422.458249,-114.855485,-880.558717,-9686.145885
422.460792,-133.998066,-861.416136,-9801.001370
422.463336,-95.712904,-957.129040,-9552.147819
422.465880,-76.570323,-937.986459,-9609.575562
422.468423,-172.283227,-880.558717,-9667.003304
422.470967,-76.570323,-823.130974,-9571.290400
422.473511,-133.998066,-899.701298,-9686.145885
422.476054,-133.998066,-918.843878,-9686.145885
422.478598,-76.570323,-861.416136,-9743.573627
422.481142,-114.855485,-861.416136,-9743.573627
422.483692,-114.855485,-918.843878,-9667.003304
422.486243,-76.570323,-937.986459,-9571.290400
422.488793,-57.427742,-899.701298,-9667.003304
422.491343,-95.712904,-918.843878,-9743.573627
422.493894,-38.285162,-861.416136,-9743.573627
422.496444,-76.570323,-937.986459,-9686.145885
422.498995,-57.427742,-937.986459,-9571.290400
422.501545,-38.285162,-899.701298,-9743.573627
422.504095,-95.712904,-823.130974,-9571.290400
422.506646,-76.570323,-976.271621,-9590.432981
422.509196,-133.998066,-803.988394,-9667.003304
422.511747,-133.998066,-861.416136,-9762.716208
422.514297,-38.285162,-861.416136,-9590.432981
422.516847,-57.427742,-861.416136,-9571.290400
422.519398,-133.998066,-957.129040,-9743.573627
422.521948,-95.712904,-918.843878,-9743.573627
422.524499,-38.285162,-918.843878,-9533.005238
422.527049,-57.427742,-899.701298,-9667.003304
422.529599,-133.998066,-765.703232,-9743.573627
422.532150,-95.712904,-861.416136,-9552.147819
422.534700,-114.855485,-1014.556782,-9647.860723
422.537251,-76.570323,-957.129040,-9686.145885
422.539801,-153.140646,-765.703232,-9647.860723
422.542351,-76.570323,-918.843878,-9686.145885
422.544902,-38.285162,-995.414202,-9533.005238
422.547452,-95.712904,-918.843878,-9781.858789
422.550003,-76.570323,-957.129040,-9571.290400
422.552553,-38.285162,-995.414202,-9647.860723
422.555103,-19.142581,-937.986459,-9724.431046
422.557654,-95.712904,-918.843878,-9628.718142
422.560204,-172.283227,-823.130974,-9686.145885
422.562755,-57.427742,-1033.699363,-9705.288466
422.565305,-57.427742,-937.986459,-9628.718142
422.567856,-38.285162,-995.414202,-9628.718142
422.570406,-76.570323,-957.129040,-9571.290400
422.572956,-95.712904,-995.414202,-9667.003304
422.575507,-114.855485,-937.986459,-9667.003304
422.578057,-76.570323,-823.130974,-9686.145885
422.580608,-38.285162,-803.988394,-9724.431046
422.583158,-133.998066,-803.988394,-9533.005238
422.585713,-57.427742,-937.986459,-9571.290400
422.588268,-76.570323,-899.701298,-9647.860723
422.590822,-38.285162,-861.416136,-9801.001370
422.593377,-114.855485,-784.845813,-9647.860723
422.595932,-153.140646,-899.701298,-9552.147819
422.598487,-57.427742,-957.129040,-9743.573627
422.601042,-76.570323,-880.558717,-9667.003304
422.603597,-38.285162,-899.701298,-9743.573627
422.606151,-95.712904,-957.129040,-9571.290400
422.608706,-95.712904,-823.130974,-9590.432981
422.611261,-133.998066,-746.560651,-9628.718142
422.613816,-76.570323,-899.701298,-9762.716208
422.616371,-95.712904,-861.416136,-9628.718142
422.618926,-95.712904,-842.273555,-9686.145885
422.621481,-76.570323,-823.130974,-9762.716208
422.624035,-38.285162,-957.129040,-9513.862658
422.626590,-133.998066,-899.701298,-9858.429112
422.629145,-57.427742,-1033.699363,-9494.720077
422.631700,-95.712904,-995.414202,-9686.145885
422.634255,-57.427742,-995.414202,-9609.575562
422.636810,-114.855485,-784.845813,-9724.431046
422.639364,-114.855485,-918.843878,-9762.716208
422.641919,-95.712904,-1186.840010,-9379.864592
422.644474,-95.712904,-765.703232,-9762.716208
422.647029,-76.570323,-593.420005,-9762.716208
422.649584,-114.855485,-957.129040,-9533.005238
422.652139,-38.285162,-1071.984525,-9513.862658
422.654693,-57.427742,-861.416136,-9781.858789
422.657248,-114.855485,-918.843878,-9743.573627
422.659803,-38.285162,-957.129040,-9571.290400
422.662358,-38.285162,-957.129040,-9456.434915
422.664913,-133.998066,-842.273555,-9762.716208
422.667468,-76.570323,-918.843878,-9552.147819
422.670022,-76.570323,-899.701298,-9647.860723
422.672577,-76.570323,-823.130974,-9571.290400
422.675132,-57.427742,-918.843878,-9609.575562
422.677687,-57.427742,-957.129040,-9781.858789
422.680242,-76.570323,-899.701298,-9686.145885
422.682797,-114.855485,-880.558717,-9647.860723
422.685351,-57.427742,-842.273555,-9781.858789
422.687911,-133.998066,-880.558717,-9494.720077
422.690470,-133.998066,-803.988394,-9609.575562
422.693029,-95.712904,-842.273555,-9762.716208
422.695588,-38.285162,-1071.984525,-9686.145885
422.698147,-76.570323,-880.558717,-9667.003304
422.700706,-0.000000,-957.129040,-9647.860723
422.703265,-57.427742,-937.986459,-9552.147819
422.705824,-57.427742,-995.414202,-9552.147819
422.708383,-57.427742,-899.701298,-9628.718142
422.710942,-38.285162,-842.273555,-9743.573627
422.713501,-133.998066,-899.701298,-9609.575562
422.716060,-57.427742,-1033.699363,-9475.577496
422.718619,-19.142581,-957.129040,-9896.714274
422.721178,-153.140646,-708.275490,-9705.288466
422.723737,-95.712904,-995.414202,-9647.860723
422.726296,-0.000000,-1129.412267,-9456.434915
422.728855,-19.142581,-899.701298,-9801.001370
422.731414,-95.712904,-765.703232,-9686.145885
422.733973,-95.712904,-746.560651,-9609.575562
422.736532,-133.998066,-1052.841944,-9705.288466
422.739092,-95.712904,-1033.699363,-9724.431046
422.741651,-133.998066,-784.845813,-9705.288466
422.744210,-153.140646,-803.988394,-10011.569758
422.746769,-95.712904,-823.130974,-9341.579430
422.749328,-76.570323,-976.271621,-9647.860723
422.751887,-19.142581,-1033.699363,-9877.571693
422.754446,-57.427742,-899.701298,-9647.860723
422.757005,-133.998066,-823.130974,-9609.575562
422.759564,-76.570323,-976.271621,-9781.858789
422.762123,-57.427742,-899.701298,-9571.290400
422.764682,-57.427742,-880.558717,-9743.573627
422.767241,-172.283227,-899.701298,-9686.145885
422.769800,-114.855485,-937.986459,-9628.718142
422.772359,-133.998066,-937.986459,-9667.003304
422.774918,-76.570323,-842.273555,-9839.286531
422.777477,-57.427742,-918.843878,-9686.145885
422.780036,-38.285162,-803.988394,-9628.718142
422.782595,-133.998066,-918.843878,-9571.290400
422.785154,-114.855485,-899.701298,-9686.145885
422.787713,-95.712904,-976.271621,-9820.143950
422.790275,-38.285162,-899.701298,-9686.145885
422.792836,-95.712904,-861.416136,-9552.147819
422.795397,-57.427742,-918.843878,-9667.003304
422.797958,-114.855485,-899.701298,-9571.290400
422.800519,-57.427742,-899.701298,-9762.716208
422.803080,-76.570323,-842.273555,-9667.003304
422.805641,-0.000000,-937.986459,-9743.573627
422.808202,-57.427742,-937.986459,-9628.718142
422.810764,-38.285162,-803.988394,-9686.145885
422.813325,-76.570323,-842.273555,-9609.575562
422.815886,-76.570323,-918.843878,-9552.147819
422.818447,-76.570323,-880.558717,-9686.145885
422.821008,-114.855485,-937.986459,-9628.718142
422.823569,-38.285162,-995.414202,-9590.432981
422.826130,-133.998066,-918.843878,-9667.003304
422.828691,-153.140646,-803.988394,-9705.288466
422.831253,-172.283227,-823.130974,-9647.860723
422.833814,-19.142581,-1033.699363,-9552.147819
422.836375,-57.427742,-957.129040,-9686.145885
422.838936,-133.998066,-765.703232,-9705.288466
422.841497,-172.283227,-861.416136,-9686.145885
422.844058,-38.285162,-1014.556782,-9590.432981
422.846619,-95.712904,-918.843878,-9743.573627
422.849180,-76.570323,-880.558717,-9647.860723
422.851742,-114.855485,-899.701298,-9571.290400
422.854303,-76.570323,-995.414202,-9628.718142
422.856864,-153.140646,-861.416136,-9686.145885
422.859425,-76.570323,-880.558717,-9667.003304
422.861986,-57.427742,-918.843878,-9686.145885
422.864547,-38.285162,-1014.556782,-9590.432981
422.867108,-95.712904,-880.558717,-9705.288466
422.869669,-76.570323,-880.558717,-9686.145885
422.872231,-38.285162,-995.414202,-9609.575562
422.874792,-76.570323,-918.843878,-9628.718142
422.877353,-76.570323,-918.843878,-9743.573627
422.879914,-172.283227,-823.130974,-9628.718142
422.882475,-76.570323,-861.416136,-9743.573627
422.885036,-57.427742,-861.416136,-9647.860723
422.887597,-57.427742,-861.416136,-9647.860723
422.890158,-95.712904,-899.701298,-9667.003304
422.892720,-114.855485,-880.558717,-9705.288466
422.895282,-172.283227,-918.843878,-9571.290400
422.897844,-57.427742,-937.986459,-9571.290400
422.900406,-95.712904,-918.843878,-9686.145885
422.902968,-133.998066,-918.843878,-9513.862658
422.905530,-114.855485,-899.701298,-9667.003304
422.908092,-76.570323,-1014.556782,-9705.288466
422.910654,-133.998066,-861.416136,-9743.573627
422.913216,-38.285162,-784.845813,-9686.145885
422.915778,-38.285162,-918.843878,-9571.290400
422.918340,-57.427742,-880.558717,-9686.145885
422.920902,-38.285162,-1071.984525,-9667.003304
422.923464,-95.712904,-899.701298,-9667.003304
422.926026,-57.427742,-937.986459,-9686.145885
422.928588,-57.427742,-937.986459,-9647.860723
422.931150,-38.285162,-957.129040,-9494.720077
422.933712,-57.427742,-976.271621,-9647.860723
422.936274,-133.998066,-803.988394,-9647.860723
422.938836,-114.855485,-823.130974,-9743.573627
422.941398,-38.285162,-995.414202,-9705.288466
422.943960,-133.998066,-823.130974,-9705.288466
422.946522,-95.712904,-842.273555,-9858.429112
422.949084,-95.712904,-995.414202,-9590.432981
422.951646,-133.998066,-823.130974,-9533.005238
422.954208,-133.998066,-918.843878,-9743.573627
422.956770,-76.570323,-995.414202,-9667.003304
422.959331,-57.427742,-957.129040,-9571.290400
422.961893,-114.855485,-880.558717,-9743.573627
422.964455,-57.427742,-784.845813,-9781.858789
422.967017,-57.427742,-957.129040,-9475.577496
422.969579,-95.712904,-957.129040,-9686.145885
422.972141,-0.000000,-957.129040,-9724.431046
422.974703,-133.998066,-995.414202,-9667.003304
422.977265,-76.570323,-937.986459,-9686.145885
422.979827,-57.427742,-918.843878,-9609.575562
422.982389,-76.570323,-899.701298,-9571.290400
422.984951,-76.570323,-937.986459,-9686.145885
422.987513,-57.427742,-899.701298,-9743.573627
422.990075,-57.427742,-937.986459,-9628.718142
422.992637,-95.712904,-861.416136,-9743.573627
422.995156,-38.285162,-803.988394,-9724.431046
422.997674,-95.712904,-957.129040,-9552.147819
423.000193,-114.855485,-937.986459,-9667.003304
423.002711,-57.427742,-880.558717,-9667.003304
423.005230,-76.570323,-880.558717,-9628.718142
423.007748,-133.998066,-803.988394,-9647.860723
423.010267,-76.570323,-842.273555,-9571.290400
423.012785,-38.285162,-957.129040,-9781.858789
423.015304,-76.570323,-861.416136,-9513.862658
423.017822,-95.712904,-937.986459,-9686.145885
423.020341,-133.998066,-803.988394,-9667.003304
423.022859,-57.427742,-937.986459,-9571.290400
423.025378,-38.285162,-995.414202,-9590.432981
423.027896,-95.712904,-918.843878,-9743.573627
423.030415,-38.285162,-861.416136,-9494.720077
423.032933,-76.570323,-746.560651,-9781.858789
423.035452,-95.712904,-957.129040,-9820.143950
423.037970,-95.712904,-995.414202,-9667.003304
423.040489,-38.285162,-1014.556782,-9705.288466
423.043007,-76.570323,-708.275490,-9705.288466
423.045526,-95.712904,-823.130974,-9743.573627
423.048044,-153.140646,-861.416136,-9686.145885
423.050563,-95.712904,-899.701298,-9667.003304
423.053081,-19.142581,-976.271621,-9571.290400
423.055600,-114.855485,-842.273555,-9724.431046
423.058119,-76.570323,-918.843878,-9686.145885
423.060637,-57.427742,-1033.699363,-9303.294269
423.063156,-76.570323,-880.558717,-9973.284597
423.065674,-153.140646,-708.275490,-9609.575562
423.068193,-114.855485,-937.986459,-9686.145885
423.070711,-38.285162,-995.414202,-9705.288466
423.073230,-76.570323,-861.416136,-9590.432981
423.075748,-38.285162,-823.130974,-9705.288466
423.078267,-133.998066,-976.271621,-9552.147819
423.080785,-95.712904,-880.558717,-9743.573627
423.083304,-19.142581,-976.271621,-9571.290400
423.085822,-153.140646,-803.988394,-9667.003304
423.088341,-133.998066,-861.416136,-9724.431046
423.090859,-95.712904,-823.130974,-9628.718142
423.093378,-76.570323,-823.130974,-9686.145885
423.095907,-0.000000,-976.271621,-9533.005238
423.098435,-0.000000,-957.129040,-9667.003304
423.100964,-114.855485,-918.843878,-9686.145885
423.103493,-133.998066,-880.558717,-9781.858789
423.106022,-95.712904,-937.986459,-9647.860723
423.108551,-95.712904,-880.558717,-9667.003304
423.111080,-19.142581,-976.271621,-9628.718142
423.113608,-38.285162,-803.988394,-9609.575562
423.116137,-95.712904,-803.988394,-9590.432981
423.118666,-95.712904,-880.558717,-9686.145885
423.121195,-172.283227,-861.416136,-9533.005238
423.123724,-57.427742,-957.129040,-9686.145885
423.126252,-38.285162,-842.273555,-9667.003304
423.128781,-76.570323,-765.703232,-9762.716208
423.131310,-133.998066,-861.416136,-9533.005238
423.133839,-95.712904,-995.414202,-9590.432981
423.136368,-38.285162,-976.271621,-9571.290400
423.138897,-133.998066,-708.275490,-9647.860723
423.141425,-57.427742,-937.986459,-9628.718142
423.143954,-38.285162,-995.414202,-9628.718142
423.146483,-57.427742,-899.701298,-9571.290400
423.149012,-95.712904,-880.558717,-9762.716208
423.151541,-114.855485,-880.558717,-9609.575562
423.154069,-76.570323,-937.986459,-9571.290400
423.156598,-38.285162,-937.986459,-9647.860723
423.159127,-95.712904,-861.416136,-9686.145885
423.161656,-133.998066,-803.988394,-9724.431046
423.164185,-57.427742,-1014.556782,-9475.577496
423.166714,-95.712904,-899.701298,-9686.145885
423.169242,-76.570323,-995.414202,-9667.003304
423.171771,-114.855485,-937.986459,-9686.145885
423.174300,-57.427742,-937.986459,-9609.575562
423.176829,-57.427742,-861.416136,-9724.431046
423.179358,-114.855485,-880.558717,-9628.718142
423.181886,-76.570323,-899.701298,-9667.003304
423.184415,-114.855485,-937.986459,-9686.145885
423.186944,-38.285162,-861.416136,-9743.573627
423.189473,-133.998066,-842.273555,-9513.862658
423.192002,-153.140646,-957.129040,-9743.573627
423.194531,-95.712904,-995.414202,-9686.145885
423.197073,-133.998066,-861.416136,-9571.290400
423.199610,-133.998066,-861.416136,-9781.858789
423.202146,-95.712904,-803.988394,-9590.432981
423.204683,-114.855485,-880.558717,-9609.575562
423.207219,-57.427742,-880.558717,-9667.003304
423.209755,-38.285162,-861.416136,-9571.290400
423.212292,-133.998066,-957.129040,-9686.145885
423.214828,-114.855485,-1033.699363,-9590.432981
423.217364,-114.855485,-937.986459,-9686.145885
423.219901,-57.427742,-957.129040,-9686.145885
423.222437,-114.855485,-937.986459,-9667.003304
423.224973,-19.142581,-880.558717,-9609.575562
423.227510,-38.285162,-976.271621,-9686.145885
423.230046,-76.570323,-842.273555,-9762.716208
423.232582,-95.712904,-746.560651,-9724.431046
423.235119,-114.855485,-746.560651,-9781.858789
423.237655,-133.998066,-957.129040,-9571.290400
423.240192,-57.427742,-1052.841944,-9456.434915
423.242728,-0.000000,-880.558717,-9762.716208
423.245264,-133.998066,-708.275490,-9667.003304
423.247801,-133.998066,-995.414202,-9571.290400
423.250337,-38.285162,-918.843878,-9820.143950
423.252873,-0.000000,-957.129040,-9705.288466
423.255410,-95.712904,-803.988394,-9724.431046
423.257946,-95.712904,-918.843878,-9552.147819
423.260482,-76.570323,-880.558717,-9628.718142
423.263019,-57.427742,-842.273555,-9724.431046
423.265555,-38.285162,-995.414202,-9590.432981
423.268091,-57.427742,-899.701298,-9667.003304
423.270628,-76.570323,-937.986459,-9667.003304
423.273164,-133.998066,-861.416136,-9628.718142
423.275700,-133.998066,-937.986459,-9667.003304
423.278237,-57.427742,-918.843878,-9667.003304
423.280773,-38.285162,-803.988394,-9609.575562
423.283310,-133.998066,-918.843878,-9571.290400
423.285846,-114.855485,-861.416136,-9667.003304
423.288382,-57.427742,-918.843878,-9647.860723
423.290919,-76.570323,-803.988394,-9705.288466
423.293455,-95.712904,-899.701298,-9571.290400
423.295991,-114.855485,-880.558717,-9609.575562
423.298534,-95.712904,-918.843878,-9686.145885
423.301077,-76.570323,-918.843878,-9647.860723
423.303620,-95.712904,-918.843878,-9609.575562
423.306162,-57.427742,-937.986459,-9743.573627
423.308705,-0.000000,-899.701298,-9571.290400
423.311248,-0.000000,-1014.556782,-9667.003304
423.313791,-95.712904,-880.558717,-9705.288466
423.316333,-172.283227,-823.130974,-9743.573627
423.318876,-38.285162,-918.843878,-9552.147819
423.321419,-76.570323,-899.701298,-9609.575562
423.323962,-114.855485,-880.558717,-9647.860723
423.326504,-133.998066,-957.129040,-9686.145885
423.329047,-95.712904,-727.418070,-9781.858789
423.331590,-133.998066,-861.416136,-9513.862658
423.334133,-95.712904,-937.986459,-9705.288466
423.336675,-57.427742,-937.986459,-9743.573627
423.339218,-153.140646,-708.275490,-9667.003304
423.341761,-172.283227,-861.416136,-9647.860723
423.344304,-76.570323,-1033.699363,-9533.005238
423.346847,-76.570323,-937.986459,-9571.290400
423.349389,-133.998066,-842.273555,-9858.429112
423.351932,-133.998066,-957.129040,-9456.434915
423.354475,-19.142581,-1052.841944,-9609.575562
423.357018,-114.855485,-746.560651,-9820.143950
423.359560,-133.998066,-842.273555,-9513.862658
423.362103,-57.427742,-937.986459,-9647.860723
423.364646,-38.285162,-976.271621,-9743.573627
423.367189,-114.855485,-823.130974,-9686.145885
423.369731,-76.570323,-1014.556782,-9705.288466
423.372274,-38.285162,-899.701298,-9552.147819
423.374817,-114.855485,-995.414202,-9628.718142
423.377360,-133.998066,-861.416136,-9743.573627
423.379902,-95.712904,-842.273555,-9781.858789
423.382445,-95.712904,-842.273555,-9686.145885
423.384988,-76.570323,-899.701298,-9667.003304
423.387531,-38.285162,-976.271621,-9667.003304
423.390073,-76.570323,-880.558717,-9686.145885
423.392616,-133.998066,-861.416136,-9820.143950
423.395159,-95.712904,-861.416136,-9494.720077
423.397702,-76.570323,-823.130974,-9571.290400
423.400208,-38.285162,-937.986459,-9743.573627
423.402715,-133.998066,-861.416136,-9513.862658
423.405222,-172.283227,-957.129040,-9762.716208
423.407728,-19.142581,-1033.699363,-9667.003304
423.410235,-95.712904,-803.988394,-9743.573627
423.412741,-38.285162,-784.845813,-9820.143950
423.415248,-95.712904,-746.560651,-9667.003304
423.417755,19.142581,-1052.841944,-9456.434915
423.420261,-38.285162,-1052.841944,-9647.860723
423.422768,-76.570323,-976.271621,-9571.290400
423.425275,-133.998066,-823.130974,-9724.431046
423.427781,-133.998066,-880.558717,-9686.145885
423.430288,-0.000000,-1033.699363,-9552.147819
423.432795,-38.285162,-937.986459,-9686.145885
423.435301,-57.427742,-861.416136,-9724.431046
423.437808,-153.140646,-746.560651,-9590.432981
423.440314,-0.000000,-1225.125171,-9571.290400
423.442821,-38.285162,-918.843878,-9724.431046
423.445328,-38.285162,-784.845813,-9724.431046
423.447834,-133.998066,-957.129040,-9533.005238
423.450341,-133.998066,-918.843878,-9552.147819
423.452848,-114.855485,-918.843878,-9686.145885
423.455354,-114.855485,-842.273555,-9743.573627
423.457861,-57.427742,-861.416136,-9571.290400
423.460367,-19.142581,-918.843878,-9513.862658
423.462874,-133.998066,-899.701298,-9762.716208
423.465381,-114.855485,-746.560651,-9533.005238
423.467887,-38.285162,-957.129040,-9762.716208
423.470394,-133.998066,-957.129040,-9628.718142
423.472901,-114.855485,-957.129040,-9628.718142
423.475407,-133.998066,-880.558717,-9762.716208
423.477914,-95.712904,-1110.269686,-9609.575562
423.480421,-57.427742,-957.129040,-9647.860723
423.482927,-76.570323,-880.558717,-9762.716208
423.485434,-133.998066,-803.988394,-9705.288466
423.487940,-57.427742,-746.560651,-9781.858789
423.490447,-76.570323,-918.843878,-9494.720077
423.492954,-95.712904,-937.986459,-9647.860723
423.495460,-114.855485,-957.129040,-9743.573627
423.497967,-114.855485,-880.558717,-9686.145885
423.500487,-114.855485,-823.130974,-9686.145885
423.503007,-172.283227,-823.130974,-9552.147819
423.505527,-19.142581,-1091.127106,-9418.149754
423.508046,-153.140646,-937.986459,-9839.286531
423.510566,-76.570323,-899.701298,-9609.575562
423.513086,-133.998066,-937.986459,-9513.862658
423.515606,-57.427742,-937.986459,-9667.003304
423.518126,-153.140646,-842.273555,-9743.573627
423.520646,-76.570323,-957.129040,-9590.432981
423.523166,-76.570323,-1014.556782,-9705.288466
423.525686,-38.285162,-899.701298,-9609.575562
423.528205,-133.998066,-708.275490,-9667.003304
423.530725,-76.570323,-689.132909,-9877.571693
423.533245,-153.140646,-842.273555,-9437.292334
423.535765,-19.142581,-1014.556782,-9628.718142
423.538285,-76.570323,-1014.556782,-9820.143950
423.540805,-153.140646,-880.558717,-9609.575562
423.543325,-114.855485,-823.130974,-9743.573627
423.545845,-0.000000,-976.271621,-9628.718142
423.548364,-95.712904,-937.986459,-9571.290400
423.550884,-114.855485,-995.414202,-9686.145885
423.553404,-133.998066,-842.273555,-9724.431046
423.555924,-38.285162,-918.843878,-9571.290400
423.558444,-172.283227,-918.843878,-9571.290400
423.560964,-38.285162,-861.416136,-9762.716208
423.563484,-38.285162,-957.129040,-9533.005238
423.566004,-76.570323,-957.129040,-9781.858789
423.568523,-57.427742,-918.843878,-9571.290400
423.571043,-95.712904,-918.843878,-9762.716208
423.573563,-57.427742,-880.558717,-9724.431046
423.576083,-114.855485,-861.416136,-9571.290400
423.578603,-57.427742,-937.986459,-9686.145885
423.581132,-57.427742,-957.129040,-9647.860723
423.583662,-57.427742,-880.558717,-9609.575562
423.586192,-76.570323,-937.986459,-9609.575562
423.588721,-133.998066,-957.129040,-9571.290400
423.591251,-153.140646,-899.701298,-9724.431046
423.593780,-57.427742,-880.558717,-9667.003304
423.596310,-114.855485,-880.558717,-9667.003304
423.598839,-153.140646,-880.558717,-9494.720077
423.601369,-76.570323,-995.414202,-9686.145885
423.603899,-76.570323,-918.843878,-9762.716208
423.606428,-38.285162,-918.843878,-9552.147819
423.608958,-57.427742,-861.416136,-9762.716208
423.611487,-114.855485,-823.130974,-9686.145885
423.614017,-19.142581,-899.701298,-9456.434915
423.616546,-133.998066,-861.416136,-9781.858789
423.619076,-76.570323,-918.843878,-9667.003304
423.621605,-76.570323,-995.414202,-9686.145885
423.624135,-114.855485,-803.988394,-9781.858789
423.626665,-172.283227,-823.130974,-9743.573627
423.629194,-38.285162,-957.129040,-9552.147819
423.631724,-76.570323,-918.843878,-9628.718142
423.634253,-133.998066,-803.988394,-9705.288466
423.636783,-153.140646,-842.273555,-9743.573627
423.639312,-76.570323,-1071.984525,-9552.147819
423.641842,-57.427742,-995.414202,-9571.290400
423.644372,-0.000000,-918.843878,-9647.860723
423.646901,-95.712904,-842.273555,-9724.431046
423.649431,-114.855485,-937.986459,-9628.718142
423.651960,-133.998066,-937.986459,-9686.145885
423.654490,-114.855485,-937.986459,-9686.145885
423.657019,-95.712904,-899.701298,-9647.860723
423.659549,-95.712904,-899.701298,-9571.290400
423.662079,-57.427742,-995.414202,-9552.147819
423.664608,-95.712904,-899.701298,-9667.003304
423.667138,-38.285162,-957.129040,-9743.573627
423.669667,-76.570323,-995.414202,-9686.145885
423.672197,-38.285162,-899.701298,-9743.573627
423.674726,-38.285162,-842.273555,-9686.145885
423.677256,-57.427742,-957.129040,-9628.718142
423.679786,-57.427742,-899.701298,-9686.145885
423.682324,-95.712904,-861.416136,-9686.145885
423.684862,-133.998066,-861.416136,-9494.720077
423.687400,-133.998066,-861.416136,-9781.858789
423.689938,-133.998066,-803.988394,-9609.575562
423.692476,-172.283227,-880.558717,-9571.290400
423.695014,-38.285162,-861.416136,-9781.858789
423.697552,-38.285162,-861.416136,-9686.145885
423.700090,-95.712904,-861.416136,-9667.003304
423.702628,-57.427742,-880.558717,-9647.860723
423.705166,-0.000000,-899.701298,-9647.860723
423.707704,-95.712904,-995.414202,-9686.145885
423.710242,-95.712904,-899.701298,-9686.145885
423.712781,-38.285162,-918.843878,-9590.432981
423.715319,-133.998066,-957.129040,-9686.145885
423.717857,-0.000000,-957.129040,-9705.288466
423.720395,-133.998066,-918.843878,-9628.718142
423.722933,-95.712904,-842.273555,-9781.858789
423.725471,-95.712904,-995.414202,-9667.003304
423.728009,-57.427742,-937.986459,-9609.575562
423.730547,-0.000000,-803.988394,-9667.003304
423.733085,-57.427742,-918.843878,-9686.145885
423.735623,-38.285162,-995.414202,-9667.003304
423.738161,-38.285162,-1110.269686,-9533.005238
423.740699,-114.855485,-842.273555,-9839.286531
423.743237,-95.712904,-899.701298,-9533.005238
423.745776,-57.427742,-937.986459,-9552.147819
423.748314,-57.427742,-823.130974,-9877.571693
423.750852,-57.427742,-957.129040,-9533.005238
423.753390,-153.140646,-1110.269686,-9533.005238
423.755928,-0.000000,-1167.697429,-9667.003304
423.758466,-95.712904,-861.416136,-9686.145885
423.761004,-38.285162,-842.273555,-9820.143950
423.763542,-114.855485,-880.558717,-9379.864592
423.766080,-133.998066,-918.843878,-9743.573627
423.768618,-114.855485,-937.986459,-9628.718142
423.771156,-114.855485,-937.986459,-9571.290400
423.773694,-133.998066,-899.701298,-9762.716208
423.776232,-76.570323,-937.986459,-9628.718142
423.778771,-95.712904,-861.416136,-9667.003304
423.781309,-57.427742,-880.558717,-9609.575562
423.783853,-172.283227,-880.558717,-9647.860723
423.786397,-38.285162,-957.129040,-9686.145885
423.788942,-76.570323,-899.701298,-9571.290400
423.791486,-76.570323,-918.843878,-9743.573627
423.794030,-114.855485,-861.416136,-9552.147819
423.796575,-76.570323,-937.986459,-9628.718142
423.799119,-133.998066,-880.558717,-9686.145885
423.801663,-76.570323,-899.701298,-9686.145885
423.804207,-95.712904,-880.558717,-9628.718142
423.806752,-95.712904,-899.701298,-9724.431046
423.809296,-153.140646,-784.845813,-9724.431046
423.811840,-38.285162,-861.416136,-9628.718142
423.814385,-95.712904,-784.845813,-9647.860723
423.816929,-76.570323,-765.703232,-9743.573627
423.819473,-95.712904,-861.416136,-9533.005238
423.822018,-172.283227,-918.843878,-9609.575562
423.824562,-38.285162,-861.416136,-9743.573627
423.827106,-114.855485,-823.130974,-9628.718142
423.829651,-76.570323,-727.418070,-9801.001370
423.832195,-76.570323,-880.558717,-9494.720077
423.834739,-38.285162,-937.986459,-9533.005238
423.837284,-19.142581,-957.129040,-9647.860723
423.839828,-133.998066,-612.562586,-9762.716208
423.842372,-172.283227,-918.843878,-9667.003304
423.844917,-95.712904,-957.129040,-9513.862658
423.847461,-38.285162,-918.843878,-9686.145885
423.850005,-153.140646,-918.843878,-9667.003304
423.852550,-133.998066,-784.845813,-9686.145885
423.855094,-76.570323,-995.414202,-9590.432981
423.857638,-19.142581,-1091.127106,-9667.003304
423.860183,-133.998066,-689.132909,-9839.286531
423.862727,-95.712904,-842.273555,-9456.434915
423.865271,-76.570323,-1033.699363,-9724.431046
423.867815,-38.285162,-1014.556782,-9475.577496
423.870360,-76.570323,-842.273555,-9667.003304
423.872904,-38.285162,-918.843878,-9781.858789
423.875448,-57.427742,-1052.841944,-9418.149754
423.877993,-172.283227,-823.130974,-9801.001370
423.880537,-133.998066,-842.273555,-9743.573627
423.883081,-153.140646,-861.416136,-9513.862658
423.885592,-95.712904,-861.416136,-9858.429112
423.888103,-172.283227,-784.845813,-9609.575562
423.890614,-114.855485,-842.273555,-9609.575562
423.893125,-76.570323,-918.843878,-9667.003304
423.895636,-76.570323,-937.986459,-9552.147819
423.898147,-76.570323,-746.560651,-9513.862658
423.900658,-114.855485,-880.558717,-9743.573627
423.903169,-95.712904,-1052.841944,-9647.860723
423.905680,-95.712904,-957.129040,-9552.147819
423.908191,-57.427742,-937.986459,-9571.290400
423.910702,-57.427742,-669.990328,-9686.145885
423.913213,-133.998066,-803.988394,-9418.149754
423.915724,-38.285162,-880.558717,-9781.858789
423.918235,-76.570323,-880.558717,-9590.432981
423.920746,-133.998066,-823.130974,-9628.718142
423.923257,-76.570323,-842.273555,-9839.286531
423.925768,-114.855485,-1033.699363,-9494.720077
423.928279,-19.142581,-1033.699363,-9494.720077
423.930790,-95.712904,-918.843878,-9743.573627
423.933301,-133.998066,-803.988394,-9609.575562
423.935812,-172.283227,-823.130974,-9667.003304
423.938323,-38.285162,-1052.841944,-9590.432981
423.940834,-0.000000,-976.271621,-9494.720077
423.943345,-38.285162,-861.416136,-9667.003304
423.945856,-95.712904,-823.130974,-9858.429112
423.948367,-95.712904,-937.986459,-9571.290400
423.950878,-133.998066,-937.986459,-9667.003304
423.953389,-76.570323,-995.414202,-9667.003304
423.955900,-114.855485,-823.130974,-9705.288466
423.958411,-133.998066,-899.701298,-9686.145885
423.960922,-76.570323,-957.129040,-9667.003304
423.963433,-114.855485,-880.558717,-9743.573627
423.965944,-57.427742,-880.558717,-9647.860723
423.968455,-76.570323,-976.271621,-9418.149754
423.970966,-38.285162,-899.701298,-9628.718142
423.973477,-95.712904,-842.273555,-9781.858789
423.975988,-114.855485,-880.558717,-9667.003304
423.978499,-172.283227,-995.414202,-9647.860723
423.981010,-114.855485,-937.986459,-9667.003304
423.983521,-57.427742,-899.701298,-9686.145885
423.986045,-76.570323,-803.988394,-9705.288466
423.988569,-76.570323,-937.986459,-9628.718142
423.991092,-57.427742,-937.986459,-9743.573627
423.993616,-95.712904,-899.701298,-9724.431046
423.996139,-153.140646,-842.273555,-9743.573627
423.998663,-95.712904,-937.986459,-9667.003304
424.001186,-95.712904,-899.701298,-9667.003304
424.003710,-76.570323,-784.845813,-9781.858789
424.006233,-114.855485,-899.701298,-9628.718142
424.008757,-95.712904,-823.130974,-9667.003304
424.011281,-153.140646,-823.130974,-9628.718142
424.013804,-95.712904,-880.558717,-9609.575562
424.016328,-38.285162,-918.843878,-9743.573627
424.018851,-95.712904,-918.843878,-9686.145885
424.021375,-57.427742,-937.986459,-9647.860723
424.023898,-95.712904,-957.129040,-9743.573627
424.026422,-76.570323,-880.558717,-9609.575562
424.028945,-76.570323,-708.275490,-9781.858789
424.031469,-76.570323,-880.558717,-9647.860723
424.033993,-76.570323,-1033.699363,-9456.434915
424.036516,-38.285162,-976.271621,-9743.573627
424.039040,-114.855485,-746.560651,-9781.858789
424.041563,-95.712904,-918.843878,-9552.147819
424.044087,-76.570323,-995.414202,-9647.860723
424.046610,-95.712904,-957.129040,-9743.573627
424.049134,-172.283227,-937.986459,-9571.290400
424.051657,-95.712904,-880.558717,-9724.431046
424.054181,-76.570323,-880.558717,-9590.432981
424.056705,-133.998066,-861.416136,-9513.862658
424.059228,-133.998066,-861.416136,-9781.858789
424.061752,-76.570323,-976.271621,-9494.720077
424.064275,-133.998066,-918.843878,-9667.003304
424.066799,-38.285162,-899.701298,-9762.716208
424.069322,-95.712904,-976.271621,-9494.720077
424.071846,-57.427742,-937.986459,-9705.288466
424.074369,-95.712904,-880.558717,-9647.860723
424.076893,-114.855485,-823.130974,-9571.290400
424.079417,-19.142581,-880.558717,-9820.143950
424.081940,-114.855485,-784.845813,-9494.720077
424.084464,-76.570323,-784.845813,-9705.288466
424.086997,-76.570323,-880.558717,-9628.718142
424.089530,-19.142581,-861.416136,-9609.575562
424.092063,-57.427742,-880.558717,-9571.290400
424.094596,-0.000000,-899.701298,-9724.431046
424.097129,-133.998066,-957.129040,-9533.005238
424.099662,-57.427742,-880.558717,-9609.575562
424.102195,-76.570323,-976.271621,-9801.001370
424.104729,-95.712904,-957.129040,-9456.434915
424.107262,-57.427742,-880.558717,-9667.003304
424.109795,-172.283227,-765.703232,-9839.286531
424.112328,-76.570323,-823.130974,-9552.147819
424.114861,-95.712904,-937.986459,-9877.571693
424.117394,-133.998066,-957.129040,-9762.716208
424.119927,-76.570323,-937.986459,-9571.290400
424.122460,-76.570323,-823.130974,-9647.860723
424.124994,-133.998066,-784.845813,-9762.716208
424.127527,-76.570323,-842.273555,-9571.290400
424.130060,-38.285162,-1014.556782,-9705.288466
424.132593,-57.427742,-937.986459,-9667.003304
424.135126,-114.855485,-689.132909,-9609.575562
424.137659,-95.712904,-937.986459,-9647.860723
424.140192,-57.427742,-937.986459,-9552.147819
424.142725,-38.285162,-823.130974,-9705.288466
424.145258,-76.570323,-918.843878,-9762.716208
424.147792,-114.855485,-937.986459,-9552.147819
424.150325,-76.570323,-918.843878,-9533.005238
424.152858,-0.000000,-823.130974,-9762.716208
424.155391,-76.570323,-842.273555,-9552.147819
424.157924,-19.142581,-918.843878,-9533.005238
424.160457,-133.998066,-880.558717,-9705.288466
424.162990,-133.998066,-861.416136,-9571.290400
424.165523,-76.570323,-995.414202,-9743.573627
424.168056,-0.000000,-957.129040,-9609.575562
424.170590,-57.427742,-899.701298,-9647.860723
424.173123,-95.712904,-957.129040,-9743.573627
424.175656,-95.712904,-823.130974,-9609.575562
424.178189,-95.712904,-880.558717,-9647.860723
424.180722,-133.998066,-918.843878,-9743.573627
424.183255,-133.998066,-746.560651,-9609.575562
424.185788,-95.712904,-899.701298,-9475.577496
424.188328,-133.998066,-861.416136,-9801.001370
424.190869,-38.285162,-842.273555,-9686.145885
424.193409,-76.570323,-823.130974,-9571.290400
424.195949,-38.285162,-861.416136,-9781.858789
424.198490,-57.427742,-880.558717,-9667.003304
424.201030,-133.998066,-899.701298,-9743.573627
424.203570,-76.570323,-899.701298,-9762.716208
424.206111,-57.427742,-976.271621,-9475.577496
424.208651,-19.142581,-899.701298,-9724.431046
424.211191,-95.712904,-803.988394,-9781.858789
424.213731,-57.427742,-918.843878,-9303.294269
424.216272,-133.998066,-976.271621,-9801.001370
424.218812,-133.998066,-823.130974,-9915.856854
424.221352,-57.427742,-957.129040,-9456.434915
424.223893,-76.570323,-1014.556782,-9724.431046
424.226433,-133.998066,-1129.412267,-9513.862658
424.228973,-133.998066,-784.845813,-9647.860723
424.231514,-76.570323,-842.273555,-9762.716208
424.234054,-76.570323,-1071.984525,-9552.147819
424.236594,-19.142581,-1052.841944,-9609.575562
424.239134,-57.427742,-957.129040,-9705.288466
424.241675,-95.712904,-784.845813,-9743.573627
424.244215,-133.998066,-1014.556782,-9628.718142
424.246755,-114.855485,-823.130974,-9686.145885
424.249296,-19.142581,-976.271621,-9609.575562
424.251836,-114.855485,-746.560651,-9762.716208
424.254376,-153.140646,-765.703232,-9781.858789
424.256916,-153.140646,-880.558717,-9437.292334
424.259457,-76.570323,-1014.556782,-9686.145885
424.261997,-114.855485,-861.416136,-9762.716208
424.264537,-95.712904,-899.701298,-9628.718142
424.267078,-76.570323,-899.701298,-9667.003304
424.269618,-38.285162,-1014.556782,-9609.575562
424.272158,-57.427742,-842.273555,-9801.001370
424.274699,-76.570323,-995.414202,-9762.716208
424.277239,-95.712904,-937.986459,-9647.860723
424.279779,-114.855485,-1014.556782,-9590.432981
424.282319,-95.712904,-784.845813,-9762.716208
424.284860,-114.855485,-765.703232,-9743.573627
424.287400,-114.855485,-784.845813,-9590.432981
424.289947,-95.712904,-880.558717,-9705.288466
424.292493,-95.712904,-899.701298,-9686.145885
424.295040,-95.712904,-995.414202,-9647.860723
424.297587,-153.140646,-880.558717,-9667.003304
424.300133,-95.712904,-918.843878,-9590.432981
424.302680,-57.427742,-823.130974,-9571.290400
424.305227,-38.285162,-918.843878,-9724.431046
424.307773,-133.998066,-765.703232,-9686.145885
424.310320,-95.712904,-918.843878,-9552.147819
424.312866,-114.855485,-957.129040,-9628.718142
424.315413,-57.427742,-957.129040,-9609.575562
424.317960,-57.427742,-995.414202,-9686.145885
424.320506,-133.998066,-995.414202,-9609.575562
424.323053,-95.712904,-1014.556782,-9667.003304
424.325600,-38.285162,-669.990328,-9820.143950
424.328146,-114.855485,-631.705166,-9705.288466
424.330693,-95.712904,-957.129040,-9590.432981
424.333240,-19.142581,-1033.699363,-9609.575562
424.335786,-76.570323,-861.416136,-9801.001370
424.338333,-172.283227,-669.990328,-9743.573627
424.340880,-133.998066,-899.701298,-9628.718142
424.343426,-57.427742,-937.986459,-9609.575562
424.345973,-76.570323,-842.273555,-9858.429112
424.348519,-38.285162,-842.273555,-9628.718142
424.351066,-95.712904,-842.273555,-9686.145885
424.353613,-57.427742,-957.129040,-9724.431046
424.356159,-95.712904,-957.129040,-9552.147819
424.358706,-76.570323,-842.273555,-9781.858789
424.361253,-19.142581,-880.558717,-9533.005238
424.363799,-172.283227,-899.701298,-9667.003304
424.366346,-95.712904,-937.986459,-9686.145885
424.368893,-0.000000,-899.701298,-9647.860723
424.371439,-95.712904,-957.129040,-9667.003304
424.373986,-95.712904,-937.986459,-9628.718142
424.376533,-114.855485,-899.701298,-9609.575562
424.379079,-38.285162,-861.416136,-9762.716208
424.381626,-95.712904,-899.701298,-9609.575562
424.384173,-57.427742,-937.986459,-9571.290400
424.386719,-76.570323,-899.701298,-9571.290400
424.389266,-76.570323,-880.558717,-9667.003304
424.391817,-38.285162,-823.130974,-9609.575562
424.394368,-114.855485,-937.986459,-9590.432981
424.396919,-95.712904,-918.843878,-9686.145885
424.399470,-133.998066,-842.273555,-9628.718142
424.402021,-114.855485,-918.843878,-9647.860723
424.404572,-38.285162,-899.701298,-9686.145885
424.407123,-95.712904,-899.701298,-9667.003304
424.409674,-57.427742,-823.130974,-9743.573627
424.412225,-0.000000,-842.273555,-9667.003304
424.414776,-133.998066,-937.986459,-9513.862658
424.417327,-76.570323,-899.701298,-9628.718142
424.419879,-76.570323,-899.701298,-9686.145885
424.422430,-95.712904,-842.273555,-9801.001370
424.424981,-95.712904,-842.273555,-9743.573627
424.427532,-57.427742,-1033.699363,-9418.149754
424.430083,-38.285162,-976.271621,-9686.145885
424.432634,-114.855485,-784.845813,-9724.431046
424.435185,-114.855485,-803.988394,-9571.290400
424.437736,-57.427742,-1033.699363,-9571.290400
424.440287,-57.427742,-976.271621,-9724.431046
424.442838,-76.570323,-765.703232,-9705.288466
424.445389,-95.712904,-918.843878,-9571.290400
424.447940,-114.855485,-784.845813,-9781.858789
424.450491,-114.855485,-1014.556782,-9628.718142
424.453042,-76.570323,-784.845813,-9801.001370
424.455593,-57.427742,-899.701298,-9667.003304
424.458144,-153.140646,-918.843878,-9513.862658
424.460695,-133.998066,-918.843878,-9781.858789
424.463247,-133.998066,-918.843878,-9552.147819
424.465798,-95.712904,-918.843878,-9743.573627
424.468349,-76.570323,-918.843878,-9743.573627
424.470900,-76.570323,-880.558717,-9571.290400
424.473451,-95.712904,-861.416136,-9743.573627
424.476002,-114.855485,-880.558717,-9609.575562
424.478553,-95.712904,-842.273555,-9609.575562
424.481104,-76.570323,-899.701298,-9647.860723
424.483655,-95.712904,-918.843878,-9609.575562
424.486206,-76.570323,-784.845813,-9724.431046
424.488757,-38.285162,-861.416136,-9533.005238
424.491308,-57.427742,-995.414202,-9686.145885
424.493862,-57.427742,-880.558717,-9647.860723
424.496416,-133.998066,-861.416136,-9762.716208
424.498970,-95.712904,-899.701298,-9667.003304
424.501524,-76.570323,-861.416136,-9628.718142
424.504078,-76.570323,-880.558717,-9647.860723
424.506632,-133.998066,-957.129040,-9743.573627
424.509186,-76.570323,-957.129040,-9743.573627
424.511740,-57.427742,-937.986459,-9647.860723
424.514294,-114.855485,-918.843878,-9647.860723
424.516848,-38.285162,-957.129040,-9552.147819
424.519402,-76.570323,-880.558717,-9628.718142
424.521956,-95.712904,-880.558717,-9686.145885
424.524510,-38.285162,-976.271621,-9513.862658
424.527064,-76.570323,-823.130974,-9781.858789
424.529618,-133.998066,-842.273555,-9762.716208
424.532172,-133.998066,-861.416136,-9571.290400
424.534726,-0.000000,-976.271621,-9513.862658
424.537280,-76.570323,-1148.554848,-9437.292334
424.539834,-133.998066,-784.845813,-9915.856854
424.542388,-114.855485,-823.130974,-9628.718142
424.544942,-57.427742,-976.271621,-9475.577496
424.547496,-76.570323,-861.416136,-9877.571693
424.550050,-133.998066,-899.701298,-9571.290400
424.552603,-95.712904,-880.558717,-9667.003304
424.555157,-57.427742,-1033.699363,-9705.288466
424.557711,-57.427742,-880.558717,-9647.860723
424.560265,-133.998066,-842.273555,-9743.573627
424.562819,-95.712904,-1014.556782,-9609.575562
424.565373,-95.712904,-937.986459,-9686.145885
424.567927,-114.855485,-899.701298,-9667.003304
424.570481,-76.570323,-918.843878,-9647.860723
424.573035,-95.712904,-957.129040,-9456.434915
424.575589,-38.285162,-995.414202,-9628.718142
424.578143,-57.427742,-880.558717,-9609.575562
424.580697,-172.283227,-918.843878,-9647.860723
424.583251,-95.712904,-861.416136,-9609.575562
424.585805,-57.427742,-880.558717,-9686.145885
424.588359,-57.427742,-823.130974,-9667.003304
424.590913,-38.285162,-823.130974,-9667.003304
424.593467,-95.712904,-1033.699363,-9571.290400
424.596024,-95.712904,-823.130974,-9647.860723
424.598581,-95.712904,-957.129040,-9743.573627
424.601138,-57.427742,-880.558717,-9686.145885
424.603695,-38.285162,-957.129040,-9820.143950
424.606252,-57.427742,-937.986459,-9494.720077
424.608809,-114.855485,-880.558717,-9686.145885
424.611366,-153.140646,-765.703232,-9896.714274
424.613923,-95.712904,-784.845813,-9418.149754
424.616480,-114.855485,-784.845813,-9820.143950
424.619036,-114.855485,-823.130974,-9609.575562
424.621593,-0.000000,-1091.127106,-9437.292334
424.624150,-95.712904,-823.130974,-9801.001370
424.626707,-133.998066,-765.703232,-9705.288466
424.629264,-114.855485,-803.988394,-9647.860723
424.631821,-0.000000,-995.414202,-9762.716208
424.634378,-19.142581,-995.414202,-9533.005238
424.636935,-95.712904,-765.703232,-9781.858789
424.639492,-95.712904,-784.845813,-9743.573627
424.642049,-57.427742,-1148.554848,-9705.288466
424.644606,-57.427742,-976.271621,-9609.575562
424.647163,-76.570323,-708.275490,-9647.860723
424.649720,-95.712904,-842.273555,-9743.573627
424.652277,-153.140646,-899.701298,-9628.718142
424.654834,-57.427742,-1014.556782,-9437.292334
424.657391,-57.427742,-880.558717,-9896.714274
424.659948,-114.855485,-765.703232,-9724.431046
424.662505,-133.998066,-899.701298,-9456.434915
424.665062,-38.285162,-976.271621,-9743.573627
424.667618,-114.855485,-918.843878,-9609.575562
424.670175,-95.712904,-880.558717,-9647.860723
424.672732,-57.427742,-918.843878,-9628.718142
424.675289,-19.142581,-937.986459,-9647.860723
424.677846,-57.427742,-937.986459,-9743.573627
424.680403,-57.427742,-880.558717,-9762.716208
424.682960,-133.998066,-765.703232,-9590.432981
424.685517,-114.855485,-823.130974,-9724.431046
424.688074,-172.283227,-823.130974,-9571.290400
424.690631,-38.285162,-957.129040,-9628.718142
424.693188,-114.855485,-957.129040,-9686.145885
424.695745,-172.283227,-899.701298,-9609.575562
424.698304,-133.998066,-823.130974,-9667.003304
424.700863,-133.998066,-842.273555,-9571.290400
424.703422,-57.427742,-995.414202,-9667.003304
424.705981,-38.285162,-918.843878,-9724.431046
424.708540,-133.998066,-861.416136,-9877.571693
424.711099,-76.570323,-803.988394,-9590.432981
424.713659,-0.000000,-995.414202,-9590.432981
424.716218,-172.283227,-937.986459,-9743.573627
424.718777,-38.285162,-899.701298,-9590.432981
424.721336,-76.570323,-803.988394,-9609.575562
424.723895,-95.712904,-784.845813,-9820.143950
424.726454,-57.427742,-861.416136,-9628.718142
424.729013,-95.712904,-976.271621,-9513.862658
424.731572,-133.998066,-899.701298,-9609.575562
424.734131,-57.427742,-823.130974,-9667.003304
424.736690,-76.570323,-823.130974,-9686.145885
424.739249,-19.142581,-1091.127106,-9667.003304
424.741809,-133.998066,-937.986459,-9513.862658
424.744368,-76.570323,-784.845813,-9762.716208
424.746927,-133.998066,-957.129040,-9513.862658
424.749486,-57.427742,-995.414202,-9647.860723
424.752045,-38.285162,-842.273555,-9686.145885
424.754604,-133.998066,-861.416136,-9762.716208
424.757163,-38.285162,-842.273555,-9552.147819
424.759722,-76.570323,-957.129040,-9724.431046
424.762281,-95.712904,-918.843878,-9571.290400
424.764840,-76.570323,-861.416136,-9743.573627
424.767400,-57.427742,-880.558717,-9686.145885
424.769959,-133.998066,-957.129040,-9494.720077
424.772518,-57.427742,-880.558717,-9686.145885
424.775077,-133.998066,-842.273555,-9686.145885
424.777636,-57.427742,-880.558717,-9571.290400
424.780195,-57.427742,-880.558717,-9667.003304
424.782754,-57.427742,-899.701298,-9647.860723
424.785313,-38.285162,-861.416136,-9628.718142
424.787872,-172.283227,-899.701298,-9686.145885
424.790431,-76.570323,-784.845813,-9801.001370
424.792990,-19.142581,-937.986459,-9475.577496
424.795550,-76.570323,-899.701298,-9609.575562
424.798109,-38.285162,-957.129040,-9743.573627
424.800669,-57.427742,-880.558717,-9667.003304
424.803229,-114.855485,-842.273555,-9667.003304
424.805789,-95.712904,-823.130974,-9705.288466
424.808349,-95.712904,-918.843878,-9571.290400
424.810909,-95.712904,-861.416136,-9820.143950
424.813470,-76.570323,-784.845813,-9705.288466
424.816030,-114.855485,-842.273555,-9552.147819
424.818590,-38.285162,-861.416136,-9724.431046
424.821150,-114.855485,-899.701298,-9667.003304
424.823710,-114.855485,-937.986459,-9571.290400
424.826270,-114.855485,-842.273555,-9724.431046
424.828830,-153.140646,-765.703232,-9705.288466
424.831391,-95.712904,-842.273555,-9571.290400
424.833951,-38.285162,-1052.841944,-9628.718142
424.836511,-19.142581,-976.271621,-9494.720077
424.839071,-38.285162,-918.843878,-9858.429112
424.841631,-172.283227,-765.703232,-9801.001370
424.844191,-153.140646,-861.416136,-9571.290400
424.846752,-19.142581,-976.271621,-9667.003304
424.849312,-57.427742,-899.701298,-9686.145885
424.851872,-38.285162,-957.129040,-9494.720077
424.854432,-114.855485,-995.414202,-9705.288466
424.856992,-38.285162,-957.129040,-9781.858789
424.859552,-114.855485,-918.843878,-9686.145885
424.862112,-95.712904,-842.273555,-9743.573627
424.864673,-38.285162,-861.416136,-9533.005238
424.867233,-153.140646,-861.416136,-9628.718142
424.869793,-172.283227,-937.986459,-9686.145885
424.872353,-38.285162,-957.129040,-9743.573627
424.874913,-76.570323,-880.558717,-9647.860723
424.877473,-133.998066,-899.701298,-9762.716208
424.880033,-76.570323,-861.416136,-9552.147819
424.882594,-38.285162,-861.416136,-9743.573627
424.885154,-95.712904,-880.558717,-9686.145885
424.887714,-76.570323,-899.701298,-9686.145885
424.890274,-95.712904,-937.986459,-9647.860723
424.892834,-95.712904,-880.558717,-9801.001370
424.895394,-38.285162,-880.558717,-9705.288466
424.897955,-114.855485,-899.701298,-9667.003304
424.900515,-76.570323,-880.558717,-9667.003304
424.903075,-76.570323,-880.558717,-9686.145885
424.905635,-133.998066,-937.986459,-9647.860723
424.908196,-95.712904,-995.414202,-9667.003304
424.910756,-95.712904,-899.701298,-9686.145885
424.913317,-0.000000,-842.273555,-9647.860723
424.915877,-95.712904,-918.843878,-9743.573627
424.918437,-57.427742,-880.558717,-9686.145885
424.920998,-153.140646,-899.701298,-9781.858789
424.923558,-95.712904,-899.701298,-9494.720077
424.926118,-57.427742,-995.414202,-9667.003304
424.928679,-114.855485,-823.130974,-9686.145885
424.931239,-95.712904,-842.273555,-9686.145885
424.933799,-57.427742,-1033.699363,-9552.147819
424.936360,-76.570323,-918.843878,-9686.145885
424.938920,-95.712904,-880.558717,-9781.858789
424.941481,-38.285162,-995.414202,-9513.862658
424.944041,-95.712904,-1014.556782,-9513.862658
424.946601,-0.000000,-918.843878,-9667.003304
424.949162,-114.855485,-823.130974,-9667.003304
424.951722,-76.570323,-861.416136,-9667.003304
424.954282,-19.142581,-937.986459,-9418.149754
424.956843,-57.427742,-899.701298,-9877.571693
424.959403,-38.285162,-899.701298,-9628.718142
424.961964,-38.285162,-861.416136,-9686.145885
424.964524,-133.998066,-957.129040,-9743.573627
424.967084,-133.998066,-842.273555,-9533.005238
424.969645,-114.855485,-937.986459,-9667.003304
424.972205,-57.427742,-995.414202,-9762.716208
424.974765,-76.570323,-899.701298,-9571.290400
424.977326,-19.142581,-861.416136,-9686.145885
424.979886,-38.285162,-937.986459,-9609.575562
424.982447,-38.285162,-957.129040,-9552.147819
424.985007,-76.570323,-880.558717,-9762.716208
424.987567,-0.000000,-918.843878,-9705.288466
424.990128,-57.427742,-861.416136,-9533.005238
424.992688,-133.998066,-918.843878,-9609.575562
424.995248,-38.285162,-899.701298,-9762.716208
424.997809,-57.427742,-899.701298,-9667.003304
425.000369,-114.855485,-823.130974,-9571.290400
425.002930,-57.427742,-842.273555,-9609.575562
425.005455,-153.140646,-861.416136,-9494.720077
425.007981,-114.855485,-861.416136,-9724.431046
425.010507,-114.855485,-918.843878,-9571.290400
425.013033,-76.570323,-861.416136,-9743.573627
425.015559,-76.570323,-823.130974,-9705.288466
425.018085,-133.998066,-995.414202,-9341.579430
425.020611,-95.712904,-803.988394,-9705.288466
425.023137,-172.283227,-880.558717,-9743.573627
425.025663,-57.427742,-899.701298,-9667.003304
425.028189,-38.285162,-995.414202,-9628.718142
425.030715,-57.427742,-1052.841944,-9705.288466
425.033241,-114.855485,-861.416136,-9858.429112
425.035767,-57.427742,-1014.556782,-9647.860723
425.038293,-133.998066,-842.273555,-9801.001370
425.040819,-57.427742,-1052.841944,-9437.292334
425.043345,-38.285162,-918.843878,-9705.288466
425.045871,-133.998066,-803.988394,-9743.573627
425.048397,-95.712904,-1071.984525,-9418.149754
425.050923,-95.712904,-918.843878,-9724.431046
425.053449,-76.570323,-746.560651,-9801.001370
425.055975,-153.140646,-880.558717,-9552.147819
425.058501,-38.285162,-1110.269686,-9628.718142
425.061027,-172.283227,-899.701298,-9724.431046
425.063553,-57.427742,-957.129040,-9667.003304
425.066079,-133.998066,-803.988394,-9705.288466
425.068605,-114.855485,-880.558717,-9571.290400
425.071131,-57.427742,-995.414202,-9686.145885
425.073657,-95.712904,-918.843878,-9743.573627
425.076183,-76.570323,-880.558717,-9743.573627
425.078709,-114.855485,-1014.556782,-9494.720077
425.081235,-95.712904,-880.558717,-9609.575562
425.083761,-38.285162,-918.843878,-9724.431046
425.086287,-114.855485,-746.560651,-9590.432981
425.088813,-57.427742,-918.843878,-9609.575562
425.091338,-38.285162,-918.843878,-9743.573627
425.093864,-38.285162,-803.988394,-9647.860723
425.096390,-95.712904,-937.986459,-9667.003304
425.098916,-76.570323,-899.701298,-9571.290400
425.101442,-0.000000,-1052.841944,-9743.573627
425.103968,-76.570323,-937.986459,-9743.573627
425.106502,-95.712904,-918.843878,-9552.147819
425.109035,-38.285162,-957.129040,-9552.147819
425.111568,-114.855485,-842.273555,-9762.716208
425.114102,-153.140646,-803.988394,-9667.003304
425.116635,-114.855485,-823.130974,-9667.003304
425.119168,-0.000000,-918.843878,-9781.858789
425.121702,-76.570323,-899.701298,-9571.290400
425.124235,-57.427742,-899.701298,-9552.147819
425.126768,-114.855485,-765.703232,-9820.143950
425.129302,-133.998066,-803.988394,-9647.860723
425.131835,-172.283227,-976.271621,-9724.431046
425.134369,-95.712904,-1033.699363,-9533.005238
425.136902,-38.285162,-1071.984525,-9609.575562
425.139435,-95.712904,-803.988394,-9781.858789
425.141969,-153.140646,-842.273555,-9686.145885
425.144502,-172.283227,-918.843878,-9647.860723
425.147035,-133.998066,-937.986459,-9667.003304
425.149569,-57.427742,-899.701298,-9705.288466
425.152102,-38.285162,-861.416136,-9667.003304
425.154635,-95.712904,-937.986459,-9667.003304
425.157169,-95.712904,-995.414202,-9628.718142
425.159702,-38.285162,-861.416136,-9801.001370
425.162235,-95.712904,-842.273555,-9571.290400
425.164769,-57.427742,-937.986459,-9628.718142
425.167302,-153.140646,-957.129040,-9743.573627
425.169835,-114.855485,-1033.699363,-9533.005238
425.172369,-76.570323,-937.986459,-9686.145885
425.174902,-133.998066,-918.843878,-9686.145885
425.177435,-114.855485,-937.986459,-9590.432981
425.179969,-133.998066,-995.414202,-9705.288466
425.182502,-114.855485,-937.986459,-9667.003304
425.185035,-38.285162,-803.988394,-9705.288466
425.187569,-0.000000,-842.273555,-9609.575562
425.190102,-153.140646,-803.988394,-9705.288466
425.192635,-133.998066,-918.843878,-9628.718142
425.195169,-133.998066,-861.416136,-9513.862658
425.197702,-95.712904,-861.416136,-9686.145885
425.200236,-95.712904,-861.416136,-9801.001370
425.202769,-95.712904,-861.416136,-9494.720077
425.205302,-76.570323,-995.414202,-9667.003304
425.207842,-57.427742,-880.558717,-9743.573627
425.210382,-38.285162,-880.558717,-9647.860723
425.212921,-133.998066,-823.130974,-9686.145885
425.215460,-76.570323,-918.843878,-9571.290400
425.217999,-76.570323,-899.701298,-9743.573627
425.220538,-95.712904,-880.558717,-9647.860723
425.223077,-95.712904,-880.558717,-9628.718142
425.225616,-114.855485,-918.843878,-9609.575562
425.228155,-95.712904,-995.414202,-9705.288466
425.230694,-95.712904,-995.414202,-9609.575562
425.233233,-95.712904,-823.130974,-9724.431046
425.235772,-95.712904,-842.273555,-9743.573627
425.238311,-57.427742,-937.986459,-9628.718142
425.240850,-114.855485,-1091.127106,-9418.149754
425.243389,-76.570323,-937.986459,-9743.573627
425.245929,-76.570323,-823.130974,-9686.145885
425.248468,-114.855485,-861.416136,-9571.290400
425.251007,-57.427742,-918.843878,-9628.718142
425.253546,-133.998066,-937.986459,-9667.003304
425.256085,-38.285162,-861.416136,-9762.716208
425.258624,-172.283227,-937.986459,-9609.575562
425.261163,-114.855485,-937.986459,-9686.145885
425.263702,-133.998066,-937.986459,-9686.145885
425.266241,-57.427742,-880.558717,-9667.003304
425.268780,-95.712904,-957.129040,-9743.573627
425.271319,-76.570323,-937.986459,-9609.575562
425.273858,-76.570323,-976.271621,-9494.720077
425.276397,-38.285162,-899.701298,-9724.431046
425.278936,-76.570323,-784.845813,-9705.288466
425.281476,-114.855485,-803.988394,-9647.860723
425.284015,-57.427742,-937.986459,-9686.145885
425.286554,-133.998066,-880.558717,-9743.573627
425.289093,-38.285162,-842.273555,-9762.716208
425.291632,-114.855485,-880.558717,-9667.003304
425.294171,-114.855485,-937.986459,-9647.860723
425.296710,-114.855485,-899.701298,-9724.431046
425.299249,-57.427742,-880.558717,-9667.003304
425.301788,-76.570323,-899.701298,-9609.575562
425.304327,-76.570323,-823.130974,-9628.718142
425.306866,-114.855485,-880.558717,-9647.860723
425.309410,-38.285162,-880.558717,-9628.718142
425.311954,-172.283227,-899.701298,-9762.716208
425.314498,-95.712904,-823.130974,-9781.858789
425.317041,-172.283227,-823.130974,-9686.145885
425.319585,-95.712904,-1033.699363,-9571.290400
425.322129,-133.998066,-899.701298,-9667.003304
425.324673,-57.427742,-823.130974,-9647.860723
425.327216,-38.285162,-995.414202,-9667.003304
425.329760,-95.712904,-918.843878,-9571.290400
425.332304,-38.285162,-842.273555,-9667.003304
425.334848,-57.427742,-861.416136,-9743.573627
425.337391,-114.855485,-1014.556782,-9590.432981
425.339935,-133.998066,-880.558717,-9705.288466
425.342479,-153.140646,-842.273555,-9801.001370
425.345023,-95.712904,-957.129040,-9552.147819
425.347566,-76.570323,-995.414202,-9590.432981
425.350110,-95.712904,-957.129040,-9762.716208
425.352654,-133.998066,-957.129040,-9513.862658
425.355198,-114.855485,-1033.699363,-9533.005238
425.357741,-57.427742,-784.845813,-9839.286531
425.360285,-38.285162,-861.416136,-9552.147819
425.362829,-57.427742,-918.843878,-9647.860723
425.365373,-38.285162,-1014.556782,-9628.718142
425.367916,-38.285162,-918.843878,-9801.001370
425.370460,-57.427742,-880.558717,-9667.003304
425.373004,-76.570323,-937.986459,-9571.290400
425.375548,-38.285162,-957.129040,-9571.290400
425.378091,-38.285162,-957.129040,-9858.429112
425.380635,-95.712904,-784.845813,-9494.720077
425.383179,-114.855485,-842.273555,-9743.573627
425.385723,-38.285162,-880.558717,-9781.858789
425.388266,-133.998066,-918.843878,-9513.862658
425.390810,-76.570323,-899.701298,-9628.718142
425.393354,-153.140646,-803.988394,-9820.143950
425.395898,-114.855485,-880.558717,-9571.290400
425.398442,-38.285162,-918.843878,-9628.718142
425.400985,-76.570323,-957.129040,-9762.716208
425.403529,-38.285162,-823.130974,-9705.288466
425.406073,-133.998066,-803.988394,-9724.431046
425.408617,-57.427742,-899.701298,-9571.290400
425.411130,-57.427742,-995.414202,-9686.145885
425.413644,-76.570323,-765.703232,-9724.431046
425.416158,-153.140646,-746.560651,-9724.431046
425.418672,-95.712904,-976.271621,-9667.003304
425.421186,-57.427742,-1033.699363,-9418.149754
425.423700,-95.712904,-708.275490,-9820.143950
425.426214,-38.285162,-899.701298,-9705.288466
425.428728,-95.712904,-937.986459,-9647.860723
425.431242,-57.427742,-1014.556782,-9628.718142
425.433756,-95.712904,-937.986459,-9686.145885
425.436269,-95.712904,-842.273555,-9705.288466
425.438783,-172.283227,-765.703232,-9590.432981
425.441297,-114.855485,-1014.556782,-9762.716208
425.443811,-57.427742,-957.129040,-9571.290400
425.446325,-76.570323,-823.130974,-9513.862658
425.448839,-95.712904,-803.988394,-9858.429112
425.451353,-133.998066,-918.843878,-9475.577496
425.453867,-57.427742,-995.414202,-9494.720077
425.456381,-76.570323,-823.130974,-10088.140082
425.458895,-38.285162,-899.701298,-9437.292334
425.461408,-114.855485,-823.130974,-9571.290400
425.463922,-38.285162,-976.271621,-9743.573627
425.466436,-153.140646,-861.416136,-9571.290400
425.468950,-76.570323,-937.986459,-9743.573627
425.471464,-114.855485,-861.416136,-9590.432981
425.473978,-95.712904,-842.273555,-9437.292334
425.476492,-95.712904,-957.129040,-9686.145885
425.479006,-57.427742,-995.414202,-9743.573627
425.481520,-114.855485,-880.558717,-9647.860723
425.484034,-95.712904,-899.701298,-9571.290400
425.486547,-153.140646,-803.988394,-9724.431046
425.489061,-95.712904,-765.703232,-9705.288466
425.491575,-133.998066,-842.273555,-9533.005238
425.494089,-38.285162,-918.843878,-9762.716208
425.496603,-133.998066,-937.986459,-9686.145885
425.499117,-76.570323,-937.986459,-9609.575562
425.501631,-19.142581,-937.986459,-9533.005238
425.504145,-76.570323,-880.558717,-9494.720077
425.506659,-172.283227,-880.558717,-9686.145885
425.509173,-95.712904,-861.416136,-9590.432981
425.511696,-57.427742,-918.843878,-9571.290400
425.514220,-95.712904,-899.701298,-9801.001370
425.516744,-95.712904,-918.843878,-9513.862658
425.519267,-57.427742,-937.986459,-9686.145885
425.521791,-76.570323,-803.988394,-9705.288466
425.524315,-0.000000,-995.414202,-9686.145885
425.526838,-0.000000,-957.129040,-9590.432981
425.529362,-114.855485,-957.129040,-9628.718142
425.531886,-114.855485,-746.560651,-9724.431046
425.534409,-114.855485,-842.273555,-9667.003304
425.536933,-57.427742,-918.843878,-9724.431046
425.539457,-38.285162,-1033.699363,-9552.147819
425.541980,-38.285162,-784.845813,-9705.288466
425.544504,-172.283227,-803.988394,-9686.145885
425.547028,-95.712904,-1033.699363,-9590.432981
425.549551,-95.712904,-880.558717,-9686.145885
425.552075,-76.570323,-937.986459,-9647.860723
425.554599,-95.712904,-842.273555,-9781.858789
425.557122,-38.285162,-823.130974,-9552.147819
425.559646,-114.855485,-1014.556782,-9667.003304
425.562170,-76.570323,-842.273555,-9705.288466
425.564693,-57.427742,-880.558717,-9571.290400
425.567217,-95.712904,-957.129040,-9686.145885
425.569741,-114.855485,-937.986459,-9628.718142
425.572264,-76.570323,-823.130974,-9628.718142
425.574788,-114.855485,-880.558717,-9647.860723
425.577312,-133.998066,-899.701298,-9667.003304
425.579835,-95.712904,-880.558717,-9571.290400
425.582359,-95.712904,-899.701298,-9858.429112
425.584883,-114.855485,-880.558717,-9628.718142
425.587406,-76.570323,-899.701298,-9743.573627
425.589930,-95.712904,-842.273555,-9858.429112
425.592454,-38.285162,-957.129040,-9571.290400
425.594977,-38.285162,-957.129040,-9437.292334
425.597501,-114.855485,-937.986459,-9743.573627
425.600025,-133.998066,-823.130974,-9609.575562
425.602548,-38.285162,-918.843878,-9552.147819
425.605072,-57.427742,-957.129040,-9762.716208
425.607596,-57.427742,-880.558717,-9762.716208
425.610119,-76.570323,-823.130974,-9667.003304
425.612618,-76.570323,-784.845813,-9801.001370
425.615117,-114.855485,-880.558717,-9552.147819
425.617616,-95.712904,-803.988394,-9705.288466
425.620114,-57.427742,-899.701298,-9686.145885
425.622613,-95.712904,-957.129040,-9437.292334
425.625112,-76.570323,-899.701298,-9552.147819
425.627610,-114.855485,-784.845813,-9724.431046
425.630109,-76.570323,-823.130974,-9628.718142
425.632608,-76.570323,-1014.556782,-9494.720077
425.635107,-76.570323,-937.986459,-9801.001370
425.637605,-76.570323,-765.703232,-9667.003304
425.640104,-172.283227,-861.416136,-9628.718142
425.642603,-38.285162,-1071.984525,-9590.432981
425.645101,-114.855485,-784.845813,-9705.288466
425.647600,-172.283227,-880.558717,-9647.860723
425.650099,-95.712904,-861.416136,-9686.145885
425.652598,-57.427742,-861.416136,-9533.005238
425.655096,-95.712904,-899.701298,-9801.001370
425.657595,-57.427742,-957.129040,-9609.575562
425.660094,-38.285162,-861.416136,-9628.718142
425.662592,-76.570323,-899.701298,-9609.575562
425.665091,-172.283227,-880.558717,-9686.145885
425.667590,-133.998066,-957.129040,-9571.290400
425.670089,-76.570323,-937.986459,-9686.145885
425.672587,-57.427742,-937.986459,-9571.290400
425.675086,-114.855485,-880.558717,-9609.575562
425.677585,-57.427742,-899.701298,-9667.003304
425.680083,-38.285162,-842.273555,-9781.858789
425.682582,-133.998066,-861.416136,-9743.573627
425.685081,-133.998066,-861.416136,-9743.573627
425.687579,-133.998066,-823.130974,-9590.432981
425.690078,-114.855485,-918.843878,-9571.290400
425.692577,-95.712904,-937.986459,-9686.145885
425.695076,-19.142581,-937.986459,-9647.860723
425.697574,-133.998066,-784.845813,-9705.288466
425.700073,-95.712904,-880.558717,-9743.573627
425.702572,-133.998066,-995.414202,-9705.288466
425.705070,-95.712904,-957.129040,-9686.145885
425.707569,-19.142581,-823.130974,-9705.288466
425.710068,-57.427742,-937.986459,-9686.145885
425.712580,-114.855485,-937.986459,-9437.292334
425.715093,-76.570323,-918.843878,-9858.429112
425.717605,-19.142581,-937.986459,-9781.858789
425.720118,-38.285162,-899.701298,-9552.147819
425.722630,-38.285162,-995.414202,-9552.147819
425.725143,-19.142581,-918.843878,-9896.714274
425.727655,-38.285162,-918.843878,-9552.147819
425.730167,-133.998066,-842.273555,-9647.860723
425.732680,-172.283227,-784.845813,-9724.431046
425.735192,-76.570323,-861.416136,-9686.145885
425.737705,-76.570323,-995.414202,-9341.579430
425.740217,-57.427742,-976.271621,-9686.145885
425.742730,-76.570323,-784.845813,-9781.858789
425.745242,-114.855485,-1014.556782,-9456.434915
425.747755,-114.855485,-784.845813,-9724.431046
425.750267,-0.000000,-957.129040,-9609.575562
425.752779,-76.570323,-880.558717,-9686.145885
425.755292,-114.855485,-957.129040,-9686.145885
425.757804,-133.998066,-937.986459,-9533.005238
425.760317,-38.285162,-842.273555,-9762.716208
425.762829,-133.998066,-861.416136,-9552.147819
425.765342,-57.427742,-861.416136,-9609.575562
425.767854,-114.855485,-937.986459,-9686.145885
425.770367,-95.712904,-937.986459,-9667.003304
425.772879,-38.285162,-918.843878,-9743.573627
425.775391,-19.142581,-918.843878,-9724.431046
425.777904,-57.427742,-823.130974,-9609.575562
425.780416,-76.570323,-957.129040,-9724.431046
425.782929,-76.570323,-918.843878,-9686.145885
425.785441,-57.427742,-880.558717,-9667.003304
425.787954,-76.570323,-918.843878,-9667.003304
425.790466,-76.570323,-937.986459,-9686.145885
425.792978,-133.998066,-957.129040,-9552.147819
425.795491,-57.427742,-784.845813,-9781.858789
425.798003,-57.427742,-918.843878,-9667.003304
425.800516,-57.427742,-899.701298,-9628.718142
425.803028,-76.570323,-803.988394,-9705.288466
425.805541,-95.712904,-861.416136,-9571.290400
425.808053,-95.712904,-880.558717,-9609.575562
425.810566,-133.998066,-803.988394,-9705.288466
425.813089,-95.712904,-880.558717,-9647.860723
425.815612,-57.427742,-1052.841944,-9494.720077
425.818135,-95.712904,-861.416136,-9762.716208
425.820659,-133.998066,-861.416136,-9533.005238
425.823182,-95.712904,-1091.127106,-9494.720077
425.825705,-0.000000,-1014.556782,-9781.858789
425.828229,-133.998066,-784.845813,-9781.858789
425.830752,-95.712904,-784.845813,-9590.432981
425.833275,-38.285162,-995.414202,-9724.431046
425.835798,-57.427742,-995.414202,-9609.575562
425.838322,-133.998066,-765.703232,-9667.003304
425.840845,-114.855485,-784.845813,-9839.286531
425.843368,-133.998066,-746.560651,-9590.432981
425.845892,-76.570323,-976.271621,-9494.720077
425.848415,-76.570323,-1014.556782,-9609.575562
425.850938,-95.712904,-727.418070,-9781.858789
425.853461,-76.570323,-880.558717,-9628.718142
425.855985,-114.855485,-937.986459,-9647.860723
425.858508,-57.427742,-899.701298,-9571.290400
425.861031,-95.712904,-803.988394,-9628.718142
425.863555,-38.285162,-957.129040,-9877.571693
425.866078,-95.712904,-899.701298,-9475.577496
425.868601,-95.712904,-918.843878,-9667.003304
425.871124,-95.712904,-861.416136,-9801.001370
425.873648,-57.427742,-1033.699363,-9494.720077
425.876171,-133.998066,-861.416136,-9820.143950
425.878694,-133.998066,-803.988394,-9647.860723
425.881218,-172.283227,-784.845813,-9533.005238
425.883741,-114.855485,-823.130974,-9724.431046
425.886264,-57.427742,-880.558717,-9686.145885
425.888787,-76.570323,-861.416136,-9533.005238
425.891311,-57.427742,-1033.699363,-9590.432981
425.893834,-57.427742,-995.414202,-9628.718142
425.896357,-153.140646,-861.416136,-9686.145885
425.898881,-133.998066,-861.416136,-9858.429112
425.901404,-95.712904,-937.986459,-9628.718142
425.903927,-38.285162,-957.129040,-9513.862658
425.906450,-76.570323,-880.558717,-9762.716208
425.908974,-114.855485,-803.988394,-9590.432981
425.911497,-57.427742,-918.843878,-9571.290400
425.913997,-95.712904,-937.986459,-9724.431046
425.916496,-95.712904,-880.558717,-9475.577496
425.918996,-57.427742,-918.843878,-9647.860723
425.921496,-95.712904,-784.845813,-9724.431046
425.923996,-133.998066,-727.418070,-9609.575562
425.926495,-114.855485,-937.986459,-9628.718142
425.928995,-57.427742,-1071.984525,-9705.288466
425.931495,-19.142581,-1014.556782,-9705.288466
425.933995,-114.855485,-727.418070,-9647.860723
425.936494,-172.283227,-823.130974,-9762.716208
425.938994,-57.427742,-1071.984525,-9533.005238
425.941494,-76.570323,-861.416136,-9743.573627
425.943994,-38.285162,-842.273555,-9762.716208
425.946493,-172.283227,-899.701298,-9571.290400
425.948993,-95.712904,-937.986459,-9533.005238
425.951493,-76.570323,-918.843878,-9801.001370
425.953993,-114.855485,-823.130974,-9743.573627
425.956492,-38.285162,-842.273555,-9762.716208
425.958992,-76.570323,-976.271621,-9494.720077
425.961492,-95.712904,-861.416136,-9667.003304
425.963992,-153.140646,-918.843878,-9686.145885
425.966491,-57.427742,-937.986459,-9686.145885
425.968991,-57.427742,-995.414202,-9667.003304
425.971491,-57.427742,-880.558717,-9667.003304
425.973990,-76.570323,-842.273555,-9667.003304
425.976490,-153.140646,-1014.556782,-9667.003304
425.978990,-133.998066,-995.414202,-9781.858789
425.981490,-114.855485,-823.130974,-9686.145885
425.983989,-57.427742,-803.988394,-9571.290400
425.986489,-95.712904,-918.843878,-9667.003304
425.988989,-0.000000,-976.271621,-9628.718142
425.991489,-95.712904,-937.986459,-9571.290400
425.993988,-114.855485,-918.843878,-9743.573627
425.996488,-76.570323,-880.558717,-9494.720077
425.998988,-133.998066,-899.701298,-9686.145885
426.001488,-133.998066,-803.988394,-9705.288466
426.003987,-133.998066,-880.558717,-9513.862658
426.006487,-114.855485,-918.843878,-9667.003304
426.008987,-57.427742,-957.129040,-9705.288466
426.011487,-114.855485,-861.416136,-9571.290400
426.014000,-57.427742,-937.986459,-9647.860723
426.016514,-114.855485,-937.986459,-9647.860723
426.019028,-57.427742,-937.986459,-9628.718142
426.021542,-0.000000,-957.129040,-9647.860723
426.024056,-114.855485,-842.273555,-9781.858789
426.026570,-114.855485,-784.845813,-9686.145885
426.029084,-76.570323,-746.560651,-9724.431046
426.031598,-57.427742,-937.986459,-9647.860723
426.034112,-95.712904,-1052.841944,-9341.579430
426.036625,-76.570323,-918.843878,-9801.001370
426.039139,-95.712904,-918.843878,-9820.143950
426.041653,-133.998066,-995.414202,-9513.862658
426.044167,-38.285162,-957.129040,-9743.573627
426.046681,-57.427742,-823.130974,-9743.573627
426.049195,-95.712904,-899.701298,-9628.718142
426.051709,-57.427742,-880.558717,-9571.290400
426.054223,-57.427742,-784.845813,-9724.431046
426.056737,-76.570323,-842.273555,-9724.431046
426.059251,-38.285162,-957.129040,-9456.434915
426.061764,-57.427742,-823.130974,-9781.858789
426.064278,-38.285162,-957.129040,-9667.003304
426.066792,-133.998066,-957.129040,-9456.434915
426.069306,-76.570323,-842.273555,-9705.288466
426.071820,-38.285162,-899.701298,-9743.573627
426.074334,-172.283227,-823.130974,-9686.145885
426.076848,-38.285162,-861.416136,-9533.005238
426.079362,-76.570323,-880.558717,-9647.860723
426.081876,-76.570323,-976.271621,-9647.860723
426.084389,-114.855485,-880.558717,-9686.145885
426.086903,-114.855485,-784.845813,-9705.288466
426.089417,-38.285162,-803.988394,-9533.005238
426.091931,-38.285162,-976.271621,-9743.573627
426.094456,-95.712904,-899.701298,-9628.718142
426.096980,-38.285162,-880.558717,-9686.145885
426.099505,-76.570323,-899.701298,-9858.429112
426.102029,-38.285162,-957.129040,-9571.290400
426.104554,-38.285162,-880.558717,-9705.288466
426.107079,-76.570323,-880.558717,-9762.716208
426.109603,-133.998066,-861.416136,-9494.720077
426.112128,-57.427742,-899.701298,-9609.575562
426.114652,-95.712904,-899.701298,-9686.145885
426.117177,-95.712904,-861.416136,-9571.290400
426.119701,-114.855485,-937.986459,-9686.145885
426.122226,-95.712904,-880.558717,-9762.716208
426.124751,-133.998066,-803.988394,-9609.575562
426.127275,-57.427742,-957.129040,-9456.434915
426.129800,-114.855485,-995.414202,-9628.718142
426.132324,-133.998066,-727.418070,-9743.573627
426.134849,-95.712904,-746.560651,-9609.575562
426.137374,-133.998066,-918.843878,-9571.290400
426.139898,-57.427742,-1033.699363,-9571.290400
426.142423,-95.712904,-861.416136,-9762.716208
426.144947,-95.712904,-995.414202,-9628.718142
426.147472,-95.712904,-937.986459,-9647.860723
426.149996,-114.855485,-899.701298,-9628.718142
426.152521,-114.855485,-899.701298,-9686.145885
426.155046,-114.855485,-880.558717,-9628.718142
426.157570,-57.427742,-880.558717,-9571.290400
426.160095,-133.998066,-976.271621,-9743.573627
426.162619,-38.285162,-976.271621,-9667.003304
426.165144,-57.427742,-861.416136,-9667.003304
426.167668,-76.570323,-995.414202,-9647.860723
426.170193,-38.285162,-976.271621,-9743.573627
426.172718,-38.285162,-784.845813,-9705.288466
426.175242,-76.570323,-784.845813,-9781.858789
426.177767,-76.570323,-861.416136,-9628.718142
426.180291,-95.712904,-995.414202,-9628.718142
426.182816,-133.998066,-918.843878,-9743.573627
426.185340,-133.998066,-861.416136,-9743.573627
426.187865,-95.712904,-823.130974,-9609.575562
426.190390,-0.000000,-918.843878,-9647.860723
426.192914,-0.000000,-861.416136,-9705.288466
426.195454,-95.712904,-823.130974,-9667.003304
426.197989,-114.855485,-918.843878,-9628.718142
426.200523,-133.998066,-976.271621,-9781.858789
426.203058,-19.142581,-937.986459,-9781.858789
426.205592,-95.712904,-899.701298,-9513.862658
426.208126,-153.140646,-842.273555,-9743.573627
426.210661,-133.998066,-861.416136,-9571.290400
426.213195,-114.855485,-880.558717,-9513.862658
426.215730,-95.712904,-957.129040,-9801.001370
426.218264,-76.570323,-861.416136,-9609.575562
426.220798,-95.712904,-880.558717,-9686.145885
426.223333,-114.855485,-957.129040,-9743.573627
426.225867,-57.427742,-899.701298,-9647.860723
426.228402,-153.140646,-746.560651,-9667.003304
426.230936,-172.283227,-861.416136,-9743.573627
426.233470,-57.427742,-1071.984525,-9399.007173
426.236005,-57.427742,-957.129040,-9628.718142
426.238539,-133.998066,-880.558717,-9973.284597
426.241074,-57.427742,-1033.699363,-9284.151688
426.243608,-19.142581,-899.701298,-9724.431046
426.246142,-57.427742,-861.416136,-9896.714274
426.248677,-114.855485,-823.130974,-9571.290400
426.251211,-114.855485,-937.986459,-9667.003304
426.253746,-114.855485,-995.414202,-9667.003304
426.256280,-57.427742,-880.558717,-9628.718142
426.258814,-114.855485,-784.845813,-9533.005238
426.261349,-133.998066,-976.271621,-9743.573627
426.263883,-76.570323,-918.843878,-9456.434915
426.266418,-19.142581,-842.273555,-9762.716208
426.268952,-95.712904,-880.558717,-9686.145885
426.271486,-57.427742,-937.986459,-9571.290400
426.274021,-57.427742,-937.986459,-9743.573627
426.276555,-76.570323,-937.986459,-9628.718142
426.279090,-57.427742,-784.845813,-9705.288466
426.281624,-76.570323,-899.701298,-9801.001370
426.284159,-114.855485,-861.416136,-9609.575562
426.286693,-133.998066,-995.414202,-9667.003304
426.289227,-114.855485,-995.414202,-9667.003304
426.291762,-133.998066,-957.129040,-9705.288466
426.294296,-95.712904,-937.986459,-9705.288466
426.296838,-133.998066,-880.558717,-9533.005238
426.299380,-0.000000,-880.558717,-9820.143950
426.301922,-133.998066,-803.988394,-9533.005238
426.304464,-76.570323,-937.986459,-9609.575562
426.307006,-57.427742,-995.414202,-9667.003304
426.309548,-133.998066,-899.701298,-9667.003304
426.312090,-114.855485,-918.843878,-9590.432981
426.314632,-38.285162,-976.271621,-9762.716208
426.317174,-57.427742,-1033.699363,-9456.434915
426.319716,-95.712904,-899.701298,-9667.003304
426.322258,-76.570323,-842.273555,-9781.858789
426.324800,-114.855485,-880.558717,-9590.432981
426.327342,-133.998066,-784.845813,-9801.001370
426.329884,-76.570323,-957.129040,-9533.005238
426.332426,-38.285162,-1014.556782,-9513.862658
426.334967,-114.855485,-746.560651,-9839.286531
426.337509,-133.998066,-803.988394,-9705.288466
426.340051,-95.712904,-957.129040,-9475.577496
426.342593,-76.570323,-937.986459,-9839.286531
426.345135,-95.712904,-880.558717,-9705.288466
426.347677,-114.855485,-823.130974,-9552.147819
426.350219,-114.855485,-995.414202,-9686.145885
426.352761,-38.285162,-861.416136,-9743.573627
426.355303,-95.712904,-784.845813,-9705.288466
426.357845,-133.998066,-957.129040,-9552.147819
426.360387,-38.285162,-995.414202,-9724.431046
426.362929,-0.000000,-976.271621,-9590.432981
426.365471,-95.712904,-918.843878,-9628.718142
426.368013,-76.570323,-880.558717,-9762.716208
426.370555,-114.855485,-976.271621,-9609.575562
426.373097,-57.427742,-918.843878,-9686.145885
426.375639,-19.142581,-899.701298,-9820.143950
426.378181,-133.998066,-803.988394,-9667.003304
426.380723,-95.712904,-957.129040,-9456.434915
426.383265,-95.712904,-861.416136,-9743.573627
426.385807,-38.285162,-842.273555,-9743.573627
426.388349,-76.570323,-918.843878,-9609.575562
426.390891,-133.998066,-918.843878,-9533.005238
426.393433,-0.000000,-823.130974,-9686.145885
426.395974,-114.855485,-937.986459,-9743.573627
426.398522,-38.285162,-957.129040,-9686.145885
426.401070,-76.570323,-880.558717,-9647.860723
426.403618,-114.855485,-823.130974,-9686.145885
426.406166,-76.570323,-823.130974,-9686.145885
426.408713,-114.855485,-918.843878,-9667.003304
426.411261,-76.570323,-880.558717,-9686.145885
426.413809,-133.998066,-937.986459,-9667.003304
426.416357,-57.427742,-899.701298,-9609.575562
426.418904,-76.570323,-899.701298,-9686.145885
426.421452,-153.140646,-842.273555,-9801.001370
426.424000,-76.570323,-937.986459,-9628.718142
426.426548,-76.570323,-1033.699363,-9494.720077
426.429096,-57.427742,-784.845813,-9724.431046
426.431643,-133.998066,-784.845813,-9724.431046
426.434191,-57.427742,-976.271621,-9552.147819
426.436739,-76.570323,-918.843878,-9647.860723
426.439287,-57.427742,-899.701298,-9571.290400
426.441834,-114.855485,-899.701298,-9724.431046
426.444382,-57.427742,-937.986459,-9686.145885
426.446930,-38.285162,-899.701298,-9571.290400
426.449478,-133.998066,-899.701298,-9667.003304
426.452026,-95.712904,-937.986459,-9552.147819
426.454573,-114.855485,-880.558717,-9743.573627
426.457121,-76.570323,-803.988394,-9667.003304
426.459669,-153.140646,-803.988394,-9609.575562
426.462217,-172.283227,-1033.699363,-9590.432981
426.464764,-38.285162,-1071.984525,-9686.145885
426.467312,-153.140646,-899.701298,-9743.573627
426.469860,-76.570323,-880.558717,-9667.003304
426.472408,-57.427742,-880.558717,-9686.145885
426.474956,-76.570323,-861.416136,-9743.573627
426.477503,-57.427742,-918.843878,-9686.145885
426.480051,-38.285162,-823.130974,-9705.288466
426.482599,-57.427742,-937.986459,-9609.575562
426.485147,-114.855485,-861.416136,-9609.575562
426.487694,-172.283227,-918.843878,-9609.575562
426.490242,-114.855485,-823.130974,-9781.858789
426.492790,-133.998066,-861.416136,-9686.145885
426.495338,-114.855485,-899.701298,-9571.290400
426.497886,-133.998066,-937.986459,-9628.718142
426.500438,-95.712904,-823.130974,-9705.288466
426.502990,-76.570323,-861.416136,-9647.860723
426.505542,-95.712904,-957.129040,-9743.573627
426.508094,-95.712904,-899.701298,-9667.003304
426.510646,-57.427742,-976.271621,-9705.288466
426.513198,-95.712904,-957.129040,-9762.716208
426.515750,-172.283227,-880.558717,-9686.145885
426.518302,-38.285162,-842.273555,-9667.003304
426.520854,-57.427742,-918.843878,-9647.860723
426.523406,-38.285162,-1014.556782,-9647.860723
426.525958,-95.712904,-784.845813,-9705.288466
426.528510,-153.140646,-842.273555,-9801.001370
426.531062,-76.570323,-1033.699363,-9571.290400
426.533614,-57.427742,-1052.841944,-9647.860723
426.536166,-114.855485,-861.416136,-9781.858789
426.538718,-133.998066,-746.560651,-9705.288466
426.541270,-114.855485,-1033.699363,-9590.432981
426.543822,-38.285162,-918.843878,-9839.286531
426.546374,-38.285162,-937.986459,-9533.005238
426.548926,-114.855485,-880.558717,-9686.145885
426.551478,-95.712904,-918.843878,-9533.005238
426.554030,-114.855485,-823.130974,-9667.003304
426.556582,-57.427742,-823.130974,-9743.573627
426.559134,-0.000000,-918.843878,-9590.432981
426.561686,-57.427742,-899.701298,-9743.573627
426.564238,-76.570323,-918.843878,-9647.860723
426.566790,-0.000000,-976.271621,-9590.432981
426.569342,-57.427742,-937.986459,-9896.714274
426.571894,-57.427742,-880.558717,-9686.145885
426.574446,-133.998066,-880.558717,-9552.147819
426.576998,-76.570323,-899.701298,-9667.003304
426.579550,-95.712904,-803.988394,-9647.860723
426.582102,-114.855485,-918.843878,-9686.145885
426.584654,-57.427742,-880.558717,-9628.718142
426.587207,-57.427742,-880.558717,-9667.003304
426.589759,-38.285162,-957.129040,-9628.718142
426.592311,-114.855485,-880.558717,-9628.718142
426.594863,-114.855485,-823.130974,-9686.145885
426.597415,-0.000000,-899.701298,-9705.288466
426.599967,-57.427742,-899.701298,-9571.290400
426.602522,-38.285162,-880.558717,-9647.860723
426.605078,-133.998066,-842.273555,-9820.143950
426.607634,-95.712904,-823.130974,-9667.003304
426.610189,-95.712904,-880.558717,-9590.432981
426.612745,-95.712904,-842.273555,-9839.286531
426.615301,-95.712904,-899.701298,-9437.292334
426.617857,-38.285162,-1014.556782,-9705.288466
426.620412,-153.140646,-765.703232,-9705.288466
426.622968,-76.570323,-784.845813,-9724.431046
426.625524,-133.998066,-918.843878,-9590.432981
426.628080,-153.140646,-899.701298,-9762.716208
426.630635,-38.285162,-1033.699363,-9513.862658
426.633191,-95.712904,-746.560651,-9801.001370
426.635747,-153.140646,-746.560651,-9705.288466
426.638302,-133.998066,-957.129040,-9494.720077
426.640858,-133.998066,-976.271621,-9667.003304
426.643414,-133.998066,-823.130974,-9896.714274
426.645970,-172.283227,-937.986459,-9379.864592
426.648525,-76.570323,-1052.841944,-9858.429112
426.651081,-95.712904,-880.558717,-9571.290400
426.653637,-76.570323,-918.843878,-9628.718142
426.656192,-76.570323,-823.130974,-9686.145885
426.658748,-38.285162,-937.986459,-9494.720077
426.661304,-76.570323,-995.414202,-9743.573627
426.663860,-133.998066,-957.129040,-9877.571693
426.666415,-19.142581,-899.701298,-9475.577496
426.668971,-153.140646,-880.558717,-9686.145885
426.671527,-57.427742,-995.414202,-9647.860723
426.674082,-114.855485,-899.701298,-9571.290400
426.676638,-133.998066,-842.273555,-9801.001370
426.679194,-172.283227,-708.275490,-9494.720077
426.681750,-95.712904,-899.701298,-9571.290400
426.684305,-95.712904,-842.273555,-9571.290400
426.686861,-114.855485,-880.558717,-9724.431046
426.689417,-76.570323,-861.416136,-9533.005238
426.691972,-95.712904,-957.129040,-9762.716208
426.694528,-95.712904,-861.416136,-9628.718142
426.697084,-172.283227,-803.988394,-9571.290400
426.699640,-133.998066,-861.416136,-9628.718142
426.702195,-57.427742,-937.986459,-9609.575562
426.704754,-114.855485,-803.988394,-9705.288466
426.707312,-133.998066,-746.560651,-9667.003304
426.709870,-95.712904,-842.273555,-9667.003304
426.712428,-95.712904,-899.701298,-9762.716208
426.714987,-0.000000,-957.129040,-9513.862658
426.717545,-95.712904,-803.988394,-9896.714274
426.720103,-114.855485,-880.558717,-9705.288466
426.722662,-114.855485,-976.271621,-9513.862658
426.725220,-153.140646,-1014.556782,-9705.288466
426.727778,-38.285162,-880.558717,-9590.432981
426.730337,-133.998066,-803.988394,-9647.860723
426.732895,-153.140646,-842.273555,-9743.573627
426.735453,-57.427742,-1091.127106,-9494.720077
426.738012,-19.142581,-1052.841944,-9667.003304
426.740570,-57.427742,-842.273555,-9724.431046
426.743128,-76.570323,-918.843878,-9705.288466
426.745686,-172.283227,-937.986459,-9647.860723
426.748245,-0.000000,-957.129040,-9628.718142
426.750803,-57.427742,-880.558717,-9667.003304
426.753361,-153.140646,-957.129040,-9686.145885
426.755920,-153.140646,-937.986459,-9590.432981
426.758478,-38.285162,-976.271621,-9667.003304
426.761036,-76.570323,-784.845813,-9820.143950
426.763595,-57.427742,-937.986459,-9647.860723
426.766153,-76.570323,-937.986459,-9494.720077
426.768711,-95.712904,-823.130974,-9705.288466
426.771269,-95.712904,-861.416136,-9571.290400
