#time,accel_x,accel_y,accel_z
378.584150,459.657299,148.041188,9622.677246
378.584459,306.438199,-74.020594,9474.636058
378.584767,842.705048,-0.000000,9622.677246
378.585075,689.485948,-0.000000,9548.656652
378.585383,383.047749,-0.000000,9474.636058
378.585691,842.705048,296.082377,9400.615463
378.585999,919.314598,222.061783,9474.636058
378.586307,766.095498,222.061783,9400.615463
378.586615,459.657299,222.061783,9622.677246
378.586923,842.705048,-0.000000,9696.697840
378.587231,766.095498,-0.000000,9918.759623
378.587539,766.095498,-0.000000,9770.718434
378.587847,612.876398,444.123565,9918.759623
378.588156,689.485948,222.061783,9548.656652
378.588464,689.485948,296.082377,9400.615463
378.588772,689.485948,-0.000000,9400.615463
378.589080,1149.143247,222.061783,9474.636058
378.589388,919.314598,370.102971,9770.718434
378.589696,919.314598,-148.041188,9474.636058
378.590004,383.047749,-370.102971,9474.636058
378.590312,383.047749,-0.000000,9474.636058
378.590620,536.266849,296.082377,9696.697840
378.590928,383.047749,-0.000000,9696.697840
378.591236,459.657299,444.123565,9548.656652
378.591544,306.438199,-0.000000,9696.697840
378.591853,766.095498,-0.000000,9474.636058
378.592161,1149.143247,222.061783,9474.636058
378.592469,0.000000,296.082377,9474.636058
378.592777,536.266849,148.041188,9400.615463
378.593085,766.095498,296.082377,9474.636058
378.593393,536.266849,148.041188,9474.636058
378.593701,306.438199,370.102971,9548.656652
378.594009,612.876398,222.061783,9548.656652
378.594317,766.095498,-296.082377,10140.821405
378.594625,995.924147,-444.123565,9844.739029
378.594933,766.095498,-814.226536,9696.697840
378.595241,306.438199,-592.164754,10140.821405
378.595550,766.095498,-518.144159,9918.759623
378.595858,766.095498,-444.123565,9992.780217
378.596166,1072.533697,-148.041188,10066.800811
378.596474,1072.533697,-74.020594,9770.718434
378.596782,1225.752797,370.102971,9178.553681
378.597090,2145.067394,814.226536,8512.368333
378.597398,2374.896044,518.144159,8512.368333
378.597706,2221.676944,814.226536,9104.533087
378.598014,1838.629195,592.164754,9030.512492
378.598322,1838.629195,444.123565,9030.512492
378.598630,1532.190996,-0.000000,9400.615463
378.598938,1685.410096,-0.000000,9770.718434
378.599247,1378.971896,-222.061783,10436.903782
378.599555,1302.362347,-222.061783,9992.780217
378.599863,1532.190996,-148.041188,10362.883188
378.600171,1915.238745,-74.020594,10140.821405
378.600479,1762.019645,-0.000000,9918.759623
378.600787,2374.896044,148.041188,9622.677246
378.601095,2681.334243,296.082377,9400.615463
378.601403,2451.505594,370.102971,9252.574275
378.601711,3370.820191,296.082377,9474.636058
378.602019,3064.381992,370.102971,9474.636058
378.602327,2604.724693,666.185348,9918.759623
378.602635,2374.896044,148.041188,9696.697840
378.602944,2451.505594,-0.000000,9770.718434
378.603252,2757.943793,222.061783,9770.718434
378.603560,2987.772442,-0.000000,9770.718434
378.603868,2834.553343,-0.000000,10362.883188
378.604176,2681.334243,-518.144159,10214.842000
378.604484,2987.772442,-370.102971,10214.842000
378.604792,3064.381992,-222.061783,10140.821405
378.605100,2911.162892,-74.020594,9918.759623
378.605408,3447.429741,-0.000000,9844.739029
378.605716,3677.258390,222.061783,9622.677246
378.606024,3830.477490,-0.000000,9474.636058
378.606332,4213.525239,666.185348,9474.636058
378.606641,4519.963438,444.123565,8734.430116
378.606949,4596.572988,592.164754,9400.615463
378.607257,4213.525239,148.041188,8956.491898
378.607565,4290.134789,148.041188,9400.615463
378.607873,3983.696590,222.061783,9474.636058
378.608181,4136.915689,222.061783,9548.656652
378.608489,4060.306139,444.123565,9622.677246
378.608797,4366.744339,-0.000000,9400.615463
378.609105,4136.915689,740.205942,9548.656652
378.609413,4673.182538,666.185348,9178.553681
378.609721,4826.401637,1258.350101,9178.553681
378.610029,4519.963438,1184.329507,9104.533087
378.610338,4673.182538,1184.329507,9326.594869
378.610646,4443.353888,1036.288319,9474.636058
378.610954,4903.011187,1480.411884,8364.327145
378.611262,3830.477490,666.185348,9400.615463
378.611570,4060.306139,962.267725,9474.636058
378.611878,3447.429741,592.164754,9474.636058
378.612186,3217.601092,444.123565,10807.006753
378.612494,2528.115143,444.123565,9696.697840
378.612802,2451.505594,444.123565,10362.883188
378.613110,2911.162892,666.185348,10436.903782
378.613418,2451.505594,518.144159,10066.800811
378.613726,2987.772442,296.082377,10288.862594
378.614035,2451.505594,592.164754,9696.697840
378.614343,2374.896044,370.102971,9844.739029
378.614651,2145.067394,-0.000000,9622.677246
378.614959,1915.238745,-0.000000,10214.842000
378.615267,1532.190996,-518.144159,10510.924376
378.615575,1608.800546,-1184.329507,10214.842000
378.615883,1991.848295,-888.247130,10362.883188
378.616191,2068.457845,-1554.432478,10807.006753
378.616499,2298.286494,-1554.432478,10658.965565
378.616807,3370.820191,-2220.617826,10288.862594
378.617115,3217.601092,-1628.453072,10066.800811
378.617423,3677.258390,-1480.411884,9326.594869
378.617732,3830.477490,-962.267725,9178.553681
378.618040,4366.744339,-370.102971,9474.636058
378.618348,4596.572988,148.041188,8734.430116
378.618656,5286.058936,740.205942,8512.368333
378.618964,4979.620737,962.267725,8512.368333
378.619272,5592.497135,666.185348,8290.306550
378.619580,4979.620737,370.102971,8142.265362
378.619888,4290.134789,222.061783,8512.368333
378.620196,3524.039291,-222.061783,9178.553681
378.620504,3140.991542,-444.123565,9770.718434
378.620812,3294.210641,-0.000000,10288.862594
378.621121,2757.943793,-148.041188,9474.636058
378.621429,2757.943793,444.123565,9400.615463
378.621737,3447.429741,1702.473667,8882.471304
378.622045,4290.134789,2738.761985,8364.327145
378.622353,4366.744339,3108.864956,8290.306550
378.622661,4366.744339,3108.864956,8438.347739
378.622969,3983.696590,2664.741391,8512.368333
378.623277,2911.162892,1628.453072,9696.697840
378.623585,2451.505594,-370.102971,11029.068536
378.623893,1455.581446,-1480.411884,12287.418637
378.624201,306.438199,-2812.782580,13027.624579
378.624509,153.219100,-3478.967927,13323.706956
378.624818,1149.143247,-3923.091493,13841.851115
378.625126,2068.457845,-3108.864956,12139.377449
378.625434,3600.648841,-1702.473667,10288.862594
378.625742,5362.668486,-444.123565,9252.574275
378.626050,7277.907231,888.247130,7550.100608
378.626358,7431.126331,2664.741391,6513.812290
378.626666,8120.612279,4071.132681,5921.647536
378.626974,8044.002729,4293.194464,5625.565159
378.627282,6971.469032,4737.318029,5181.441594
378.627590,5745.716235,4515.256246,6217.729913
378.627898,4903.011187,3256.906145,7328.038826
378.628206,3140.991542,1776.494261,8290.306550
378.628515,1915.238745,740.205942,9844.739029
378.628823,766.095498,-888.247130,11473.192101
378.629131,-689.485948,-2368.659014,12879.583391
378.629439,-306.438199,-3701.029710,13693.809927
378.629747,76.609550,-3997.112087,14137.933492
378.630055,612.876398,-4219.173869,13841.851115
378.630363,1532.190996,-3330.926739,12953.603985
378.630671,3064.381992,-2368.659014,11917.315666
378.630979,4673.182538,-1776.494261,10658.965565
378.631287,5975.544884,-0.000000,9030.512492
378.631595,6358.592633,1702.473667,7179.997637
378.631903,6971.469032,2368.659014,7031.956449
378.632212,5745.716235,3330.926739,5625.565159
378.632520,6435.202183,3701.029710,6291.750507
378.632828,5669.106685,3182.885551,6735.874072
378.633136,4519.963438,1998.556043,7105.977043
378.633444,3830.477490,-0.000000,8660.409521
378.633752,1685.410096,-1406.391290,10140.821405
378.634060,1302.362347,-3330.926739,11991.336260
378.634368,766.095498,-4071.132681,13027.624579
378.634676,919.314598,-3775.050304,13471.748144
378.634984,1915.238745,-2738.761985,12139.377449
378.635292,3983.696590,-814.226536,11177.109724
378.635600,5362.668486,1110.308913,8364.327145
378.635909,6511.811733,3923.091493,5995.668130
378.636217,8427.050478,5107.421000,5329.482782
378.636525,8197.221829,6661.853478,4515.256246
378.636833,7507.735880,6143.709319,4959.379811
378.637141,5669.106685,4293.194464,6439.791695
378.637449,3064.381992,592.164754,9622.677246
378.637757,0.000000,-2146.597232,12213.398043
378.638065,-3140.991542,-3923.091493,14137.933492
378.638373,-2528.115143,-5773.606348,16728.654289
378.638681,-3217.601092,-7179.997637,17098.757260
378.638989,-1915.238745,-5847.626942,16210.510130
378.639297,766.095498,-3552.988522,12879.583391
378.639606,3447.429741,-740.205942,9474.636058
378.639914,5898.935335,2368.659014,7105.977043
378.640222,9346.365076,4145.153275,5551.544565
378.640530,8886.707777,6069.688724,3552.988522
378.640838,9039.926876,5699.585753,3552.988522
378.641146,9193.145976,4737.318029,4441.235652
378.641454,5975.544884,2072.576638,6513.812290
378.641762,2987.772442,-1628.453072,9696.697840
378.642070,383.047749,-3552.988522,11695.253884
378.642378,-1072.533697,-4959.379811,13619.789333
378.642686,-1378.971896,-5033.400406,13249.686362
378.642994,766.095498,-2886.803174,12879.583391
378.643303,3983.696590,222.061783,10881.027347
378.643611,6358.592633,1998.556043,7772.162391
378.643919,7354.516781,3330.926739,7105.977043
378.644227,8427.050478,4589.276840,5699.585753
378.644535,7354.516781,4663.297435,5995.668130
378.644843,5822.325785,3552.988522,8142.265362
378.645151,3524.039291,1406.391290,10214.842000
378.645459,612.876398,-1258.350101,11991.336260
378.645767,-1608.800546,-2664.741391,12361.439231
378.646075,-1378.971896,-3552.988522,14656.077652
378.646383,-2298.286494,-3478.967927,13915.871710
378.646691,-459.657299,-2960.823768,12953.603985
378.647000,2528.115143,-2294.638420,11621.233289
378.647308,4366.744339,-962.267725,9474.636058
378.647616,6052.154434,-592.164754,8512.368333
378.647924,7124.688131,592.164754,7994.224174
378.648232,7354.516781,2072.576638,6883.915261
378.648540,6511.811733,3256.906145,7254.018232
378.648848,6588.421283,4663.297435,7328.038826
378.649156,6435.202183,5255.462188,6217.729913
378.649464,5822.325785,5847.626942,5033.400406
378.649772,6205.373534,4885.359217,6809.894666
378.650081,5822.325785,2812.782580,8290.306550
378.650389,3677.258390,-148.041188,10584.944971
378.650697,1991.848295,-3182.885551,12805.562797
378.651005,-766.095498,-5625.565159,13767.830521
378.651313,-2221.676944,-6513.812290,14434.015869
378.651621,-1991.848295,-5033.400406,14063.912898
378.651929,0.000000,-3034.844362,12805.562797
378.652237,1225.752797,-740.205942,10510.924376
378.652545,3677.258390,1332.370696,9252.574275
378.652854,5209.449386,2220.617826,7698.141797
378.653162,6205.373534,2442.679609,5921.647536
378.653470,5132.839837,4145.153275,4811.338623
378.653778,6128.763984,3997.112087,5921.647536
378.654086,4979.620737,3627.009116,7105.977043
378.654394,3753.867940,3627.009116,8512.368333
378.654702,4213.525239,2368.659014,8808.450710
378.655010,1455.581446,814.226536,8956.491898
378.655318,1685.410096,-1702.473667,11695.253884
378.655626,1608.800546,-3404.947333,12139.377449
378.655935,383.047749,-4589.276840,13175.665768
378.656243,-1225.752797,-5995.668130,13027.624579
378.656551,-842.705048,-5551.544565,12435.459826
378.656859,-383.047749,-3330.926739,11843.295072
378.657167,1838.629195,-222.061783,9474.636058
378.657475,4519.963438,1776.494261,7920.203579
378.657783,5056.230287,3775.050304,5995.668130
378.658091,5209.449386,3552.988522,5477.523971
378.658399,4826.401637,2812.782580,6883.915261
378.658708,2681.334243,1628.453072,8142.265362
378.659016,1302.362347,666.185348,9844.739029
378.659324,153.219100,1110.308913,9770.718434
378.659632,0.000000,1036.288319,10436.903782
378.659940,536.266849,962.267725,10362.883188
378.660248,1762.019645,888.247130,9918.759623
378.660556,1455.581446,-1628.453072,11325.150913
378.660864,995.924147,-3775.050304,12139.377449
378.661172,0.000000,-3849.070898,11843.295072
378.661481,-1302.362347,-3478.967927,11991.336260
378.661789,-612.876398,-2072.576638,11103.089130
378.662097,1225.752797,666.185348,9474.636058
378.662405,3294.210641,2442.679609,8290.306550
378.662713,4749.792088,2590.720797,6587.832884
378.663021,4979.620737,1998.556043,6217.729913
378.663329,2451.505594,518.144159,8438.347739
378.663637,1302.362347,-888.247130,9326.594869
378.663945,-306.438199,-1110.308913,10955.047942
378.664253,-229.828649,-0.000000,11473.192101
378.664562,1455.581446,1258.350101,9770.718434
378.664870,3600.648841,3034.844362,8512.368333
378.665178,4979.620737,2516.700203,8364.327145
378.665486,4903.011187,1776.494261,7624.121203
378.665794,2911.162892,592.164754,8438.347739
378.666102,1378.971896,74.020594,9400.615463
378.666410,383.047749,-222.061783,9252.574275
378.666718,1072.533697,370.102971,9548.656652
378.667026,1302.362347,296.082377,8290.306550
378.667335,2221.676944,-0.000000,7476.080014
378.667643,766.095498,-1480.411884,9844.739029
378.667951,-995.924147,-2294.638420,11547.212695
378.668259,-1455.581446,-3182.885551,14285.974681
378.668567,-2451.505594,-2664.741391,12657.521608
378.668875,-2145.067394,-518.144159,13027.624579
378.669183,766.095498,518.144159,11547.212695
378.669491,2987.772442,3849.070898,8808.450710
378.669799,4903.011187,2590.720797,9548.656652
378.670107,4903.011187,3849.070898,6513.812290
378.670416,2298.286494,2368.659014,8068.244768
378.670724,1532.190996,888.247130,9548.656652
378.671032,153.219100,222.061783,9104.533087
378.671340,0.000000,-518.144159,10584.944971
378.671648,-229.828649,-1628.453072,8956.491898
378.671956,76.609550,-2516.700203,9696.697840
378.672264,-612.876398,-3182.885551,10510.924376
378.672572,-1378.971896,-3923.091493,11473.192101
378.672880,-689.485948,-2590.720797,11473.192101
378.673189,-2298.286494,-592.164754,11399.171507
378.673497,1302.362347,740.205942,11621.233289
378.673805,2757.943793,3627.009116,7920.203579
378.674113,4673.182538,5181.441594,6513.812290
378.674421,4979.620737,4441.235652,6143.709319
378.674729,4443.353888,3775.050304,5477.523971
378.675037,2604.724693,1480.411884,8808.450710
378.675345,76.609550,-666.185348,10288.862594
378.675653,-1762.019645,-1406.391290,10362.883188
378.675962,-2298.286494,-2442.679609,10881.027347
378.676270,-1608.800546,-3404.947333,9770.718434
378.676578,-1685.410096,-2664.741391,9104.533087
378.676886,-459.657299,-2738.761985,10362.883188
378.677194,-1532.190996,-2146.597232,10140.821405
378.677502,-1455.581446,-740.205942,10732.986159
378.677810,-229.828649,1184.329507,10955.047942
378.678118,919.314598,2590.720797,9178.553681
378.678426,3294.210641,4515.256246,7624.121203
378.678734,4443.353888,3923.091493,7772.162391
378.679043,3677.258390,2664.741391,8290.306550
378.679351,919.314598,1554.432478,8734.430116
378.679659,-766.095498,-814.226536,11177.109724
378.679967,-2068.457845,-1924.535449,11695.253884
378.680275,-2451.505594,-2368.659014,11251.130318
378.680583,-1608.800546,-2294.638420,11399.171507
378.680891,-612.876398,-2738.761985,9252.574275
378.681199,-459.657299,-2072.576638,8956.491898
378.681507,-383.047749,-1776.494261,9844.739029
378.681816,383.047749,444.123565,9770.718434
378.682124,0.000000,1184.329507,9992.780217
378.682432,1762.019645,2812.782580,9030.512492
378.682740,3370.820191,4071.132681,7476.080014
378.683048,3983.696590,3775.050304,8142.265362
378.683356,3447.429741,2738.761985,8512.368333
378.683664,1838.629195,666.185348,9622.677246
378.683972,-842.705048,-814.226536,11695.253884
378.684280,-2451.505594,-3330.926739,13101.645173
378.684588,-3524.039291,-3256.906145,11843.295072
378.684897,-2681.334243,-2960.823768,10436.903782
378.685205,-612.876398,-3256.906145,10510.924376
378.685513,-306.438199,-2146.597232,9178.553681
378.685821,76.609550,-1110.308913,8734.430116
378.686129,383.047749,-370.102971,9474.636058
378.686437,1302.362347,1480.411884,8734.430116
378.686745,2528.115143,3256.906145,7920.203579
378.687053,3140.991542,4737.318029,7402.059420
378.687361,5362.668486,4959.379811,6957.935855
378.687670,4749.792088,3330.926739,7328.038826
378.687978,2528.115143,2442.679609,9474.636058
378.688286,689.485948,-444.123565,11473.192101
378.688594,-1991.848295,-1702.473667,11621.233289
378.688902,-3600.648841,-2812.782580,13027.624579
378.689210,-1838.629195,-2664.741391,12065.356855
378.689518,-1072.533697,-1924.535449,9918.759623
378.689826,536.266849,-1480.411884,9474.636058
378.690134,1685.410096,-1776.494261,7846.182985
378.690443,1762.019645,-74.020594,8438.347739
378.690751,1762.019645,1110.308913,9548.656652
378.691059,2068.457845,2442.679609,8512.368333
378.691367,3140.991542,4293.194464,8142.265362
378.691675,4596.572988,4589.276840,7920.203579
378.691983,5515.887586,3330.926739,8216.285956
378.692291,2987.772442,1332.370696,9770.718434
378.692599,1225.752797,-592.164754,12287.418637
378.692907,-1532.190996,-2886.803174,12287.418637
378.693215,-3217.601092,-3330.926739,12435.459826
378.693524,-2145.067394,-3034.844362,12139.377449
378.693832,-766.095498,-1850.514855,9918.759623
378.694140,1072.533697,-592.164754,9030.512492
378.694448,1685.410096,-1332.370696,7624.121203
378.694756,1762.019645,592.164754,7624.121203
378.695064,3447.429741,1110.308913,8364.327145
378.695372,1838.629195,2368.659014,7994.224174
378.695680,1762.019645,3997.112087,8290.306550
378.695988,3677.258390,3330.926739,9400.615463
378.696297,3064.381992,3997.112087,8734.430116
378.696605,2298.286494,1184.329507,9696.697840
378.696913,1072.533697,-1036.288319,11399.171507
378.697221,-2221.676944,-2368.659014,12139.377449
378.697529,-3983.696590,-3552.988522,13175.665768
378.697837,-3370.820191,-4293.194464,12435.459826
378.698145,-2528.115143,-1480.411884,11103.089130
378.698453,0.000000,-1258.350101,9326.594869
378.698761,1532.190996,-370.102971,7105.977043
378.699069,1608.800546,962.267725,7105.977043
378.699378,2451.505594,2664.741391,6883.915261
378.699686,2221.676944,3034.844362,7846.182985
378.699994,3064.381992,3404.947333,9178.553681
378.700302,2221.676944,4663.297435,6661.853478
378.700610,2604.724693,3478.967927,7920.203579
378.700918,2374.896044,1332.370696,10066.800811
378.701226,383.047749,-370.102971,11991.336260
378.701534,-3064.381992,-3034.844362,14285.974681
378.701842,-6511.811733,-3849.070898,13915.871710
378.702151,-5056.230287,-4515.256246,15100.201217
378.702459,-3677.258390,-2960.823768,11917.315666
378.702767,-1149.143247,-0.000000,9548.656652
378.703075,2145.067394,-740.205942,8438.347739
378.703383,1302.362347,814.226536,5255.462188
378.703691,2681.334243,2664.741391,7254.018232
378.703999,2681.334243,2738.761985,7624.121203
378.704307,1991.848295,3849.070898,8438.347739
378.704615,2528.115143,4145.153275,7476.080014
378.704924,3140.991542,3478.967927,7920.203579
378.705232,1991.848295,1406.391290,10732.986159
378.705540,229.828649,-1036.288319,11621.233289
378.705848,-995.924147,-2664.741391,13545.768739
378.706156,-3753.867940,-4959.379811,13323.706956
378.706464,-4596.572988,-5699.585753,13027.624579
378.706772,-3447.429741,-3923.091493,13249.686362
378.707080,-995.924147,-2516.700203,9474.636058
378.707388,1455.581446,-444.123565,7920.203579
378.707696,2911.162892,1406.391290,5921.647536
378.708005,3907.087040,1850.514855,5181.441594
378.708313,3064.381992,3108.864956,6069.688724
378.708621,3217.601092,3478.967927,7254.018232
378.708929,1991.848295,3478.967927,7772.162391
378.709237,2298.286494,3256.906145,8808.450710
378.709545,1991.848295,2146.597232,9474.636058
378.709853,689.485948,-0.000000,10584.944971
378.710161,-229.828649,-1702.473667,12065.356855
378.710469,-2757.943793,-3404.947333,12879.583391
378.710778,-3753.867940,-4071.132681,13397.727550
378.711086,-3140.991542,-4367.215058,12361.439231
378.711394,-1685.410096,-1702.473667,10807.006753
378.711702,1302.362347,-296.082377,8364.327145
378.712010,4060.306139,-0.000000,6217.729913
378.712318,3907.087040,2738.761985,5255.462188
378.712626,4443.353888,2368.659014,5995.668130
378.712934,3140.991542,3034.844362,7846.182985
378.713242,2221.676944,3923.091493,7624.121203
378.713551,2528.115143,3034.844362,8438.347739
378.713859,1532.190996,2960.823768,9696.697840
378.714167,2757.943793,1036.288319,9992.780217
378.714475,1302.362347,-1184.329507,11621.233289
378.714783,-1149.143247,-2294.638420,12361.439231
378.715091,-1838.629195,-3701.029710,12213.398043
378.715399,-2145.067394,-3627.009116,12435.459826
378.715707,-1685.410096,-2886.803174,11399.171507
378.716015,383.047749,-1406.391290,9178.553681
378.716323,3140.991542,518.144159,7772.162391
378.716632,3983.696590,1258.350101,6217.729913
378.716940,3983.696590,2072.576638,4959.379811
378.717248,3524.039291,2738.761985,7179.997637
378.717556,1991.848295,3256.906145,7698.141797
378.717864,1149.143247,2886.803174,9104.533087
378.718172,689.485948,2590.720797,10510.924376
378.718480,995.924147,592.164754,11547.212695
378.718788,459.657299,-1554.432478,11177.109724
378.719096,-1378.971896,-2960.823768,12583.501014
378.719405,-2528.115143,-3849.070898,13693.809927
378.719713,-3447.429741,-4441.235652,12435.459826
378.720021,-3217.601092,-2812.782580,12435.459826
378.720329,-766.095498,-962.267725,10214.842000
378.720637,1838.629195,1258.350101,7698.141797
378.720945,3830.477490,2146.597232,6069.688724
378.721253,3983.696590,3404.947333,4293.194464
378.721561,4443.353888,3849.070898,5033.400406
378.721869,3064.381992,3849.070898,7846.182985
378.722177,1532.190996,3923.091493,8586.388927
378.722486,1072.533697,3182.885551,9178.553681
378.722794,1685.410096,2072.576638,10362.883188
378.723102,536.266849,-0.000000,11103.089130
378.723410,-612.876398,-1776.494261,13027.624579
378.723718,-2451.505594,-3627.009116,14211.954086
378.724026,-4136.915689,-4515.256246,14359.995275
378.724334,-3830.477490,-4737.318029,13027.624579
378.724642,-2221.676944,-1998.556043,11769.274478
378.724950,229.828649,-962.267725,9992.780217
378.725259,2145.067394,666.185348,6069.688724
378.725567,3753.867940,2442.679609,5329.482782
378.725875,4136.915689,2664.741391,5847.626942
378.726183,1685.410096,3330.926739,7031.956449
378.726491,2374.896044,2886.803174,9474.636058
378.726799,1991.848295,3923.091493,8734.430116
378.727107,1149.143247,2220.617826,9548.656652
378.727415,1915.238745,1110.308913,10140.821405
378.727723,383.047749,-814.226536,11473.192101
378.728032,-1762.019645,-3256.906145,13693.809927
378.728340,-3677.258390,-5181.441594,13989.892304
378.728648,-3677.258390,-4737.318029,13693.809927
378.728956,-3830.477490,-4515.256246,12213.398043
378.729264,-612.876398,-1406.391290,10066.800811
378.729572,1762.019645,222.061783,8586.388927
378.729880,3140.991542,1258.350101,5699.585753
378.730188,4060.306139,2442.679609,4959.379811
378.730496,3677.258390,3552.988522,5625.565159
378.730804,3447.429741,3478.967927,7031.956449
378.731113,1685.410096,3849.070898,7031.956449
378.731421,2987.772442,4367.215058,8734.430116
378.731729,1225.752797,2294.638420,9474.636058
378.732037,1455.581446,1332.370696,9326.594869
378.732345,-306.438199,-1406.391290,11843.295072
378.732653,-2451.505594,-2960.823768,13841.851115
378.732961,-4366.744339,-3627.009116,13249.686362
378.733269,-2834.553343,-3997.112087,13841.851115
378.733577,-2068.457845,-1924.535449,11399.171507
378.733886,612.876398,-1036.288319,9104.533087
378.734194,2681.334243,444.123565,7328.038826
378.734502,3983.696590,1850.514855,5847.626942
378.734810,3370.820191,1924.535449,6513.812290
378.735118,2834.553343,2590.720797,8142.265362
378.735426,1915.238745,3108.864956,8438.347739
378.735734,1532.190996,3701.029710,9030.512492
378.736042,1762.019645,2368.659014,9252.574275
378.736350,2681.334243,1480.411884,10584.944971
378.736658,842.705048,-740.205942,11473.192101
378.736967,-919.314598,-2590.720797,13027.624579
378.737275,-2604.724693,-3849.070898,13841.851115
378.737583,-3294.210641,-4071.132681,13249.686362
378.737891,-2145.067394,-3478.967927,12065.356855
378.738199,153.219100,-1184.329507,10288.862594
378.738507,1915.238745,-518.144159,7476.080014
378.738815,3907.087040,444.123565,5847.626942
378.739123,3524.039291,2072.576638,5921.647536
378.739431,2987.772442,2294.638420,7402.059420
378.739740,2221.676944,2886.803174,7772.162391
378.740048,1455.581446,3108.864956,7698.141797
378.740356,1532.190996,3182.885551,9030.512492
378.740664,1608.800546,1998.556043,9696.697840
378.740972,766.095498,-0.000000,10066.800811
378.741280,-1072.533697,-2220.617826,12287.418637
378.741588,-3217.601092,-3849.070898,13619.789333
378.741896,-3830.477490,-3256.906145,12509.480420
378.742204,-3677.258390,-3108.864956,12139.377449
378.742513,-1225.752797,-1480.411884,10436.903782
378.742821,1302.362347,-0.000000,8142.265362
378.743129,2374.896044,666.185348,6735.874072
378.743437,3217.601092,1702.473667,5181.441594
378.743745,3294.210641,2960.823768,5625.565159
378.744053,2911.162892,3404.947333,7476.080014
378.744361,2374.896044,3849.070898,7698.141797
378.744669,1838.629195,3627.009116,7846.182985
378.744977,1302.362347,2738.761985,9474.636058
378.745285,2451.505594,962.267725,9770.718434
378.745594,306.438199,-370.102971,11029.068536
378.745902,-1685.410096,-3108.864956,13249.686362
378.746210,-3600.648841,-4071.132681,13545.768739
378.746518,-3830.477490,-3849.070898,12953.603985
378.746826,-2374.896044,-3627.009116,12287.418637
378.747134,-842.705048,-2220.617826,9844.739029
378.747442,1378.971896,-666.185348,8734.430116
378.747750,2911.162892,-0.000000,6735.874072
378.748058,2834.553343,1110.308913,6809.894666
378.748367,2451.505594,1998.556043,7402.059420
378.748675,2911.162892,3552.988522,8290.306550
378.748983,2451.505594,3701.029710,7328.038826
378.749291,3064.381992,3923.091493,8216.285956
378.749599,3370.820191,2516.700203,9178.553681
378.749907,1685.410096,370.102971,10214.842000
378.750215,0.000000,-2294.638420,11917.315666
378.750523,-2068.457845,-3182.885551,13101.645173
378.750831,-2834.553343,-3923.091493,13249.686362
378.751139,-2451.505594,-3849.070898,13027.624579
378.751447,-1685.410096,-2072.576638,10510.924376
378.751756,919.314598,-888.247130,9400.615463
378.752064,2451.505594,370.102971,7402.059420
378.752372,2987.772442,1628.453072,6661.853478
378.752680,3600.648841,2960.823768,6809.894666
378.752988,2987.772442,3108.864956,7402.059420
378.753296,2374.896044,4515.256246,7105.977043
378.753604,2604.724693,4885.359217,7476.080014
378.753912,2681.334243,4367.215058,8586.388927
378.754220,1608.800546,2738.761985,9548.656652
378.754528,612.876398,296.082377,11843.295072
378.754836,-1685.410096,-2738.761985,13397.727550
378.755144,-3753.867940,-3256.906145,13471.748144
378.755453,-4136.915689,-4367.215058,13323.706956
378.755761,-2298.286494,-2960.823768,12361.439231
378.756069,-306.438199,-2442.679609,10732.986159
378.756377,766.095498,-740.205942,8216.285956
378.756685,2221.676944,592.164754,7402.059420
378.756993,2757.943793,1332.370696,7328.038826
378.757301,2451.505594,3182.885551,7254.018232
378.757609,2834.553343,4293.194464,7846.182985
378.757917,2757.943793,3923.091493,7328.038826
378.758225,2681.334243,4737.318029,8364.327145
378.758533,2834.553343,2516.700203,10066.800811
378.758841,1915.238745,-0.000000,10955.047942
378.759150,-919.314598,-1998.556043,12287.418637
378.759458,-2451.505594,-4589.276840,13693.809927
378.759766,-3600.648841,-4959.379811,12731.542202
378.760074,-3907.087040,-4441.235652,13101.645173
378.760382,-2298.286494,-3034.844362,11547.212695
378.760690,842.705048,-1776.494261,9104.533087
378.760998,1302.362347,296.082377,7920.203579
378.761306,3294.210641,-74.020594,7698.141797
378.761614,1838.629195,2812.782580,5403.503377
378.761922,2911.162892,2738.761985,7550.100608
378.762230,2451.505594,4515.256246,7254.018232
378.762538,2145.067394,5107.421000,6809.894666
378.762847,2451.505594,3182.885551,9622.677246
378.763155,1532.190996,1850.514855,9252.574275
378.763463,536.266849,-592.164754,11843.295072
378.763771,-2757.943793,-2368.659014,11843.295072
378.764079,-3064.381992,-3775.050304,12805.562797
378.764387,-3983.696590,-4145.153275,13397.727550
378.764695,-2987.772442,-2516.700203,10584.944971
378.765003,153.219100,-1998.556043,10658.965565
378.765311,1378.971896,-518.144159,7550.100608
378.765619,2221.676944,444.123565,7402.059420
378.765927,2681.334243,1628.453072,7031.956449
378.766235,2604.724693,3627.009116,6513.812290
378.766544,2145.067394,4589.276840,7920.203579
378.766852,3830.477490,4663.297435,8068.244768
378.767160,1991.848295,4589.276840,6957.935855
378.767468,2451.505594,2294.638420,8882.471304
378.767776,2145.067394,-296.082377,11473.192101
378.768084,-1072.533697,-2220.617826,11177.109724
378.768392,-3677.258390,-4145.153275,12657.521608
378.768700,-3677.258390,-4663.297435,12509.480420
378.769008,-3677.258390,-4589.276840,13545.768739
378.769316,-1838.629195,-3330.926739,11473.192101
378.769624,842.705048,-1406.391290,8882.471304
378.769932,2451.505594,-888.247130,9030.512492
378.770241,2911.162892,-74.020594,7105.977043
378.770549,2911.162892,2220.617826,7476.080014
378.770857,2451.505594,4145.153275,8068.244768
378.771165,2681.334243,4145.153275,7920.203579
378.771473,3217.601092,5847.626942,7179.997637
378.771781,3753.867940,3701.029710,9252.574275
378.772089,2374.896044,1036.288319,10214.842000
378.772397,229.828649,-1406.391290,11325.150913
378.772705,-1608.800546,-3849.070898,13841.851115
378.773013,-3983.696590,-4737.318029,13249.686362
378.773321,-3753.867940,-4515.256246,13027.624579
378.773629,-2374.896044,-3404.947333,12731.542202
378.773938,229.828649,-1406.391290,9400.615463
378.774246,2451.505594,444.123565,7031.956449
378.774554,3294.210641,1258.350101,6365.771101
378.774862,4060.306139,2812.782580,5921.647536
378.775170,2757.943793,3775.050304,7105.977043
378.775478,3217.601092,4663.297435,8142.265362
378.775786,2911.162892,5551.544565,7105.977043
378.776094,2987.772442,4441.235652,7920.203579
378.776402,2681.334243,2294.638420,10214.842000
378.776710,766.095498,148.041188,11103.089130
378.777018,-919.314598,-2146.597232,12731.542202
378.777326,-3064.381992,-3627.009116,13175.665768
378.777635,-4290.134789,-3923.091493,13693.809927
378.777943,-3294.210641,-3478.967927,13471.748144
378.778251,-536.266849,-1998.556043,10732.986159
378.778559,1378.971896,-444.123565,8290.306550
378.778867,3064.381992,962.267725,6439.791695
378.779175,2987.772442,1850.514855,6735.874072
378.779483,2451.505594,2516.700203,7550.100608
378.779791,2145.067394,2664.741391,8216.285956
378.780099,2604.724693,3849.070898,8512.368333
378.780407,2221.676944,3627.009116,8956.491898
378.780715,2221.676944,1850.514855,10214.842000
378.781023,1685.410096,222.061783,11029.068536
378.781332,0.000000,-1776.494261,12361.439231
378.781640,-1915.238745,-3330.926739,12361.439231
378.781948,-3217.601092,-3997.112087,12435.459826
378.782256,-3830.477490,-4145.153275,13027.624579
378.782564,-1762.019645,-3330.926739,11177.109724
378.782872,383.047749,-518.144159,8364.327145
378.783180,2068.457845,370.102971,7105.977043
378.783488,2451.505594,1110.308913,6883.915261
378.783796,2911.162892,2442.679609,6439.791695
378.784104,2451.505594,3849.070898,8142.265362
378.784412,1838.629195,3923.091493,8438.347739
378.784720,2374.896044,3627.009116,8660.409521
378.785029,842.705048,3330.926739,9918.759623
378.785337,1685.410096,592.164754,10955.047942
378.785645,-306.438199,-1406.391290,11473.192101
378.785953,-1915.238745,-2516.700203,12139.377449
378.786261,-3140.991542,-4071.132681,12361.439231
378.786569,-4290.134789,-4071.132681,12805.562797
378.786877,-3370.820191,-3108.864956,11399.171507
378.787185,-1149.143247,-592.164754,9326.594869
378.787493,2374.896044,222.061783,7624.121203
378.787801,2298.286494,1332.370696,5847.626942
378.788109,2681.334243,2960.823768,6587.832884
378.788417,2681.334243,2812.782580,7031.956449
378.788726,2451.505594,4071.132681,7624.121203
378.789034,1991.848295,4145.153275,8290.306550
378.789342,1838.629195,3330.926739,8586.388927
378.789650,2604.724693,1036.288319,9992.780217
378.789958,1225.752797,296.082377,10362.883188
378.790266,-612.876398,-2146.597232,12361.439231
378.790574,-2221.676944,-3775.050304,12583.501014
378.790882,-2528.115143,-4145.153275,12805.562797
378.791190,-3600.648841,-3330.926739,11843.295072
378.791498,-459.657299,-3034.844362,10807.006753
378.791806,1302.362347,-518.144159,7402.059420
378.792114,2757.943793,-444.123565,5625.565159
378.792423,2681.334243,814.226536,6883.915261
378.792731,2987.772442,1480.411884,8882.471304
378.793039,1608.800546,2072.576638,9474.636058
378.793347,612.876398,3478.967927,9252.574275
378.793655,1838.629195,3034.844362,9252.574275
378.793963,2145.067394,2960.823768,9844.739029
378.794271,1608.800546,1332.370696,10066.800811
378.794579,766.095498,-888.247130,11695.253884
378.794887,-1072.533697,-1924.535449,11843.295072
378.795195,-2221.676944,-3552.988522,13175.665768
378.795503,-2987.772442,-3849.070898,13027.624579
378.795811,-1762.019645,-2146.597232,11399.171507
378.796120,0.000000,-1184.329507,9326.594869
378.796428,1532.190996,518.144159,7179.997637
378.796736,3294.210641,888.247130,6735.874072
378.797044,2298.286494,2294.638420,6957.935855
378.797352,2604.724693,3478.967927,7772.162391
378.797660,2528.115143,4885.359217,7624.121203
378.797968,2451.505594,4737.318029,8290.306550
378.798276,2604.724693,4219.173869,8290.306550
378.798584,3447.429741,3478.967927,9030.512492
378.798892,1838.629195,1480.411884,10510.924376
378.799200,-919.314598,-1628.453072,12139.377449
378.799508,-1685.410096,-2368.659014,12509.480420
378.799817,-2834.553343,-3404.947333,12879.583391
378.800125,-2911.162892,-3997.112087,12435.459826
378.800433,-689.485948,-2368.659014,10288.862594
378.800741,1302.362347,-666.185348,8438.347739
378.801049,1762.019645,-962.267725,7105.977043
378.801357,2451.505594,444.123565,7179.997637
378.801665,2451.505594,888.247130,8512.368333
378.801973,1685.410096,2516.700203,7920.203579
378.802281,2451.505594,2664.741391,8438.347739
378.802589,1838.629195,2738.761985,8882.471304
378.802897,2221.676944,1702.473667,10214.842000
378.803205,2068.457845,740.205942,10066.800811
378.803514,689.485948,-1258.350101,11843.295072
378.803822,-689.485948,-3256.906145,12287.418637
378.804130,-2145.067394,-3478.967927,11547.212695
378.804438,-2068.457845,-3701.029710,12657.521608
378.804746,-842.705048,-3627.009116,10214.842000
378.805054,229.828649,-1628.453072,7846.182985
378.805362,1838.629195,-666.185348,7772.162391
378.805670,2068.457845,814.226536,5995.668130
378.805978,2528.115143,1702.473667,7105.977043
378.806286,1991.848295,2664.741391,7476.080014
378.806594,2451.505594,3627.009116,7846.182985
378.806902,1532.190996,4145.153275,8364.327145
378.807211,1685.410096,2886.803174,9548.656652
378.807519,1762.019645,1332.370696,10066.800811
378.807827,0.000000,148.041188,10807.006753
378.808135,-1532.190996,-2368.659014,13249.686362
378.808443,-3140.991542,-3182.885551,12287.418637
378.808751,-3753.867940,-4367.215058,13323.706956
378.809059,-3217.601092,-2664.741391,12065.356855
378.809367,-459.657299,-1184.329507,9400.615463
378.809675,1685.410096,296.082377,7624.121203
378.809983,2834.553343,814.226536,7254.018232
378.810291,3524.039291,2294.638420,6291.750507
378.810599,2911.162892,3627.009116,5847.626942
378.810908,2834.553343,4071.132681,6809.894666
378.811216,2374.896044,4441.235652,7698.141797
378.811524,2221.676944,3330.926739,9252.574275
378.811832,2068.457845,1850.514855,10584.944971
378.812140,1302.362347,-0.000000,10807.006753
378.812448,0.000000,-2220.617826,12879.583391
378.812756,-2681.334243,-3923.091493,13471.748144
378.813064,-3600.648841,-4367.215058,13323.706956
378.813372,-3677.258390,-4145.153275,12953.603985
378.813680,-1302.362347,-1998.556043,10732.986159
378.813988,919.314598,-1036.288319,9030.512492
378.814296,2221.676944,666.185348,7031.956449
378.814604,3294.210641,1258.350101,6661.853478
378.814913,3600.648841,1998.556043,7254.018232
378.815221,2374.896044,3701.029710,7550.100608
378.815529,1378.971896,3627.009116,8660.409521
378.815837,1762.019645,3108.864956,9696.697840
378.816145,919.314598,2220.617826,10288.862594
378.816453,1072.533697,444.123565,10807.006753
378.816761,612.876398,-1702.473667,12657.521608
378.817069,-1302.362347,-3701.029710,12065.356855
378.817377,-3294.210641,-4071.132681,12879.583391
378.817685,-2834.553343,-4811.338623,13027.624579
378.817993,-3140.991542,-2812.782580,10584.944971
378.818301,0.000000,-1554.432478,10362.883188
378.818610,2451.505594,740.205942,6587.832884
378.818918,2911.162892,2738.761985,5921.647536
378.819226,4826.401637,2220.617826,6661.853478
378.819534,3524.039291,4219.173869,5107.421000
378.819842,2681.334243,4441.235652,7550.100608
378.820150,1762.019645,4145.153275,7994.224174
378.820458,1455.581446,3478.967927,9622.677246
378.820766,1685.410096,1776.494261,10140.821405
378.821074,612.876398,-0.000000,10881.027347
378.821382,0.000000,-2146.597232,12805.562797
378.821690,-2374.896044,-3552.988522,12361.439231
378.821998,-2834.553343,-3775.050304,13323.706956
378.822307,-3140.991542,-3701.029710,12213.398043
378.822615,-1072.533697,-2146.597232,10214.842000
378.822923,1608.800546,-148.041188,7994.224174
378.823231,3140.991542,740.205942,5921.647536
378.823539,3600.648841,1776.494261,5995.668130
378.823847,3140.991542,2590.720797,5921.647536
378.824155,2681.334243,3404.947333,7624.121203
378.824463,766.095498,2886.803174,8364.327145
378.824771,459.657299,2960.823768,10066.800811
378.825079,689.485948,1702.473667,11325.150913
378.825387,1302.362347,-0.000000,11547.212695
378.825695,0.000000,-1406.391290,11991.336260
378.826004,-1532.190996,-3330.926739,12509.480420
378.826312,-2757.943793,-4663.297435,13693.809927
378.826620,-2528.115143,-3997.112087,13101.645173
378.826928,-766.095498,-2516.700203,10732.986159
378.827236,995.924147,-962.267725,8512.368333
378.827544,3217.601092,592.164754,6365.771101
378.827852,4060.306139,1998.556043,5403.503377
378.828160,3830.477490,2368.659014,5773.606348
378.828468,2451.505594,3034.844362,7254.018232
378.828776,1532.190996,3478.967927,7994.224174
378.829084,1225.752797,3182.885551,9548.656652
378.829392,689.485948,2368.659014,11177.109724
378.829701,1838.629195,1554.432478,10807.006753
378.830009,536.266849,-888.247130,11695.253884
378.830317,-1532.190996,-2812.782580,12953.603985
378.830625,-2221.676944,-4219.173869,12731.542202
378.830933,-2911.162892,-4071.132681,12509.480420
378.831241,-2298.286494,-2960.823768,11695.253884
378.831549,-459.657299,-1258.350101,8216.285956
378.831857,2221.676944,1036.288319,7476.080014
378.832165,3294.210641,1998.556043,5921.647536
378.832473,4060.306139,2886.803174,4589.276840
378.832781,3677.258390,4219.173869,5921.647536
378.833089,2911.162892,4219.173869,7105.977043
378.833398,1302.362347,4145.153275,8290.306550
378.833706,1302.362347,2738.761985,10140.821405
378.834014,2145.067394,1480.411884,10881.027347
378.834322,842.705048,148.041188,10807.006753
378.834630,-229.828649,-2146.597232,12287.418637
378.834938,-1685.410096,-3404.947333,13989.892304
378.835246,-2374.896044,-4293.194464,13545.768739
378.835554,-3217.601092,-3478.967927,12361.439231
378.835862,-306.438199,-2812.782580,11547.212695
378.836170,919.314598,-962.267725,8956.491898
378.836478,3217.601092,222.061783,7550.100608
378.836786,3064.381992,1110.308913,6365.771101
378.837095,3524.039291,2368.659014,5995.668130
378.837403,2604.724693,3701.029710,6587.832884
378.837711,1608.800546,3997.112087,7846.182985
378.838019,1608.800546,3552.988522,9474.636058
378.838327,1838.629195,3182.885551,9252.574275
378.838635,919.314598,814.226536,10066.800811
378.838943,0.000000,-1406.391290,12435.459826
378.839251,-1072.533697,-3552.988522,13027.624579
378.839559,-3140.991542,-4737.318029,13989.892304
378.839867,-3907.087040,-4737.318029,13101.645173
378.840175,-3217.601092,-3701.029710,11843.295072
378.840483,-1225.752797,-1850.514855,9770.718434
378.840792,1991.848295,-74.020594,8290.306550
378.841100,3140.991542,666.185348,6143.709319
378.841408,3217.601092,2590.720797,5477.523971
378.841716,3447.429741,3034.844362,5847.626942
378.842024,2451.505594,4515.256246,6143.709319
378.842332,2068.457845,4293.194464,7476.080014
378.842640,2528.115143,3478.967927,8734.430116
378.842948,1915.238745,2590.720797,8068.244768
378.843256,1072.533697,148.041188,10214.842000
378.843564,0.000000,-1702.473667,11843.295072
378.843872,-2374.896044,-3701.029710,12583.501014
378.844180,-3524.039291,-4515.256246,13175.665768
378.844489,-3370.820191,-4293.194464,12435.459826
378.844797,-1608.800546,-2886.803174,11399.171507
378.845105,229.828649,-1184.329507,9178.553681
378.845413,2528.115143,222.061783,7105.977043
378.845721,2681.334243,2072.576638,5847.626942
378.846029,2911.162892,2220.617826,7328.038826
378.846337,2451.505594,3034.844362,8216.285956
378.846645,1991.848295,4219.173869,7402.059420
378.846953,1915.238745,3182.885551,9178.553681
378.847261,1532.190996,2960.823768,9178.553681
378.847569,1838.629195,1554.432478,10362.883188
378.847877,306.438199,-1332.370696,11917.315666
378.848186,-919.314598,-2590.720797,11917.315666
378.848494,-2681.334243,-4071.132681,12879.583391
378.848802,-3064.381992,-4145.153275,13915.871710
378.849110,-1915.238745,-3627.009116,12361.439231
378.849418,76.609550,-1184.329507,9918.759623
378.849726,2068.457845,370.102971,8142.265362
378.850034,2834.553343,888.247130,6365.771101
378.850342,3064.381992,2960.823768,6365.771101
378.850650,2451.505594,3478.967927,7328.038826
378.850958,2451.505594,4589.276840,7624.121203
378.851266,1915.238745,4737.318029,9030.512492
378.851574,2145.067394,2886.803174,9474.636058
378.851882,1762.019645,2294.638420,10214.842000
378.852190,459.657299,-74.020594,11547.212695
378.852498,-1302.362347,-2886.803174,13027.624579
378.852806,-3140.991542,-4219.173869,13619.789333
378.853114,-4749.792088,-4737.318029,13693.809927
378.853422,-3830.477490,-4441.235652,13323.706956
378.853730,-1838.629195,-2220.617826,10140.821405
378.854037,1991.848295,-666.185348,8586.388927
378.854345,2528.115143,1184.329507,6587.832884
378.854653,3907.087040,2738.761985,4589.276840
378.854961,3907.087040,3330.926739,5255.462188
378.855269,3217.601092,4589.276840,6587.832884
378.855577,3140.991542,4589.276840,8364.327145
378.855885,2604.724693,3775.050304,9030.512492
378.856193,2374.896044,2442.679609,9474.636058
378.856501,1455.581446,592.164754,10658.965565
378.856809,842.705048,-1998.556043,12879.583391
378.857117,-2374.896044,-2886.803174,12583.501014
378.857425,-3217.601092,-4885.359217,13841.851115
378.857732,-3217.601092,-4515.256246,12731.542202
378.858040,-1685.410096,-3330.926739,11473.192101
378.858348,153.219100,-1998.556043,9770.718434
378.858656,2221.676944,-0.000000,6735.874072
378.858964,3294.210641,962.267725,6513.812290
378.859272,3370.820191,1850.514855,6735.874072
378.859580,2911.162892,3108.864956,7179.997637
378.859888,2451.505594,4071.132681,7328.038826
378.860196,1915.238745,3775.050304,8586.388927
378.860504,2068.457845,3256.906145,9474.636058
378.860812,1225.752797,2442.679609,9992.780217
378.861120,1302.362347,-370.102971,11547.212695
378.861427,-995.924147,-1776.494261,12139.377449
378.861735,-2604.724693,-2960.823768,12435.459826
378.862043,-3600.648841,-3923.091493,13175.665768
378.862351,-3064.381992,-3478.967927,12361.439231
378.862659,-842.705048,-1998.556043,10658.965565
378.862967,842.705048,-74.020594,8068.244768
378.863275,2221.676944,148.041188,6735.874072
378.863583,3064.381992,1628.453072,6587.832884
378.863891,2681.334243,2516.700203,7105.977043
378.864199,1915.238745,3108.864956,7328.038826
378.864507,1991.848295,3849.070898,8290.306550
378.864815,2145.067394,3849.070898,8956.491898
378.865122,2068.457845,2960.823768,8290.306550
378.865430,2145.067394,1480.411884,10140.821405
378.865738,536.266849,-666.185348,11325.150913
378.866046,-1915.238745,-2590.720797,10881.027347
378.866354,-3677.258390,-3256.906145,12435.459826
378.866662,-3753.867940,-4145.153275,13027.624579
378.866970,-2298.286494,-2220.617826,11103.089130
378.867278,0.000000,-1332.370696,9474.636058
378.867586,612.876398,-296.082377,7550.100608
378.867894,1149.143247,-0.000000,7179.997637
378.868202,1838.629195,1406.391290,7698.141797
378.868509,2911.162892,2738.761985,7846.182985
378.868817,3217.601092,2294.638420,7105.977043
378.869125,1991.848295,3997.112087,7402.059420
378.869433,3370.820191,2368.659014,9474.636058
378.869741,2834.553343,2294.638420,8586.388927
378.870049,766.095498,-0.000000,11843.295072
378.870357,-995.924147,-2516.700203,12731.542202
378.870665,-1608.800546,-3923.091493,11991.336260
378.870973,-3600.648841,-3923.091493,12435.459826
378.871281,-3753.867940,-2960.823768,11843.295072
378.871589,-459.657299,-1628.453072,11399.171507
378.871897,766.095498,296.082377,8586.388927
378.872204,1455.581446,962.267725,6587.832884
378.872512,2757.943793,1480.411884,7031.956449
378.872820,2068.457845,2072.576638,8438.347739
378.873128,1072.533697,3108.864956,9178.553681
378.873436,1378.971896,3849.070898,8808.450710
378.873744,1915.238745,3182.885551,10066.800811
378.874052,1532.190996,2368.659014,9548.656652
378.874360,2374.896044,814.226536,10288.862594
378.874668,153.219100,-592.164754,11547.212695
378.874976,-1838.629195,-2886.803174,11843.295072
378.875284,-3294.210641,-3997.112087,11843.295072
378.875592,-3830.477490,-3849.070898,12657.521608
378.875899,-1915.238745,-2812.782580,11917.315666
378.876207,306.438199,-740.205942,8734.430116
378.876515,1915.238745,592.164754,7476.080014
378.876823,2604.724693,1258.350101,5995.668130
378.877131,3217.601092,1776.494261,7105.977043
378.877439,1838.629195,3627.009116,7179.997637
378.877747,2757.943793,3330.926739,7698.141797
378.878055,2911.162892,3775.050304,8142.265362
378.878363,2757.943793,2960.823768,8586.388927
378.878671,3294.210641,1776.494261,9474.636058
378.878979,1838.629195,-296.082377,10362.883188
378.879287,-306.438199,-2368.659014,11991.336260
378.879594,-2834.553343,-4145.153275,12361.439231
378.879902,-3294.210641,-4959.379811,13397.727550
378.880210,-3217.601092,-3256.906145,12213.398043
378.880518,-766.095498,-2368.659014,9844.739029
378.880826,1225.752797,-444.123565,8438.347739
378.881134,1991.848295,-148.041188,6513.812290
378.881442,3140.991542,962.267725,6439.791695
378.881750,2451.505594,2368.659014,7031.956449
378.882058,3217.601092,3552.988522,8512.368333
378.882366,2374.896044,3997.112087,7846.182985
378.882674,2145.067394,3701.029710,9252.574275
378.882982,3064.381992,2146.597232,10881.027347
378.883289,2374.896044,296.082377,9326.594869
378.883597,0.000000,-1036.288319,11399.171507
378.883905,-1762.019645,-3701.029710,12065.356855
378.884213,-3447.429741,-3701.029710,12657.521608
378.884521,-4366.744339,-4145.153275,12731.542202
378.884829,-1378.971896,-2220.617826,11029.068536
378.885137,689.485948,-1406.391290,9548.656652
378.885445,1225.752797,740.205942,7328.038826
378.885753,2451.505594,962.267725,6661.853478
378.886061,2757.943793,2294.638420,7105.977043
378.886369,2374.896044,3552.988522,7624.121203
378.886677,1685.410096,4071.132681,8142.265362
378.886984,2757.943793,4515.256246,8512.368333
378.887292,3294.210641,3478.967927,8956.491898
378.887600,2068.457845,2368.659014,9326.594869
378.887908,1762.019645,-444.123565,11991.336260
378.888216,0.000000,-2590.720797,11843.295072
378.888524,-3524.039291,-2960.823768,11843.295072
378.888832,-3677.258390,-3775.050304,13101.645173
378.889140,-2451.505594,-3256.906145,12509.480420
378.889448,-995.924147,-1258.350101,9992.780217
378.889756,1608.800546,-666.185348,7550.100608
378.890064,2221.676944,1110.308913,6735.874072
378.890371,2451.505594,814.226536,7698.141797
378.890679,1762.019645,3034.844362,7772.162391
378.890987,2298.286494,3404.947333,8290.306550
378.891295,1685.410096,3330.926739,9030.512492
378.891603,1915.238745,3552.988522,9252.574275
378.891911,2528.115143,1924.535449,10436.903782
378.892219,1991.848295,-74.020594,11251.130318
378.892527,0.000000,-1998.556043,11177.109724
378.892835,-2145.067394,-2664.741391,11621.233289
378.893143,-3600.648841,-3997.112087,13915.871710
378.893451,-3064.381992,-3330.926739,13249.686362
378.893759,-1762.019645,-2294.638420,11103.089130
378.894066,689.485948,-222.061783,8586.388927
378.894374,1991.848295,370.102971,6809.894666
378.894682,2834.553343,1258.350101,6661.853478
378.894990,1072.533697,1406.391290,8142.265362
378.895298,1915.238745,2886.803174,8586.388927
378.895606,1685.410096,3701.029710,8216.285956
378.895914,1455.581446,3182.885551,9918.759623
378.896222,1915.238745,2368.659014,10214.842000
378.896530,1991.848295,666.185348,10510.924376
378.896838,76.609550,-888.247130,10955.047942
378.897146,-1608.800546,-2442.679609,10881.027347
378.897454,-2681.334243,-3627.009116,12361.439231
378.897761,-3217.601092,-3404.947333,12065.356855
378.898069,-1302.362347,-2812.782580,11843.295072
378.898377,-306.438199,-222.061783,8734.430116
378.898685,1915.238745,518.144159,7179.997637
378.898993,2451.505594,666.185348,6809.894666
378.899301,2374.896044,2516.700203,6735.874072
378.899609,2298.286494,2220.617826,8142.265362
378.899917,1915.238745,2738.761985,8216.285956
378.900225,1225.752797,3404.947333,8512.368333
378.900533,2451.505594,2146.597232,9992.780217
378.900841,2757.943793,1332.370696,10362.883188
378.901149,1225.752797,-222.061783,10881.027347
378.901456,0.000000,-1554.432478,10732.986159
378.901764,-1532.190996,-2368.659014,10955.047942
378.902072,-1915.238745,-3404.947333,11547.212695
378.902380,-1915.238745,-2294.638420,11399.171507
378.902688,-229.828649,-1554.432478,9844.739029
378.902996,1685.410096,-222.061783,7772.162391
378.903304,1915.238745,740.205942,7105.977043
378.903612,2451.505594,1258.350101,6809.894666
378.903920,1915.238745,1776.494261,8586.388927
378.904228,1225.752797,2368.659014,9104.533087
378.904536,1378.971896,2516.700203,9474.636058
378.904844,1838.629195,2960.823768,9770.718434
378.905151,2528.115143,2146.597232,10288.862594
378.905459,2451.505594,296.082377,10066.800811
378.905767,1762.019645,-814.226536,10066.800811
378.906075,-383.047749,-1924.535449,10510.924376
378.906383,-1991.848295,-3256.906145,11843.295072
378.906691,-2145.067394,-3034.844362,11695.253884
378.906999,-1608.800546,-2368.659014,11325.150913
378.907307,153.219100,-1480.411884,9844.739029
378.907615,1225.752797,-740.205942,7624.121203
378.907923,919.314598,296.082377,8364.327145
378.908231,1608.800546,1036.288319,7994.224174
378.908539,1302.362347,2368.659014,8364.327145
378.908846,995.924147,3108.864956,9030.512492
378.909154,1378.971896,3182.885551,8882.471304
378.909462,2757.943793,3404.947333,9104.533087
378.909770,3217.601092,2442.679609,9770.718434
378.910078,2451.505594,296.082377,9696.697840
378.910386,229.828649,-814.226536,10584.944971
378.910694,-1838.629195,-2442.679609,11769.274478
378.911002,-2757.943793,-2886.803174,12583.501014
378.911310,-2451.505594,-2220.617826,11843.295072
378.911618,-536.266849,-1406.391290,10066.800811
378.911926,383.047749,-444.123565,8808.450710
378.912233,1608.800546,148.041188,7550.100608
378.912541,1685.410096,518.144159,7846.182985
378.912849,1302.362347,1036.288319,8882.471304
378.913157,995.924147,1924.535449,8660.409521
378.913465,306.438199,3256.906145,9030.512492
378.913773,2374.896044,2368.659014,10214.842000
378.914081,2451.505594,2516.700203,9844.739029
378.914389,2681.334243,1184.329507,10214.842000
378.914697,612.876398,-888.247130,9770.718434
378.915005,-536.266849,-2368.659014,10807.006753
378.915313,-2145.067394,-2516.700203,12657.521608
378.915621,-2604.724693,-3034.844362,11251.130318
378.915928,-689.485948,-1628.453072,10584.944971
378.916236,995.924147,-1110.308913,8142.265362
378.916544,1225.752797,-148.041188,6957.935855
378.916852,1762.019645,814.226536,7920.203579
378.917160,1608.800546,370.102971,7772.162391
378.917468,229.828649,2072.576638,8512.368333
378.917776,1532.190996,2146.597232,9400.615463
378.918084,1225.752797,2738.761985,9474.636058
378.918392,1685.410096,2294.638420,10066.800811
378.918700,2451.505594,1406.391290,10288.862594
378.919008,1149.143247,370.102971,9844.739029
378.919316,-766.095498,-1628.453072,11695.253884
378.919623,-2528.115143,-2442.679609,11547.212695
378.919931,-2528.115143,-2664.741391,12065.356855
378.920239,-1915.238745,-1924.535449,10955.047942
378.920547,-536.266849,-148.041188,7772.162391
378.920855,1762.019645,740.205942,8290.306550
378.921163,2068.457845,888.247130,7179.997637
378.921471,1532.190996,1924.535449,6513.812290
378.921779,1915.238745,1998.556043,7624.121203
378.922087,689.485948,2886.803174,7772.162391
378.922395,689.485948,2812.782580,9326.594869
378.922703,1762.019645,2368.659014,10362.883188
378.923011,2451.505594,444.123565,10955.047942
378.923318,1532.190996,296.082377,10066.800811
378.923626,229.828649,-1776.494261,11547.212695
378.923934,-2068.457845,-3330.926739,12731.542202
378.924242,-2451.505594,-3256.906145,12287.418637
378.924550,-2068.457845,-2812.782580,11399.171507
378.924858,-459.657299,-888.247130,9326.594869
378.925166,1302.362347,-518.144159,8512.368333
378.925474,2221.676944,1184.329507,7105.977043
378.925782,2604.724693,1110.308913,6957.935855
378.926090,1915.238745,2072.576638,7031.956449
378.926398,612.876398,2516.700203,8438.347739
378.926706,1302.362347,3182.885551,9474.636058
378.927013,1225.752797,2960.823768,9918.759623
378.927321,1455.581446,2072.576638,11177.109724
378.927629,2298.286494,296.082377,10436.903782
378.927937,689.485948,-740.205942,10288.862594
378.928245,-1532.190996,-3034.844362,11399.171507
378.928553,-2451.505594,-3627.009116,12805.562797
378.928861,-2451.505594,-2960.823768,11769.274478
378.929169,-1608.800546,-1924.535449,10436.903782
378.929477,1149.143247,-888.247130,8734.430116
378.929785,2374.896044,222.061783,7105.977043
378.930093,2374.896044,1554.432478,7328.038826
378.930400,2221.676944,1924.535449,7550.100608
378.930708,2145.067394,3404.947333,6957.935855
378.931016,1072.533697,3108.864956,8364.327145
378.931324,842.705048,3330.926739,9622.677246
378.931632,2451.505594,2812.782580,10288.862594
378.931940,2604.724693,1702.473667,9992.780217
378.932248,1685.410096,222.061783,10140.821405
378.932556,0.000000,-1998.556043,10807.006753
378.932864,-2528.115143,-3182.885551,12583.501014
378.933172,-2987.772442,-3552.988522,12583.501014
378.933480,-2221.676944,-2368.659014,11029.068536
378.933788,-306.438199,-1036.288319,8956.491898
378.934095,1762.019645,-296.082377,8216.285956
378.934403,2681.334243,1406.391290,6513.812290
378.934711,3524.039291,888.247130,6957.935855
378.935019,2374.896044,2294.638420,6957.935855
378.935327,1915.238745,2960.823768,7772.162391
378.935635,1149.143247,3182.885551,9326.594869
378.935943,1225.752797,2072.576638,10584.944971
378.936251,2145.067394,1998.556043,10510.924376
378.936559,1685.410096,-0.000000,10584.944971
378.936867,459.657299,-2368.659014,11621.233289
378.937175,-1991.848295,-3182.885551,11917.315666
378.937483,-2451.505594,-4071.132681,13397.727550
378.937790,-2987.772442,-3404.947333,11991.336260
378.938098,-1149.143247,-1776.494261,10066.800811
378.938406,1455.581446,-592.164754,9178.553681
378.938714,2451.505594,1110.308913,6587.832884
378.939022,3447.429741,1702.473667,6365.771101
378.939330,3140.991542,2664.741391,6883.915261
378.939638,2451.505594,3404.947333,7624.121203
378.939946,1608.800546,3256.906145,7920.203579
378.940254,842.705048,3478.967927,9400.615463
378.940562,1762.019645,1776.494261,11399.171507
378.940870,1608.800546,962.267725,10288.862594
378.941178,-76.609550,-444.123565,11029.068536
378.941485,-1378.971896,-3108.864956,12361.439231
378.941793,-2681.334243,-4145.153275,13693.809927
378.942101,-4366.744339,-3404.947333,13249.686362
378.942409,-2298.286494,-2294.638420,11843.295072
378.942717,153.219100,-370.102971,8882.471304
378.943025,2298.286494,814.226536,7179.997637
378.943333,3830.477490,1998.556043,5403.503377
378.943641,3447.429741,2886.803174,5329.482782
378.943949,2374.896044,2812.782580,6735.874072
378.944257,1915.238745,3478.967927,8142.265362
378.944565,766.095498,3627.009116,9400.615463
378.944873,1378.971896,2368.659014,10140.821405
378.945180,1608.800546,1332.370696,10807.006753
378.945488,919.314598,-222.061783,11399.171507
378.945796,-383.047749,-2590.720797,12361.439231
378.946104,-2604.724693,-3552.988522,12657.521608
378.946412,-2911.162892,-4885.359217,13323.706956
378.946720,-3217.601092,-3552.988522,12361.439231
378.947028,-153.219100,-1554.432478,11695.253884
378.947336,995.924147,-148.041188,7550.100608
378.947644,2987.772442,592.164754,7105.977043
378.947952,3217.601092,1628.453072,6809.894666
378.948260,1762.019645,3034.844362,6291.750507
378.948568,2451.505594,2812.782580,9326.594869
378.948875,1991.848295,4811.338623,7254.018232
378.949183,1685.410096,3182.885551,9696.697840
378.949491,1915.238745,2516.700203,10288.862594
378.949799,2298.286494,1184.329507,10214.842000
378.950107,76.609550,-1036.288319,11695.253884
378.950415,-1762.019645,-3552.988522,13027.624579
378.950723,-2834.553343,-3997.112087,13619.789333
378.951031,-3524.039291,-4441.235652,12731.542202
378.951339,-2604.724693,-3256.906145,11843.295072
378.951647,0.000000,-1184.329507,9326.594869
378.951955,2987.772442,-296.082377,7994.224174
378.952263,3217.601092,1258.350101,5625.565159
378.952570,3370.820191,2664.741391,5107.421000
378.952878,2834.553343,3997.112087,7031.956449
378.953186,2374.896044,3923.091493,7328.038826
378.953494,2298.286494,4367.215058,7624.121203
378.953802,1991.848295,3182.885551,9548.656652
378.954110,2834.553343,1776.494261,9918.759623
378.954418,459.657299,-148.041188,10584.944971
378.954726,-995.924147,-2220.617826,12509.480420
378.955034,-2681.334243,-3701.029710,12361.439231
378.955342,-3983.696590,-3627.009116,13027.624579
378.955650,-2528.115143,-3034.844362,12065.356855
378.955958,-612.876398,-2072.576638,9400.615463
378.956265,1455.581446,-592.164754,8290.306550
378.956573,2604.724693,370.102971,6883.915261
378.956881,2987.772442,2072.576638,5995.668130
378.957189,2604.724693,2590.720797,5995.668130
378.957497,2298.286494,3108.864956,7698.141797
378.957805,1608.800546,4219.173869,8068.244768
378.958113,1762.019645,3108.864956,9622.677246
378.958421,1608.800546,1258.350101,10807.006753
378.958729,0.000000,222.061783,10955.047942
378.959037,0.000000,-2146.597232,12065.356855
378.959345,-2374.896044,-3701.029710,12731.542202
378.959653,-3447.429741,-3552.988522,12509.480420
378.959960,-3447.429741,-4219.173869,12583.501014
378.960268,-1532.190996,-2368.659014,10955.047942
378.960576,383.047749,-592.164754,8364.327145
378.960884,2451.505594,222.061783,7328.038826
378.961192,2911.162892,1332.370696,6439.791695
378.961500,2911.162892,2442.679609,6513.812290
378.961808,3370.820191,3034.844362,7846.182985
378.962116,1838.629195,4145.153275,7624.121203
378.962424,1455.581446,3404.947333,9104.533087
378.962732,1762.019645,2146.597232,10362.883188
378.963040,1455.581446,1184.329507,10436.903782
378.963348,-536.266849,-1480.411884,11917.315666
378.963656,-1225.752797,-3034.844362,12583.501014
378.963963,-2834.553343,-3404.947333,12139.377449
378.964271,-3294.210641,-3701.029710,12065.356855
378.964579,-2145.067394,-3108.864956,12065.356855
378.964887,76.609550,-370.102971,9178.553681
378.965195,1991.848295,222.061783,7254.018232
378.965503,3217.601092,1776.494261,5477.523971
378.965811,4596.572988,1702.473667,5551.544565
378.966119,3600.648841,2812.782580,5773.606348
378.966427,2451.505594,4071.132681,7105.977043
378.966735,2681.334243,3552.988522,9400.615463
378.967043,2221.676944,3034.844362,9030.512492
378.967351,1685.410096,1998.556043,10436.903782
378.967658,1378.971896,-148.041188,11769.274478
378.967966,76.609550,-1776.494261,12213.398043
378.968274,-2528.115143,-2960.823768,13249.686362
378.968582,-4060.306139,-4145.153275,13249.686362
378.968890,-2911.162892,-4071.132681,13545.768739
378.969198,-1378.971896,-2812.782580,11621.233289
378.969506,766.095498,-1258.350101,9548.656652
378.969814,2604.724693,-0.000000,7624.121203
378.970122,3064.381992,1776.494261,6365.771101
378.970430,2987.772442,2294.638420,6883.915261
378.970738,3217.601092,2960.823768,7402.059420
378.971046,2604.724693,3775.050304,8734.430116
378.971353,2221.676944,3701.029710,9104.533087
378.971661,2987.772442,3627.009116,9030.512492
378.971969,2374.896044,1406.391290,10214.842000
378.972277,229.828649,-666.185348,11843.295072
378.972585,-919.314598,-2590.720797,11769.274478
378.972893,-2528.115143,-3256.906145,12435.459826
378.973201,-4060.306139,-3775.050304,12657.521608
378.973509,-2145.067394,-3256.906145,12805.562797
378.973817,-842.705048,-1258.350101,10288.862594
378.974125,1685.410096,222.061783,9326.594869
378.974433,2757.943793,1110.308913,5995.668130
378.974741,2987.772442,2294.638420,5921.647536
378.975049,2834.553343,2368.659014,7105.977043
378.975356,2834.553343,4293.194464,7179.997637
378.975664,2451.505594,4145.153275,8142.265362
378.975972,2911.162892,3478.967927,9474.636058
378.976280,2451.505594,2516.700203,9622.677246
378.976588,1532.190996,444.123565,11029.068536
378.976896,-459.657299,-1184.329507,11103.089130
378.977204,-2221.676944,-2442.679609,11917.315666
378.977512,-3600.648841,-3256.906145,12731.542202
378.977820,-4060.306139,-3775.050304,13101.645173
378.978128,-2834.553343,-2220.617826,10881.027347
378.978436,1532.190996,-1184.329507,10584.944971
378.978744,1915.238745,-74.020594,6365.771101
378.979051,2451.505594,1258.350101,5255.462188
378.979359,2987.772442,740.205942,8438.347739
378.979667,1685.410096,3108.864956,8290.306550
378.979975,1838.629195,3404.947333,9104.533087
378.980283,1685.410096,3997.112087,9326.594869
378.980591,2528.115143,2368.659014,10584.944971
378.980899,1915.238745,1480.411884,11325.150913
378.981207,76.609550,148.041188,11251.130318
378.981515,-842.705048,-2220.617826,12879.583391
378.981823,-2757.943793,-2664.741391,11843.295072
378.982131,-4136.915689,-3182.885551,12879.583391
378.982439,-2681.334243,-2812.782580,12361.439231
378.982746,-919.314598,-1406.391290,10436.903782
378.983054,1225.752797,-148.041188,8438.347739
378.983362,2145.067394,962.267725,6587.832884
378.983670,2834.553343,1332.370696,6587.832884
378.983978,1838.629195,2146.597232,7698.141797
378.984286,2757.943793,2738.761985,8142.265362
378.984594,1608.800546,3404.947333,8364.327145
378.984902,2145.067394,2738.761985,9474.636058
378.985210,3140.991542,2294.638420,10140.821405
378.985518,1762.019645,1036.288319,10066.800811
378.985826,-153.219100,-814.226536,11547.212695
378.986134,-1915.238745,-2146.597232,11399.171507
378.986441,-3447.429741,-2960.823768,10881.027347
378.986749,-3677.258390,-3627.009116,12435.459826
378.987057,-1302.362347,-1850.514855,11103.089130
378.987365,1072.533697,-222.061783,8808.450710
378.987673,1762.019645,-296.082377,7179.997637
378.987981,2451.505594,1036.288319,5181.441594
378.988289,2374.896044,1036.288319,6513.812290
378.988597,1915.238745,2738.761985,7698.141797
378.988905,2604.724693,2664.741391,8216.285956
378.989213,2911.162892,3701.029710,8068.244768
378.989521,2757.943793,1998.556043,8956.491898
378.989829,1838.629195,814.226536,9104.533087
378.990137,842.705048,-1184.329507,11251.130318
378.990444,-842.705048,-3034.844362,12213.398043
378.990752,-3830.477490,-3701.029710,11843.295072
378.991060,-3677.258390,-4071.132681,12657.521608
378.991368,-2834.553343,-2590.720797,12435.459826
378.991676,-612.876398,-1332.370696,9696.697840
378.991984,1302.362347,-592.164754,7846.182985
378.992292,2451.505594,814.226536,6143.709319
378.992600,2757.943793,1110.308913,6735.874072
378.992908,2298.286494,2590.720797,7476.080014
378.993216,2911.162892,3182.885551,8808.450710
378.993524,2451.505594,4441.235652,8142.265362
378.993832,2834.553343,2886.803174,9622.677246
378.994139,2987.772442,1776.494261,9844.739029
378.994447,2068.457845,-0.000000,9918.759623
378.994755,0.000000,-1628.453072,11103.089130
378.995063,-2145.067394,-2664.741391,11843.295072
378.995371,-2451.505594,-3404.947333,12953.603985
378.995679,-2757.943793,-3701.029710,12731.542202
378.995987,-766.095498,-1998.556043,10955.047942
378.996295,1608.800546,-444.123565,8660.409521
378.996603,1762.019645,888.247130,6587.832884
378.996911,2604.724693,1406.391290,6957.935855
378.997219,2451.505594,2368.659014,8216.285956
378.997527,2068.457845,3404.947333,9104.533087
378.997834,2298.286494,4219.173869,8660.409521
378.998142,2834.553343,4071.132681,9104.533087
378.998450,2681.334243,2960.823768,9770.718434
378.998758,2221.676944,1110.308913,10584.944971
378.999066,995.924147,-74.020594,10881.027347
378.999374,-1149.143247,-2220.617826,11695.253884
378.999682,-3370.820191,-3256.906145,12139.377449
378.999990,-4366.744339,-3478.967927,13619.789333
379.000298,-1685.410096,-2738.761985,11991.336260
379.000606,0.000000,-888.247130,9474.636058
379.000914,1455.581446,-518.144159,8142.265362
379.001222,2757.943793,666.185348,6735.874072
379.001530,2221.676944,962.267725,6957.935855
379.001837,1455.581446,2368.659014,8438.347739
379.002145,1762.019645,3182.885551,8882.471304
379.002453,2145.067394,3108.864956,9770.718434
379.002761,2451.505594,2442.679609,9918.759623
379.003069,1915.238745,2072.576638,9992.780217
379.003377,1685.410096,-1110.308913,10881.027347
379.003685,-689.485948,-1406.391290,10510.924376
379.003993,-2681.334243,-2960.823768,11177.109724
379.004301,-3524.039291,-3775.050304,12287.418637
379.004609,-2911.162892,-2294.638420,11917.315666
379.004917,-612.876398,-2072.576638,10510.924376
379.005225,689.485948,-0.000000,7105.977043
379.005532,2528.115143,-0.000000,6809.894666
379.005840,2298.286494,666.185348,6661.853478
379.006148,1455.581446,888.247130,8660.409521
379.006456,1455.581446,2516.700203,8734.430116
379.006764,1072.533697,2516.700203,8734.430116
379.007072,2374.896044,2664.741391,10214.842000
379.007380,2145.067394,1776.494261,9474.636058
379.007688,2221.676944,518.144159,10066.800811
379.007996,1072.533697,-1184.329507,9918.759623
379.008304,-459.657299,-2146.597232,9992.780217
379.008612,-3064.381992,-2960.823768,11917.315666
379.008920,-2757.943793,-2960.823768,12213.398043
379.009227,-1225.752797,-1184.329507,10214.842000
379.009535,-306.438199,-74.020594,8438.347739
379.009843,2911.162892,370.102971,7698.141797
379.010151,2298.286494,1332.370696,5921.647536
379.010459,2451.505594,1924.535449,7550.100608
379.010767,1532.190996,1924.535449,9178.553681
379.011075,1915.238745,3627.009116,8586.388927
379.011383,1225.752797,2886.803174,9622.677246
379.011691,2145.067394,1702.473667,10288.862594
379.011999,2068.457845,1036.288319,9992.780217
379.012307,995.924147,-666.185348,10658.965565
379.012615,76.609550,-2072.576638,10881.027347
379.012923,-2834.553343,-2294.638420,10955.047942
379.013230,-2834.553343,-3478.967927,13027.624579
379.013538,-1915.238745,-2146.597232,12065.356855
379.013846,-153.219100,-592.164754,9844.739029
379.014154,689.485948,-296.082377,9104.533087
379.014462,1915.238745,740.205942,7105.977043
379.014770,1991.848295,1258.350101,7550.100608
379.015078,1302.362347,1628.453072,8808.450710
379.015386,1532.190996,2664.741391,8734.430116
379.015694,1762.019645,2886.803174,9548.656652
379.016002,1762.019645,2812.782580,10066.800811
379.016310,2757.943793,2146.597232,9844.739029
379.016618,2451.505594,148.041188,9622.677246
379.016925,612.876398,-592.164754,10140.821405
379.017233,-766.095498,-3552.988522,11177.109724
379.017541,-3677.258390,-3182.885551,12657.521608
379.017849,-2374.896044,-3552.988522,12731.542202
379.018157,-842.705048,-1554.432478,10436.903782
379.018465,306.438199,-296.082377,9030.512492
379.018773,1532.190996,-74.020594,7698.141797
379.019081,1608.800546,1184.329507,6587.832884
379.019389,2451.505594,1776.494261,7846.182985
379.019697,1762.019645,3108.864956,8290.306550
379.020005,1532.190996,3330.926739,8364.327145
379.020313,1915.238745,3404.947333,9474.636058
379.020620,3064.381992,2664.741391,9844.739029
379.020928,2451.505594,1850.514855,9918.759623
379.021236,1149.143247,-444.123565,10510.924376
379.021544,0.000000,-1702.473667,10881.027347
379.021852,-2145.067394,-3034.844362,11251.130318
379.022160,-2987.772442,-3034.844362,13249.686362
379.022468,-1685.410096,-2294.638420,11325.150913
379.022776,0.000000,-222.061783,9400.615463
379.023084,536.266849,-666.185348,7846.182985
379.023392,2451.505594,666.185348,6957.935855
379.023700,2757.943793,1480.411884,7179.997637
379.024008,1991.848295,1924.535449,7772.162391
379.024315,1532.190996,3256.906145,7994.224174
379.024623,1991.848295,2146.597232,9474.636058
379.024931,2145.067394,2294.638420,9622.677246
379.025239,2681.334243,1924.535449,9696.697840
379.025547,2451.505594,-222.061783,10807.006753
379.025855,229.828649,-1628.453072,11029.068536
379.026163,-1532.190996,-2664.741391,11473.192101
379.026471,-2681.334243,-3330.926739,12657.521608
379.026779,-1915.238745,-2812.782580,12139.377449
379.027087,-766.095498,-1480.411884,10362.883188
379.027395,995.924147,-740.205942,8438.347739
379.027703,2221.676944,-444.123565,7624.121203
379.028011,1149.143247,1628.453072,6513.812290
379.028318,2298.286494,1702.473667,8216.285956
379.028626,1455.581446,3034.844362,8216.285956
379.028934,1225.752797,2960.823768,8882.471304
379.029242,1532.190996,2738.761985,10881.027347
379.029550,1915.238745,1850.514855,10362.883188
379.029858,1608.800546,148.041188,10510.924376
379.030166,0.000000,-814.226536,10658.965565
379.030474,-1225.752797,-2960.823768,11399.171507
379.030782,-3064.381992,-3108.864956,12213.398043
379.031090,-3370.820191,-2294.638420,11769.274478
379.031398,-1608.800546,-1258.350101,11029.068536
379.031706,919.314598,222.061783,8882.471304
379.032013,2451.505594,1332.370696,7031.956449
379.032321,2221.676944,1332.370696,6513.812290
379.032629,2298.286494,1850.514855,6883.915261
379.032937,2145.067394,2812.782580,8734.430116
379.033245,1072.533697,4219.173869,7846.182985
379.033553,995.924147,3034.844362,9548.656652
379.033861,1762.019645,1628.453072,10584.944971
379.034169,2298.286494,1184.329507,10066.800811
379.034477,995.924147,-666.185348,10288.862594
379.034785,-919.314598,-2516.700203,11843.295072
379.035093,-2451.505594,-3775.050304,12435.459826
379.035401,-3447.429741,-4145.153275,13545.768739
379.035708,-3217.601092,-2664.741391,10732.986159
379.036016,306.438199,-962.267725,9992.780217
379.036324,1225.752797,-666.185348,8882.471304
379.036632,1915.238745,1036.288319,6217.729913
379.036940,3140.991542,1332.370696,7402.059420
379.037248,2298.286494,2738.761985,7328.038826
379.037556,1838.629195,2368.659014,8438.347739
379.037864,1455.581446,3330.926739,8290.306550
379.038172,1608.800546,2738.761985,9992.780217
379.038480,2068.457845,888.247130,10584.944971
379.038788,919.314598,296.082377,10066.800811
379.039096,536.266849,-2368.659014,11103.089130
379.039404,-1225.752797,-3330.926739,11621.233289
379.039711,-3830.477490,-3849.070898,12657.521608
379.040019,-2068.457845,-2812.782580,12065.356855
379.040327,-766.095498,-1480.411884,10214.842000
379.040635,459.657299,-0.000000,8882.471304
379.040943,2298.286494,444.123565,7624.121203
379.041251,3064.381992,2294.638420,5403.503377
379.041559,2834.553343,2442.679609,6513.812290
379.041867,3370.820191,2960.823768,7624.121203
379.042175,1225.752797,4367.215058,7105.977043
379.042483,2298.286494,2442.679609,10436.903782
379.042791,1532.190996,2368.659014,10066.800811
379.043099,1915.238745,962.267725,10436.903782
379.043406,153.219100,-1628.453072,10955.047942
379.043714,-1302.362347,-2516.700203,11843.295072
379.044022,-2451.505594,-3404.947333,11695.253884
379.044330,-2528.115143,-3256.906145,12361.439231
379.044638,-919.314598,-1850.514855,10214.842000
379.044946,459.657299,-74.020594,9104.533087
379.045254,2604.724693,148.041188,8290.306550
379.045562,3217.601092,1628.453072,5551.544565
379.045870,3140.991542,2368.659014,5773.606348
379.046178,2451.505594,2368.659014,7920.203579
379.046486,1838.629195,3034.844362,7994.224174
379.046794,766.095498,3256.906145,10066.800811
379.047101,1149.143247,1480.411884,11029.068536
379.047409,2145.067394,1110.308913,10510.924376
379.047717,1455.581446,-814.226536,11473.192101
379.048025,-536.266849,-2294.638420,11843.295072
379.048333,-2221.676944,-2886.803174,12361.439231
379.048641,-2604.724693,-3182.885551,12879.583391
379.048949,-2221.676944,-2812.782580,11547.212695
379.049257,-383.047749,-962.267725,9030.512492
379.049565,2221.676944,-518.144159,9178.553681
379.049873,2834.553343,1036.288319,6143.709319
379.050181,3064.381992,1554.432478,5773.606348
379.050489,2681.334243,2516.700203,7031.956449
379.050797,2221.676944,3404.947333,7994.224174
379.051104,1225.752797,3330.926739,8660.409521
379.051412,1455.581446,2886.803174,10066.800811
379.051720,1838.629195,1628.453072,10510.924376
379.052028,1378.971896,-296.082377,11029.068536
379.052336,153.219100,-1480.411884,11251.130318
379.052644,-1608.800546,-3330.926739,12731.542202
379.052952,-3217.601092,-3627.009116,12361.439231
379.053260,-3447.429741,-3256.906145,12879.583391
379.053568,-1685.410096,-1332.370696,10881.027347
379.053875,536.266849,-0.000000,8808.450710
379.054183,2757.943793,1036.288319,6957.935855
379.054491,3830.477490,1850.514855,5625.565159
379.054799,3447.429741,2960.823768,5477.523971
379.055107,2757.943793,3627.009116,6587.832884
379.055415,2298.286494,3478.967927,8290.306550
379.055723,766.095498,3552.988522,9326.594869
379.056031,1685.410096,1332.370696,10955.047942
379.056339,1455.581446,296.082377,10584.944971
379.056647,306.438199,-1480.411884,11103.089130
379.056954,-306.438199,-3478.967927,12139.377449
379.057262,-1991.848295,-3775.050304,12065.356855
379.057570,-3524.039291,-3330.926739,12657.521608
379.057878,-2681.334243,-2590.720797,11769.274478
379.058186,153.219100,-518.144159,10214.842000
379.058494,1455.581446,740.205942,8586.388927
379.058802,2681.334243,1184.329507,6587.832884
379.059110,2374.896044,2220.617826,6143.709319
379.059418,2987.772442,1998.556043,7254.018232
379.059725,1149.143247,3034.844362,8216.285956
379.060033,612.876398,3701.029710,8956.491898
379.060341,1378.971896,2146.597232,10510.924376
379.060649,1838.629195,1258.350101,10140.821405
379.060957,1225.752797,-0.000000,10362.883188
379.061265,229.828649,-2220.617826,11769.274478
379.061573,-689.485948,-3627.009116,11843.295072
379.061881,-2528.115143,-3552.988522,11843.295072
379.062189,-2681.334243,-4071.132681,12361.439231
379.062497,-1762.019645,-1924.535449,11103.089130
379.062804,0.000000,-888.247130,9030.512492
379.063112,2298.286494,962.267725,6809.894666
379.063420,3370.820191,1924.535449,5403.503377
379.063728,3140.991542,2960.823768,5403.503377
379.064036,2451.505594,3034.844362,7254.018232
379.064344,2298.286494,3404.947333,8216.285956
379.064652,1149.143247,3182.885551,9548.656652
379.064960,2145.067394,2072.576638,10584.944971
379.065268,1915.238745,888.247130,9992.780217
379.065576,76.609550,-1110.308913,10881.027347
379.065883,-919.314598,-2812.782580,11621.233289
379.066191,-1838.629195,-3627.009116,11917.315666
379.066499,-3217.601092,-3404.947333,11695.253884
379.066807,-2298.286494,-3034.844362,11325.150913
379.067115,0.000000,-1480.411884,9770.718434
379.067423,1762.019645,-370.102971,7698.141797
379.067731,2451.505594,888.247130,5921.647536
379.068039,3677.258390,2368.659014,5847.626942
379.068347,3294.210641,2738.761985,7105.977043
379.068654,1762.019645,3034.844362,7994.224174
379.068962,1838.629195,3478.967927,8956.491898
379.069270,2221.676944,2146.597232,11103.089130
379.069578,1532.190996,962.267725,9992.780217
379.069886,1532.190996,-666.185348,11029.068536
379.070194,153.219100,-2368.659014,12509.480420
379.070502,-1608.800546,-2146.597232,11843.295072
379.070810,-2451.505594,-2738.761985,12435.459826
379.071118,-2298.286494,-2590.720797,13101.645173
379.071426,-1608.800546,-1110.308913,10510.924376
379.071733,153.219100,370.102971,9474.636058
379.072041,2145.067394,1776.494261,7254.018232
379.072349,2221.676944,2664.741391,6809.894666
379.072657,1838.629195,3330.926739,7105.977043
379.072965,1072.533697,3034.844362,9400.615463
379.073273,153.219100,3256.906145,9622.677246
379.073581,306.438199,3182.885551,10510.924376
379.073889,459.657299,1702.473667,12213.398043
379.074197,1149.143247,-0.000000,11917.315666
379.074504,0.000000,-1850.514855,11843.295072
379.074812,-1455.581446,-2812.782580,12213.398043
379.075120,-2068.457845,-3256.906145,11695.253884
379.075428,-2451.505594,-3034.844362,11325.150913
379.075736,-919.314598,-1406.391290,10955.047942
379.076044,1838.629195,-592.164754,8734.430116
379.076352,2374.896044,962.267725,6661.853478
379.076660,3753.867940,1998.556043,6217.729913
379.076968,3907.087040,2220.617826,5181.441594
379.077276,2528.115143,2812.782580,6069.688724
379.077583,1532.190996,3330.926739,7846.182985
379.077891,1378.971896,2442.679609,9178.553681
379.078199,919.314598,1776.494261,10362.883188
379.078507,842.705048,-74.020594,10881.027347
379.078815,1378.971896,-1110.308913,10955.047942
379.079123,153.219100,-3404.947333,11399.171507
379.079431,-2374.896044,-3701.029710,11325.150913
379.079739,-2757.943793,-4219.173869,11843.295072
379.080047,-2221.676944,-3627.009116,11695.253884
379.080354,-995.924147,-1924.535449,9918.759623
379.080662,1072.533697,-1406.391290,8808.450710
379.080970,3294.210641,1036.288319,7031.956449
379.081278,2834.553343,1406.391290,5699.585753
379.081586,3064.381992,2738.761985,6735.874072
379.081894,2451.505594,3256.906145,8586.388927
379.082202,1762.019645,3701.029710,8438.347739
379.082510,1685.410096,2664.741391,9696.697840
379.082818,1378.971896,2516.700203,9400.615463
379.083126,2374.896044,296.082377,10658.965565
379.083433,536.266849,-1406.391290,11325.150913
379.083741,-153.219100,-2072.576638,10658.965565
379.084049,-2068.457845,-3627.009116,11843.295072
379.084357,-2834.553343,-3256.906145,11399.171507
379.084665,-1991.848295,-2220.617826,11843.295072
379.084973,0.000000,-1332.370696,10362.883188
379.085281,1532.190996,444.123565,7698.141797
379.085589,2298.286494,1406.391290,6069.688724
379.085897,1915.238745,1924.535449,6439.791695
379.086204,2221.676944,2368.659014,7772.162391
379.086512,1455.581446,3849.070898,8882.471304
379.086820,1532.190996,3182.885551,9622.677246
379.087128,1838.629195,2590.720797,10066.800811
379.087436,1991.848295,1406.391290,10881.027347
379.087744,1838.629195,-370.102971,11473.192101
379.088052,229.828649,-1332.370696,10362.883188
379.088360,-842.705048,-2590.720797,11399.171507
379.088668,-2298.286494,-2960.823768,11695.253884
379.088976,-2145.067394,-2738.761985,12509.480420
379.089283,0.000000,-814.226536,11621.233289
379.089591,919.314598,-222.061783,8956.491898
379.089899,1991.848295,518.144159,6957.935855
379.090207,1991.848295,1258.350101,6883.915261
379.090515,2221.676944,2146.597232,7179.997637
379.090823,2068.457845,2886.803174,8734.430116
379.091131,1991.848295,4441.235652,8586.388927
379.091439,2298.286494,3182.885551,9992.780217
379.091747,1532.190996,1776.494261,10510.924376
379.092054,2221.676944,962.267725,10732.986159
379.092362,1455.581446,-666.185348,10658.965565
379.092670,-842.705048,-1406.391290,10214.842000
379.092978,-2221.676944,-3256.906145,12361.439231
379.093286,-2911.162892,-2738.761985,12805.562797
379.093594,-2068.457845,-1850.514855,11991.336260
379.093902,0.000000,-888.247130,9770.718434
379.094210,1302.362347,-0.000000,7031.956449
379.094518,1991.848295,1332.370696,6513.812290
379.094826,1378.971896,1258.350101,7031.956449
379.095133,1302.362347,2368.659014,8660.409521
379.095441,995.924147,3552.988522,8142.265362
379.095749,919.314598,2812.782580,9326.594869
379.096057,1915.238745,2220.617826,10362.883188
379.096365,2834.553343,1110.308913,10732.986159
379.096673,1072.533697,-0.000000,9844.739029
379.096981,-536.266849,-2368.659014,10214.842000
379.097289,-2298.286494,-2220.617826,11399.171507
379.097597,-3677.258390,-3256.906145,12731.542202
379.097905,-2528.115143,-2590.720797,11103.089130
379.098212,-766.095498,-962.267725,10288.862594
379.098520,919.314598,-0.000000,8512.368333
379.098828,2987.772442,148.041188,7254.018232
379.099136,1532.190996,1184.329507,5625.565159
379.099444,1302.362347,1850.514855,7254.018232
379.099752,1838.629195,2294.638420,9178.553681
379.100060,919.314598,3701.029710,8438.347739
379.100368,1455.581446,2220.617826,10584.944971
379.100676,2757.943793,1628.453072,9696.697840
379.100983,2298.286494,-0.000000,10584.944971
379.101291,689.485948,-2072.576638,10066.800811
379.101599,-153.219100,-2664.741391,9992.780217
379.101907,-1838.629195,-3404.947333,11917.315666
379.102215,-2451.505594,-3552.988522,12213.398043
379.102523,-842.705048,-1924.535449,11325.150913
379.102831,-153.219100,-1628.453072,9918.759623
379.103139,1225.752797,-592.164754,7846.182985
379.103447,2145.067394,1184.329507,5995.668130
379.103755,2068.457845,2146.597232,7179.997637
379.104062,1991.848295,2516.700203,8438.347739
379.104370,1915.238745,4589.276840,7328.038826
379.104678,2068.457845,3997.112087,9474.636058
379.104986,2451.505594,2664.741391,10066.800811
379.105294,3370.820191,1850.514855,9918.759623
379.105602,1302.362347,-370.102971,10658.965565
379.105910,-612.876398,-2664.741391,10955.047942
379.106218,-2221.676944,-2368.659014,11473.192101
379.106526,-3524.039291,-3552.988522,13693.809927
379.106833,-2221.676944,-2664.741391,12509.480420
379.107141,-612.876398,-1332.370696,10214.842000
379.107449,689.485948,-444.123565,9252.574275
379.107757,1915.238745,296.082377,6365.771101
379.108065,2298.286494,1702.473667,6513.812290
379.108373,1915.238745,2516.700203,7920.203579
379.108681,2145.067394,2664.741391,8512.368333
379.108989,1302.362347,4589.276840,8586.388927
379.109297,2451.505594,2960.823768,10510.924376
379.109605,2757.943793,2294.638420,9918.759623
379.109912,2374.896044,740.205942,10214.842000
379.110220,1225.752797,-1184.329507,10140.821405
379.110528,-995.924147,-2294.638420,10732.986159
379.110836,-2221.676944,-2886.803174,11917.315666
379.111144,-1685.410096,-3034.844362,13619.789333
379.111452,-459.657299,-814.226536,10881.027347
379.111760,842.705048,-222.061783,8438.347739
379.112068,1762.019645,-296.082377,7846.182985
379.112376,1532.190996,888.247130,6513.812290
379.112683,2298.286494,1776.494261,8068.244768
379.112991,1915.238745,2590.720797,9548.656652
379.113299,842.705048,3478.967927,8216.285956
379.113607,1378.971896,2368.659014,10955.047942
379.113915,2145.067394,1776.494261,11103.089130
379.114223,2451.505594,370.102971,10807.006753
379.114531,1302.362347,-518.144159,9252.574275
379.114839,0.000000,-1702.473667,10140.821405
379.115147,-1915.238745,-2442.679609,11547.212695
379.115455,-2451.505594,-2664.741391,13027.624579
379.115762,-1378.971896,-1406.391290,11917.315666
379.116070,689.485948,-592.164754,9770.718434
379.116378,1685.410096,-0.000000,7994.224174
379.116686,1685.410096,740.205942,6661.853478
379.116994,995.924147,814.226536,7550.100608
379.117302,995.924147,1702.473667,9548.656652
379.117610,689.485948,2960.823768,8364.327145
379.117918,-229.828649,2812.782580,9918.759623
379.118226,1762.019645,740.205942,12213.398043
379.118533,1991.848295,1850.514855,9696.697840
379.118841,1072.533697,-814.226536,9770.718434
379.119149,689.485948,-1628.453072,9104.533087
379.119457,-612.876398,-1998.556043,9400.615463
379.119765,-2298.286494,-2590.720797,11621.233289
379.120073,-1225.752797,-1776.494261,11251.130318
379.120381,229.828649,-518.144159,9696.697840
379.120689,919.314598,-0.000000,7698.141797
379.120997,2528.115143,370.102971,6069.688724
379.121305,2145.067394,814.226536,6291.750507
379.121612,1302.362347,1036.288319,7994.224174
379.121920,995.924147,2368.659014,8438.347739
379.122228,0.000000,2368.659014,9548.656652
379.122536,995.924147,1332.370696,11695.253884
379.122844,995.924147,888.247130,10658.965565
379.123152,2298.286494,-0.000000,9918.759623
379.123460,1455.581446,-1480.411884,9474.636058
379.123768,0.000000,-1480.411884,9400.615463
379.124076,-1225.752797,-2516.700203,11547.212695
379.124384,-1991.848295,-1702.473667,11769.274478
379.124691,-306.438199,-814.226536,10955.047942
379.124999,76.609550,-518.144159,9770.718434
379.125307,1915.238745,-0.000000,8364.327145
379.125615,1915.238745,1628.453072,7328.038826
379.125923,1532.190996,888.247130,8290.306550
379.126231,842.705048,1924.535449,9326.594869
379.126539,306.438199,2738.761985,9326.594869
379.126847,536.266849,2442.679609,10955.047942
379.127155,1838.629195,1850.514855,11103.089130
379.127462,3140.991542,1184.329507,10214.842000
379.127770,2221.676944,222.061783,9030.512492
379.128078,919.314598,-1258.350101,9992.780217
379.128386,-919.314598,-1776.494261,10288.862594
379.128694,-1685.410096,-1776.494261,11695.253884
379.129002,-1072.533697,-1110.308913,10807.006753
379.129310,-153.219100,-666.185348,9696.697840
379.129618,612.876398,-222.061783,9104.533087
379.129926,1532.190996,296.082377,7254.018232
379.130234,1532.190996,1110.308913,7402.059420
379.130541,1072.533697,1332.370696,8882.471304
379.130849,995.924147,2664.741391,8216.285956
379.131157,0.000000,2664.741391,9696.697840
379.131465,2221.676944,1850.514855,11251.130318
379.131773,2374.896044,2220.617826,9178.553681
379.132081,2451.505594,-74.020594,9622.677246
379.132389,1608.800546,-1924.535449,9400.615463
379.132697,-766.095498,-1554.432478,9474.636058
379.133005,-1302.362347,-2442.679609,12065.356855
379.133312,-919.314598,-2294.638420,11325.150913
379.133620,-766.095498,-296.082377,9992.780217
379.133928,689.485948,-592.164754,9474.636058
379.134236,1685.410096,-296.082377,8216.285956
379.134544,1302.362347,666.185348,7328.038826
379.134852,1149.143247,148.041188,8438.347739
379.135160,919.314598,1036.288319,8586.388927
379.135468,0.000000,2442.679609,9104.533087
379.135776,1225.752797,1924.535449,11621.233289
379.136084,2528.115143,2368.659014,9844.739029
379.136391,2834.553343,1332.370696,8956.491898
379.136699,2068.457845,-222.061783,8882.471304
379.137007,383.047749,-1628.453072,8808.450710
379.137315,-766.095498,-2738.761985,11325.150913
379.137623,-1378.971896,-2220.617826,12879.583391
379.137931,-689.485948,-1776.494261,10807.006753
379.138239,0.000000,-740.205942,9548.656652
379.138547,766.095498,-444.123565,8438.347739
379.138855,1532.190996,740.205942,7476.080014
379.139162,1149.143247,1258.350101,7994.224174
379.139470,842.705048,1258.350101,9030.512492
379.139778,0.000000,2590.720797,8808.450710
379.140086,689.485948,2738.761985,10288.862594
379.140394,1455.581446,2368.659014,10955.047942
379.140702,2528.115143,1776.494261,9844.739029
379.141010,1762.019645,370.102971,9178.553681
379.141318,306.438199,-1554.432478,9030.512492
379.141626,-1225.752797,-2220.617826,11029.068536
379.141934,-2911.162892,-2886.803174,12361.439231
379.142241,-1762.019645,-1702.473667,12213.398043
379.142549,-919.314598,-0.000000,9104.533087
379.142857,612.876398,-0.000000,9104.533087
379.143165,1685.410096,666.185348,6957.935855
379.143473,2145.067394,1628.453072,6513.812290
379.143781,1838.629195,1850.514855,7846.182985
379.144089,766.095498,2442.679609,7920.203579
379.144397,612.876398,2294.638420,10658.965565
379.144705,229.828649,1776.494261,11695.253884
379.145012,1455.581446,1036.288319,10881.027347
379.145320,1378.971896,370.102971,10584.944971
379.145628,842.705048,-1702.473667,9770.718434
379.145936,-1302.362347,-2442.679609,10881.027347
379.146244,-1608.800546,-2738.761985,11621.233289
379.146552,-842.705048,-2516.700203,11547.212695
379.146860,-1225.752797,-962.267725,9696.697840
379.147168,2298.286494,-740.205942,10066.800811
379.147476,1838.629195,518.144159,7254.018232
379.147784,2374.896044,1332.370696,7031.956449
379.148091,1762.019645,1628.453072,7105.977043
379.148399,1532.190996,2368.659014,8364.327145
379.148707,76.609550,3108.864956,9474.636058
379.149015,0.000000,3256.906145,10584.944971
379.149323,1685.410096,2812.782580,11251.130318
379.149631,1455.581446,2146.597232,10066.800811
379.149939,459.657299,370.102971,9474.636058
379.150247,-612.876398,-2072.576638,10658.965565
379.150555,-3140.991542,-2368.659014,11251.130318
379.150862,-3983.696590,-3256.906145,12583.501014
379.151170,-3830.477490,-1998.556043,11917.315666
379.151478,-2834.553343,-1406.391290,11695.253884
379.151786,-919.314598,-1554.432478,9474.636058
379.152094,383.047749,592.164754,7105.977043
379.152402,536.266849,888.247130,7402.059420
379.152710,0.000000,592.164754,7402.059420
379.153016,76.609550,2738.761985,7994.224174
379.153324,-919.314598,3404.947333,8660.409521
379.153632,766.095498,2664.741391,9992.780217
379.153940,1302.362347,3256.906145,9030.512492
379.154248,1685.410096,1628.453072,8882.471304
379.154556,766.095498,-518.144159,7920.203579
379.154864,-919.314598,-1850.514855,9770.718434
379.155172,-3370.820191,-2812.782580,11769.274478
379.155480,-4060.306139,-3108.864956,12065.356855
379.155788,-4060.306139,-2368.659014,11473.192101
379.156096,-3140.991542,-2220.617826,11029.068536
379.156404,-1072.533697,-814.226536,9326.594869
379.156712,0.000000,-296.082377,7402.059420
379.157020,-383.047749,-222.061783,8142.265362
379.157328,-1072.533697,-0.000000,8068.244768
379.157636,-1149.143247,1258.350101,8882.471304
379.157944,-1302.362347,1776.494261,10288.862594
379.158252,-842.705048,2738.761985,9696.697840
379.158560,995.924147,2368.659014,9770.718434
379.158868,1378.971896,1924.535449,8512.368333
379.159176,306.438199,518.144159,7624.121203
379.159484,-459.657299,-888.247130,9326.594869
379.159792,-1991.848295,-1628.453072,10658.965565
379.160100,-3217.601092,-2220.617826,12583.501014
379.160408,-4136.915689,-1406.391290,11103.089130
379.160716,-2987.772442,-962.267725,10584.944971
379.161024,-2068.457845,-0.000000,9548.656652
379.161332,-459.657299,814.226536,8808.450710
379.161640,-306.438199,370.102971,8216.285956
379.161948,-1685.410096,666.185348,7920.203579
379.162256,-2374.896044,962.267725,9104.533087
379.162564,-2987.772442,1628.453072,10881.027347
379.162873,-2221.676944,2294.638420,10807.006753
379.163181,-1762.019645,1924.535449,9548.656652
379.163489,-1302.362347,1924.535449,9474.636058
379.163797,-306.438199,296.082377,9252.574275
379.164105,-1915.238745,-0.000000,9770.718434
379.164413,-2298.286494,-1406.391290,11029.068536
379.164721,-3983.696590,-2220.617826,11029.068536
379.165029,-4903.011187,-2368.659014,12139.377449
379.165337,-3830.477490,-2368.659014,11103.089130
379.165645,-2528.115143,-222.061783,9326.594869
379.165953,-229.828649,1628.453072,8290.306550
379.166261,1608.800546,2812.782580,5847.626942
379.166569,1072.533697,3330.926739,5477.523971
379.166877,842.705048,1776.494261,6957.935855
379.167185,-919.314598,592.164754,8142.265362
379.167493,-2911.162892,-222.061783,10140.821405
379.167801,-4366.744339,-1184.329507,11251.130318
379.168109,-4366.744339,-740.205942,11843.295072
379.168417,-4060.306139,-148.041188,11769.274478
379.168725,-2298.286494,444.123565,11325.150913
379.169033,-919.314598,962.267725,10066.800811
379.169341,-612.876398,-222.061783,8882.471304
379.169649,-1532.190996,-1628.453072,10214.842000
379.169957,-2681.334243,-2294.638420,10658.965565
379.170265,-2604.724693,-2368.659014,11547.212695
379.170573,-2298.286494,-1332.370696,10066.800811
379.170881,-1915.238745,740.205942,8512.368333
379.171189,536.266849,1776.494261,8216.285956
379.171497,689.485948,3849.070898,6513.812290
379.171805,612.876398,3256.906145,6217.729913
379.172113,-153.219100,2516.700203,6957.935855
379.172422,-2451.505594,1406.391290,8068.244768
379.172730,-3753.867940,-666.185348,10807.006753
379.173038,-5209.449386,-1628.453072,12139.377449
379.173346,-5515.887586,-1110.308913,12287.418637
379.173654,-4903.011187,-296.082377,11917.315666
379.173962,-3983.696590,1184.329507,11103.089130
379.174270,-1302.362347,1850.514855,9918.759623
379.174578,-306.438199,1998.556043,8142.265362
379.174886,-153.219100,2146.597232,7772.162391
379.175194,-689.485948,1036.288319,8290.306550
379.175502,-2145.067394,-1406.391290,9622.677246
379.175810,-3753.867940,-2886.803174,11695.253884
379.176118,-5056.230287,-4589.276840,13249.686362
379.176426,-6128.763984,-4663.297435,13397.727550
379.176734,-5745.716235,-3478.967927,11769.274478
379.177042,-4136.915689,-1480.411884,10658.965565
379.177350,-2681.334243,740.205942,8882.471304
379.177658,-612.876398,2812.782580,7105.977043
379.177966,919.314598,4367.215058,5699.585753
379.178274,1838.629195,5033.400406,4441.235652
379.178582,1532.190996,4589.276840,5107.421000
379.178890,1378.971896,3701.029710,6513.812290
379.179198,-459.657299,1998.556043,8512.368333
379.179506,-2757.943793,222.061783,9844.739029
379.179814,-4213.525239,-1554.432478,11325.150913
379.180122,-5515.887586,-2294.638420,12065.356855
379.180430,-5669.106685,-2368.659014,12731.542202
379.180738,-5209.449386,-1554.432478,11917.315666
379.181046,-2757.943793,-888.247130,11473.192101
379.181354,-1915.238745,222.061783,9474.636058
379.181662,-383.047749,962.267725,8660.409521
379.181971,-842.705048,222.061783,9474.636058
379.182279,-2068.457845,-222.061783,9696.697840
379.182587,-3370.820191,-1702.473667,11177.109724
379.182895,-4903.011187,-1776.494261,11695.253884
379.183203,-5745.716235,-3034.844362,13027.624579
379.183511,-5975.544884,-2664.741391,13249.686362
379.183819,-5132.839837,-1998.556043,11621.233289
379.184127,-2757.943793,-592.164754,10066.800811
379.184435,-1378.971896,1406.391290,7105.977043
379.184743,1532.190996,3701.029710,5699.585753
379.185051,3064.381992,5255.462188,4367.215058
379.185359,3370.820191,6143.709319,3330.926739
379.185667,3524.039291,5329.482782,3404.947333
379.185975,1302.362347,3849.070898,4811.338623
379.186283,-995.924147,1332.370696,8290.306550
379.186591,-3217.601092,-888.247130,10658.965565
379.186899,-5286.058936,-3034.844362,13175.665768
379.187207,-7354.516781,-4515.256246,14730.098246
379.187515,-7660.954980,-5551.544565,15396.283594
379.187823,-6818.249932,-4737.318029,15544.324782
379.188131,-4749.792088,-3256.906145,12953.603985
379.188439,-2528.115143,-740.205942,10362.883188
379.188747,-612.876398,1480.411884,8142.265362
379.189055,689.485948,2886.803174,7476.080014
379.189363,1915.238745,4441.235652,6291.750507
379.189671,1532.190996,5699.585753,5847.626942
379.189979,536.266849,5181.441594,6291.750507
379.190287,-1149.143247,3256.906145,8142.265362
379.190595,-3600.648841,444.123565,10510.924376
379.190903,-5975.544884,-2220.617826,12657.521608
379.191211,-7967.393179,-4589.276840,14582.057057
379.191520,-7660.954980,-5403.503377,14211.954086
379.191828,-6588.421283,-5181.441594,14508.036463
379.192136,-4213.525239,-3552.988522,12435.459826
379.192444,-1608.800546,-1850.514855,9548.656652
379.192752,766.095498,-0.000000,7772.162391
379.193060,2681.334243,2368.659014,5625.565159
379.193368,3983.696590,4145.153275,4959.379811
379.193676,4673.182538,5773.606348,4367.215058
379.193984,3983.696590,6587.832884,3701.029710
379.194292,2298.286494,5921.647536,4959.379811
379.194600,0.000000,4219.173869,7031.956449
379.194908,-3140.991542,2146.597232,9770.718434
379.195216,-4903.011187,-814.226536,12805.562797
379.195524,-7737.564530,-3034.844362,13471.748144
379.195832,-8886.707777,-3849.070898,14656.077652
379.196140,-7967.393179,-4737.318029,15100.201217
379.196448,-6665.030833,-4515.256246,14137.933492
379.196756,-5592.497135,-3478.967927,12065.356855
379.197064,-3447.429741,-2368.659014,10288.862594
379.197372,-1608.800546,-592.164754,9104.533087
379.197680,0.000000,1480.411884,7550.100608
379.197988,1302.362347,2664.741391,7254.018232
379.198296,2528.115143,3552.988522,6513.812290
379.198604,2528.115143,3256.906145,6291.750507
379.198912,1225.752797,2886.803174,7179.997637
379.199220,153.219100,1406.391290,8660.409521
379.199528,-919.314598,296.082377,10214.842000
379.199836,-2298.286494,-518.144159,10362.883188
379.200144,-2987.772442,-962.267725,10510.924376
379.200452,-2911.162892,-1110.308913,10066.800811
379.200760,-2757.943793,-222.061783,9696.697840
379.201068,-1915.238745,370.102971,9622.677246
379.201377,-1838.629195,666.185348,8956.491898
379.201685,-1378.971896,1406.391290,8438.347739
379.201993,-2604.724693,1924.535449,9400.615463
379.202301,-3064.381992,1702.473667,10362.883188
379.202609,-3753.867940,1776.494261,10584.944971
379.202917,-4519.963438,592.164754,10732.986159
379.203225,-5822.325785,-1036.288319,11695.253884
379.203533,-6435.202183,-1480.411884,13027.624579
379.203841,-6741.640382,-2146.597232,13323.706956
379.204149,-6588.421283,-2368.659014,12953.603985
379.204457,-5898.935335,-2516.700203,12139.377449
379.204765,-4673.182538,-2146.597232,11177.109724
379.205073,-2987.772442,-962.267725,9770.718434
379.205381,-1225.752797,-222.061783,8512.368333
379.205689,-383.047749,222.061783,7105.977043
379.205997,1225.752797,1628.453072,6143.709319
379.206305,1225.752797,2368.659014,6069.688724
379.206613,1378.971896,2738.761985,6291.750507
379.206921,1072.533697,3034.844362,6365.771101
379.207229,459.657299,2738.761985,7105.977043
379.207537,0.000000,1850.514855,8290.306550
379.207845,-1455.581446,888.247130,9696.697840
379.208153,-2911.162892,148.041188,10658.965565
379.208461,-2911.162892,-666.185348,11251.130318
379.208769,-3600.648841,-1628.453072,11621.233289
379.209077,-3830.477490,-2146.597232,11621.233289
379.209385,-3447.429741,-1850.514855,11547.212695
379.209693,-3294.210641,-1998.556043,11103.089130
379.210001,-3064.381992,-814.226536,10214.842000
379.210309,-2068.457845,-0.000000,9770.718434
379.210617,-1532.190996,888.247130,10066.800811
379.210926,-995.924147,1036.288319,9030.512492
379.211234,-612.876398,1998.556043,9104.533087
379.211542,-612.876398,1702.473667,9252.574275
379.211850,-766.095498,1184.329507,9104.533087
379.212158,-1225.752797,1184.329507,9474.636058
379.212466,-1532.190996,518.144159,9770.718434
379.212774,-1608.800546,148.041188,9844.739029
379.213082,-1762.019645,592.164754,10140.821405
379.213390,-1378.971896,518.144159,9400.615463
379.213698,-1608.800546,296.082377,9030.512492
379.214006,-1378.971896,296.082377,8808.450710
379.214314,-1302.362347,1110.308913,9178.553681
379.214622,-1762.019645,814.226536,9030.512492
379.214930,-2068.457845,888.247130,9474.636058
379.215238,-2068.457845,814.226536,9474.636058
379.215546,-2604.724693,-74.020594,9400.615463
379.215854,-3370.820191,-444.123565,9770.718434
379.216162,-3983.696590,-888.247130,11029.068536
379.216470,-3983.696590,-814.226536,11177.109724
379.216778,-3830.477490,-1036.288319,11029.068536
379.217086,-3753.867940,-1036.288319,10881.027347
379.217394,-3370.820191,-592.164754,10362.883188
379.217702,-2911.162892,-1036.288319,10140.821405
379.218010,-1225.752797,-370.102971,9696.697840
379.218318,-1378.971896,-296.082377,8290.306550
379.218626,-229.828649,370.102971,8586.388927
379.218934,0.000000,444.123565,9030.512492
379.219242,0.000000,444.123565,8586.388927
379.219550,-153.219100,444.123565,8438.347739
379.219858,76.609550,888.247130,8142.265362
379.220166,76.609550,962.267725,8364.327145
379.220475,76.609550,1184.329507,8586.388927
379.220783,0.000000,666.185348,8290.306550
379.221091,-995.924147,1258.350101,8660.409521
379.221399,-1378.971896,1036.288319,9326.594869
379.221707,-1991.848295,814.226536,9696.697840
379.222015,-2528.115143,518.144159,10288.862594
379.222323,-3140.991542,444.123565,10955.047942
379.222631,-3600.648841,444.123565,10732.986159
379.222939,-3907.087040,518.144159,11177.109724
379.223247,-3447.429741,296.082377,11325.150913
379.223555,-3524.039291,592.164754,10732.986159
379.223863,-3830.477490,518.144159,10362.883188
379.224171,-3370.820191,444.123565,10436.903782
379.224479,-3294.210641,-0.000000,10140.821405
379.224787,-3370.820191,296.082377,9918.759623
379.225095,-3294.210641,-0.000000,9696.697840
379.225403,-3064.381992,814.226536,9474.636058
379.225711,-2987.772442,518.144159,9400.615463
379.226019,-2987.772442,740.205942,9474.636058
379.226327,-2757.943793,740.205942,8956.491898
379.226635,-2987.772442,666.185348,9030.512492
379.226943,-3447.429741,370.102971,9474.636058
379.227251,-3983.696590,-74.020594,9622.677246
379.227559,-3830.477490,-222.061783,10362.883188
379.227867,-4213.525239,-592.164754,9918.759623
379.228175,-4366.744339,-814.226536,9770.718434
379.228483,-4060.306139,-1036.288319,9770.718434
379.228791,-4060.306139,-814.226536,9474.636058
379.229099,-3907.087040,-1110.308913,9326.594869
379.229407,-3907.087040,-814.226536,9326.594869
379.229715,-3600.648841,-814.226536,9178.553681
379.230023,-3677.258390,-962.267725,9104.533087
379.230332,-3753.867940,-740.205942,9696.697840
379.230640,-3830.477490,-592.164754,9548.656652
379.230948,-2451.505594,-1406.391290,10732.986159
379.231256,-3064.381992,-444.123565,9918.759623
379.231564,-2757.943793,-740.205942,10584.944971
379.231872,-1915.238745,-1036.288319,10288.862594
379.232180,-1915.238745,-740.205942,9844.739029
379.232488,-919.314598,-1332.370696,9844.739029
379.232796,-383.047749,-296.082377,8956.491898
379.233104,76.609550,740.205942,8808.450710
379.233412,0.000000,1184.329507,7550.100608
379.233720,1455.581446,2294.638420,7254.018232
379.234028,1685.410096,2738.761985,7031.956449
379.234336,1302.362347,3330.926739,6365.771101
379.234644,1072.533697,3701.029710,6809.894666
379.234952,612.876398,3108.864956,7476.080014
379.235260,-842.705048,2738.761985,9178.553681
379.235568,-1762.019645,2220.617826,9918.759623
379.235876,-2528.115143,1480.411884,11325.150913
379.236184,-3983.696590,444.123565,12139.377449
379.236492,-4673.182538,-296.082377,11991.336260
379.236800,-5209.449386,-962.267725,12879.583391
379.237108,-5592.497135,-1480.411884,12879.583391
379.237416,-5056.230287,-2294.638420,13323.706956
379.237724,-5056.230287,-2294.638420,13027.624579
379.238032,-4519.963438,-2220.617826,12213.398043
379.238340,-3753.867940,-1776.494261,11695.253884
379.238648,-2987.772442,-1184.329507,10436.903782
379.238956,-2068.457845,-370.102971,9252.574275
379.239264,-1149.143247,148.041188,8586.388927
379.239572,-306.438199,888.247130,7994.224174
379.239881,459.657299,2146.597232,7328.038826
379.240189,2068.457845,2072.576638,7550.100608
379.240497,1225.752797,2812.782580,6883.915261
379.240805,229.828649,2960.823768,6217.729913
379.241113,689.485948,3108.864956,7105.977043
379.241421,76.609550,2590.720797,7846.182985
379.241729,-1072.533697,2368.659014,8290.306550
379.242037,-2068.457845,1554.432478,9030.512492
379.242345,-3064.381992,-148.041188,10214.842000
379.242653,-4826.401637,-1406.391290,11103.089130
379.242961,-5132.839837,-2220.617826,11917.315666
379.243269,-6205.373534,-2516.700203,11991.336260
379.243577,-6358.592633,-3108.864956,12583.501014
379.243885,-6052.154434,-3478.967927,12805.562797
379.244193,-5515.887586,-2886.803174,12213.398043
379.244501,-4903.011187,-2664.741391,11695.253884
379.244809,-3830.477490,-2294.638420,11103.089130
379.245117,-2451.505594,-1110.308913,10066.800811
379.245425,-1455.581446,666.185348,8956.491898
379.245733,229.828649,2072.576638,7254.018232
379.246041,1532.190996,4219.173869,5551.544565
379.246349,2681.334243,5181.441594,4737.318029
379.246657,3370.820191,5403.503377,4145.153275
379.246965,2604.724693,4959.379811,4219.173869
379.247273,1608.800546,3478.967927,6513.812290
379.247581,-1072.533697,2294.638420,7920.203579
379.247889,-3370.820191,-740.205942,10214.842000
379.248197,-5439.278036,-2516.700203,12583.501014
379.248505,-6741.640382,-4219.173869,13989.892304
379.248813,-7354.516781,-5477.523971,14434.015869
379.249121,-7507.735880,-5847.626942,14730.098246
379.249430,-6205.373534,-5107.421000,14137.933492
379.249738,-4903.011187,-2886.803174,11917.315666
379.250046,-3064.381992,-1036.288319,9770.718434
379.250354,-306.438199,2368.659014,7920.203579
379.250662,1838.629195,4515.256246,5921.647536
379.250970,2451.505594,6069.688724,4663.297435
379.251278,3140.991542,6439.791695,4071.132681
379.251586,1685.410096,4959.379811,5181.441594
379.251894,-1149.143247,2294.638420,8068.244768
379.252202,-3830.477490,-296.082377,11029.068536
379.252510,-6894.859482,-3478.967927,13841.851115
379.252818,-8350.440928,-6439.791695,15026.180623
379.253126,-8197.221829,-6439.791695,13915.871710
379.253434,-7660.954980,-6217.729913,13915.871710
379.253742,-5209.449386,-4145.153275,11843.295072
379.254050,-2374.896044,-518.144159,9252.574275
379.254358,766.095498,2590.720797,7105.977043
379.254666,3600.648841,6069.688724,4737.318029
379.254974,4979.620737,7772.162391,3552.988522
379.255282,5439.278036,8216.285956,2960.823768
379.255590,4290.134789,7994.224174,3849.070898
379.255898,1608.800546,4515.256246,7698.141797
379.256207,-2145.067394,888.247130,11473.192101
379.256515,-6128.763984,-2442.679609,14285.974681
379.256823,-9269.755526,-5921.647536,17024.736666
379.257131,-10342.289223,-7698.141797,17764.942608
379.257439,-9806.022374,-6365.771101,16506.592507
379.257747,-6281.983084,-4441.235652,14952.160028
379.258055,-2834.553343,-666.185348,9474.636058
379.258363,0.000000,2220.617826,6291.750507
379.258671,1608.800546,3627.009116,5625.565159
379.258979,3140.991542,5551.544565,4885.359217
379.259287,2834.553343,5699.585753,4441.235652
379.259596,1225.752797,4367.215058,6217.729913
379.259904,-1608.800546,1924.535449,8216.285956
379.260212,-4366.744339,222.061783,10732.986159
379.260520,-6052.154434,-1480.411884,13175.665768
379.260828,-7737.564530,-2146.597232,13397.727550
379.261136,-7124.688131,-2960.823768,14434.015869
379.261444,-5362.668486,-1258.350101,11547.212695
379.261752,-2298.286494,222.061783,9030.512492
379.262060,1302.362347,962.267725,8068.244768
379.262368,2757.943793,592.164754,6587.832884
379.262677,2068.457845,-74.020594,6587.832884
379.262985,842.705048,-148.041188,7994.224174
379.263293,-689.485948,-0.000000,8142.265362
379.263601,-2528.115143,444.123565,9696.697840
379.263909,-2528.115143,888.247130,10214.842000
379.264217,-2834.553343,1776.494261,10436.903782
379.264525,-2757.943793,666.185348,9622.677246
379.264833,-3294.210641,-148.041188,9992.780217
379.265141,-3753.867940,-962.267725,11103.089130
379.265449,-4213.525239,-2960.823768,12731.542202
379.265757,-5209.449386,-3701.029710,12065.356855
379.266066,-5822.325785,-3478.967927,11399.171507
379.266374,-4903.011187,-1998.556043,10881.027347
379.266682,-2451.505594,666.185348,9400.615463
379.266990,-612.876398,2738.761985,7624.121203
379.267298,1378.971896,4293.194464,4959.379811
379.267606,2374.896044,4885.359217,4589.276840
379.267914,2145.067394,3701.029710,6809.894666
379.268222,0.000000,1406.391290,9252.574275
379.268530,-1532.190996,-1036.288319,10362.883188
379.268838,-4366.744339,-2220.617826,11251.130318
379.269146,-5132.839837,-3627.009116,13175.665768
379.269455,-5286.058936,-3404.947333,13619.789333
379.269763,-3370.820191,-1628.453072,12953.603985
379.270071,-1915.238745,-740.205942,9548.656652
379.270379,-459.657299,-0.000000,7624.121203
379.270687,0.000000,-370.102971,8734.430116
379.270995,-153.219100,-666.185348,9030.512492
379.271303,-459.657299,666.185348,8290.306550
379.271611,-1225.752797,1924.535449,7920.203579
379.271919,0.000000,2738.761985,8290.306550
379.272227,612.876398,4219.173869,8438.347739
379.272535,842.705048,4219.173869,7105.977043
379.272844,1762.019645,3552.988522,8290.306550
379.273152,76.609550,2146.597232,8808.450710
379.273460,-1991.848295,-1110.308913,12213.398043
379.273768,-3524.039291,-3034.844362,13397.727550
379.274076,-3753.867940,-2886.803174,12509.480420
379.274384,-3753.867940,-2590.720797,12287.418637
379.274692,-995.924147,-1184.329507,11473.192101
379.275000,383.047749,-222.061783,9918.759623
379.275308,1685.410096,370.102971,8142.265362
379.275616,1378.971896,-296.082377,7105.977043
379.275924,0.000000,-222.061783,8586.388927
379.276233,-1378.971896,-1258.350101,10436.903782
379.276541,-2221.676944,296.082377,10658.965565
379.276849,-919.314598,1850.514855,10066.800811
379.277157,306.438199,3256.906145,8882.471304
379.277465,2145.067394,4219.173869,7846.182985
379.277773,3600.648841,4811.338623,7105.977043
379.278081,3140.991542,2664.741391,7402.059420
379.278389,1608.800546,1554.432478,8586.388927
379.278697,-1225.752797,-296.082377,9992.780217
379.279005,-2987.772442,-1850.514855,11843.295072
379.279313,-2757.943793,-814.226536,12065.356855
379.279622,-1838.629195,-1554.432478,11917.315666
379.279930,-1072.533697,-1776.494261,11251.130318
379.280238,-1378.971896,-2220.617826,10214.842000
379.280546,-1072.533697,-3182.885551,11547.212695
379.280854,-2757.943793,-3182.885551,10362.883188
379.281162,-3600.648841,-2220.617826,11695.253884
379.281470,-1378.971896,-1184.329507,12583.501014
379.281778,-766.095498,1406.391290,9326.594869
379.282086,2528.115143,2368.659014,7402.059420
379.282394,4290.134789,4293.194464,5773.606348
379.282702,4979.620737,4293.194464,5107.421000
379.283011,3830.477490,2738.761985,6809.894666
379.283319,1685.410096,2368.659014,7179.997637
379.283627,0.000000,1702.473667,9400.615463
379.283935,-766.095498,814.226536,9474.636058
379.284243,-383.047749,296.082377,10140.821405
379.284551,76.609550,-0.000000,9696.697840
379.284859,-536.266849,-1332.370696,9770.718434
379.285167,-1532.190996,-2590.720797,10732.986159
379.285475,-2528.115143,-2886.803174,10955.047942
379.285783,-3600.648841,-2812.782580,12361.439231
379.286091,-3677.258390,-1850.514855,11917.315666
379.286400,-1072.533697,-666.185348,11177.109724
379.286708,995.924147,1036.288319,9400.615463
379.287016,2681.334243,1184.329507,7105.977043
379.287324,3677.258390,1628.453072,7920.203579
379.287632,2068.457845,1184.329507,8068.244768
379.287940,536.266849,814.226536,8956.491898
379.288248,0.000000,962.267725,10288.862594
379.288556,153.219100,296.082377,11029.068536
379.288864,689.485948,-0.000000,9178.553681
379.289172,1685.410096,-518.144159,8882.471304
379.289481,1838.629195,-1110.308913,9178.553681
379.289789,-306.438199,-2294.638420,9474.636058
379.290097,-766.095498,-1628.453072,10658.965565
379.290405,-1685.410096,-888.247130,10140.821405
379.290713,-689.485948,296.082377,10140.821405
379.291021,1455.581446,1332.370696,8882.471304
379.291329,3217.601092,2812.782580,7698.141797
379.291637,3907.087040,2368.659014,7254.018232
379.291945,3524.039291,1924.535449,7994.224174
379.292253,1455.581446,2072.576638,9178.553681
379.292561,-383.047749,962.267725,10955.047942
379.292870,-1302.362347,370.102971,11843.295072
379.293178,-995.924147,-518.144159,12287.418637
379.293486,153.219100,-1036.288319,11103.089130
379.293794,-766.095498,-1480.411884,9992.780217
379.294102,-919.314598,-2960.823768,11769.274478
379.294410,-1991.848295,-3256.906145,11695.253884
379.294718,-2145.067394,-1628.453072,11029.068536
379.295026,-1149.143247,-148.041188,10214.842000
379.295334,1149.143247,1998.556043,8956.491898
379.295642,2987.772442,3627.009116,6735.874072
379.295950,4979.620737,3701.029710,6513.812290
379.296259,5362.668486,2886.803174,6365.771101
379.296567,3830.477490,2516.700203,7920.203579
379.296875,1302.362347,2072.576638,8956.491898
379.297183,-153.219100,1184.329507,11177.109724
379.297491,0.000000,-0.000000,12435.459826
379.297799,229.828649,-518.144159,10881.027347
379.298107,153.219100,-1184.329507,9918.759623
379.298415,0.000000,-3034.844362,10955.047942
379.298723,-1915.238745,-2664.741391,11251.130318
379.299031,-1072.533697,-2590.720797,11547.212695
379.299339,-1608.800546,-1628.453072,10584.944971
379.299648,-612.876398,444.123565,10066.800811
379.299956,2298.286494,2072.576638,8734.430116
379.300264,2834.553343,3108.864956,7031.956449
379.300572,3983.696590,2442.679609,8142.265362
379.300880,3677.258390,1924.535449,7402.059420
379.301188,1532.190996,1628.453072,9178.553681
379.301496,306.438199,-296.082377,11547.212695
379.301804,-612.876398,-370.102971,11843.295072
379.302112,-766.095498,-1332.370696,12509.480420
379.302420,-153.219100,-1998.556043,9992.780217
379.302728,612.876398,-2590.720797,9548.656652
379.303037,0.000000,-3108.864956,10288.862594
379.303345,-766.095498,-2220.617826,9622.677246
379.303653,-1378.971896,-666.185348,9400.615463
379.303961,919.314598,1110.308913,9178.553681
379.304269,2145.067394,2294.638420,7624.121203
379.304577,4136.915689,4219.173869,5921.647536
379.304885,4979.620737,3330.926739,6291.750507
379.305193,3983.696590,2590.720797,7105.977043
379.305501,2298.286494,1628.453072,8734.430116
379.305809,306.438199,-0.000000,11547.212695
379.306117,-1762.019645,-962.267725,13323.706956
379.306426,-2374.896044,-1554.432478,12805.562797
379.306734,-1608.800546,-2220.617826,12361.439231
379.307042,-612.876398,-2738.761985,10584.944971
379.307350,-919.314598,-2960.823768,10066.800811
379.307658,-842.705048,-2886.803174,10584.944971
379.307966,-919.314598,-1332.370696,9622.677246
379.308274,-153.219100,444.123565,9844.739029
379.308582,1225.752797,2886.803174,8808.450710
379.308890,2604.724693,4441.235652,7105.977043
379.309198,4519.963438,4737.318029,6513.812290
379.309506,4596.572988,4071.132681,6439.791695
379.309815,3294.210641,2960.823768,8068.244768
379.310123,995.924147,2294.638420,9178.553681
379.310431,-536.266849,-0.000000,12287.418637
379.310739,-1608.800546,-1110.308913,13027.624579
379.311047,-1302.362347,-1406.391290,11991.336260
379.311355,-1149.143247,-2738.761985,10732.986159
379.311663,-1225.752797,-3552.988522,10066.800811
379.311971,-459.657299,-3552.988522,11325.150913
379.312279,-1532.190996,-2590.720797,9992.780217
379.312587,-1608.800546,-370.102971,10066.800811
379.312895,0.000000,1628.453072,9178.553681
379.313204,1915.238745,3182.885551,7994.224174
379.313512,4826.401637,4589.276840,7254.018232
379.313820,5669.106685,4737.318029,5847.626942
379.314128,3753.867940,2960.823768,7772.162391
379.314436,1838.629195,1258.350101,9326.594869
379.314744,-306.438199,444.123565,10955.047942
379.315052,-2298.286494,-1850.514855,14285.974681
379.315360,-2145.067394,-3256.906145,13471.748144
379.315668,-2451.505594,-2664.741391,10436.903782
379.315976,-536.266849,-2886.803174,11473.192101
379.316285,0.000000,-3627.009116,10807.006753
379.316593,-536.266849,-1924.535449,9696.697840
379.316901,-536.266849,-592.164754,9548.656652
379.317209,306.438199,1332.370696,7920.203579
379.317517,2221.676944,2960.823768,7105.977043
379.317825,3600.648841,3997.112087,7105.977043
379.318133,4290.134789,4293.194464,6439.791695
379.318441,3753.867940,2738.761985,6513.812290
379.318749,2911.162892,1480.411884,9252.574275
379.319057,153.219100,962.267725,9918.759623
379.319365,-1608.800546,-888.247130,12879.583391
379.319674,-1378.971896,-2294.638420,14063.912898
379.319982,-4136.915689,-1480.411884,9992.780217
379.320290,1302.362347,-3404.947333,12583.501014
379.320598,-536.266849,-3034.844362,8290.306550
379.320906,0.000000,-1406.391290,8216.285956
379.321214,1072.533697,-1554.432478,10066.800811
379.321522,0.000000,1036.288319,7624.121203
379.321830,612.876398,1998.556043,9030.512492
379.322138,3140.991542,3627.009116,7031.956449
379.322446,4290.134789,4145.153275,7328.038826
379.322754,3524.039291,3256.906145,6661.853478
379.323063,3524.039291,1628.453072,7920.203579
379.323371,612.876398,1184.329507,10436.903782
379.323679,-995.924147,-1406.391290,11917.315666
379.323987,-2145.067394,-1998.556043,13027.624579
379.324295,-2068.457845,-2368.659014,11843.295072
379.324603,-689.485948,-3330.926739,11325.150913
379.324911,-689.485948,-3256.906145,9918.759623
379.325219,689.485948,-2590.720797,10214.842000
379.325527,-306.438199,-2368.659014,9918.759623
379.325835,-612.876398,370.102971,8216.285956
379.326143,1302.362347,1258.350101,9400.615463
379.326452,2298.286494,3701.029710,7476.080014
379.326760,4366.744339,4515.256246,6883.915261
379.327068,4903.011187,4071.132681,5847.626942
379.327376,3370.820191,2516.700203,7402.059420
379.327684,2221.676944,1184.329507,9474.636058
379.327992,-536.266849,444.123565,11103.089130
379.328300,-2374.896044,-1628.453072,13915.871710
379.328608,-2221.676944,-2516.700203,13027.624579
379.328916,-1685.410096,-1628.453072,11843.295072
379.329224,-766.095498,-2812.782580,10140.821405
379.329532,-306.438199,-3256.906145,9992.780217
379.329841,-306.438199,-1998.556043,10362.883188
379.330149,-766.095498,-888.247130,9770.718434
379.330457,-459.657299,1036.288319,9030.512492
379.330765,1455.581446,3256.906145,8882.471304
379.331073,2681.334243,4071.132681,7846.182985
379.331381,4136.915689,5477.523971,6069.688724
379.331689,4366.744339,4145.153275,6143.709319
379.331997,2604.724693,2738.761985,7772.162391
379.332305,766.095498,1480.411884,9770.718434
379.332613,-1225.752797,-296.082377,12731.542202
379.332921,-2911.162892,-1924.535449,13767.830521
379.333230,-2221.676944,-2812.782580,12435.459826
379.333538,-1685.410096,-3034.844362,11251.130318
379.333846,0.000000,-3923.091493,11029.068536
379.334154,0.000000,-2886.803174,9400.615463
379.334462,-689.485948,-1776.494261,9474.636058
379.334770,0.000000,-296.082377,9104.533087
379.335078,536.266849,1628.453072,8290.306550
379.335386,2451.505594,3256.906145,8364.327145
379.335694,4903.011187,3775.050304,6513.812290
379.336002,4749.792088,4441.235652,5773.606348
379.336310,3907.087040,2738.761985,7846.182985
379.336619,2068.457845,1406.391290,9326.594869
379.336927,-612.876398,-296.082377,11843.295072
379.337235,-2604.724693,-2368.659014,14582.057057
379.337543,-2145.067394,-3034.844362,12731.542202
379.337851,-1532.190996,-3182.885551,11399.171507
379.338159,-153.219100,-4145.153275,11399.171507
379.338467,-612.876398,-3701.029710,10214.842000
379.338775,-306.438199,-2442.679609,9992.780217
379.339083,-536.266849,-740.205942,9104.533087
379.339391,919.314598,1776.494261,8142.265362
379.339699,2451.505594,3256.906145,6883.915261
379.340008,4443.353888,4811.338623,6217.729913
379.340316,4903.011187,4219.173869,5699.585753
379.340624,4979.620737,3997.112087,6513.812290
379.340932,2221.676944,3256.906145,8364.327145
379.341240,0.000000,962.267725,10362.883188
379.341548,-1378.971896,-814.226536,13249.686362
379.341856,-3217.601092,-1924.535449,13693.809927
379.342164,-2374.896044,-2886.803174,12953.603985
379.342472,-1991.848295,-2886.803174,10288.862594
379.342780,-459.657299,-3627.009116,11177.109724
379.343089,-1072.533697,-2886.803174,10214.842000
379.343397,-383.047749,-1184.329507,10140.821405
379.343705,306.438199,592.164754,8734.430116
379.344013,1455.581446,3478.967927,6587.832884
379.344321,3524.039291,3701.029710,6957.935855
379.344629,5056.230287,4959.379811,5847.626942
379.344937,4749.792088,4293.194464,6513.812290
379.345245,3447.429741,2442.679609,8068.244768
379.345553,1532.190996,1110.308913,9992.780217
379.345861,-1378.971896,-666.185348,13027.624579
379.346169,-2681.334243,-2146.597232,14434.015869
379.346478,-2451.505594,-3034.844362,14137.933492
379.346786,-2221.676944,-2368.659014,10658.965565
379.347094,-1149.143247,-3701.029710,10510.924376
379.347402,0.000000,-3923.091493,10584.944971
379.347710,-153.219100,-2072.576638,9252.574275
379.348018,-766.095498,-370.102971,8364.327145
379.348326,2451.505594,1776.494261,9030.512492
379.348634,3064.381992,4219.173869,7254.018232
379.348942,4366.744339,4959.379811,6069.688724
379.349250,6281.983084,4737.318029,6809.894666
379.349558,4519.963438,3775.050304,6291.750507
379.349867,1225.752797,1554.432478,10214.842000
379.350175,536.266849,592.164754,12065.356855
379.350483,-3064.381992,-1628.453072,13989.892304
379.350791,-4060.306139,-2368.659014,15174.221811
379.351099,-1915.238745,-2590.720797,12065.356855
379.351407,-2068.457845,-2368.659014,10732.986159
379.351715,-766.095498,-3849.070898,11621.233289
379.352023,153.219100,-2442.679609,9252.574275
379.352331,-459.657299,-740.205942,9474.636058
379.352639,76.609550,222.061783,8808.450710
379.352947,1685.410096,3182.885551,7105.977043
379.353256,3753.867940,4589.276840,7846.182985
379.353564,4979.620737,4811.338623,5921.647536
379.353872,4749.792088,4885.359217,5329.482782
379.354180,3677.258390,2812.782580,7920.203579
379.354488,1149.143247,1332.370696,9622.677246
379.354796,-1302.362347,148.041188,11251.130318
379.355104,-2681.334243,-2072.576638,13471.748144
379.355412,-1838.629195,-3108.864956,12805.562797
379.355720,-2911.162892,-2738.761985,10362.883188
379.356028,-1149.143247,-4293.194464,11991.336260
379.356336,-306.438199,-3256.906145,10066.800811
379.356644,-919.314598,-2368.659014,9548.656652
379.356952,-383.047749,-1406.391290,9474.636058
379.357261,842.705048,518.144159,7994.224174
379.357569,2451.505594,2220.617826,8068.244768
379.357877,4596.572988,3923.091493,6143.709319
379.358185,5515.887586,4663.297435,5033.400406
379.358493,4213.525239,3034.844362,6957.935855
379.358801,2451.505594,1924.535449,8734.430116
379.359109,459.657299,518.144159,11251.130318
379.359417,-2374.896044,-1110.308913,13175.665768
