#time,accel_x,accel_y,accel_z
865.158378,-172.283227,-880.558717,-9571.290400
865.160530,-76.570323,-861.416136,-9743.573627
865.162681,-95.712904,-899.701298,-9667.003304
865.164833,-114.855485,-899.701298,-9628.718142
865.166985,-57.427742,-918.843878,-9686.145885
865.169136,-172.283227,-918.843878,-9628.718142
865.171288,-38.285162,-918.843878,-9609.575562
865.173439,-57.427742,-880.558717,-9628.718142
865.175591,-57.427742,-880.558717,-9647.860723
865.177743,-133.998066,-842.273555,-9571.290400
865.179894,-95.712904,-918.843878,-9667.003304
865.182046,95.712904,-1148.554848,-9322.436850
865.184198,-172.283227,-1014.556782,-9647.860723
865.186349,344.566454,-1665.404530,-9456.434915
865.188501,-172.283227,-2928.814862,-8882.157491
865.190652,-459.421939,-5015.356170,-10107.282662
865.192804,210.568389,-9303.294269,-8805.587168
865.194956,-727.418070,-10260.423309,-10566.704602
865.197107,-38.285162,-10183.852986,-9150.153622
865.199259,248.853550,-4096.512291,-8882.157491
865.201411,-861.416136,1167.697429,-11944.970419
865.203562,842.273555,1225.125171,-7714.460062
865.205714,-1282.552914,1454.836141,-10088.140082
865.208144,727.418070,-3656.232933,-8652.446522
865.210567,-95.712904,-4019.941968,-10451.849117
865.212990,-937.986459,-9226.723946,-10183.852986
865.215414,803.988394,-11217.552349,-7025.327154
865.217837,-0.000000,-4728.217458,-11753.544611
865.220260,-1091.127106,-1990.828403,-11849.257515
865.222684,631.705166,-2469.392923,-5838.487144
865.225107,-535.992262,1186.840010,-9590.432981
865.227531,918.843878,1225.125171,-12423.534939
865.229954,803.988394,-4709.074877,-6183.053598
865.232377,-1722.832272,-7312.465866,-7082.754896
865.234801,1875.972918,-9418.149754,-13686.945272
865.237224,1933.400661,-7178.467800,-6929.614250
865.239647,-4613.361973,2335.394858,-14701.502054
865.242071,3349.951640,306.281293,-4479.363907
865.244494,-1320.838075,6661.618118,-9781.858789
865.246917,-459.421939,6010.770371,-13342.378818
865.249341,1378.265818,172.283227,-7618.747158
865.251764,-574.277424,-3349.951640,-6049.055533
865.254187,-38.285162,-6967.899411,-15046.068509
865.256611,1205.982590,-6776.473603,-7599.604578
865.259034,-4460.221326,-2813.959378,-4096.512291
865.261457,4115.654872,-5302.494882,-21765.114370
865.263881,-1225.125171,4211.367776,-6049.055533
865.266304,-4307.080680,9954.142016,-3885.943902
865.268728,5283.352301,95.712904,-15964.912387
865.271151,-2450.250342,3483.949706,-5819.344563
865.273574,1780.260014,-3273.381317,-11657.831707
865.275998,-153.140646,-7274.180704,-13591.232368
865.278421,-3158.525832,-3483.949706,-6278.766502
865.280844,3139.383251,-5245.067139,-8939.585234
865.283268,-2067.398726,2239.681954,-14337.793019
865.285691,440.279358,4287.938099,-7159.325219
865.288114,-1799.402595,5398.207786,-6317.051664
865.290538,823.130974,1588.834206,-16003.197549
865.292961,3598.805190,-4479.363907,-842.273555
865.295384,-5321.637462,-2143.969050,-15907.484645
865.297808,6374.479406,-11562.118803,-6163.911018
865.300231,-6412.764568,0.000000,-14548.361408
865.302654,-2335.394858,650.847747,-4000.799387
865.305189,5015.356170,-1665.404530,-19200.008542
865.307723,-440.279358,4632.504554,-1129.412267
865.310257,-1205.982590,3732.803256,-11313.265253
865.312791,3101.098090,-2737.389054,-17075.182074
865.315325,-3809.373579,669.990328,2220.539373
865.317859,-344.566454,-4517.649069,-16386.049165
865.320393,5895.914886,-9073.583299,-11562.118803
865.322927,-5838.487144,172.283227,-3503.092286
865.325461,2450.250342,-2660.818731,-12825.529136
865.327995,1569.691626,-1091.127106,-13361.521398
865.330529,-4594.219392,6068.198114,-4402.793584
865.333063,3426.521963,-516.849682,-10470.991698
865.335598,1473.978722,535.992262,-17381.463366
865.338132,-8843.872330,5340.780043,10624.132344
865.340666,7312.465866,-9552.147819,-26263.620858
865.343200,-4632.504554,-440.279358,-9494.720077
865.345734,1435.693560,-4996.213589,7465.606512
865.348268,-3541.377448,-823.130974,-21726.829208
865.350802,-1512.263883,1339.980656,-3809.373579
865.353336,3771.088418,957.129040,-3311.666478
865.355870,-2124.826469,4192.225195,-24445.075682
865.358404,2431.107762,1091.127106,-574.277424
865.360938,38.285162,-1627.119368,-4900.500685
865.363472,-4555.934230,-1397.408398,-19774.285966
865.366007,114.855485,-4326.223261,-4957.928427
865.368541,-1493.121302,-1971.685822,-8422.735552
865.371075,2507.678085,-3866.801322,-14969.498186
865.373609,-2526.820666,803.988394,-6451.049730
865.376143,995.414202,1588.834206,-4536.791650
865.378677,555.134843,650.847747,-21229.122107
865.381211,-1205.982590,2603.390989,1531.406464
865.383745,1225.125171,-1875.972918,-13591.232368
865.386321,-38.285162,-2967.100024,-12098.111066
865.388898,1129.412267,-3158.525832,1588.834206
865.391474,-2986.242605,-1473.978722,-21229.122107
865.394050,823.130974,976.271621,-7293.323285
865.396626,3349.951640,-1416.550979,-3847.658741
865.399202,-3637.090352,2450.250342,-16788.043362
865.401779,1339.980656,-1148.554848,-8901.300072
865.404355,957.129040,-2469.392923,-3445.664544
865.406931,-2086.541307,-1052.841944,-17438.891109
865.409507,1167.697429,-3292.523898,-7331.608446
865.412083,-267.996131,-593.420005,-4307.080680
865.414660,1875.972918,-3426.521963,-19448.862093
865.417236,-2737.389054,1875.972918,-2947.957443
865.419812,-2603.390989,3139.383251,-8518.448456
865.422388,5149.354235,-4326.223261,-16079.767872
865.424964,-5647.061336,4862.215523,497.707101
865.427541,7274.180704,-7350.751027,-13418.949141
865.430117,-5168.496816,210.568389,-12634.103328
865.432693,937.986459,-2431.107762,-3426.521963
865.435269,478.564520,-2699.103893,-11370.692995
865.437845,-2335.394858,995.414202,-13246.665914
865.440421,2067.398726,-2622.533570,-4211.367776
865.442998,-382.851616,344.566454,-9494.720077
865.445574,-2488.535504,2373.680019,-13533.804626
865.448150,4804.787781,-1780.260014,-1014.556782
865.450726,-5455.635528,3503.092286,-16596.617554
865.453302,4441.078746,-4498.506488,-9265.009107
865.455879,-2009.970984,-1071.984525,-4326.223261
865.458455,-478.564520,-2833.101958,-17132.609816
865.461031,1493.121302,-3732.803256,-9379.864592
865.463607,-248.853550,-133.998066,-7580.461997
865.466183,210.568389,-1167.697429,-13074.382686
865.468760,784.845813,114.855485,-8786.444587
865.471336,1167.697429,478.564520,-11140.982026
865.473912,-3388.236802,3330.809059,-6738.188442
865.476488,478.564520,-1282.552914,-13208.380752
865.479064,497.707101,-2488.535504,-8480.163294
865.481641,-574.277424,-3177.668413,-7637.889739
865.484217,-401.994197,-2756.531635,-10777.272990
865.486793,1435.693560,-3732.803256,-10241.280728
865.489386,-2813.959378,1091.127106,-6604.190376
865.491979,1569.691626,-516.849682,-12825.529136
865.494572,1741.974853,-784.845813,-9226.723946
865.497165,-1799.402595,3388.236802,-3464.807125
865.499758,689.132909,727.418070,-13189.238171
865.502351,421.136778,-612.562586,-5283.352301
865.504944,-1071.984525,-1933.400661,-8384.450390
865.507537,-133.998066,-4575.076811,-14854.642701
865.510130,-306.281293,-3407.379382,-4575.076811
865.512723,-535.992262,-2029.113565,-11198.409768
865.515315,-3694.518094,1071.984525,-9016.155557
865.517908,4268.795518,-1856.830338,-13380.663979
865.520501,172.283227,2239.681954,-4900.500685
865.523094,-535.992262,3177.668413,-8461.020714
865.525687,478.564520,57.427742,-16290.336261
865.528280,-1416.550979,421.136778,-669.990328
865.530873,478.564520,-3885.943902,-14088.939469
865.533466,612.562586,-4900.500685,-13591.232368
865.536059,-1990.828403,-1895.115499,-3656.232933
865.538652,765.703232,-1837.687757,-15696.916256
865.541245,-1416.550979,1148.554848,-9820.143950
865.543838,1761.117434,-306.281293,-3771.088418
865.546431,-727.418070,1052.841944,-14663.216893
865.549024,1454.836141,-1531.406464,-9399.007173
865.551617,-1684.547110,114.855485,-8020.741355
865.554210,-535.992262,-1569.691626,-12251.251712
865.556803,1550.549045,-3273.381317,-9552.147819
865.559396,-899.701298,-861.416136,-6374.479406
865.561989,-114.855485,-1703.689691,-14184.652373
865.564582,-1722.832272,248.853550,-6853.043926
865.567174,210.568389,593.420005,-10011.569758
865.569767,2067.398726,-1493.121302,-9111.868461
865.572360,-2067.398726,210.568389,-10394.421374
865.574953,1129.412267,-1914.258080,-7159.325219
865.577546,-708.275490,-1761.117434,-8595.018779
865.580139,-3637.090352,248.853550,-12308.679454
865.582732,1952.543242,-2813.959378,-5742.774240
865.585325,-1837.687757,-746.560651,-15658.631094
865.587918,2411.965181,-708.275490,-7044.469734
865.590511,-746.560651,1301.695494,-6240.481341
865.592945,-76.570323,382.851616,-13648.660110
865.595379,1225.125171,-1129.412267,-11045.269122
865.597813,-2986.242605,191.425808,-3943.371645
865.600246,2699.103893,-4709.074877,-14127.224630
865.602680,1282.552914,-4536.791650,-9724.431046
865.605114,-4211.367776,1569.691626,-7637.889739
865.607548,8020.741355,-5225.924558,-14395.220762
865.609982,-4115.654872,4211.367776,-1684.547110
865.612416,-2622.533570,3292.523898,-9016.155557
865.614850,861.416136,-3503.092286,-23507.089222
865.617283,-1761.117434,-114.855485,4115.654872
865.619717,3445.664544,-5551.348432,-14605.789150
865.622151,-3235.096155,-306.281293,-17132.609816
865.624585,746.560651,-1493.121302,3866.801322
865.627019,3483.949706,-3790.230998,-16022.340130
865.629453,-3120.240670,1914.258080,-11715.259450
865.631887,-5915.057467,5972.485210,-6202.196179
865.634320,14337.793019,-7369.893608,-7503.891674
865.636754,-11102.696864,5264.209720,-16156.338195
865.639188,1646.261949,-1856.830338,-3924.229064
865.641622,4096.512291,-6565.905214,-10528.419440
865.644056,-6297.909083,1799.402595,-7599.604578
865.646490,5359.922624,-6068.198114,-15065.211090
865.648924,-2967.100024,727.418070,-4058.227130
865.651357,2411.965181,-1397.408398,-14127.224630
865.653791,-918.843878,1301.695494,-8786.444587
865.656225,-1780.260014,4000.799387,-4689.932296
865.658659,8422.735552,-5723.631659,-13093.525267
865.661093,-8863.014910,4326.223261,-10088.140082
865.663527,2928.814862,-4192.225195,-7503.891674
865.665961,133.998066,-4096.512291,-12614.960747
865.668394,-3828.516160,1091.127106,-7465.606512
865.670828,6317.051664,-6412.764568,-15926.627226
865.673262,-6336.194245,4441.078746,-1895.115499
865.675696,3330.809059,-2507.678085,-13859.228499
865.678130,-612.562586,995.414202,-7829.315547
865.680564,-1454.836141,1071.984525,-7676.174901
865.682998,3905.086483,-3483.949706,-14605.789150
865.685431,1148.554848,-2009.970984,-382.851616
865.687865,-3043.670347,-918.843878,-20616.559522
865.690363,3158.525832,-2584.248408,-1914.258080
865.692862,-2603.390989,210.568389,-10719.845248
865.695360,1780.260014,-1014.556782,-15084.353670
865.697858,-2029.113565,363.709035,-6661.618118
865.700356,1722.832272,-1895.115499,-7963.313613
865.702854,287.138712,-1244.267752,-14376.078181
865.705352,-2794.816797,1512.263883,-5704.489078
865.707851,3503.092286,-2947.957443,-10604.989763
865.710349,-2928.814862,1091.127106,-12059.825904
865.712847,1186.840010,-976.271621,-5915.057467
865.715345,1914.258080,-4173.082614,-10202.995566
865.717843,-1818.545176,593.420005,-14165.509792
865.720341,842.273555,-1550.549045,-4134.797453
865.722839,-440.279358,-535.992262,-16232.908518
865.725338,1282.552914,-995.414202,-9513.862658
865.727836,-2469.392923,3656.232933,-2105.683888
865.730334,3158.525832,440.279358,-18912.869830
865.732832,-3522.234867,6833.901346,-9035.298138
865.735330,2794.816797,3177.668413,-5589.633594
865.737828,-2507.678085,4843.072942,-15830.914322
865.740327,1282.552914,1244.267752,-6776.473603
865.742825,574.277424,-191.425808,-8422.735552
865.745323,-937.986459,1263.410333,-12672.388490
865.747821,-38.285162,1569.691626,-11045.269122
865.750319,-478.564520,191.425808,-3905.086483
865.752817,229.710970,-440.279358,-15314.064640
865.755315,-306.281293,6470.192310,-8518.448456
865.757814,1167.697429,2354.537438,-6910.471669
865.760312,-1646.261949,3981.656806,-13418.949141
865.762810,-248.853550,3139.383251,-3445.664544
865.765308,803.988394,3158.525832,-9992.427178
865.767806,-957.129040,1033.699363,-14356.935600
865.770304,516.849682,-344.566454,-5091.926493
865.772803,38.285162,-363.709035,-9226.723946
865.775301,-784.845813,1569.691626,-14950.355605
865.777799,344.566454,2756.531635,-4957.928427
865.780297,114.855485,3196.810994,-10700.702667
865.782795,-382.851616,3388.236802,-12672.388490
865.785293,-191.425808,-325.423874,-5685.346498
865.787791,-248.853550,-995.414202,-11006.983960
865.790328,-0.000000,-1244.267752,-12806.386555
865.792865,-459.421939,401.994197,-5245.067139
865.795401,421.136778,746.560651,-11657.831707
865.797938,-382.851616,6068.198114,-10700.702667
865.800475,459.421939,6967.899411,-4938.785846
865.803011,57.427742,9647.860723,-14567.503989
865.805548,-612.562586,6948.756830,-7982.456194
865.808084,-287.138712,287.138712,-5608.776174
865.810621,1416.550979,-3330.809059,-15467.205286
865.813158,-1818.545176,-1129.412267,-7082.754896
865.815694,1244.267752,-4173.082614,-7714.460062
865.818231,-153.140646,746.560651,-13361.521398
865.820768,-363.709035,3598.805190,-6872.186507
865.823304,1014.556782,5723.631659,-11657.831707
865.825841,-1339.980656,8059.026517,-12136.396227
865.828377,784.845813,3043.670347,-4785.645200
865.830914,133.998066,2220.539373,-10624.132344
865.833451,516.849682,1454.836141,-13725.230434
865.835987,-1416.550979,-382.851616,-8269.594906
865.838524,1263.410333,-4211.367776,-12519.247843
865.841061,-1378.265818,535.992262,-5953.342629
865.843597,823.130974,2775.674216,-12059.825904
865.846134,-325.423874,3694.518094,-12059.825904
865.848670,1837.687757,3158.525832,-5283.352301
865.851207,-2852.244539,4364.508422,-10222.138147
865.853744,1914.258080,-1703.689691,-14471.791085
865.856280,823.130974,-5608.776174,-1205.982590
865.858817,1052.841944,-7580.461997,-13399.806560
865.861354,-3273.381317,-3311.666478,-15486.347867
865.863890,1646.261949,-3426.521963,-3656.232933
865.866427,421.136778,-306.281293,-11925.827838
865.868964,-2373.680019,4536.791650,-11887.542677
865.871500,2565.105827,3483.949706,-5685.346498
865.874037,-1818.545176,1722.832272,-12825.529136
865.876573,-248.853550,-2201.396792,-10107.282662
865.879110,325.423874,-3483.949706,-5781.059402
865.881647,-612.562586,-4862.215523,-11428.120738
865.884183,-631.705166,-3637.090352,-12289.536874
865.886720,555.134843,-2124.826469,-7159.325219
865.889257,516.849682,2105.683888,-9150.153622
865.891815,-1091.127106,1761.117434,-9226.723946
865.894373,1416.550979,0.000000,-12040.683323
865.896932,-1837.687757,2105.683888,-4804.787781
865.899490,1416.550979,-2411.965181,-12270.394293
865.902048,-1282.552914,-1607.976787,-10490.134278
865.904607,861.416136,-3579.662610,-6259.623922
865.907165,650.847747,-3369.094221,-12117.253646
865.909724,-3617.947771,-95.712904,-9188.438784
865.912282,5761.916821,-3503.092286,-13093.525267
865.914840,-2986.242605,4441.078746,-535.992262
865.917399,2890.529701,459.421939,-11772.687192
865.919957,-2201.396792,918.843878,-14682.359474
865.922515,957.129040,-1837.687757,-4670.789715
865.925074,746.560651,-2775.674216,-8748.159426
865.927632,-2316.252277,-2163.111630,-16500.904650
865.930190,2239.681954,-4211.367776,-3751.945837
865.932749,-1320.838075,-631.705166,-9322.436850
865.935307,-1339.980656,325.423874,-14701.502054
865.937866,957.129040,2048.256146,-7733.602643
865.940424,-1627.119368,3196.810994,-7140.182638
865.942982,12327.822035,-6814.758765,-4173.082614
865.945541,-7657.032320,-153.140646,-17324.035624
865.948099,-8633.303941,3081.955509,-10413.563955
865.950657,8824.729749,-7695.317482,382.851616
865.953216,-12768.101394,7733.602643,-16290.336261
865.955774,8729.016845,-5742.774240,-17572.889174
865.958333,-2297.109696,2239.681954,5742.774240
865.960891,-1454.836141,2584.248408,-17783.457563
865.963449,2239.681954,-3962.514226,-19908.284032
865.966008,-4938.785846,2813.959378,5264.209720
865.968566,2373.680019,-3579.662610,-6623.332957
865.971124,2220.539373,-5915.057467,-23143.380187
865.973683,-4517.649069,880.558717,-4173.082614
865.976241,7350.751027,-6470.192310,-3445.664544
865.978800,-6374.479406,4479.363907,-17726.029821
865.981358,2373.680019,38.285162,-7101.897477
865.983916,2124.826469,-38.285162,-3924.229064
865.986475,-593.420005,-2373.680019,-12193.823970
865.989033,-2813.959378,-1225.125171,-14031.511726
865.991591,976.271621,-612.562586,-2641.676150
865.994164,1244.267752,-2947.957443,-13648.660110
865.996737,-3426.521963,918.843878,-12634.103328
865.999310,1014.556782,-2239.681954,-3388.236802
866.001883,1895.115499,-1990.828403,-14529.218827
866.004456,-4268.795518,3215.953574,-8059.026517
866.007029,3541.377448,-2756.531635,-9073.583299
866.009602,-1129.412267,1110.269686,-8824.729749
866.012175,-114.855485,-1761.117434,-7810.172966
866.014748,2239.681954,-4039.084549,-14452.648504
866.017321,-4192.225195,765.703232,-6278.766502
866.019894,3847.658741,-4077.369710,-10987.841379
866.022467,-3330.809059,976.271621,-10872.985894
866.025040,995.414202,-1416.550979,-7580.461997
866.027613,3235.096155,-1359.123237,-12729.816232
866.030186,-4536.791650,3483.949706,-3426.521963
866.032759,3981.656806,-2813.959378,-15486.347867
866.035332,-1378.265818,344.566454,-6489.334891
866.037905,-535.992262,-2431.107762,-9035.298138
866.040478,-1914.258080,-1933.400661,-15907.484645
866.043051,-114.855485,-1454.836141,-2928.814862
866.045624,-153.140646,-516.849682,-11389.835576
866.048197,1167.697429,-1167.697429,-13725.230434
866.050770,-3349.951640,2373.680019,-5857.629725
866.053343,4517.649069,-3656.232933,-9934.999435
866.055916,-2871.387120,976.271621,-13935.798822
866.058489,803.988394,-957.129040,-6163.911018
866.061062,555.134843,-2239.681954,-8863.014910
866.063635,-1722.832272,-306.281293,-9896.714274
866.066208,1148.554848,-3407.379382,-7905.885870
866.068781,-1722.832272,-38.285162,-12691.531070
866.071354,19.142581,-267.996131,-5570.491013
866.073927,1665.404530,-2316.252277,-11849.257515
866.076500,-4632.504554,2373.680019,-12117.253646
866.079073,4517.649069,-3713.660675,-1205.982590
866.081646,-1416.550979,248.853550,-15620.345933
866.084219,-689.132909,153.140646,-7982.456194
866.086792,2124.826469,-1244.267752,-6259.623922
866.089365,-2584.248408,689.132909,-12155.538808
866.091938,2469.392923,-3005.385186,-8920.442653
866.094511,-3617.947771,880.558717,-11274.980091
866.097091,1435.693560,-1282.552914,-5704.489078
866.099672,1339.980656,-2545.963246,-10777.272990
866.102252,-1359.123237,-574.277424,-15007.783347
866.104833,899.701298,-1607.976787,-1225.125171
866.107413,1607.976787,-2584.248408,-16673.187877
866.109994,-3885.943902,2316.252277,-7791.030386
866.112574,2086.541307,-689.132909,-8288.737486
866.115155,-1435.693560,631.705166,-8901.300072
866.117735,612.562586,-76.570323,-11600.403965
866.120316,-114.855485,-2124.826469,-8977.870395
866.122896,-2871.387120,1416.550979,-11332.407834
866.125477,6661.618118,-5781.059402,-6585.047795
866.128057,-3483.949706,-114.855485,-10604.989763
866.130638,-2794.816797,-937.986459,-15639.488514
866.133218,4575.076811,-4594.219392,-1167.697429
866.135799,-1339.980656,765.703232,-13265.808494
866.138379,478.564520,-8786.444587,-12653.245909
866.140959,1665.404530,1359.123237,-2794.816797
866.143540,-1799.402595,325.423874,-14376.078181
866.146120,2124.826469,-4039.084549,-10643.274925
866.148701,-2967.100024,-497.707101,-8480.163294
866.151281,3503.092286,-4728.217458,-7465.606512
866.153862,-3579.662610,555.134843,-14778.072378
866.156442,-210.568389,-708.275490,-8020.741355
866.159023,6470.192310,-7197.610381,325.423874
866.161603,-4823.930362,1186.840010,-31432.117674
866.164184,-95.712904,3177.668413,-95.712904
866.166764,497.707101,2277.967115,248.853550
866.169345,-1684.547110,1129.412267,-20405.991133
866.171925,937.986459,-535.992262,-7503.891674
866.174506,172.283227,-3235.096155,1416.550979
866.177086,-478.564520,-4211.367776,-20827.127910
866.179667,957.129040,-3388.236802,-1493.121302
866.182247,-2029.113565,-976.271621,-9973.284597
866.184828,1071.984525,-2679.961312,-19161.723381
866.187408,-3062.812928,4077.369710,76.570323
866.189989,5015.356170,574.277424,-13150.953010
866.192569,-3809.373579,3522.234867,-12844.671717
866.195150,5072.783912,-2143.969050,-2009.970984
866.197730,-2029.113565,-2641.676150,-14069.796888
866.200314,-3962.514226,-2277.967115,-15620.345933
866.202898,2890.529701,-5053.641331,1703.689691
866.205481,-95.712904,-2699.103893,-16347.764003
866.208064,-2679.961312,574.277424,-16941.184008
866.210647,2124.826469,-153.140646,3713.660675
866.213231,-3349.951640,2890.529701,-17438.891109
866.215814,3771.088418,-1148.554848,-5991.627790
866.218397,-4211.367776,3349.951640,344.566454
866.220980,3024.527766,-4881.358104,-27105.894413
866.223564,-784.845813,-3158.525832,-1301.695494
866.226147,669.990328,-3464.807125,-7867.600709
866.228730,-2909.672282,-1454.836141,-17572.889174
866.231314,3522.234867,-1359.123237,-2373.680019
866.233897,-650.847747,1225.125171,-11906.685258
866.236480,-1301.695494,1378.265818,-14758.929797
866.239063,1339.980656,-803.988394,-4766.502619
866.241647,-1761.117434,19.142581,-8365.307810
866.244230,574.277424,-2622.533570,-18702.301442
866.246813,133.998066,-2009.970984,765.703232
866.249397,-612.562586,-1512.263883,-14012.369146
866.251980,-229.710970,-2105.683888,-12940.384621
866.254563,-229.710970,937.986459,2143.969050
866.257146,1282.552914,-2048.256146,-17247.465301
866.259730,1186.840010,-382.851616,-12557.533005
866.262313,-2986.242605,2794.816797,1301.695494
866.264896,2565.105827,-4058.227130,-18683.158861
866.267479,-0.000000,-2316.252277,-7159.325219
866.270063,-1550.549045,-1263.410333,-6776.473603
866.272646,-363.709035,-1627.119368,-13514.662045
866.275229,-2833.101958,-1091.127106,-9035.298138
866.277813,3292.523898,-2890.529701,-9322.436850
866.280396,-287.138712,2660.818731,-13495.519464
866.282979,1129.412267,1607.976787,-3407.379382
866.285562,2584.248408,-287.138712,-15160.923994
866.288146,-3943.371645,2182.254211,-6431.907149
866.290729,3215.953574,-6202.196179,-9131.011042
866.293312,-1914.258080,-3771.088418,-14318.650438
866.295895,191.425808,-4421.936165,-4383.651003
866.298479,1780.260014,-2507.678085,-11504.691061
866.301062,-2737.389054,3177.668413,-12691.531070
866.303647,3177.668413,1914.258080,-5608.776174
866.306231,-2182.254211,3369.094221,-12155.538808
866.308816,1205.982590,-38.285162,-9456.434915
866.311400,-210.568389,-1454.836141,-7178.467800
866.313985,-1512.263883,-3196.810994,-11006.983960
866.316569,-2201.396792,-3847.658741,-12059.825904
866.319154,4364.508422,-5876.772306,-8461.020714
866.321738,-2699.103893,2392.822600,-4747.360038
866.324323,2641.676150,-421.136778,-17745.172402
866.326907,-574.277424,4039.084549,-4096.512291
866.329492,229.710970,-95.712904,-10681.560086
866.332076,3483.949706,-5493.920690,-14280.365277
866.334661,-5149.354235,1569.691626,-3503.092286
866.337245,5283.352301,-7695.317482,-10183.852986
866.339830,-3349.951640,-421.136778,-14222.937534
866.342414,-2239.681954,-229.710970,-4287.938099
866.344999,5340.780043,-3215.953574,-12404.392358
866.347583,-5130.211654,3866.801322,-8786.444587
866.350168,2067.398726,-2277.967115,-7178.467800
866.352752,-1320.838075,-2335.394858,-12978.669782
866.355337,-708.275490,-5532.205851,-5895.914886
866.357921,3273.381317,-11600.403965,-8288.737486
866.360506,-2947.957443,-6910.471669,-15716.058837
866.363090,1607.976787,-6795.616184,-4670.789715
866.365675,2086.541307,-3349.951640,-10777.272990
866.368259,-3349.951640,2143.969050,-13093.525267
866.370844,1339.980656,-2450.250342,-10681.560086
866.373428,-1148.554848,-1033.699363,-3541.377448
866.376013,-497.707101,-76.570323,-12557.533005
866.378597,-1493.121302,-6029.912952,-11217.552349
866.381182,995.414202,-9054.440718,-5647.061336
866.383766,-306.281293,-7867.600709,-9073.583299
866.386351,-995.414202,-3407.379382,-15716.058837
866.388935,421.136778,-2890.529701,-4632.504554
866.391520,-708.275490,-2316.252277,-9877.571693
866.394104,574.277424,-363.709035,-12634.103328
866.396689,-344.566454,-325.423874,-5761.916821
866.399273,-363.709035,-4498.506488,-11581.261384
866.401858,497.707101,-7561.319416,-9284.151688
866.404442,-344.566454,-6259.623922,-8499.305875
866.407025,248.853550,-1052.841944,-13897.513661
866.409607,-325.423874,248.853550,-5781.059402
866.412190,76.570323,-689.132909,-10049.854920
866.414772,363.709035,-2431.107762,-12174.681389
866.417354,-421.136778,-3235.096155,-5493.920690
866.419937,-76.570323,-5895.914886,-11983.255581
866.422519,-133.998066,-9360.722011,-9360.722011
866.425102,-267.996131,-9820.143950,-7503.891674
866.427684,325.423874,-9131.011042,-11983.255581
866.430267,-210.568389,-3541.377448,-8327.022648
866.432849,-172.283227,1531.406464,-10566.704602
866.435431,287.138712,727.418070,-9743.573627
866.438014,114.855485,-1091.127106,-7695.317482
866.440596,-1205.982590,-1588.834206,-11294.122672
866.443179,401.994197,-5340.780043,-8690.731683
866.445761,-2105.683888,-7599.604578,-9207.581365
866.448344,689.132909,-11849.257515,-11332.407834
866.450926,3005.385186,-5245.067139,-10222.138147
866.453508,-823.130974,1875.972918,-6317.051664
866.456091,-2909.672282,1435.693560,-12672.388490
866.458673,1531.406464,-2450.250342,-10394.421374
866.461256,746.560651,-1378.265818,-612.562586
866.463838,-1129.412267,-5168.496816,-19831.713709
866.466421,-478.564520,-8690.731683,-4402.793584
866.469003,1646.261949,-8250.452325,-5149.354235
866.471585,-229.710970,-3694.518094,-16768.900781
866.474168,-669.990328,-593.420005,-8863.014910
866.476750,-2469.392923,4173.082614,-5685.346498
866.479333,3254.238736,3866.801322,-13016.954944
866.481915,-1971.685822,5704.489078,-8939.585234
866.484498,1837.687757,-440.279358,-7523.034254
866.487080,-899.701298,-4804.787781,-11389.835576
866.489662,306.281293,-6297.909083,-8097.311678
866.492245,-976.271621,-4728.217458,-9054.440718
866.494827,612.562586,-3924.229064,-12251.251712
866.497410,440.279358,-133.998066,-10126.425243
866.499992,-1225.125171,3847.658741,-765.703232
866.502574,-3101.098090,6431.907149,-23277.378253
866.505157,4498.506488,-172.283227,-2871.387120
866.507739,-899.701298,57.427742,-5455.635528
866.510243,-1244.267752,-4077.369710,-18338.592406
866.512747,784.845813,-5398.207786,-6527.620053
866.515250,-880.558717,-3043.670347,-5781.059402
866.517754,153.140646,-2660.818731,-15716.058837
866.520258,459.421939,2201.396792,-3445.664544
866.522761,382.851616,2756.531635,-8786.444587
866.525265,-5379.065205,6565.905214,-18204.594341
866.527769,4383.651003,-3062.812928,3943.371645
866.530272,-765.703232,-4115.654872,-15907.484645
866.532776,-3464.807125,-2928.814862,-15294.922059
866.535280,3483.949706,-7427.321350,1818.545176
866.537783,-1301.695494,-3254.238736,-16232.908518
866.540287,191.425808,478.564520,-10088.140082
866.542791,-4402.793584,6738.188442,-6910.471669
866.545294,5417.350366,-248.853550,-8939.585234
866.547798,-3713.660675,3598.805190,-15409.777544
866.550302,1569.691626,-1722.832272,-3196.810994
866.552805,459.421939,-3962.514226,-6967.899411
866.555309,-4881.358104,-363.709035,-18223.736922
866.557813,9839.286531,-8499.305875,-1990.828403
866.560316,-5015.356170,1129.412267,-6891.329088
866.562820,-2220.539373,1110.269686,-19046.867896
866.565324,4670.789715,-2775.674216,-8556.733618
866.567827,-4977.071008,5379.065205,-19.142581
866.570331,2660.818731,-2335.394858,-22167.108566
866.572835,-995.414202,708.275490,-3809.373579
866.575338,95.712904,-2086.541307,-4345.365842
866.577842,803.988394,-4555.934230,-20788.842749
866.580346,-3081.955509,1416.550979,-2239.681954
866.582849,3254.238736,-4287.938099,-9016.155557
866.585353,-1091.127106,-1301.695494,-16079.767872
866.587857,-2833.101958,1799.402595,-1684.547110
866.590360,5264.209720,-2794.816797,-14031.511726
866.592864,-4134.797453,4441.078746,-6910.471669
866.595368,2775.674216,-2431.107762,-6585.047795
866.597871,-1473.978722,-1799.402595,-14299.507858
866.600375,1320.838075,-3905.086483,-5149.354235
866.602879,-1933.400661,-1033.699363,-13304.093656
866.605382,459.421939,-1550.549045,-7561.319416
866.607886,-1665.404530,1473.978722,-11868.400096
866.610409,2450.250342,-1684.547110,-7293.323285
866.612932,-555.134843,19.142581,-12174.681389
866.615454,-1454.836141,-57.427742,-7006.184573
866.617977,3177.668413,-3656.232933,-10662.417506
866.620500,-2431.107762,-95.712904,-9092.725880
866.623022,1263.410333,-2565.105827,-9360.722011
866.625545,746.560651,-2431.107762,-10911.271056
866.628068,-1856.830338,1033.699363,-8307.880067
866.630590,2048.256146,114.855485,-8097.311678
866.633113,-2220.539373,2507.678085,-9590.432981
866.635636,1416.550979,-2469.392923,-7714.460062
866.638158,-1875.972918,-2507.678085,-12155.538808
866.640681,421.136778,-3330.809059,-8575.876198
866.643204,1512.263883,-3158.525832,-10490.134278
866.645726,-2622.533570,1531.406464,-8173.882002
866.648249,1990.828403,-1052.841944,-11657.831707
866.650772,-382.851616,1091.127106,-8729.016845
866.653294,38.285162,76.570323,-6355.336826
866.655817,2124.826469,-1052.841944,-20157.137582
866.658340,-2488.535504,1607.976787,-38.285162
866.660862,-2967.100024,363.709035,-10700.702667
866.663385,2431.107762,-6833.901346,-22033.110501
866.665908,1129.412267,-2775.674216,95.712904
866.668430,-669.990328,-995.414202,-18089.738856
866.670953,95.712904,-784.845813,-14471.791085
866.673476,363.709035,1435.693560,3541.377448
866.675998,-363.709035,-248.853550,-17458.033690
866.678521,1665.404530,-1110.269686,-10470.991698
866.681044,-2143.969050,1225.125171,-3809.373579
866.683566,478.564520,-1320.838075,-13706.087853
866.686089,-823.130974,-2163.111630,-11581.261384
866.688612,899.701298,-2603.390989,-2679.961312
866.691135,-57.427742,-1761.117434,-14739.787216
866.693657,-2679.961312,1320.838075,-11045.269122
866.696180,6527.620053,-2833.101958,-9399.007173
866.698703,-4441.078746,2584.248408,-3732.803256
866.701225,440.279358,-325.423874,-17075.182074
866.703748,1780.260014,-3024.527766,-6374.479406
866.706271,-746.560651,-1052.841944,-5455.635528
866.708793,-3005.385186,-1033.699363,-20903.698234
866.711329,3522.234867,-3311.666478,-1895.115499
866.713865,-2258.824534,727.418070,-10662.417506
866.716401,363.709035,-76.570323,-15888.342064
866.718938,440.279358,1378.265818,-2277.967115
866.721474,-76.570323,-401.994197,-13342.378818
866.724010,746.560651,-2239.681954,-10030.712339
866.726546,-1569.691626,-823.130974,-7982.456194
866.729082,1301.695494,-3732.803256,-11849.257515
866.731618,153.140646,-2641.676150,-9552.147819
866.734154,-2947.957443,497.707101,-11619.546546
866.736690,4651.647134,-1607.976787,-10451.849117
866.739226,-38.285162,1301.695494,-6891.329088
866.741762,-2067.398726,2526.820666,-8307.880067
866.744298,-555.134843,57.427742,-10872.985894
866.746834,363.709035,-2699.103893,-10126.425243
866.749370,516.849682,-3311.666478,-6412.764568
866.751906,-1569.691626,-2679.961312,-12614.960747
866.754442,1186.840010,-2737.389054,-8805.587168
866.756979,-2699.103893,-344.566454,-4287.938099
866.759515,-1588.834206,1091.127106,-22071.395662
866.762051,4536.791650,76.570323,-3024.527766
866.764587,-3388.236802,4594.219392,-2871.387120
866.767123,325.423874,-229.710970,-21343.977592
866.769659,1493.121302,-2258.824534,-5915.057467
866.772195,1799.402595,-2143.969050,-2469.392923
866.774731,-2105.683888,-2852.244539,-23219.950510
866.777267,19.142581,-2986.242605,153.140646
866.779803,727.418070,-3177.668413,-16405.191746
866.782339,-1741.974853,-287.138712,-11523.833642
866.784875,1933.400661,114.855485,-1531.406464
866.787411,-2909.672282,3503.092286,-16137.195614
866.789947,1665.404530,574.277424,-8824.729749
866.792483,784.845813,-191.425808,-6412.764568
866.795019,-1933.400661,-210.568389,-10872.985894
866.797556,1722.832272,-4211.367776,-13648.660110
866.800092,-803.988394,-3445.664544,-3503.092286
866.802628,-2545.963246,-114.855485,-10451.849117
866.805164,2392.822600,-3809.373579,-16003.197549
866.807700,-1646.261949,1033.699363,-1033.699363
866.810236,2163.111630,-1703.689691,-13227.523333
866.812782,-2048.256146,1722.832272,-12174.681389
866.815329,-2182.254211,2660.818731,-4479.363907
866.817875,-708.275490,-1014.556782,-18376.877568
866.820422,401.994197,-976.271621,-4019.941968
866.822969,689.132909,-3158.525832,-11676.974288
866.825515,-823.130974,-1339.980656,-11408.978157
866.828062,2182.254211,-3043.670347,-10375.278794
866.830608,-2756.531635,497.707101,-3139.383251
866.833155,995.414202,-2239.681954,-17726.029821
866.835701,-344.566454,-918.843878,-6297.909083
866.838248,2775.674216,-899.701298,-4058.227130
866.840794,-5570.491013,2411.965181,-19850.856290
866.843341,6144.768437,-3005.385186,-1091.127106
866.845887,-2737.389054,842.273555,-11791.829773
866.848434,95.712904,-918.843878,-12614.960747
866.850980,2029.113565,-2871.387120,-6719.045861
866.853527,-2565.105827,-57.427742,-8250.452325
866.856073,918.843878,-2067.398726,-12289.536874
866.858620,-899.701298,-287.138712,-6642.475538
866.861167,1205.982590,-1320.838075,-8977.870395
866.863713,1320.838075,-3254.238736,-10145.567824
866.866260,-4823.930362,2833.101958,-14739.787216
866.868806,765.703232,669.990328,-8422.735552
866.871353,3847.658741,-3407.379382,-4843.072942
866.873899,-5225.924558,2297.109696,-14261.222696
866.876446,3771.088418,-4364.508422,-10145.567824
866.878992,-612.562586,-669.990328,-4192.225195
866.881539,-1416.550979,-593.420005,-14299.507858
866.884085,1569.691626,-2928.814862,-9188.438784
866.886632,-1780.260014,880.558717,-6240.481341
866.889178,1473.978722,-1703.689691,-11944.970419
866.891725,-1952.543242,363.709035,-11083.554283
866.894271,593.420005,-344.566454,-11179.267187
866.896818,3503.092286,-3771.088418,-10202.995566
866.899364,-4460.221326,2297.109696,-7101.897477
866.901911,4804.787781,-5513.063270,-11696.116869
866.904458,-3215.953574,229.710970,-9188.438784
866.907004,-2813.959378,1052.841944,-9475.577496
866.909551,5513.063270,-4364.508422,-8633.303941
866.912097,-5264.209720,3330.809059,-8824.729749
866.914650,3637.090352,-1837.687757,-11179.267187
866.917203,-746.560651,-650.847747,-9513.862658
866.919755,-3311.666478,1512.263883,-11408.978157
866.922308,2163.111630,-3273.381317,-5781.059402
866.924861,-478.564520,-2986.242605,-15199.209155
866.927414,-1320.838075,-210.568389,-7063.612315
866.929966,6355.336826,-4421.936165,-4938.785846
866.932519,-7599.604578,5551.348432,-17898.313048
866.935072,4383.651003,-1167.697429,-3560.520029
866.937625,153.140646,-1014.556782,-9379.864592
866.940177,-2756.531635,689.132909,-12729.816232
866.942730,2009.970984,-4823.930362,-11791.829773
866.945283,-1359.123237,191.425808,-2737.389054
866.947836,746.560651,-3426.521963,-14854.642701
866.950389,612.562586,-1952.543242,-10738.987829
866.952941,-3924.229064,1052.841944,-1454.836141
866.955494,4153.940034,-3866.801322,-22549.960182
866.958047,-612.562586,1435.693560,-4019.941968
866.960600,-2316.252277,2488.535504,-5187.639397
866.963152,3483.949706,-2967.100024,-19602.002739
866.965705,-3292.523898,2660.818731,-6336.194245
866.968258,2048.256146,1033.699363,-2411.965181
866.970811,-1684.547110,3043.670347,-17687.744659
866.973363,-957.129040,4402.793584,-4460.221326
866.975916,1914.258080,1875.972918,-7465.606512
866.978469,-2794.816797,4632.504554,-16864.613685
866.981022,1588.834206,1454.836141,-5627.918755
866.983574,2411.965181,38.285162,-4039.084549
866.986127,-3349.951640,4230.510357,-19506.289835
866.988680,899.701298,153.140646,-7925.028451
866.991233,1033.699363,-1569.691626,-880.558717
866.993785,-1110.269686,4096.512291,-18759.729184
866.996338,114.855485,3215.953574,-11408.978157
866.998891,823.130974,1741.974853,-823.130974
867.001444,38.285162,2220.539373,-14012.369146
867.003996,-344.566454,4441.078746,-13074.382686
867.006549,803.988394,2469.392923,-3560.520029
867.009102,-516.849682,1665.404530,-15046.068509
867.011655,-1473.978722,1780.260014,-8633.303941
867.014207,1493.121302,746.560651,-6661.618118
867.016764,-612.562586,1378.265818,-11523.833642
867.019320,-1148.554848,1818.545176,-12251.251712
867.021877,1301.695494,1014.556782,-6087.340694
867.024433,-842.273555,2201.396792,-10107.282662
867.026989,-95.712904,-1110.269686,-12193.823970
867.029546,-325.423874,-421.136778,-8863.014910
867.032102,-76.570323,287.138712,-8173.882002
867.034659,191.425808,1186.840010,-12098.111066
867.037215,-478.564520,6125.625856,-9322.436850
867.039772,114.855485,6757.331022,-7006.184573
867.042328,-287.138712,9322.436850,-13418.949141
867.044884,-0.000000,5130.211654,-8786.444587
867.047441,287.138712,95.712904,-6297.909083
867.049997,-669.990328,-2316.252277,-11868.400096
867.052554,363.709035,-2794.816797,-11925.827838
867.055110,-574.277424,-2622.533570,-7408.178770
867.057666,363.709035,957.129040,-11772.687192
867.060223,57.427742,3522.234867,-8384.450390
867.062779,-267.996131,7274.180704,-9762.716208
867.065336,631.705166,7503.891674,-12174.681389
867.067892,-325.423874,3675.375514,-8020.741355
867.070448,153.140646,1550.549045,-6183.053598
867.073005,-172.283227,-363.709035,-14624.931731
867.075561,459.421939,-2469.392923,-9667.003304
867.078118,-555.134843,-2909.672282,-5091.926493
867.080674,-57.427742,133.998066,-13552.947206
867.083231,-1550.549045,3828.516160,-11140.982026
867.085787,2086.541307,3885.943902,-8901.300072
867.088343,-2277.967115,6546.762634,-7465.606512
867.090900,2967.100024,-306.281293,-12327.822035
867.093456,-784.845813,-1244.267752,-5264.209720
867.096013,-1301.695494,-5723.631659,-13361.521398
867.098569,689.132909,-7867.600709,-11408.978157
867.101125,-76.570323,-3828.516160,-5895.914886
867.103682,-1110.269686,-1359.123237,-11542.976222
867.106238,478.564520,746.560651,-11849.257515
867.108795,459.421939,2967.100024,-6699.903280
867.111351,-1378.265818,5895.914886,-7446.463931
867.113907,2048.256146,-440.279358,-13859.228499
867.116464,-669.990328,-1129.412267,-5513.063270
867.119024,-612.562586,-3215.953574,-10604.989763
867.121583,1914.258080,-7676.174901,-13150.953010
867.124143,-1550.549045,-1167.697429,-4977.071008
867.126703,1990.828403,-3005.385186,-11868.400096
867.129262,-287.138712,2220.539373,-10241.280728
867.131822,-2603.390989,4881.358104,-7369.893608
867.134382,3139.383251,-1301.695494,-11083.554283
867.136942,-2775.674216,1952.543242,-8039.883936
867.139501,650.847747,-2048.256146,-9303.294269
867.142061,842.273555,-3235.096155,-11198.409768
867.144621,-3503.092286,-1971.685822,-8327.022648
867.147181,4957.928427,-5666.203917,-11102.696864
867.149740,-1799.402595,-516.849682,-8518.448456
867.152300,-2048.256146,3579.662610,-9475.577496
867.154860,5627.918755,-1435.693560,-12366.107197
867.157419,-7159.325219,7025.327154,-5053.641331
867.159979,3637.090352,-1722.832272,-10662.417506
867.162539,-2354.537438,-1722.832272,-9494.720077
867.165099,-1033.699363,-2871.387120,-6680.760699
867.167658,2239.681954,-6278.766502,-14069.796888
867.170218,784.845813,-3483.949706,-5245.067139
867.172778,2297.109696,-4575.076811,-7867.600709
867.175337,-8365.307810,5168.496816,-23353.948576
867.177897,4613.361973,2526.820666,2699.103893
867.180457,3043.670347,1071.984525,-7369.893608
867.183017,-5589.633594,5532.205851,-16979.469170
867.185576,-1473.978722,-957.129040,-6412.764568
867.188136,8212.167163,-9801.001370,-8863.014910
867.190696,-6814.758765,-937.986459,-10375.278794
867.193256,2584.248408,-5015.356170,-6987.041992
867.195815,440.279358,-1761.117434,-12787.243974
867.198375,-2622.533570,2660.818731,-10164.710405
867.200935,4230.510357,-612.562586,-6738.188442
867.203494,-3962.514226,3464.807125,-13036.097525
867.206054,2067.398726,-1531.406464,-6738.188442
867.208614,-803.988394,-976.271621,-9150.153622
867.211174,-2182.254211,-2316.252277,-10145.567824
867.213733,2431.107762,-4766.502619,-11102.696864
867.216293,574.277424,-3158.525832,-5723.631659
867.218853,-2431.107762,937.986459,-11198.409768
867.221414,440.279358,497.707101,-15792.629160
867.223974,-555.134843,2947.957443,593.420005
867.226535,2450.250342,-2182.254211,-13591.232368
867.229095,593.420005,-3043.670347,-10164.710405
867.231656,2411.965181,-2316.252277,-7695.317482
867.234216,-7044.469734,2163.111630,-9513.862658
867.236777,4651.647134,-3943.371645,-11868.400096
867.239338,-2029.113565,-689.132909,-7637.889739
867.241898,2220.539373,-2182.254211,-11849.257515
867.244459,-2239.681954,2105.683888,-7523.034254
867.247019,1990.828403,-995.414202,-10126.425243
867.249580,-2679.961312,2220.539373,-12787.243974
867.252140,784.845813,-191.425808,-5359.922624
867.254701,2450.250342,-3522.234867,-9475.577496
867.257262,-382.851616,-3560.520029,-12117.253646
867.259822,-1148.554848,-1837.687757,-11121.839445
867.262383,-248.853550,-1416.550979,-7006.184573
867.264943,-1646.261949,-918.843878,-10145.567824
867.267504,2201.396792,-555.134843,-13686.945272
867.270064,-1895.115499,3522.234867,-899.701298
867.272625,1550.549045,-172.283227,-16481.762069
867.275186,-1033.699363,114.855485,-7637.889739
867.277746,-2526.820666,-306.281293,-7695.317482
867.280307,363.709035,-3464.807125,-15869.199483
867.282867,1301.695494,-4843.072942,-4843.072942
867.285428,-2163.111630,-1052.841944,-11657.831707
867.287989,1244.267752,-1071.984525,-9801.001370
867.290549,-3215.953574,3062.812928,-9150.153622
867.293110,4287.938099,-2009.970984,-10662.417506
867.295670,-2641.676150,2679.961312,-7389.036189
867.298231,248.853550,-191.425808,-12289.536874
867.300791,727.418070,-2239.681954,-6680.760699
867.303352,-880.558717,-248.853550,-12710.673651
867.305913,-1952.543242,-1741.974853,-4479.363907
867.308473,3924.229064,-5417.350366,-12921.242040
867.311034,-3215.953574,-344.566454,-11734.402030
867.313594,1033.699363,248.853550,-5493.920690
867.316155,-2852.244539,2182.254211,-13648.660110
867.318715,2986.242605,-1339.980656,-12136.396227
867.321276,229.710970,708.275490,-4613.361973
867.323836,-2258.824534,1320.838075,-11274.980091
867.326397,2622.533570,-3005.385186,-13246.665914
867.328957,-1971.685822,-95.712904,-5149.354235
867.331518,172.283227,-3235.096155,-11217.552349
867.334078,-880.558717,-2067.398726,-12117.253646
867.336638,1990.828403,-3311.666478,-5608.776174
867.339199,-2622.533570,1052.841944,-11983.255581
867.341759,1875.972918,-1225.125171,-10490.134278
867.344320,-2507.678085,2201.396792,-7599.604578
867.346880,3483.949706,-2239.681954,-9035.298138
867.349440,-3043.670347,2316.252277,-9954.142016
867.352001,1818.545176,-2067.398726,-12404.392358
867.354561,-1033.699363,-1454.836141,-8977.870395
867.357122,2201.396792,-1856.830338,-11045.269122
867.359682,-918.843878,-3426.521963,-3005.385186
867.362242,-2565.105827,-421.136778,-21611.973723
867.364803,1282.552914,-57.427742,-5819.344563
867.367363,-1665.404530,2967.100024,746.560651
867.369924,-2488.535504,0.000000,-21209.979526
867.372484,3579.662610,-3235.096155,-8001.598774
867.375044,-1952.543242,1014.556782,1837.687757
867.377605,-325.423874,-3579.662610,-26799.613120
867.380165,153.140646,-325.423874,-2124.826469
867.382726,574.277424,-746.560651,-3349.951640
867.385286,574.277424,-2794.816797,-21592.831142
867.387846,-957.129040,-1301.695494,-2565.105827
867.390407,-612.562586,-229.710970,-14108.082050
867.392967,-1282.552914,3751.945837,-7293.323285
867.395528,5379.065205,-5264.209720,-3656.232933
867.398088,-3924.229064,-133.998066,-23047.667283
867.400648,3656.232933,-3311.666478,-1512.263883
867.403209,-1990.828403,-76.570323,-7178.467800
867.405769,-133.998066,-1856.830338,-18070.596275
867.408330,-95.712904,-650.847747,-5321.637462
867.410890,1148.554848,-95.712904,-6604.190376
867.413450,-1703.689691,-612.562586,-19621.145320
867.416011,2201.396792,-363.709035,-1875.972918
867.418571,-2220.539373,631.705166,-6049.055533
867.421132,-19.142581,-2182.254211,-16807.185942
867.423692,248.853550,-2852.244539,-5723.631659
867.426252,-3483.949706,363.709035,-5704.489078
867.428813,4823.930362,-4077.369710,-20922.840814
867.431373,-4134.797453,4460.221326,1646.261949
867.433934,3905.086483,-1282.552914,-13744.373014
867.436494,-2545.963246,1071.984525,-15275.779478
867.439055,401.994197,-2431.107762,76.570323
867.441615,-76.570323,-3139.383251,-13916.656242
867.444176,3005.385186,-6029.912952,-8843.872330
867.446736,-2507.678085,-574.277424,-10585.847182
867.449296,210.568389,-1416.550979,-10432.706536
867.451857,-3541.377448,2909.672282,-6336.194245
867.454417,4345.365842,-1205.982590,-13342.378818
867.456978,-3292.523898,5149.354235,-7025.327154
867.459538,1703.689691,-1110.269686,-11542.976222
867.462099,-1148.554848,-2373.680019,-9169.296203
867.464659,95.712904,-3445.664544,-10547.562021
867.467219,248.853550,-4823.930362,-12461.820101
867.469780,1416.550979,-1378.265818,-6317.051664
867.472340,-2431.107762,-38.285162,-11408.978157
867.474901,1799.402595,-1205.982590,-11868.400096
867.477461,-2947.957443,2967.100024,-7101.897477
867.480022,2009.970984,-535.992262,-9590.432981
867.482582,2909.672282,-2124.826469,-8595.018779
867.485143,-1665.404530,-1569.691626,-12729.816232
867.487703,-650.847747,-1761.117434,-8365.307810
867.490263,1550.549045,-3445.664544,-5608.776174
867.492824,-2316.252277,-153.140646,-14127.224630
867.495384,803.988394,-1244.267752,-7905.885870
867.497945,1761.117434,172.283227,-7542.176835
867.500505,-3617.947771,2086.541307,-14299.507858
867.503066,1818.545176,-1818.545176,-8843.872330
867.505626,593.420005,-689.132909,-6987.041992
867.508186,-842.273555,-3005.385186,-11715.259450
867.510747,1627.119368,-4575.076811,-12614.960747
867.513307,1397.408398,-2009.970984,-3809.373579
867.515868,-2986.242605,1780.260014,-11983.255581
867.518428,2756.531635,-918.843878,-13686.945272
867.520989,-1588.834206,2641.676150,-1493.121302
867.523549,2411.965181,-555.134843,-13246.665914
867.526110,-1837.687757,-593.420005,-12787.243974
867.528669,-2220.539373,-612.562586,-1914.258080
867.531229,1799.402595,-5417.350366,-18108.881437
867.533788,-1014.556782,-3349.951640,-2450.250342
867.536348,1301.695494,-3062.812928,-13361.521398
867.538907,-1569.691626,535.992262,-11160.124606
867.541467,1435.693560,1091.127106,-7159.325219
867.544027,-1186.840010,2507.678085,-10719.845248
867.546586,1397.408398,-957.129040,-8307.880067
867.549146,-3273.381317,784.845813,-8977.870395
867.551705,6489.334891,-6795.616184,-13131.810429
867.554265,-3560.520029,0.000000,-3617.947771
867.556825,-153.140646,-3235.096155,-17228.322720
867.559384,2545.963246,-2545.963246,-4785.645200
867.561944,-3579.662610,3005.385186,-10107.282662
867.564503,2890.529701,-1110.269686,-10585.847182
867.567063,1627.119368,-57.427742,-8805.587168
867.569623,-2431.107762,669.990328,-11715.259450
867.572182,-3483.949706,1493.121302,-12576.675586
867.574742,3981.656806,-4651.647134,-842.273555
867.577301,-5264.209720,669.990328,-16788.043362
867.579861,6202.196179,-6967.899411,-13552.947206
867.582420,-4000.799387,3751.945837,-363.709035
867.584980,3847.658741,-4364.508422,-23047.667283
867.587540,-2603.390989,478.564520,-2488.535504
867.590099,2622.533570,-5130.211654,-5455.635528
867.592659,-727.418070,-6910.471669,-18855.442088
867.595218,-516.849682,-5666.203917,-3522.234867
867.597778,2737.389054,-9399.007173,-7637.889739
867.600338,-3101.098090,-3751.945837,-16826.328523
867.602897,2775.674216,-3483.949706,-6278.766502
867.605457,-1378.265818,287.138712,-8135.596840
867.608016,-1091.127106,-3598.805190,-16481.762069
867.610576,2507.678085,-4594.219392,-2775.674216
867.613136,-3273.381317,401.994197,-11447.263318
867.615695,689.132909,-7963.313613,-13725.230434
867.618255,516.849682,-6604.190376,-4307.080680
867.620814,191.425808,-4058.227130,-12117.253646
867.623374,306.281293,-3081.955509,-15294.922059
867.625934,-1186.840010,-708.275490,-2660.818731
867.628493,535.992262,-4421.936165,-12002.398162
