#time,accel_x,accel_y,accel_z
672.294732,-38.285162,-861.416136,-9743.573627
672.297503,-229.710970,-172.283227,-10011.569758
672.300273,19.142581,784.845813,-9801.001370
672.303044,-95.712904,4058.227130,-9954.142016
672.305815,-19.142581,5302.494882,-9188.438784
672.308585,-191.425808,5111.069074,-10011.569758
672.311356,-344.566454,4115.654872,-9552.147819
672.314127,38.285162,363.709035,-9494.720077
672.316897,-172.283227,-4536.791650,-7905.885870
672.319668,57.427742,-9035.298138,-9858.429112
672.322439,19.142581,-10279.565890,-11466.405899
672.325209,229.710970,-7676.174901,-7618.747158
672.327980,-1435.693560,1091.127106,-10911.271056
672.330751,995.414202,-1454.836141,-8116.454259
672.333521,-459.421939,-325.423874,-10432.706536
672.336292,-19.142581,-1741.974853,-8690.731683
672.339063,306.281293,-2450.250342,-9743.573627
672.341833,-478.564520,-4211.367776,-8882.157491
672.344513,133.998066,-6872.186507,-10049.854920
672.347193,516.849682,-10375.278794,-7714.460062
672.349873,-1091.127106,-7752.745224,-12825.529136
672.352553,-803.988394,-5168.496816,-8920.442653
672.355233,727.418070,-497.707101,-5647.061336
672.357913,-727.418070,6527.620053,-15830.914322
672.360593,210.568389,6948.756830,-7312.465866
672.363273,38.285162,2507.678085,-4555.934230
672.365953,-57.427742,-650.847747,-16271.193680
672.368633,-344.566454,-3981.656806,-7197.610381
672.371313,-133.998066,-7714.460062,-6125.625856
672.373993,-497.707101,-5742.774240,-13533.804626
672.376673,-229.710970,38.285162,-7618.747158
672.379353,153.140646,306.281293,-8059.026517
672.382033,-516.849682,4613.361973,-13438.091722
672.384713,555.134843,5991.627790,-5781.059402
672.387393,-76.570323,382.851616,-9609.575562
672.390073,-401.994197,-3924.229064,-12844.671717
672.392753,363.709035,-4555.934230,-6202.196179
672.395433,-555.134843,-7465.606512,-10298.708470
672.398113,-76.570323,-5168.496816,-12710.673651
672.400793,-76.570323,2029.113565,-6872.186507
672.403473,-229.710970,1856.830338,-10470.991698
672.406153,-0.000000,2967.100024,-11313.265253
672.408833,344.566454,4517.649069,-6297.909083
672.411513,-401.994197,-76.570323,-11294.122672
672.414193,-325.423874,-4192.225195,-8039.883936
672.416873,287.138712,-4804.787781,-5608.776174
672.419553,-248.853550,-4249.652938,-15658.631094
672.422233,-363.709035,-3369.094221,-8097.311678
672.424912,382.851616,-133.998066,-5340.780043
672.427592,-727.418070,2775.674216,-16634.902715
672.430272,-133.998066,2124.826469,-6585.047795
672.432952,1071.984525,535.992262,-5225.924558
672.435632,-344.566454,-153.140646,-15945.769806
672.438312,516.849682,-2392.822600,-7523.034254
672.440992,-516.849682,-2756.531635,-5934.200048
672.443672,-440.279358,-2086.541307,-15773.486579
672.446352,-248.853550,-2143.969050,-7542.176835
672.449032,421.136778,-1684.547110,-5991.627790
672.451354,-937.986459,880.558717,-16022.340130
672.453676,114.855485,1875.972918,-6565.905214
672.455999,76.570323,-1148.554848,-7140.182638
672.458321,-325.423874,-689.132909,-14624.931731
672.460643,191.425808,191.425808,-6431.907149
672.462965,-267.996131,-3292.523898,-8001.598774
672.465287,19.142581,-2565.105827,-14337.793019
672.467609,-382.851616,574.277424,-7006.184573
672.469931,38.285162,-1378.265818,-8863.014910
672.472253,-535.992262,440.279358,-13112.667848
672.474575,612.562586,976.271621,-6585.047795
672.476897,-574.277424,-2622.533570,-8843.872330
672.479219,287.138712,-2775.674216,-12997.812363
672.481542,-172.283227,287.138712,-6508.477472
672.483864,-325.423874,-3158.525832,-8977.870395
672.486186,57.427742,-1799.402595,-13150.953010
672.488508,229.710970,1435.693560,-6795.616184
672.490830,-267.996131,593.420005,-14203.794954
672.493152,-114.855485,-957.129040,-8193.024582
672.495474,535.992262,-153.140646,-6374.479406
672.497796,-478.564520,-1741.974853,-14165.509792
672.500118,-153.140646,-3790.230998,-7944.171032
672.502440,497.707101,-1320.838075,-6929.614250
672.504763,-478.564520,210.568389,-14414.363342
672.507085,-229.710970,-172.283227,-7695.317482
672.509407,823.130974,344.566454,-6757.331022
672.511729,-957.129040,-153.140646,-14797.214958
672.514051,440.279358,-3560.520029,-7389.036189
672.516373,344.566454,-2182.254211,-6087.340694
672.518695,535.992262,-2124.826469,-14816.357539
672.521017,-1435.693560,210.568389,-8863.014910
672.523339,133.998066,-38.285162,-4421.936165
672.525661,497.707101,76.570323,-15773.486579
672.527983,-1320.838075,1129.412267,-8154.739421
672.530306,957.129040,-3043.670347,-5589.633594
672.532628,-574.277424,-1914.258080,-14835.500120
672.534950,-842.273555,-1301.695494,-8595.018779
672.537272,937.986459,-4096.512291,-4479.363907
672.539594,-1990.828403,95.712904,-15199.209155
672.541916,880.558717,287.138712,-9073.583299
672.544354,287.138712,-1014.556782,-5666.203917
672.546791,-1301.695494,1339.980656,-15926.627226
672.549229,976.271621,1665.404530,-8059.026517
672.551667,1167.697429,-1320.838075,-4230.510357
672.554105,-1435.693560,-1339.980656,-14376.078181
672.556542,803.988394,-2660.818731,-8288.737486
672.558980,-153.140646,-3579.662610,-6393.621987
672.561418,-421.136778,-2067.398726,-14261.222696
672.563855,-267.996131,1588.834206,-8384.450390
672.566293,574.277424,-344.566454,-6144.768437
672.568731,-631.705166,-421.136778,-14452.648504
672.571168,57.427742,1339.980656,-7733.602643
672.573606,689.132909,-1493.121302,-7044.469734
672.576044,-976.271621,-2009.970984,-13801.800757
672.578482,229.710970,-727.418070,-7829.315547
672.580919,497.707101,-2909.672282,-7369.893608
672.583357,-1071.984525,-2947.957443,-13476.376883
672.585795,459.421939,57.427742,-8441.878133
672.588232,191.425808,0.000000,-7312.465866
672.590670,-1205.982590,229.710970,-13418.949141
672.593108,1129.412267,-746.560651,-3981.656806
672.595545,-555.134843,-363.709035,-11332.407834
672.597983,-842.273555,-2163.111630,-13686.945272
672.600421,535.992262,-2679.961312,-4039.084549
672.602858,401.994197,-1378.265818,-11351.550414
672.605296,-1320.838075,-478.564520,-13974.083984
672.607734,535.992262,-918.843878,-3215.953574
672.610172,248.853550,114.855485,-11715.259450
672.612609,-1435.693560,574.277424,-13284.951075
672.615047,861.416136,-1110.269686,-4268.795518
672.617485,95.712904,-210.568389,-11294.122672
672.619922,-1454.836141,-727.418070,-13572.089787
672.622415,612.562586,-2947.957443,-4421.936165
672.624907,708.275490,-1588.834206,-10164.710405
672.627400,-1397.408398,-803.988394,-14395.220762
672.629892,650.847747,-1837.687757,-3598.805190
672.632384,401.994197,-172.283227,-10202.995566
672.634877,-727.418070,1875.972918,-14682.359474
672.637369,210.568389,-861.416136,-4096.512291
672.639862,631.705166,-1627.119368,-9513.862658
672.642354,-1110.269686,-57.427742,-14854.642701
672.644847,248.853550,-3675.375514,-4957.928427
672.647339,631.705166,-2909.672282,-9150.153622
672.649831,-1244.267752,1167.697429,-15084.353670
672.652324,19.142581,-1110.269686,-5149.354235
672.654816,861.416136,-1282.552914,-8767.302006
672.657309,-1071.984525,1665.404530,-13954.941403
672.659801,267.996131,-1607.976787,-6738.188442
672.662294,344.566454,-1799.402595,-8461.020714
672.664786,-803.988394,401.994197,-13208.380752
672.667278,153.140646,-1167.697429,-9073.583299
672.669771,-0.000000,-2488.535504,-8997.012976
672.672263,-95.712904,-784.845813,-11198.409768
672.674756,-153.140646,133.998066,-9360.722011
672.677248,210.568389,-631.705166,-9245.866526
672.679740,-19.142581,210.568389,-9379.864592
672.682233,-153.140646,-210.568389,-10260.423309
672.684725,-153.140646,-2565.105827,-9705.288466
672.687218,-382.851616,-1205.982590,-9284.151688
672.689710,612.562586,-1301.695494,-10145.567824
672.692203,-535.992262,-1244.267752,-9992.427178
672.694695,-95.712904,-516.849682,-8595.018779
672.697187,555.134843,-287.138712,-10183.852986
672.699680,153.140646,-1799.402595,-9820.143950
672.702172,-918.843878,-325.423874,-6680.760699
672.704665,-1397.408398,1531.406464,-12480.962682
672.707157,344.566454,765.703232,-9762.716208
672.709650,1205.982590,-3292.523898,-4823.930362
672.712142,-995.414202,-1225.125171,-13591.232368
672.714634,-114.855485,-1646.261949,-11466.405899
672.717127,363.709035,-3981.656806,-3905.086483
672.719619,-727.418070,-459.421939,-13342.378818
672.721978,133.998066,1186.840010,-12289.536874
672.724336,57.427742,-440.279358,-2775.674216
672.726695,-95.712904,574.277424,-13323.236237
672.729053,-440.279358,1320.838075,-12614.960747
672.731411,382.851616,-3043.670347,-3158.525832
672.733770,-57.427742,-2641.676150,-12270.394293
672.736128,-650.847747,-918.843878,-14184.652373
672.738487,210.568389,-3292.523898,-2565.105827
672.740845,114.855485,-2258.824534,-11581.261384
672.743204,-612.562586,1952.543242,-12748.958813
672.745562,267.996131,746.560651,-4996.213589
672.747921,114.855485,-1014.556782,-10987.841379
672.750279,-459.421939,746.560651,-12232.109131
672.752637,267.996131,-1531.406464,-5647.061336
672.754996,57.427742,-3981.656806,-10758.130410
672.757354,-1033.699363,-1091.127106,-12729.816232
672.759713,612.562586,-2316.252277,-5953.342629
672.762071,459.421939,-2411.965181,-10643.274925
672.764430,-1033.699363,2163.111630,-12289.536874
672.766788,248.853550,669.990328,-6412.764568
672.769147,650.847747,-1895.115499,-10394.421374
672.771505,-1186.840010,861.416136,-11542.976222
672.773863,708.275490,-1205.982590,-9705.288466
672.776222,-689.132909,-1091.127106,-12193.823970
672.778580,-784.845813,-2411.965181,-6546.762634
672.780939,1167.697429,-2297.109696,-9801.001370
672.783297,-153.140646,-1588.834206,-12327.822035
672.785656,-1359.123237,574.277424,-8748.159426
672.788014,19.142581,2603.390989,-7925.028451
672.790372,937.986459,153.140646,-11294.122672
672.792731,-937.986459,-1990.828403,-8365.307810
672.795089,1091.127106,-2086.541307,-10451.849117
672.797448,1473.978722,-1741.974853,-11255.837510
672.799806,-3426.521963,-19.142581,-6317.051664
672.802165,1761.117434,-1933.400661,-12021.540742
672.804523,-401.994197,-1473.978722,-9705.288466
672.806882,-842.273555,-2048.256146,-3254.238736
672.809240,631.705166,-2909.672282,-14146.367211
672.811598,-1416.550979,3043.670347,-8786.444587
672.813957,421.136778,-1761.117434,-7369.893608
672.816395,-38.285162,-1818.545176,-12882.956878
672.818834,-401.994197,1244.267752,-7829.315547
672.821273,306.281293,-3024.527766,-9073.583299
672.823711,-689.132909,-2354.537438,-11676.974288
672.826150,-38.285162,478.564520,-7982.456194
672.828588,382.851616,-1837.687757,-9667.003304
672.831027,-689.132909,-861.416136,-11562.118803
672.833465,440.279358,1799.402595,-7599.604578
672.835904,-114.855485,-1091.127106,-9494.720077
672.838342,-325.423874,-2469.392923,-11830.114934
672.840781,-76.570323,95.712904,-7714.460062
672.843219,267.996131,-2967.100024,-9686.145885
672.845658,-344.566454,-1895.115499,-9705.288466
672.848096,287.138712,-133.998066,-4938.785846
672.850535,-38.285162,248.853550,-14720.644635
672.852973,-842.273555,-727.418070,-9284.151688
672.855412,631.705166,-899.701298,-4689.932296
672.857851,-287.138712,-191.425808,-15486.347867
672.860289,-344.566454,-1148.554848,-8939.585234
672.862728,669.990328,-1837.687757,-4173.082614
672.865166,-440.279358,-995.414202,-15850.056902
672.867605,-593.420005,-1990.828403,-8882.157491
672.870043,784.845813,-976.271621,-3790.230998
672.872482,-459.421939,1512.263883,-17113.467235
672.874920,-803.988394,440.279358,-7465.606512
672.877359,1416.550979,-2029.113565,-4460.221326
672.879797,-1052.841944,-535.992262,-16539.189811
672.882236,1033.699363,-650.847747,-8154.739421
672.884674,-306.281293,-2794.816797,-5245.067139
672.887113,-593.420005,-823.130974,-15256.636898
672.889551,-229.710970,765.703232,-8231.309744
672.891990,650.847747,-2737.389054,-4268.795518
672.894428,-995.414202,-38.285162,-16998.611750
672.896867,-497.707101,1933.400661,-6967.899411
672.899306,765.703232,-2699.103893,-5800.201982
672.901744,-823.130974,-535.992262,-16098.910453
672.904183,478.564520,803.988394,-6967.899411
672.906621,-133.998066,-2794.816797,-6738.188442
672.909060,133.998066,-1895.115499,-14548.361408
672.911498,-191.425808,689.132909,-7063.612315
672.913990,267.996131,-3579.662610,-7733.602643
672.916481,-382.851616,-1167.697429,-14452.648504
672.918972,478.564520,1435.693560,-6661.618118
672.921464,-325.423874,-631.705166,-12902.099459
672.923955,-76.570323,-2431.107762,-9131.011042
672.926446,-38.285162,689.132909,-6546.762634
672.928938,-172.283227,-1205.982590,-14299.507858
672.931429,-497.707101,-2507.678085,-7733.602643
672.933921,497.707101,363.709035,-6661.618118
672.936412,-440.279358,-478.564520,-14854.642701
672.938903,-76.570323,-2852.244539,-6814.758765
672.941395,229.710970,76.570323,-7523.034254
672.943886,-689.132909,-267.996131,-14873.785282
672.946377,555.134843,-2986.242605,-6565.905214
672.948869,-401.994197,631.705166,-7082.754896
672.951360,-382.851616,172.283227,-16079.767872
672.953852,861.416136,-3541.377448,-4919.643266
672.956343,210.568389,-2488.535504,-6699.903280
672.958834,-880.558717,612.562586,-18051.453694
672.961326,-382.851616,38.285162,-4575.076811
672.963817,784.845813,-2909.672282,-6546.762634
672.966308,-1282.552914,1225.125171,-17094.324654
672.968800,708.275490,-229.710970,-5781.059402
672.971291,401.994197,-2756.531635,-6393.621987
672.973782,-1397.408398,1225.125171,-16232.908518
672.976274,976.271621,-555.134843,-5800.201982
672.978765,-612.562586,-3426.521963,-7178.467800
672.981257,-153.140646,-459.421939,-14931.213024
672.983748,-287.138712,-363.709035,-7044.469734
672.986239,19.142581,-3120.240670,-7733.602643
672.988731,-210.568389,689.132909,-13725.230434
672.991222,-555.134843,1454.836141,-7886.743290
672.993713,401.994197,-2890.529701,-9437.292334
672.996205,-497.707101,-2029.113565,-9054.440718
672.998696,-76.570323,1071.984525,-9877.571693
673.001188,210.568389,-3177.668413,-10700.702667
673.003679,-459.421939,-1933.400661,-8709.874264
673.006170,478.564520,2067.398726,-9590.432981
673.008662,-306.281293,-995.414202,-10738.987829
673.011153,-57.427742,-2335.394858,-8729.016845
673.013676,-19.142581,1435.693560,-9360.722011
673.016199,-459.421939,-2258.824534,-11236.694930
673.018722,287.138712,-4058.227130,-8346.165229
673.021245,-459.421939,1071.984525,-9188.438784
673.023768,-76.570323,-1454.836141,-11485.548480
673.026290,-0.000000,-1952.543242,-8441.878133
673.028813,287.138712,-478.564520,-7293.323285
673.031336,-325.423874,708.275490,-15199.209155
673.033859,-172.283227,-1627.119368,-6680.760699
673.036382,535.992262,-2086.541307,-6393.621987
673.038904,-229.710970,-306.281293,-15869.199483
673.041427,210.568389,-2622.533570,-6144.768437
673.043950,650.847747,-2220.539373,-6355.336826
673.046473,-1339.980656,2201.396792,-17630.316917
673.048996,-574.277424,1665.404530,-5340.780043
673.051519,1148.554848,-1493.121302,-6125.625856
673.054041,-1186.840010,650.847747,-16424.334326
673.056564,899.701298,-3407.379382,-6661.618118
673.059087,-191.425808,-3885.943902,-5608.776174
673.061610,-937.986459,-1071.984525,-16711.473038
673.064133,344.566454,-2124.826469,-6336.194245
673.066656,76.570323,-1990.828403,-6470.192310
673.069178,-765.703232,1339.980656,-16558.332392
673.071701,38.285162,3771.088418,-5168.496816
673.074224,-133.998066,-2239.681954,-8384.450390
673.076747,-76.570323,-1952.543242,-13572.089787
673.079270,153.140646,669.990328,-6489.334891
673.081793,-421.136778,-4575.076811,-9896.714274
673.084315,-248.853550,-3081.955509,-11753.544611
673.086838,421.136778,784.845813,-7044.469734
673.089361,19.142581,-2048.256146,-9571.290400
673.091884,-440.279358,440.279358,-12270.394293
673.094407,-76.570323,3847.658741,-6527.620053
673.096930,344.566454,-2220.539373,-10432.706536
673.099452,-708.275490,-2469.392923,-11638.689126
673.101975,95.712904,57.427742,-5972.485210
673.104498,-459.421939,-2067.398726,-16252.051099
673.107021,-248.853550,-3656.232933,-5895.914886
673.109544,650.847747,-497.707101,-7733.602643
673.112066,-899.701298,1320.838075,-15486.347867
673.114610,229.710970,-823.130974,-6719.045861
673.117154,344.566454,1263.410333,-6546.762634
673.119698,-593.420005,1512.263883,-15562.918190
673.122242,-95.712904,-1875.972918,-6565.905214
673.124786,631.705166,-2603.390989,-6374.479406
673.127330,-229.710970,-2641.676150,-16481.762069
673.129874,669.990328,-3924.229064,-5704.489078
673.132417,-535.992262,114.855485,-7255.038123
673.134961,-803.988394,3292.523898,-18147.166598
673.137505,-267.996131,1761.117434,-3388.236802
673.140049,440.279358,-957.129040,-8039.883936
673.142593,-1320.838075,-1531.406464,-15964.912387
673.145137,1110.269686,-3885.943902,-4058.227130
673.147681,-401.994197,-5264.209720,-9418.149754
673.150224,-727.418070,-344.566454,-15122.638832
673.152768,95.712904,1071.984525,-4977.071008
673.155312,267.996131,-1837.687757,-8173.882002
673.157856,-459.421939,2124.826469,-16386.049165
673.160400,-248.853550,2967.100024,-4843.072942
673.162944,478.564520,-2201.396792,-8518.448456
673.165488,-631.705166,-1033.699363,-13323.236237
673.168031,-38.285162,-325.423874,-6967.899411
673.170575,401.994197,-5302.494882,-8173.882002
673.173119,-957.129040,-1914.258080,-13629.517530
673.175663,-133.998066,497.707101,-7733.602643
673.178207,-0.000000,-880.558717,-11849.257515
673.180751,-574.277424,133.998066,-8997.012976
673.183295,803.988394,2450.250342,-7886.743290
673.185838,-574.277424,-57.427742,-11676.974288
673.188382,-229.710970,-3101.098090,-9571.290400
673.190926,516.849682,-1033.699363,-6891.329088
673.193470,-631.705166,-2660.818731,-13170.095590
673.196014,191.425808,-3905.086483,-9073.583299
673.198558,153.140646,421.136778,-6853.043926
673.201102,-306.281293,-421.136778,-12959.527202
673.203645,-76.570323,-1454.836141,-8882.157491
673.206189,612.562586,1435.693560,-6699.903280
673.208733,-516.849682,478.564520,-13514.662045
673.211277,-76.570323,-2009.970984,-9073.583299
673.213821,287.138712,-497.707101,-5666.203917
673.216376,-995.414202,-784.845813,-16941.184008
673.218932,57.427742,-2833.101958,-7561.319416
673.221487,516.849682,-2756.531635,-4383.651003
673.224042,-1225.125171,1512.263883,-17764.314982
673.226598,172.283227,918.843878,-6776.473603
673.229153,555.134843,-1033.699363,-4134.797453
673.231708,-1110.269686,1263.410333,-17017.754331
673.234264,-248.853550,-612.562586,-7657.032320
673.236819,631.705166,-3254.238736,-3503.092286
673.239374,-784.845813,-1091.127106,-18204.594341
673.241930,-478.564520,-1014.556782,-7561.319416
673.244485,1837.687757,-3943.371645,-3311.666478
673.247040,-1971.685822,1033.699363,-17400.605947
673.249596,535.992262,574.277424,-8403.592971
673.252151,842.273555,-1761.117434,-2622.533570
673.254706,-1014.556782,-57.427742,-15160.923994
673.257262,325.423874,1359.123237,-7274.180704
673.259817,574.277424,-3062.812928,-6259.623922
673.262372,-1091.127106,-2718.246474,-15601.203352
673.264928,153.140646,-19.142581,-7159.325219
673.267483,574.277424,-3369.094221,-6297.909083
673.270038,-1148.554848,-1282.552914,-15677.773675
673.272594,574.277424,1263.410333,-6431.907149
673.275149,765.703232,-2201.396792,-6738.188442
673.277704,-765.703232,-784.845813,-15180.066574
673.280260,-172.283227,2756.531635,-7408.178770
673.282815,382.851616,-918.843878,-6336.194245
673.285370,-535.992262,-2507.678085,-15122.638832
673.287925,-382.851616,153.140646,-6738.188442
673.290481,1129.412267,-3751.945837,-7944.171032
673.293036,-976.271621,-3043.670347,-12098.111066
673.295591,1014.556782,-1205.982590,-3503.092286
673.298147,-650.847747,1091.127106,-13706.087853
673.300702,-401.994197,-459.421939,-11810.972354
673.303257,784.845813,516.849682,-3139.383251
673.305813,-401.994197,1244.267752,-13782.658176
673.308368,-535.992262,-2335.394858,-12729.816232
673.310923,574.277424,-2660.818731,-1914.258080
673.313479,-382.851616,-1856.830338,-14337.793019
673.316034,-937.986459,-2431.107762,-12404.392358
673.318595,995.414202,-1052.841944,-3349.951640
673.321156,-1110.269686,2507.678085,-14471.791085
673.323717,746.560651,-114.855485,-10815.558152
673.326277,516.849682,-1091.127106,-2526.820666
673.328838,-497.707101,19.142581,-16500.904650
673.331399,-459.421939,-306.281293,-10202.995566
673.333960,765.703232,-3924.229064,-2086.541307
673.336521,-593.420005,-1856.830338,-16500.904650
673.339082,-918.843878,842.273555,-10528.419440
673.341642,1320.838075,-2335.394858,-2220.539373
673.344203,-918.843878,784.845813,-16347.764003
673.346764,-401.994197,2545.963246,-10011.569758
673.349325,1244.267752,-2316.252277,-2431.107762
673.351886,-1473.978722,-1205.982590,-16156.338195
673.354446,76.570323,-325.423874,-10375.278794
673.357007,727.418070,-3943.371645,-2852.244539
673.359568,-918.843878,-1684.547110,-15792.629160
673.362129,114.855485,574.277424,-10107.282662
673.364690,1148.554848,-2986.242605,-2756.531635
673.367251,-1512.263883,-612.562586,-14701.502054
673.369811,306.281293,2105.683888,-7082.754896
673.372372,727.418070,344.566454,-6565.905214
673.374933,-1110.269686,-1933.400661,-15218.351736
673.377494,-210.568389,-478.564520,-7235.895542
673.380055,1091.127106,-2603.390989,-6336.194245
673.382615,-1014.556782,-3483.949706,-15371.492382
673.385176,-382.851616,-459.421939,-7905.885870
673.387737,1186.840010,-1301.695494,-6833.901346
673.390298,-1225.125171,-803.988394,-13954.941403
673.392859,-401.994197,1110.269686,-8116.454259
673.395420,1129.412267,172.283227,-6891.329088
673.397980,-593.420005,-1952.543242,-14471.791085
673.400541,-382.851616,-689.132909,-7810.172966
673.403102,440.279358,-555.134843,-7293.323285
673.405663,-172.283227,-918.843878,-14548.361408
673.408224,-535.992262,-1741.974853,-3081.955509
673.410784,535.992262,-593.420005,-12078.968485
673.413345,-593.420005,-363.709035,-13093.525267
673.415906,440.279358,-2431.107762,-3445.664544
673.418467,19.142581,19.142581,-12098.111066
673.421032,-555.134843,803.988394,-13399.806560
673.423597,363.709035,-2067.398726,-2775.674216
673.426161,-382.851616,38.285162,-12098.111066
673.428726,-459.421939,-535.992262,-14203.794954
673.431291,478.564520,-3292.523898,-2411.965181
673.433856,-248.853550,-612.562586,-13246.665914
673.436421,-459.421939,325.423874,-12997.812363
673.438986,669.990328,-2641.676150,-2335.394858
673.441551,-535.992262,-38.285162,-13438.091722
673.444115,-153.140646,1320.838075,-11389.835576
673.446680,57.427742,-1110.269686,-5206.781978
673.449245,325.423874,-2105.683888,-12270.394293
673.451810,-210.568389,708.275490,-10758.130410
673.454375,727.418070,-2871.387120,-5838.487144
673.456940,-1110.269686,-2603.390989,-13514.662045
673.459505,-421.136778,1493.121302,-9705.288466
673.462069,880.558717,-995.414202,-5436.492947
673.464634,-535.992262,-1627.119368,-13304.093656
673.467199,-612.562586,1244.267752,-10164.710405
673.469764,1014.556782,-1646.261949,-5532.205851
673.472329,-478.564520,-2947.957443,-13495.519464
673.474894,-995.414202,803.988394,-9839.286531
673.477459,1435.693560,-1971.685822,-5781.059402
673.480023,-1091.127106,-1818.545176,-13112.667848
673.482588,401.994197,-325.423874,-5168.496816
673.485153,650.847747,1186.840010,-9820.143950
673.487718,-1435.693560,2124.826469,-14108.082050
673.490283,593.420005,2737.389054,-6585.047795
673.492848,248.853550,4651.647134,-7350.751027
673.495413,-765.703232,3924.229064,-14873.785282
673.497977,133.998066,1607.976787,-7197.610381
673.500542,-191.425808,-765.703232,-6738.188442
673.503107,-76.570323,-1741.974853,-15065.211090
673.505672,-784.845813,-76.570323,-7561.319416
673.508237,-133.998066,229.710970,-7771.887805
673.510802,-95.712904,-191.425808,-13399.806560
673.513367,229.710970,2737.389054,-8901.300072
673.515931,-38.285162,6604.190376,-6987.041992
673.518496,-57.427742,7771.887805,-13189.238171
673.521061,478.564520,6010.770371,-5493.920690
673.523627,-133.998066,2143.969050,-9399.007173
673.526192,-516.849682,-3981.656806,-15333.207221
673.528758,38.285162,-9724.431046,-4096.512291
673.531323,-363.709035,-8767.302006,-9245.866526
673.533889,-153.140646,-4153.940034,-15945.769806
673.536454,-57.427742,-1186.840010,-4211.367776
673.539020,287.138712,3177.668413,-8135.596840
673.541585,-516.849682,6948.756830,-16366.906584
673.544151,306.281293,3962.514226,-4230.510357
673.546716,-401.994197,765.703232,-7025.327154
673.549282,57.427742,-2852.244539,-17802.600144
673.551847,-880.558717,-6814.758765,-5187.639397
673.554413,1320.838075,-7561.319416,-5627.918755
673.556979,-1282.552914,-1493.121302,-17821.742725
673.559544,861.416136,1301.695494,-6144.768437
673.562110,-248.853550,1397.408398,-8709.874264
673.564675,574.277424,4039.084549,-13974.083984
673.567241,-459.421939,3426.521963,-4709.074877
673.569806,210.568389,-2029.113565,-9992.427178
673.572372,-19.142581,-2813.959378,-14854.642701
673.574937,-1071.984525,-2392.822600,-3694.518094
673.577503,746.560651,-6699.903280,-11715.259450
673.580068,-1148.554848,-1684.547110,-13093.525267
673.582634,650.847747,689.132909,-4134.797453
673.585199,-191.425808,-344.566454,-13036.097525
673.587765,-191.425808,2201.396792,-10949.556218
673.590330,133.998066,3081.955509,-4977.071008
673.592896,114.855485,-1512.263883,-12270.394293
673.595461,-344.566454,-823.130974,-5627.918755
673.598027,-306.281293,-2699.103893,-5857.629725
673.600593,-918.843878,-3828.516160,-18932.012411
673.603158,191.425808,-4249.652938,-4938.785846
673.605724,133.998066,-803.988394,-5455.635528
673.608289,-784.845813,1933.400661,-18778.871765
673.610855,325.423874,1684.547110,-4536.791650
673.613420,38.285162,2660.818731,-5379.065205
673.615986,-535.992262,-19.142581,-19180.865962
673.618551,19.142581,-3081.955509,-4957.928427
673.621117,478.564520,-3713.660675,-4938.785846
673.623682,-823.130974,-2699.103893,-19659.430482
673.626247,-172.283227,-3522.234867,-4345.365842
673.628812,555.134843,-1378.265818,-5206.781978
673.631376,-1052.841944,1550.549045,-19142.580800
673.633941,-76.570323,1895.115499,-2813.959378
673.636506,708.275490,-1186.840010,-7389.036189
673.639070,-459.421939,937.986459,-19334.006608
673.641635,-19.142581,-1129.412267,-1110.269686
673.644200,344.566454,-3637.090352,-8307.880067
673.646764,-746.560651,-842.273555,-18989.440154
673.649329,-38.285162,-1110.269686,-2354.537438
673.651894,535.992262,-3771.088418,-7944.171032
673.654458,-1263.410333,1397.408398,-19085.153058
673.657023,899.701298,650.847747,-1493.121302
673.659588,19.142581,-1933.400661,-9131.011042
673.662152,-803.988394,631.705166,-17285.750462
673.664717,401.994197,-114.855485,-2086.541307
673.667282,76.570323,-3598.805190,-10202.995566
673.669846,-861.416136,-401.994197,-16558.332392
673.672411,248.853550,267.996131,-3464.807125
673.674976,-325.423874,-1875.972918,-15964.912387
673.677540,-95.712904,-1416.550979,-8939.585234
673.680105,191.425808,1033.699363,-4517.649069
673.682670,-210.568389,-669.990328,-15830.914322
673.685234,76.570323,-440.279358,-8422.735552
673.687799,-133.998066,708.275490,-3809.373579
673.690364,-727.418070,-2756.531635,-17438.891109
673.692928,-57.427742,-3579.662610,-8671.589102
673.695493,344.566454,-1091.127106,-2947.957443
673.698058,-669.990328,-937.986459,-18032.311114
673.700623,-210.568389,-95.712904,-7484.749093
673.703187,497.707101,1722.832272,-3177.668413
673.705752,-631.705166,-114.855485,-17611.174336
673.708317,-229.710970,-1761.117434,-7082.754896
673.710881,440.279358,-2756.531635,-5359.922624
673.713446,-1110.269686,-382.851616,-20539.989198
673.716011,382.851616,-1818.545176,-3062.812928
673.718575,631.705166,-2239.681954,-5149.354235
673.721140,-1052.841944,344.566454,-20444.276294
673.723705,191.425808,-727.418070,-3675.375514
673.726269,861.416136,-1263.410333,-4651.647134
673.728759,-1473.978722,1990.828403,-20616.559522
673.731250,650.847747,-1014.556782,-3043.670347
673.733740,535.992262,-2813.959378,-4843.072942
673.736230,-1071.984525,-497.707101,-20961.125976
673.738720,287.138712,-2392.822600,-3617.947771
673.741210,478.564520,-3158.525832,-4479.363907
673.743701,-899.701298,976.271621,-20846.270491
673.746191,248.853550,248.853550,-3503.092286
673.748681,153.140646,-1703.689691,-8575.876198
673.751171,-803.988394,-57.427742,-16539.189811
673.753661,459.421939,344.566454,-3790.230998
673.756152,344.566454,-2890.529701,-8863.014910
673.758642,-1244.267752,-842.273555,-16252.051099
673.761132,689.132909,-248.853550,-4115.654872
673.763622,57.427742,-3235.096155,-9552.147819
673.766112,-803.988394,-1301.695494,-14854.642701
673.768602,593.420005,1091.127106,-4919.643266
673.771093,95.712904,-1282.552914,-9399.007173
673.773583,-593.420005,306.281293,-14261.222696
673.776073,-210.568389,1091.127106,-4249.652938
673.778563,421.136778,-3598.805190,-11255.837510
673.781053,-1148.554848,-1933.400661,-13418.949141
673.783544,650.847747,-95.712904,-4843.072942
673.786034,-1722.832272,344.566454,-16462.619488
673.788524,38.285162,-1780.260014,-8250.452325
673.791014,861.416136,210.568389,-4498.506488
673.793504,-880.558717,1052.841944,-15964.912387
673.795995,593.420005,-2143.969050,-7676.174901
673.798485,95.712904,-478.564520,-4498.506488
673.800975,-650.847747,-153.140646,-17515.461432
673.803465,-0.000000,-2833.101958,-6527.620053
673.805955,478.564520,-1780.260014,-4211.367776
673.808445,-612.562586,-593.420005,-17994.025952
673.810936,497.707101,-3043.670347,-6049.055533
673.813426,555.134843,-2277.967115,-3905.086483
673.815916,-1818.545176,2067.398726,-20023.139517
673.818406,1339.980656,-746.560651,-5149.354235
673.820896,-210.568389,421.136778,-7178.467800
673.823387,-1148.554848,1359.123237,-18855.442088
673.825877,440.279358,-976.271621,-2124.826469
673.828387,287.138712,-4173.082614,-8173.882002
673.830896,-1339.980656,535.992262,-18721.444022
673.833406,727.418070,-1052.841944,-2411.965181
673.835916,114.855485,-3617.947771,-9035.298138
673.838426,-1071.984525,689.132909,-16654.045296
673.840935,937.986459,746.560651,-3503.092286
673.843445,-172.283227,-2431.107762,-9590.432981
673.845955,-861.416136,1339.980656,-15696.916256
673.848465,689.132909,459.421939,-3273.381317
673.850974,306.281293,-3943.371645,-10834.700733
673.853484,-1416.550979,-689.132909,-14376.078181
673.855994,1167.697429,-899.701298,-3809.373579
673.858503,-1282.552914,-899.701298,-15543.775610
673.861013,38.285162,-784.845813,-7886.743290
673.863523,421.136778,1722.832272,-5359.922624
673.866033,-287.138712,-459.421939,-15371.492382
673.868542,-612.562586,-823.130974,-7025.327154
673.871052,-363.709035,-1148.554848,-5321.637462
673.873562,19.142581,-4555.934230,-17994.025952
673.876072,-133.998066,-2986.242605,-5493.920690
673.878581,401.994197,612.562586,-5130.211654
673.881091,-344.566454,1148.554848,-18147.166598
673.883601,-57.427742,746.560651,-4364.508422
673.886111,535.992262,746.560651,-5838.487144
673.888620,-1588.834206,-229.710970,-18970.297573
673.891130,995.414202,-3828.516160,-3158.525832
673.893640,-57.427742,-1952.543242,-6451.049730
673.896150,-765.703232,-516.849682,-19372.291770
673.898659,535.992262,-1799.402595,-478.564520
673.901169,-172.283227,-2086.541307,-9954.142016
673.903679,-803.988394,2392.822600,-18683.158861
673.906189,976.271621,478.564520,363.709035
673.908698,-248.853550,-899.701298,-10758.130410
673.911208,-708.275490,650.847747,-18300.307245
673.913718,516.849682,-2316.252277,459.421939
673.916228,19.142581,-4977.071008,-11676.974288
673.918737,-995.414202,-133.998066,-17036.896912
673.921247,784.845813,-918.843878,-708.275490
673.923757,76.570323,-2297.109696,-11830.114934
673.926267,-880.558717,2507.678085,-15850.056902
673.928790,1033.699363,631.705166,-1186.840010
673.931314,-229.710970,-2526.820666,-12040.683323
673.933837,-248.853550,-497.707101,-8939.585234
673.936361,497.707101,-401.994197,-4039.084549
673.938884,-937.986459,-3196.810994,-17285.750462
673.941408,-325.423874,-1512.263883,-7255.038123
673.943931,669.990328,-440.279358,-5053.641331
673.946455,-823.130974,-1473.978722,-16654.045296
673.948979,-401.994197,574.277424,-6757.331022
673.951502,957.129040,1244.267752,-4900.500685
673.954026,-478.564520,-1378.265818,-17094.324654
673.956549,-459.421939,-1435.693560,-6776.473603
673.959073,-95.712904,-1244.267752,-4287.938099
673.961596,-937.986459,-3177.668413,-19123.438219
673.964120,-516.849682,-1799.402595,-5168.496816
673.966644,1110.269686,-440.279358,-6393.621987
673.969167,-823.130974,57.427742,-18740.586603
673.971691,1397.408398,-708.275490,-593.420005
673.974214,-555.134843,535.992262,-9284.151688
673.976738,-918.843878,1263.410333,-18855.442088
673.979261,842.273555,-2660.818731,-344.566454
673.981785,-95.712904,-2928.814862,-9686.145885
673.984308,-746.560651,-1397.408398,-19142.580800
673.986832,421.136778,-2909.672282,-76.570323
673.989356,19.142581,-2220.539373,-9781.858789
673.991879,-708.275490,1435.693560,-19314.864027
673.994403,612.562586,229.710970,382.851616
673.996926,210.568389,-593.420005,-9801.001370
673.999450,-957.129040,1205.982590,-19123.438219
674.001973,593.420005,-1531.406464,650.847747
674.004497,153.140646,-3847.658741,-10681.560086
674.007020,-1205.982590,-497.707101,-18836.299507
674.009544,957.129040,-669.990328,-1454.836141
674.012068,-401.994197,-1933.400661,-14452.648504
674.014591,-746.560651,823.130974,-12519.247843
674.017115,957.129040,631.705166,-2354.537438
674.019638,-765.703232,-1665.404530,-14203.794954
674.022162,-459.421939,344.566454,-12768.101394
674.024685,631.705166,38.285162,-2469.392923
674.027209,-650.847747,-3273.381317,-13954.941403
674.029742,-191.425808,-1531.406464,-11734.402030
674.032276,344.566454,-631.705166,-3177.668413
674.034809,-497.707101,-2909.672282,-14108.082050
674.037342,382.851616,-1071.984525,-12098.111066
674.039875,-229.710970,1454.836141,-3120.240670
674.042408,38.285162,-918.843878,-13725.230434
674.044942,-248.853550,421.136778,-6125.625856
674.047475,-172.283227,344.566454,-4498.506488
674.050008,-1167.697429,-1569.691626,-17955.740790
674.052541,-76.570323,-3349.951640,-7025.327154
674.055074,746.560651,-2182.254211,-4000.799387
674.057608,-689.132909,-1225.125171,-18128.024018
674.060141,-746.560651,-497.707101,-6259.623922
674.062674,708.275490,937.986459,-4957.928427
674.065207,-478.564520,1301.695494,-17151.752397
674.067740,-401.994197,-287.138712,-5761.916821
674.070273,842.273555,-1282.552914,-5321.637462
674.072807,-957.129040,-1493.121302,-18013.168533
674.075340,-325.423874,-3675.375514,-5666.203917
674.077873,497.707101,-2890.529701,-5302.494882
674.080406,-669.990328,287.138712,-18319.449826
674.082939,133.998066,631.705166,-3885.943902
674.085473,516.849682,-1014.556782,-6987.041992
674.088006,-1071.984525,1646.261949,-18013.168533
674.090539,344.566454,-325.423874,-3732.803256
674.093072,382.851616,-3503.092286,-7121.040058
674.095605,-957.129040,-344.566454,-17936.598210
674.098139,842.273555,-1875.972918,-3771.088418
674.100672,899.701298,-3943.371645,-6680.760699
674.103205,-689.132909,-1225.125171,-16730.615619
674.105738,-516.849682,153.140646,-6259.623922
674.108271,363.709035,-1129.412267,-7848.458128
674.110805,172.283227,2143.969050,-16424.334326
674.113338,-650.847747,1665.404530,-5149.354235
674.115871,-172.283227,-1952.543242,-8499.305875
674.118404,-172.283227,-497.707101,-14165.509792
674.120937,-95.712904,-823.130974,-6106.483275
674.123470,-344.566454,-2775.674216,-14012.369146
674.126004,-459.421939,-2086.541307,-7389.036189
674.128537,1454.836141,-1818.545176,-7637.889739
674.131016,-1493.121302,-612.562586,-15333.207221
674.133496,-153.140646,0.000000,-5417.350366
674.135975,669.990328,1091.127106,-8250.452325
674.138454,-823.130974,-38.285162,-15467.205286
674.140933,267.996131,-1129.412267,-3847.658741
674.143413,-19.142581,-287.138712,-10088.140082
674.145892,-459.421939,-2641.676150,-14720.644635
674.148371,-76.570323,-2756.531635,-3771.088418
674.150851,287.138712,-593.420005,-10949.556218
674.153330,-1129.412267,-19.142581,-14184.652373
674.155809,593.420005,-746.560651,-2794.816797
674.158289,-325.423874,-746.560651,-12232.109131
674.160768,-612.562586,1531.406464,-14088.939469
674.163247,650.847747,-2220.539373,-2469.392923
674.165727,-153.140646,-3579.662610,-12825.529136
674.168206,-478.564520,76.570323,-13457.234302
674.170685,267.996131,-1588.834206,-2143.969050
674.173165,76.570323,-2392.822600,-13878.371080
674.175644,-823.130974,1914.258080,-12289.536874
674.178123,880.558717,-937.986459,-3235.096155
674.180603,-765.703232,-2182.254211,-13208.380752
674.183082,-76.570323,880.558717,-12040.683323
674.185561,401.994197,-1091.127106,-3388.236802
674.188041,-229.710970,-2737.389054,-13648.660110
674.190520,-325.423874,172.283227,-11791.829773
674.192999,459.421939,-1301.695494,-8116.454259
674.195478,-727.418070,-2584.248408,-14242.080115
674.197958,191.425808,306.281293,-6451.049730
674.200437,306.281293,861.416136,-8441.878133
674.202916,-995.414202,-1607.976787,-14012.369146
674.205396,114.855485,-459.421939,-6297.909083
674.207875,-401.994197,784.845813,-9781.858789
674.210354,-401.994197,-2584.248408,-13629.517530
674.212834,-95.712904,-995.414202,-5723.631659
674.215313,803.988394,-1493.121302,-7140.182638
674.217792,-2143.969050,-1225.125171,-14529.218827
674.220272,114.855485,-1761.117434,-6757.331022
674.222751,2756.531635,-3445.664544,-9513.862658
674.225230,-2029.113565,-880.558717,-13840.085918
674.227710,-1052.841944,2009.970984,-6278.766502
674.230210,1359.123237,842.273555,-9667.003304
674.232711,-2335.394858,1875.972918,-15562.918190
674.235212,1397.408398,-2833.101958,-3809.373579
674.237713,-267.996131,-1703.689691,-8958.727814
674.240214,-784.845813,-1607.976787,-16558.332392
674.242715,421.136778,-3675.375514,-4421.936165
674.245215,76.570323,-1320.838075,-6948.756830
674.247716,-363.709035,535.992262,-17764.314982
674.250217,-133.998066,-401.994197,-4326.223261
674.252718,631.705166,-459.421939,-6278.766502
674.255219,-478.564520,861.416136,-18128.024018
674.257720,-497.707101,-918.843878,-4230.510357
674.260221,1052.841944,-2431.107762,-6585.047795
674.262721,-1512.263883,-267.996131,-17917.455629
674.265222,287.138712,-3024.527766,-4575.076811
674.267723,95.712904,-3579.662610,-8039.883936
674.270224,-957.129040,957.129040,-16596.617554
674.272725,976.271621,631.705166,-4479.363907
674.275226,-267.996131,-784.845813,-7350.751027
674.277726,-153.140646,1091.127106,-16826.328523
674.280227,287.138712,-574.277424,-5034.498750
674.282728,-76.570323,-3675.375514,-6680.760699
674.285229,-535.992262,-784.845813,-17515.461432
674.287730,38.285162,-861.416136,-4709.074877
674.290231,114.855485,-3139.383251,-7369.893608
674.292731,-325.423874,-306.281293,-16366.906584
674.295232,-57.427742,995.414202,-5685.346498
674.297733,574.277424,-1914.258080,-6853.043926
674.300234,-1110.269686,1531.406464,-16386.049165
674.302735,861.416136,363.709035,-5417.350366
674.305236,-516.849682,-1167.697429,-11791.829773
674.307737,114.855485,-2526.820666,-11581.261384
674.310237,-38.285162,-1512.263883,-4632.504554
674.312738,-1263.410333,-2909.672282,-12442.677520
674.315239,-38.285162,-3522.234867,-13954.941403
674.317740,114.855485,784.845813,-2048.256146
674.320241,478.564520,76.570323,-13131.810429
674.322742,-1091.127106,440.279358,-12155.538808
674.325242,287.138712,2411.965181,-4823.930362
674.327743,593.420005,-210.568389,-10872.985894
674.330260,-1416.550979,-1684.547110,-12557.533005
674.332776,574.277424,-2220.539373,-5455.635528
674.335293,229.710970,-2871.387120,-11198.409768
674.337809,-1722.832272,-3062.812928,-12442.677520
674.340326,1033.699363,-1205.982590,-5532.205851
674.342842,-650.847747,2622.533570,-14510.076246
674.345359,-382.851616,1014.556782,-10777.272990
674.347875,976.271621,-708.275490,-2986.242605
674.350392,-650.847747,803.988394,-15294.922059
674.352908,-210.568389,-2756.531635,-10183.852986
674.355425,248.853550,-3943.371645,-4173.082614
674.357941,-210.568389,-803.988394,-14586.646570
674.360458,-363.709035,-1397.408398,-10183.852986
674.362974,382.851616,-1914.258080,-4843.072942
674.365491,-191.425808,1607.976787,-13495.519464
674.368007,-153.140646,516.849682,-10279.565890
674.370524,-19.142581,-1799.402595,-5130.211654
674.373040,-133.998066,650.847747,-13572.089787
674.375557,-382.851616,-1875.972918,-9590.432981
674.378073,803.988394,-4613.361973,-6489.334891
674.380590,-478.564520,-2163.111630,-11676.974288
674.383106,57.427742,287.138712,-10604.989763
674.385623,-153.140646,-880.558717,-6987.041992
674.388139,-363.709035,1837.687757,-11294.122672
674.390656,-19.142581,2201.396792,-9877.571693
674.393172,19.142581,-1990.828403,-7255.038123
674.395689,-382.851616,-1837.687757,-11102.696864
674.398205,-382.851616,-765.703232,-10375.278794
674.400722,-114.855485,-3464.807125,-8097.311678
674.403239,-38.285162,-2488.535504,-10509.276859
674.405755,19.142581,363.709035,-9858.429112
674.408272,-746.560651,-918.843878,-9418.149754
674.410788,-210.568389,-823.130974,-9054.440718
674.413305,-95.712904,1512.263883,-10643.274925
674.415821,459.421939,1129.412267,-12404.392358
674.418338,-76.570323,-1148.554848,-5915.057467
674.420854,478.564520,-401.994197,-9207.581365
674.423371,-1473.978722,153.140646,-14299.507858
674.425887,823.130974,-4421.936165,-5761.916821
674.428404,19.142581,-3196.810994,-8461.020714
674.430932,-1052.841944,593.420005,-15007.783347
674.433460,842.273555,-2277.967115,-6412.764568
674.435988,-593.420005,-95.712904,-6431.907149
674.438516,76.570323,1473.978722,-16137.195614
674.441044,114.855485,-535.992262,-5991.627790
674.443572,-0.000000,-1435.693560,-6623.332957
674.446100,-133.998066,57.427742,-16826.328523
674.448628,-382.851616,-2220.539373,-5379.065205
674.451156,401.994197,-3407.379382,-6393.621987
674.453683,-535.992262,-842.273555,-15122.638832
674.456211,-38.285162,-191.425808,-6814.758765
674.458739,363.709035,-2469.392923,-7274.180704
674.461267,-880.558717,2048.256146,-15428.920125
674.463795,421.136778,1014.556782,-5876.772306
674.466323,95.712904,-2316.252277,-7446.463931
674.468851,976.271621,-1416.550979,-14069.796888
674.471379,-287.138712,-1684.547110,-6049.055533
674.473907,-1646.261949,-3464.807125,-10470.991698
674.476435,1186.840010,-1129.412267,-13150.953010
674.478963,-727.418070,2067.398726,-6489.334891
674.481491,-306.281293,-1493.121302,-10892.128475
674.484019,-133.998066,1339.980656,-10336.993632
674.486547,-248.853550,1703.689691,-6987.041992
674.489075,-0.000000,-3579.662610,-11428.120738
674.491603,95.712904,-2967.100024,-5130.211654
674.494131,-76.570323,-1148.554848,-8920.442653
674.496659,-1071.984525,-2239.681954,-15543.775610
674.499187,708.275490,-3062.812928,-4421.936165
674.501715,-38.285162,1110.269686,-8422.735552
674.504243,-344.566454,1263.410333,-16500.904650
674.506771,631.705166,191.425808,-2890.529701
674.509299,-440.279358,899.701298,-9016.155557
674.511827,-880.558717,-1378.265818,-17170.894978
674.514355,574.277424,-4364.508422,-1397.408398
674.516883,-76.570323,-3139.383251,-10853.843314
674.519411,-459.421939,-708.275490,-16845.471104
674.521939,-76.570323,-842.273555,-1244.267752
674.524467,267.996131,-76.570323,-11217.552349
674.526995,-421.136778,957.129040,-16941.184008
674.529523,363.709035,-76.570323,-1607.976787
674.532059,-191.425808,-2469.392923,-13323.236237
674.534596,-440.279358,650.847747,-13897.513661
674.537132,478.564520,-1818.545176,-1263.410333
674.539668,-248.853550,-3771.088418,-14356.935600
674.542205,-57.427742,-153.140646,-12423.534939
674.544741,-19.142581,19.142581,-2928.814862
674.547277,-612.562586,-2679.961312,-13840.085918
674.549814,-95.712904,708.275490,-12327.822035
674.552350,210.568389,0.000000,-3464.807125
674.554886,-248.853550,-2622.533570,-13131.810429
674.557423,38.285162,382.851616,-11772.687192
674.559959,-57.427742,229.710970,-3981.656806
674.562495,-229.710970,-3273.381317,-13897.513661
674.565031,-172.283227,363.709035,-5474.778109
674.567568,114.855485,38.285162,-8461.020714
674.570104,-669.990328,-1895.115499,-15677.773675
674.572640,-95.712904,-1225.125171,-3483.949706
674.575177,363.709035,-191.425808,-10030.712339
674.577713,-976.271621,-1167.697429,-15333.207221
674.580249,191.425808,-459.421939,-3292.523898
674.582786,497.707101,459.421939,-10107.282662
674.585322,-1607.976787,-1301.695494,-15524.633029
674.587858,784.845813,-3005.385186,-3407.379382
674.590395,-133.998066,-1110.269686,-10872.985894
674.592931,-382.851616,-1186.840010,-14624.931731
674.595467,689.132909,-401.994197,-3273.381317
674.598003,-803.988394,2048.256146,-10738.987829
674.600540,38.285162,-593.420005,-14567.503989
674.603076,-248.853550,-1569.691626,-2201.396792
674.605612,114.855485,-3177.668413,-12844.671717
674.608149,-363.709035,-382.851616,-14242.080115
674.610685,267.996131,-1933.400661,-1607.976787
674.613221,57.427742,-2469.392923,-13591.232368
674.615758,-478.564520,937.986459,-13036.097525
674.618294,287.138712,-631.705166,-2086.541307
674.620830,440.279358,-2622.533570,-13227.523333
674.623367,-842.273555,1186.840010,-13265.808494
674.625903,727.418070,-918.843878,-2679.961312
674.628439,-248.853550,-2163.111630,-14720.644635
674.630975,-421.136778,1359.123237,-11179.267187
674.633519,38.285162,-344.566454,-3024.527766
674.636063,-727.418070,-3579.662610,-14088.939469
674.638607,191.425808,-861.416136,-10834.700733
674.641151,-459.421939,191.425808,-8499.305875
674.643695,-133.998066,-2756.531635,-13763.515595
674.646238,248.853550,-76.570323,-5723.631659
674.648782,-267.996131,1091.127106,-10164.710405
674.651326,-401.994197,-1971.685822,-12863.814298
674.653870,191.425808,-57.427742,-5895.914886
674.656414,-153.140646,38.285162,-10222.138147
674.658958,-382.851616,-2794.816797,-13323.236237
674.661501,-19.142581,-1339.980656,-4938.785846
674.664045,-191.425808,-497.707101,-11026.126541
674.666589,-497.707101,-3388.236802,-11964.113000
