#time,accel_x,accel_y,accel_z
286.516940,536.266849,296.082377,9548.656652
286.517248,842.705048,296.082377,9918.759623
286.517556,612.876398,-0.000000,9548.656652
286.517864,306.438199,-0.000000,9548.656652
286.518172,842.705048,-74.020594,9622.677246
286.518479,536.266849,-0.000000,9548.656652
286.518787,383.047749,296.082377,9622.677246
286.519095,689.485948,222.061783,9622.677246
286.519403,689.485948,222.061783,9622.677246
286.519711,612.876398,-0.000000,9696.697840
286.520019,536.266849,296.082377,9696.697840
286.520327,459.657299,1036.288319,9844.739029
286.520635,612.876398,-0.000000,9622.677246
286.520943,689.485948,222.061783,9548.656652
286.521250,612.876398,370.102971,9696.697840
286.521558,536.266849,296.082377,9548.656652
286.521866,536.266849,222.061783,9622.677246
286.522174,766.095498,666.185348,9918.759623
286.522482,1149.143247,-74.020594,9696.697840
286.522790,459.657299,-0.000000,9622.677246
286.523098,995.924147,-0.000000,9474.636058
286.523406,536.266849,148.041188,9622.677246
286.523713,766.095498,148.041188,9622.677246
286.524021,229.828649,296.082377,9548.656652
286.524329,842.705048,296.082377,9548.656652
286.524637,383.047749,-0.000000,9326.594869
286.524945,536.266849,370.102971,9474.636058
286.525253,459.657299,666.185348,9992.780217
286.525561,536.266849,148.041188,9622.677246
286.525869,612.876398,148.041188,9548.656652
286.526177,536.266849,-0.000000,9622.677246
286.526484,459.657299,148.041188,9548.656652
286.526792,842.705048,-74.020594,9622.677246
286.527100,612.876398,-0.000000,9548.656652
286.527408,612.876398,-0.000000,9326.594869
286.527716,1072.533697,222.061783,9696.697840
286.528024,842.705048,222.061783,9474.636058
286.528332,689.485948,296.082377,9548.656652
286.528640,612.876398,148.041188,9622.677246
286.528947,689.485948,148.041188,9696.697840
286.529255,842.705048,-0.000000,9696.697840
286.529563,536.266849,-0.000000,9548.656652
286.529871,306.438199,370.102971,9474.636058
286.530179,766.095498,444.123565,9992.780217
286.530487,229.828649,148.041188,9844.739029
286.530795,536.266849,-296.082377,9918.759623
286.531103,766.095498,-222.061783,10066.800811
286.531411,995.924147,-962.267725,9918.759623
286.531718,766.095498,-74.020594,10066.800811
286.532026,1225.752797,-666.185348,10066.800811
286.532334,1302.362347,-148.041188,10214.842000
286.532642,1302.362347,-0.000000,9696.697840
286.532950,1838.629195,-0.000000,8808.450710
286.533258,2451.505594,740.205942,8512.368333
286.533566,2451.505594,962.267725,8808.450710
286.533874,2451.505594,592.164754,8808.450710
286.534182,1915.238745,444.123565,9030.512492
286.534489,1991.848295,370.102971,9252.574275
286.534797,1991.848295,370.102971,9770.718434
286.535105,1608.800546,-0.000000,9992.780217
286.535413,1685.410096,-0.000000,10214.842000
286.535721,1455.581446,-222.061783,10066.800811
286.536029,1762.019645,-74.020594,9992.780217
286.536337,1608.800546,-148.041188,10140.821405
286.536645,2145.067394,-148.041188,9918.759623
286.536952,2757.943793,370.102971,9770.718434
286.537260,2528.115143,-0.000000,9326.594869
286.537568,3140.991542,444.123565,9326.594869
286.537876,2834.553343,370.102971,9400.615463
286.538184,2757.943793,444.123565,9548.656652
286.538492,2528.115143,148.041188,9474.636058
286.538800,2451.505594,148.041188,9622.677246
286.539108,2757.943793,-148.041188,9770.718434
286.539416,2987.772442,-222.061783,9696.697840
286.539723,3370.820191,296.082377,9622.677246
286.540031,2757.943793,-74.020594,9696.697840
286.540339,2911.162892,-74.020594,9918.759623
286.540647,3140.991542,-74.020594,9992.780217
286.540955,2987.772442,-0.000000,9992.780217
286.541263,3294.210641,148.041188,9770.718434
286.541571,3524.039291,296.082377,10140.821405
286.541879,3524.039291,444.123565,9622.677246
286.542186,3907.087040,-0.000000,9474.636058
286.542494,3677.258390,518.144159,9400.615463
286.542802,4213.525239,666.185348,9030.512492
286.543110,4673.182538,370.102971,9104.533087
286.543418,4519.963438,-0.000000,9326.594869
286.543726,4366.744339,-0.000000,9252.574275
286.544034,4290.134789,-0.000000,9474.636058
286.544342,4213.525239,-222.061783,9622.677246
286.544650,4136.915689,-0.000000,9622.677246
286.544957,3983.696590,-74.020594,9622.677246
286.545265,4290.134789,592.164754,9252.574275
286.545573,4366.744339,962.267725,9326.594869
286.545881,4673.182538,962.267725,8808.450710
286.546189,4749.792088,1184.329507,8808.450710
286.546497,4519.963438,1110.308913,8512.368333
286.546805,4213.525239,1332.370696,8956.491898
286.547113,4213.525239,1036.288319,9844.739029
286.547420,3677.258390,592.164754,9400.615463
286.547728,3753.867940,740.205942,9548.656652
286.548036,2911.162892,-0.000000,9918.759623
286.548344,3370.820191,962.267725,9696.697840
286.548652,2681.334243,666.185348,9326.594869
286.548960,2834.553343,518.144159,10066.800811
286.549268,2604.724693,814.226536,10510.924376
286.549576,2451.505594,1184.329507,9696.697840
286.549884,2604.724693,-0.000000,9770.718434
286.550191,2298.286494,518.144159,10066.800811
286.550499,2145.067394,518.144159,9844.739029
286.550807,1532.190996,-0.000000,9770.718434
286.551115,1455.581446,-444.123565,10214.842000
286.551423,919.314598,-814.226536,10658.965565
286.551731,1302.362347,-1480.411884,10807.006753
286.552039,919.314598,-1184.329507,11029.068536
286.552347,2068.457845,-1998.556043,10881.027347
286.552655,2451.505594,-1776.494261,10362.883188
286.552962,2834.553343,-1776.494261,10066.800811
286.553270,3524.039291,-1776.494261,10066.800811
286.553578,3677.258390,-1184.329507,9844.739029
286.553886,3830.477490,-962.267725,9178.553681
286.554194,4213.525239,-370.102971,9252.574275
286.554502,4443.353888,-0.000000,8956.491898
286.554810,4519.963438,518.144159,8290.306550
286.555118,4903.011187,666.185348,8364.327145
286.555425,5056.230287,740.205942,8142.265362
286.555733,4826.401637,370.102971,8438.347739
286.556041,4290.134789,370.102971,8438.347739
286.556349,4443.353888,-0.000000,9252.574275
286.556657,3600.648841,-296.082377,9474.636058
286.556965,3524.039291,-0.000000,9474.636058
286.557273,3294.210641,-0.000000,9474.636058
286.557581,3370.820191,962.267725,9252.574275
286.557889,3907.087040,1776.494261,8882.471304
286.558196,4290.134789,2442.679609,8438.347739
286.558504,4673.182538,2960.823768,8290.306550
286.558812,4596.572988,3108.864956,7846.182985
286.559120,4060.306139,2220.617826,8734.430116
286.559428,3524.039291,888.247130,9622.677246
286.559736,1838.629195,-74.020594,10955.047942
286.560044,1225.752797,-1628.453072,12065.356855
286.560352,689.485948,-2664.741391,13249.686362
286.560659,536.266849,-3627.009116,13545.768739
286.560967,919.314598,-3627.009116,13693.809927
286.561275,1838.629195,-3404.947333,12509.480420
286.561583,3677.258390,-2294.638420,10807.006753
286.561891,4903.011187,-222.061783,9400.615463
286.562199,7048.078582,962.267725,8586.388927
286.562507,6894.859482,2368.659014,6143.709319
286.562815,7660.954980,3923.091493,5995.668130
286.563123,8427.050478,4589.276840,5699.585753
286.563430,7431.126331,5181.441594,4663.297435
286.563738,6435.202183,4367.215058,5847.626942
286.564046,4979.620737,3330.926739,6957.935855
286.564354,3447.429741,2368.659014,8290.306550
286.564662,1915.238745,814.226536,9622.677246
286.564970,919.314598,-666.185348,11103.089130
286.565278,-229.828649,-2590.720797,12583.501014
286.565586,-306.438199,-4071.132681,13693.809927
286.565893,306.438199,-4589.276840,14063.912898
286.566201,612.876398,-4367.215058,13619.789333
286.566509,1455.581446,-4145.153275,13471.748144
286.566817,3217.601092,-2590.720797,11843.295072
286.567125,4596.572988,-1628.453072,11177.109724
286.567433,4826.401637,444.123565,8512.368333
286.567741,5898.935335,1924.535449,6957.935855
286.568049,6588.421283,2886.803174,6957.935855
286.568357,6205.373534,3849.070898,5921.647536
286.568664,6128.763984,4145.153275,5773.606348
286.568972,5515.887586,3256.906145,5995.668130
286.569280,3830.477490,1924.535449,7624.121203
286.569588,2604.724693,592.164754,8290.306550
286.569896,1762.019645,-1554.432478,10658.965565
286.570204,306.438199,-2738.761985,11843.295072
286.570512,-612.876398,-3923.091493,13101.645173
286.570820,536.266849,-3404.947333,13323.706956
286.571127,1378.971896,-2442.679609,12287.418637
286.571435,3140.991542,-518.144159,10362.883188
286.571743,4596.572988,1480.411884,8290.306550
286.572051,5898.935335,3849.070898,5995.668130
286.572359,6205.373534,5329.482782,4737.318029
286.572667,6741.640382,5847.626942,4663.297435
286.572975,5898.935335,5847.626942,5403.503377
286.573283,4519.963438,3330.926739,7402.059420
286.573591,1608.800546,148.041188,9326.594869
286.573898,-995.924147,-1628.453072,11103.089130
286.574206,-3217.601092,-3923.091493,14285.974681
286.574514,-4213.525239,-5921.647536,16802.674883
286.574822,-4903.011187,-6883.915261,17616.901420
286.575130,-3907.087040,-6217.729913,16506.592507
286.575438,-1762.019645,-5033.400406,14656.077652
286.575746,842.705048,-2220.617826,11029.068536
286.576054,3677.258390,1702.473667,7328.038826
286.576362,5745.716235,3701.029710,5921.647536
286.576669,7431.126331,5255.462188,4071.132681
286.576977,7737.564530,7105.977043,2664.741391
286.577285,7048.078582,7105.977043,2294.638420
286.577593,6665.030833,3627.009116,5995.668130
286.577901,2834.553343,740.205942,7550.100608
286.578209,-1378.971896,-3108.864956,11473.192101
286.578517,-2068.457845,-6587.832884,14804.118840
286.578825,-4443.353888,-6439.791695,14211.954086
286.579132,-2604.724693,-6143.709319,14656.077652
286.579440,-612.876398,-2664.741391,11769.274478
286.579748,3064.381992,-0.000000,10066.800811
286.580056,5209.449386,2886.803174,7031.956449
286.580364,6971.469032,6587.832884,4589.276840
286.580672,7814.174080,7328.038826,3552.988522
286.580980,7431.126331,7179.997637,4663.297435
286.581288,5592.497135,6291.750507,5995.668130
286.581596,2528.115143,3775.050304,8290.306550
286.581903,-153.219100,-814.226536,12435.459826
286.582211,-4060.306139,-3627.009116,13989.892304
286.582519,-6052.154434,-6217.729913,17098.757260
286.582827,-7354.516781,-8364.327145,18283.086767
286.583135,-6588.421283,-7105.977043,17098.757260
286.583443,-3140.991542,-4071.132681,14804.118840
286.583751,536.266849,-1258.350101,10658.965565
286.584059,3294.210641,962.267725,7328.038826
286.584366,5822.325785,4145.153275,5033.400406
286.584674,8197.221829,6217.729913,3701.029710
286.584982,7660.954980,6883.915261,2886.803174
286.585290,6741.640382,5773.606348,4367.215058
286.585598,4443.353888,3627.009116,6957.935855
286.585906,1302.362347,444.123565,8660.409521
286.586214,-995.924147,-1184.329507,10881.027347
286.586522,-3217.601092,-2146.597232,11547.212695
286.586830,-2604.724693,-2664.741391,12657.521608
286.587137,-1991.848295,-2072.576638,12139.377449
286.587445,306.438199,-592.164754,10881.027347
286.587753,1378.971896,-0.000000,8882.471304
286.588061,1915.238745,-444.123565,8438.347739
286.588369,1991.848295,-222.061783,9770.718434
286.588677,1072.533697,-222.061783,9992.780217
286.588985,-383.047749,-1184.329507,10510.924376
286.589293,-1838.629195,-1332.370696,11029.068536
286.589600,-2451.505594,-740.205942,11029.068536
286.589908,-2451.505594,-592.164754,10510.924376
286.590216,-1762.019645,296.082377,10214.842000
286.590524,-766.095498,444.123565,9992.780217
286.590832,919.314598,1184.329507,8808.450710
286.591140,2451.505594,666.185348,8142.265362
286.591448,2145.067394,148.041188,8142.265362
286.591756,2374.896044,-888.247130,8364.327145
286.592064,2068.457845,-1332.370696,8956.491898
286.592372,842.705048,-1480.411884,9844.739029
286.592679,689.485948,-1406.391290,9844.739029
286.592987,1072.533697,-0.000000,9474.636058
286.593295,1762.019645,1850.514855,8956.491898
286.593603,2911.162892,3108.864956,7846.182985
286.593911,3830.477490,4145.153275,6217.729913
286.594219,4366.744339,4811.338623,5625.565159
286.594527,3830.477490,3775.050304,7031.956449
286.594835,1838.629195,1554.432478,9548.656652
286.595143,-306.438199,-962.267725,12435.459826
286.595451,-2451.505594,-4145.153275,14656.077652
286.595758,-5132.839837,-5477.523971,14730.098246
286.596066,-6052.154434,-5625.565159,15914.427753
286.596374,-5209.449386,-4589.276840,14952.160028
286.596682,-3983.696590,-1924.535449,12509.480420
286.596990,-1455.581446,444.123565,10436.903782
286.597298,1455.581446,2664.741391,7772.162391
286.597606,4136.915689,4515.256246,5847.626942
286.597914,5669.106685,5403.503377,4293.194464
286.598222,5822.325785,4959.379811,4737.318029
286.598530,4519.963438,3775.050304,5107.421000
286.598837,3140.991542,1406.391290,8512.368333
286.599145,536.266849,-1554.432478,11399.171507
286.599453,-1762.019645,-2664.741391,11695.253884
286.599761,-2068.457845,-2294.638420,11769.274478
286.600069,-1455.581446,-1406.391290,11029.068536
286.600377,-459.657299,-592.164754,10955.047942
286.600685,1915.238745,1258.350101,9770.718434
286.600993,3217.601092,1850.514855,7624.121203
286.601301,3140.991542,2146.597232,7179.997637
286.601609,2987.772442,1850.514855,7920.203579
286.601916,2221.676944,1184.329507,9474.636058
286.602224,76.609550,-296.082377,11029.068536
286.602532,-1608.800546,-2294.638420,12287.418637
286.602840,-3217.601092,-2886.803174,13175.665768
286.603148,-4060.306139,-3182.885551,12805.562797
286.603456,-3217.601092,-1480.411884,12287.418637
286.603764,-2298.286494,-0.000000,11325.150913
286.604072,459.657299,444.123565,9622.677246
286.604380,2298.286494,1628.453072,6809.894666
286.604687,3294.210641,2294.638420,6365.771101
286.604995,3600.648841,592.164754,7402.059420
286.605303,3294.210641,296.082377,7328.038826
286.605611,2681.334243,-0.000000,9696.697840
286.605919,1608.800546,-666.185348,9992.780217
286.606227,612.876398,148.041188,9400.615463
286.606535,919.314598,814.226536,9252.574275
286.606843,1378.971896,2368.659014,7550.100608
286.607151,2374.896044,2442.679609,8364.327145
286.607459,2681.334243,1998.556043,7328.038826
286.607766,2451.505594,2738.761985,7846.182985
286.608074,2681.334243,370.102971,8734.430116
286.608382,1149.143247,-1332.370696,9992.780217
286.608690,-919.314598,-2442.679609,11695.253884
286.608998,-2451.505594,-3404.947333,12287.418637
286.609306,-2834.553343,-3478.967927,14508.036463
286.609614,-3447.429741,-3404.947333,12361.439231
286.609922,-4213.525239,-296.082377,10362.883188
286.610230,-306.438199,-592.164754,12509.480420
286.610538,0.000000,2146.597232,7772.162391
286.610845,2451.505594,3182.885551,7476.080014
286.611153,3830.477490,3256.906145,5995.668130
286.611461,3753.867940,2368.659014,5625.565159
286.611769,2987.772442,962.267725,8364.327145
286.612077,2145.067394,-222.061783,9178.553681
286.612385,536.266849,-1850.514855,11325.150913
286.612693,-1149.143247,-2146.597232,10732.986159
286.613001,-842.705048,-1998.556043,11103.089130
286.613309,0.000000,-370.102971,9400.615463
286.613617,766.095498,592.164754,9400.615463
286.613924,2451.505594,2590.720797,8290.306550
286.614232,3370.820191,2960.823768,7105.977043
286.614540,3600.648841,2590.720797,7179.997637
286.614848,2221.676944,1850.514855,7550.100608
286.615156,2298.286494,592.164754,9696.697840
286.615464,-383.047749,-1554.432478,12139.377449
286.615772,-2451.505594,-3108.864956,13767.830521
286.616080,-4213.525239,-3701.029710,14211.954086
286.616388,-5056.230287,-2886.803174,13915.871710
286.616696,-4136.915689,-1554.432478,12509.480420
286.617003,-1991.848295,370.102971,11029.068536
286.617311,229.828649,1776.494261,9474.636058
286.617619,2374.896044,2442.679609,6957.935855
286.617927,3370.820191,2960.823768,6291.750507
286.618235,3447.429741,2442.679609,6883.915261
286.618543,2757.943793,1184.329507,8216.285956
286.618851,1302.362347,-0.000000,9548.656652
286.619159,0.000000,-814.226536,10732.986159
286.619467,-689.485948,-1184.329507,10658.965565
286.619774,-1149.143247,-888.247130,10288.862594
286.620082,-306.438199,222.061783,10140.821405
286.620390,1149.143247,1110.308913,8808.450710
286.620698,2604.724693,1702.473667,7772.162391
286.621006,3370.820191,2146.597232,7105.977043
286.621314,3294.210641,1776.494261,6513.812290
286.621622,2374.896044,444.123565,8142.265362
286.621930,1072.533697,-814.226536,10288.862594
286.622238,-536.266849,-2294.638420,11621.233289
286.622546,-2451.505594,-3108.864956,13471.748144
286.622853,-3447.429741,-3182.885551,13619.789333
286.623161,-3064.381992,-2220.617826,12139.377449
286.623469,-2374.896044,-296.082377,11695.253884
286.623777,0.000000,592.164754,10658.965565
286.624085,1762.019645,2072.576638,7698.141797
286.624393,3370.820191,2664.741391,6883.915261
286.624701,3753.867940,1998.556043,5921.647536
286.625009,3677.258390,1480.411884,7254.018232
286.625317,2604.724693,-148.041188,9030.512492
286.625625,1532.190996,-1332.370696,10362.883188
286.625932,76.609550,-1850.514855,10955.047942
286.626240,-612.876398,-1258.350101,10881.027347
286.626548,306.438199,-592.164754,10140.821405
286.626856,766.095498,592.164754,9696.697840
286.627164,2451.505594,2516.700203,8512.368333
286.627472,4060.306139,2738.761985,6957.935855
286.627780,4136.915689,3182.885551,6291.750507
286.628088,3447.429741,2220.617826,7550.100608
286.628396,2298.286494,296.082377,9326.594869
286.628704,689.485948,-592.164754,11177.109724
286.629011,-1455.581446,-2590.720797,12731.542202
286.629319,-3064.381992,-3404.947333,13249.686362
286.629627,-3064.381992,-3034.844362,13545.768739
286.629935,-3447.429741,-1554.432478,12361.439231
286.630243,-2374.896044,370.102971,10436.903782
286.630551,229.828649,444.123565,10066.800811
286.630859,2068.457845,2294.638420,7772.162391
286.631167,3294.210641,2960.823768,5995.668130
286.631475,3600.648841,2368.659014,6513.812290
286.631783,3064.381992,888.247130,7920.203579
286.632090,2145.067394,444.123565,9252.574275
286.632398,919.314598,-222.061783,10140.821405
286.632706,-383.047749,-1258.350101,10881.027347
286.633014,-995.924147,-1184.329507,10658.965565
286.633322,-459.657299,-0.000000,10214.842000
286.633630,612.876398,1036.288319,9474.636058
286.633938,1608.800546,1702.473667,8808.450710
286.634246,2374.896044,2368.659014,7550.100608
286.634554,2987.772442,2368.659014,7328.038826
286.634861,2451.505594,1110.308913,8586.388927
286.635169,1685.410096,-74.020594,9474.636058
286.635477,-306.438199,-1332.370696,10955.047942
286.635785,-2221.676944,-2442.679609,13545.768739
286.636093,-3294.210641,-3182.885551,13397.727550
286.636401,-4136.915689,-1924.535449,13101.645173
286.636709,-3447.429741,-1110.308913,11991.336260
286.637017,-1302.362347,222.061783,10436.903782
286.637325,383.047749,1702.473667,8956.491898
286.637633,1608.800546,2368.659014,7402.059420
286.637940,2911.162892,1850.514855,6957.935855
286.638248,2911.162892,1628.453072,7105.977043
286.638556,2451.505594,592.164754,8142.265362
286.638864,1915.238745,-0.000000,9474.636058
286.639172,0.000000,-518.144159,9844.739029
286.639480,229.828649,-1258.350101,11029.068536
286.639788,0.000000,-222.061783,9622.677246
286.640096,-612.876398,592.164754,9474.636058
286.640404,1378.971896,962.267725,9178.553681
286.640712,2911.162892,2442.679609,7254.018232
286.641019,3294.210641,2220.617826,7179.997637
286.641327,3064.381992,1998.556043,6735.874072
286.641635,2757.943793,518.144159,8068.244768
286.641943,919.314598,-1480.411884,10066.800811
286.642251,-1149.143247,-2516.700203,11843.295072
286.642559,-2528.115143,-3330.926739,13545.768739
286.642867,-4060.306139,-3627.009116,13619.789333
286.643175,-3983.696590,-2368.659014,12657.521608
286.643483,-2757.943793,-296.082377,11621.233289
286.643791,-612.876398,592.164754,10584.944971
286.644098,1608.800546,1776.494261,7846.182985
286.644406,3140.991542,3330.926739,5773.606348
286.644714,4366.744339,2294.638420,6069.688724
286.645022,3600.648841,1776.494261,7105.977043
286.645330,2374.896044,1184.329507,8438.347739
286.645638,1685.410096,-370.102971,9992.780217
286.645946,536.266849,-1036.288319,10510.924376
286.646254,-459.657299,-962.267725,10436.903782
286.646562,-229.828649,222.061783,10288.862594
286.646870,842.705048,814.226536,9400.615463
286.647177,1302.362347,1628.453072,9030.512492
286.647485,2834.553343,2368.659014,8512.368333
286.647793,3217.601092,2294.638420,7179.997637
286.648101,3370.820191,1628.453072,7624.121203
286.648409,2451.505594,518.144159,9178.553681
286.648717,229.828649,-666.185348,10881.027347
286.649025,-1072.533697,-2294.638420,13101.645173
286.649333,-2528.115143,-2664.741391,13397.727550
286.649641,-4060.306139,-2368.659014,12953.603985
286.649949,-2681.334243,-1702.473667,12657.521608
286.650256,-1225.752797,74.020594,11843.295072
286.650564,-459.657299,1776.494261,9474.636058
286.650872,1838.629195,2146.597232,7994.224174
286.651180,3294.210641,2812.782580,6217.729913
286.651488,3370.820191,2664.741391,6439.791695
286.651796,2987.772442,1480.411884,8290.306550
286.652104,1915.238745,888.247130,8808.450710
286.652412,1532.190996,-666.185348,10658.965565
286.652720,-766.095498,-1184.329507,10807.006753
286.653027,-919.314598,-888.247130,11399.171507
286.653335,-1072.533697,-0.000000,10362.883188
286.653643,76.609550,1184.329507,9622.677246
286.653951,1991.848295,1850.514855,9030.512492
286.654259,2757.943793,2368.659014,7328.038826
286.654567,2911.162892,1554.432478,7179.997637
286.654875,3217.601092,592.164754,7846.182985
286.655183,1225.752797,-444.123565,9474.636058
286.655491,-689.485948,-2294.638420,11843.295072
286.655799,-2221.676944,-3182.885551,12731.542202
286.656106,-3677.258390,-2738.761985,12731.542202
286.656414,-3294.210641,-1998.556043,12435.459826
286.656722,-1991.848295,-222.061783,10807.006753
286.657030,-536.266849,740.205942,9474.636058
286.657338,1762.019645,1628.453072,8142.265362
286.657646,2451.505594,2220.617826,6291.750507
286.657954,3064.381992,2368.659014,6661.853478
286.658262,3064.381992,1406.391290,6957.935855
286.658570,2068.457845,814.226536,7772.162391
286.658878,1225.752797,-1184.329507,10066.800811
286.659185,459.657299,-2072.576638,10881.027347
286.659493,-1378.971896,-1776.494261,11029.068536
286.659801,-842.705048,-1480.411884,11695.253884
286.660109,-459.657299,-0.000000,10288.862594
286.660417,536.266849,1406.391290,8956.491898
286.660725,2528.115143,2146.597232,7846.182985
286.661033,3064.381992,2812.782580,6365.771101
286.661341,3983.696590,2294.638420,7105.977043
286.661649,2681.334243,740.205942,8290.306550
286.661957,995.924147,-814.226536,10362.883188
286.662264,-536.266849,-2220.617826,12879.583391
286.662572,-2604.724693,-3108.864956,13027.624579
286.662880,-3830.477490,-2738.761985,13101.645173
286.663188,-2987.772442,-1924.535449,12287.418637
286.663496,-1608.800546,-0.000000,10955.047942
286.663804,76.609550,1776.494261,9104.533087
286.664112,2757.943793,2368.659014,7846.182985
286.664420,4060.306139,2812.782580,5699.585753
286.664728,4290.134789,2368.659014,5625.565159
286.665036,4290.134789,1850.514855,7179.997637
286.665343,2528.115143,888.247130,8438.347739
286.665651,1072.533697,-74.020594,10214.842000
286.665959,229.828649,-1332.370696,11177.109724
286.666267,-1455.581446,-1110.308913,10955.047942
286.666575,-1072.533697,-962.267725,11621.233289
286.666883,76.609550,-0.000000,10881.027347
286.667191,153.219100,1406.391290,9844.739029
286.667499,2604.724693,1702.473667,8364.327145
286.667807,3064.381992,2146.597232,7031.956449
286.668114,2451.505594,1554.432478,7994.224174
286.668422,1532.190996,-444.123565,9992.780217
286.668730,383.047749,-814.226536,11177.109724
286.669038,-1378.971896,-2146.597232,12731.542202
286.669346,-2451.505594,-2738.761985,13101.645173
286.669654,-2987.772442,-1480.411884,13027.624579
286.669962,-2757.943793,-592.164754,11695.253884
286.670270,-1302.362347,740.205942,10362.883188
286.670578,919.314598,1924.535449,8512.368333
286.670886,2834.553343,2960.823768,6883.915261
286.671193,4136.915689,3034.844362,5551.544565
286.671501,4366.744339,2146.597232,5921.647536
286.671809,3447.429741,1702.473667,7328.038826
286.672117,2221.676944,-148.041188,8808.450710
286.672425,766.095498,-814.226536,10066.800811
286.672733,-383.047749,-1406.391290,10881.027347
286.673041,-1225.752797,-666.185348,10807.006753
286.673349,-766.095498,-0.000000,10362.883188
286.673657,153.219100,814.226536,9696.697840
286.673965,1302.362347,1702.473667,9104.533087
286.674272,2681.334243,1702.473667,8290.306550
286.674580,2757.943793,1480.411884,7698.141797
286.674888,1608.800546,-0.000000,9178.553681
286.675196,919.314598,-1702.473667,10214.842000
286.675504,-1532.190996,-2886.803174,12139.377449
286.675812,-3064.381992,-4145.153275,13619.789333
286.676120,-4060.306139,-3404.947333,13767.830521
286.676428,-3524.039291,-1776.494261,12361.439231
286.676736,-2298.286494,-518.144159,11177.109724
286.677044,-766.095498,592.164754,9474.636058
286.677351,2145.067394,2590.720797,7179.997637
286.677659,4060.306139,3108.864956,5551.544565
286.677967,4213.525239,3108.864956,4885.359217
286.678275,4136.915689,2368.659014,6439.791695
286.678583,3753.867940,1184.329507,7254.018232
286.678891,1838.629195,-518.144159,9474.636058
286.679199,0.000000,-1184.329507,11251.130318
286.679507,-1149.143247,-1480.411884,11103.089130
286.679815,-1685.410096,-518.144159,10510.924376
286.680123,-689.485948,-222.061783,10510.924376
286.680430,0.000000,1110.308913,10140.821405
286.680738,1991.848295,1628.453072,9178.553681
286.681046,2451.505594,1480.411884,7179.997637
286.681354,2911.162892,1110.308913,7920.203579
286.681662,2681.334243,-0.000000,9474.636058
286.681970,1225.752797,-1628.453072,11251.130318
286.682278,-1149.143247,-2516.700203,13101.645173
286.682586,-2681.334243,-2664.741391,13323.706956
286.682894,-3294.210641,-2664.741391,12879.583391
286.683202,-3217.601092,-1554.432478,12065.356855
286.683509,-1838.629195,-74.020594,11547.212695
286.683817,1149.143247,1850.514855,9548.656652
286.684125,2451.505594,3034.844362,7402.059420
286.684433,4290.134789,3256.906145,5921.647536
286.684741,4673.182538,3182.885551,5551.544565
286.685049,4060.306139,2442.679609,6661.853478
286.685357,3217.601092,962.267725,8808.450710
286.685665,1915.238745,-222.061783,10066.800811
286.685973,-306.438199,-666.185348,10881.027347
286.686280,-383.047749,-1332.370696,11103.089130
286.686588,-1378.971896,-0.000000,10732.986159
286.686896,0.000000,518.144159,10584.944971
286.687204,1378.971896,1554.432478,9178.553681
286.687512,2604.724693,2442.679609,8364.327145
286.687820,3370.820191,2072.576638,7698.141797
286.688128,2604.724693,1184.329507,8068.244768
286.688436,1838.629195,-740.205942,10066.800811
286.688744,-919.314598,-2220.617826,12139.377449
286.689052,-2451.505594,-3182.885551,13397.727550
286.689359,-3753.867940,-3404.947333,13471.748144
286.689667,-3907.087040,-2738.761985,13101.645173
286.689975,-2604.724693,-888.247130,11695.253884
286.690283,-459.657299,1036.288319,9622.677246
286.690591,1608.800546,2294.638420,8290.306550
286.690899,3447.429741,3108.864956,6217.729913
286.691207,4673.182538,3701.029710,4959.379811
286.691514,3907.087040,2960.823768,6069.688724
286.691822,3677.258390,1184.329507,7105.977043
286.692130,2221.676944,222.061783,9104.533087
286.692438,459.657299,-1110.308913,10362.883188
286.692746,-1072.533697,-1998.556043,11177.109724
286.693054,-1608.800546,-1406.391290,11029.068536
286.693362,-1225.752797,-0.000000,10436.903782
286.693670,153.219100,962.267725,10066.800811
286.693977,1685.410096,1036.288319,9104.533087
286.694285,2528.115143,1924.535449,7772.162391
286.694593,2451.505594,1036.288319,7031.956449
286.694901,1225.752797,-0.000000,8660.409521
286.695209,383.047749,-1332.370696,11251.130318
286.695517,-1302.362347,-2886.803174,12731.542202
286.695825,-2757.943793,-3627.009116,14063.912898
286.696133,-3907.087040,-3627.009116,13101.645173
286.696440,-4136.915689,-2146.597232,12361.439231
286.696748,-2298.286494,-0.000000,10584.944971
286.697056,229.828649,1184.329507,9474.636058
286.697364,1915.238745,2442.679609,7105.977043
286.697672,3600.648841,3256.906145,5847.626942
286.697980,4903.011187,2664.741391,5255.462188
286.698288,3753.867940,2368.659014,6143.709319
286.698596,3830.477490,888.247130,7920.203579
286.698903,1915.238745,74.020594,9178.553681
286.699211,383.047749,-1036.288319,10955.047942
286.699519,-766.095498,-1554.432478,11251.130318
286.699827,-1302.362347,370.102971,10066.800811
286.700135,-229.828649,1184.329507,10288.862594
286.700443,1149.143247,1332.370696,9104.533087
286.700751,2298.286494,2146.597232,9030.512492
286.701059,2604.724693,1554.432478,8438.347739
286.701366,1762.019645,1184.329507,8808.450710
286.701674,689.485948,-592.164754,9770.718434
286.701982,-459.657299,-2294.638420,11917.315666
286.702290,-1762.019645,-2812.782580,13693.809927
286.702598,-3140.991542,-3330.926739,14137.933492
286.702906,-4060.306139,-2664.741391,13619.789333
286.703214,-2834.553343,-1110.308913,11769.274478
286.703522,-689.485948,666.185348,10881.027347
286.703829,1608.800546,1406.391290,9474.636058
286.704137,3294.210641,3404.947333,6143.709319
286.704445,4673.182538,3701.029710,5033.400406
286.704753,5362.668486,2812.782580,5625.565159
286.705061,4673.182538,2516.700203,6217.729913
286.705369,4136.915689,1480.411884,8142.265362
286.705677,1762.019645,370.102971,9918.759623
286.705984,76.609550,-1110.308913,10732.986159
286.706292,-995.924147,-666.185348,11029.068536
286.706600,-842.705048,-0.000000,10732.986159
286.706908,-383.047749,1184.329507,9992.780217
286.707216,919.314598,1480.411884,9548.656652
286.707524,2374.896044,1554.432478,8956.491898
286.707832,2528.115143,962.267725,7920.203579
286.708140,1685.410096,148.041188,9696.697840
286.708447,1302.362347,-1406.391290,11251.130318
286.708755,-919.314598,-2442.679609,12213.398043
286.709063,-2911.162892,-3256.906145,13619.789333
286.709371,-3677.258390,-3478.967927,13767.830521
286.709679,-3064.381992,-1850.514855,12287.418637
286.709987,-2374.896044,-666.185348,10881.027347
286.710295,-306.438199,518.144159,9326.594869
286.710603,1991.848295,1850.514855,7550.100608
286.710910,3753.867940,2590.720797,6439.791695
286.711218,4290.134789,2442.679609,5403.503377
286.711526,4673.182538,2368.659014,5477.523971
286.711834,3524.039291,1776.494261,6883.915261
286.712142,2145.067394,518.144159,8364.327145
286.712450,689.485948,-370.102971,9844.739029
286.712758,-459.657299,-962.267725,10955.047942
286.713066,-1455.581446,-888.247130,10584.944971
286.713373,-612.876398,-0.000000,9844.739029
286.713681,383.047749,962.267725,10362.883188
286.713989,1532.190996,1184.329507,9104.533087
286.714297,2451.505594,1258.350101,7624.121203
286.714605,1991.848295,592.164754,8364.327145
286.714913,842.705048,-814.226536,9696.697840
286.715221,76.609550,-2442.679609,11547.212695
286.715529,-2068.457845,-2886.803174,13101.645173
286.715836,-3294.210641,-3849.070898,13915.871710
286.716144,-4060.306139,-3404.947333,13693.809927
286.716452,-2757.943793,-1924.535449,12583.501014
286.716760,-1455.581446,-148.041188,11103.089130
286.717068,766.095498,1554.432478,8956.491898
286.717376,2834.553343,2442.679609,7179.997637
286.717684,4443.353888,2960.823768,5181.441594
286.717991,5362.668486,2738.761985,5255.462188
286.718299,4903.011187,2368.659014,6217.729913
286.718607,3753.867940,1850.514855,7328.038826
286.718915,1915.238745,222.061783,9104.533087
286.719223,0.000000,-222.061783,10510.924376
286.719531,-995.924147,-370.102971,11547.212695
286.719839,-995.924147,-0.000000,10732.986159
286.720147,-383.047749,518.144159,10362.883188
286.720454,1072.533697,1406.391290,9918.759623
286.720762,2911.162892,1998.556043,8512.368333
286.721070,2451.505594,1332.370696,7846.182985
286.721378,1762.019645,1110.308913,8438.347739
286.721686,1072.533697,-814.226536,10288.862594
286.721994,-919.314598,-1998.556043,11843.295072
286.722302,-2911.162892,-3034.844362,13397.727550
286.722610,-4060.306139,-3330.926739,13915.871710
286.722917,-3677.258390,-2664.741391,13619.789333
286.723225,-2681.334243,-1702.473667,12435.459826
286.723533,-1455.581446,-0.000000,10881.027347
286.723841,766.095498,1406.391290,8808.450710
286.724149,3064.381992,3034.844362,6143.709319
286.724457,4903.011187,3478.967927,5181.441594
286.724765,5056.230287,2960.823768,5403.503377
286.725073,4519.963438,2072.576638,6513.812290
286.725380,3524.039291,1702.473667,7920.203579
286.725688,919.314598,370.102971,9178.553681
286.725996,-229.828649,-814.226536,10807.006753
286.726304,-919.314598,-518.144159,10881.027347
286.726612,-689.485948,444.123565,10436.903782
286.726920,459.657299,666.185348,9992.780217
286.727228,1455.581446,1110.308913,8882.471304
286.727536,2374.896044,1184.329507,8290.306550
286.727843,3294.210641,518.144159,7994.224174
286.728151,1685.410096,-222.061783,9548.656652
286.728459,0.000000,-1554.432478,11769.274478
286.728767,-1762.019645,-2886.803174,12657.521608
286.729075,-3217.601092,-3404.947333,13693.809927
286.729383,-4136.915689,-3552.988522,14063.912898
286.729691,-3524.039291,-2220.617826,13323.706956
286.729999,-2374.896044,-740.205942,11695.253884
286.730306,-842.705048,962.267725,9844.739029
286.730614,1991.848295,1998.556043,7550.100608
286.730922,3140.991542,3478.967927,5773.606348
286.731230,5209.449386,3108.864956,5699.585753
286.731538,4596.572988,3108.864956,4737.318029
286.731846,4290.134789,1924.535449,6735.874072
286.732154,2374.896044,222.061783,8512.368333
286.732461,766.095498,-444.123565,9696.697840
286.732769,0.000000,-1110.308913,11399.171507
286.733077,-536.266849,148.041188,10436.903782
286.733385,-153.219100,1110.308913,9622.677246
286.733693,1149.143247,1776.494261,9104.533087
286.734001,2451.505594,1702.473667,8290.306550
286.734309,3217.601092,1998.556043,7920.203579
286.734617,2298.286494,888.247130,8068.244768
286.734924,995.924147,-370.102971,10362.883188
286.735232,-536.266849,-2368.659014,12361.439231
286.735540,-2451.505594,-3182.885551,13545.768739
286.735848,-3600.648841,-3997.112087,13619.789333
286.736156,-4213.525239,-3404.947333,14137.933492
286.736464,-3447.429741,-2146.597232,13101.645173
286.736772,-2451.505594,-222.061783,11251.130318
286.737080,229.828649,740.205942,10214.842000
286.737387,1838.629195,2368.659014,7550.100608
286.737695,4903.011187,3034.844362,5921.647536
286.738003,4596.572988,2664.741391,5477.523971
286.738311,4519.963438,2442.679609,5625.565159
286.738619,3677.258390,1702.473667,6957.935855
286.738927,2068.457845,518.144159,8512.368333
286.739235,383.047749,-814.226536,10658.965565
286.739543,0.000000,148.041188,10214.842000
286.739850,-153.219100,-148.041188,10362.883188
286.740158,76.609550,888.247130,8882.471304
286.740466,2451.505594,1554.432478,9474.636058
286.740774,3217.601092,1702.473667,7402.059420
286.741082,1762.019645,2146.597232,7179.997637
286.741390,3294.210641,-0.000000,9474.636058
286.741698,306.438199,-222.061783,9474.636058
286.742006,-1455.581446,-2220.617826,13323.706956
286.742313,-2834.553343,-3552.988522,13175.665768
286.742621,-5056.230287,-3256.906145,13841.851115
286.742929,-3907.087040,-4737.318029,15248.242405
286.743237,-4596.572988,-1776.494261,12065.356855
286.743545,-1915.238745,-444.123565,12583.501014
286.743853,0.000000,592.164754,8956.491898
286.744161,2528.115143,2664.741391,5773.606348
286.744469,3677.258390,2812.782580,5847.626942
286.744776,4519.963438,2220.617826,5847.626942
286.745084,4060.306139,1850.514855,6291.750507
286.745392,2604.724693,1184.329507,7179.997637
286.745700,1838.629195,-518.144159,9622.677246
286.746008,-229.828649,-370.102971,9548.656652
286.746316,-306.438199,-0.000000,10362.883188
286.746624,76.609550,962.267725,9252.574275
286.746931,1532.190996,1776.494261,8068.244768
286.747239,2681.334243,1850.514855,9030.512492
286.747547,3524.039291,2368.659014,7402.059420
286.747855,3830.477490,1776.494261,7328.038826
286.748163,1838.629195,518.144159,9178.553681
286.748471,536.266849,-962.267725,10732.986159
286.748779,-1225.752797,-2368.659014,12583.501014
286.749087,-3447.429741,-3404.947333,14063.912898
286.749394,-5056.230287,-3404.947333,13841.851115
286.749702,-4596.572988,-2960.823768,14211.954086
286.750010,-3447.429741,-1110.308913,13175.665768
286.750318,-995.924147,-0.000000,11399.171507
286.750626,1149.143247,1628.453072,8364.327145
286.750934,2757.943793,2738.761985,6735.874072
286.751242,4136.915689,2442.679609,6365.771101
286.751550,4060.306139,2368.659014,5995.668130
286.751857,4136.915689,1110.308913,7179.997637
286.752165,3064.381992,592.164754,8364.327145
286.752473,1378.971896,-444.123565,9622.677246
286.752781,-306.438199,-370.102971,11029.068536
286.753089,-383.047749,370.102971,9918.759623
286.753397,383.047749,1184.329507,8956.491898
286.753705,1838.629195,1776.494261,8882.471304
286.754013,3370.820191,2368.659014,7846.182985
286.754320,3830.477490,2368.659014,6217.729913
286.754628,3447.429741,1628.453072,7624.121203
286.754936,1838.629195,-0.000000,8660.409521
286.755244,0.000000,-888.247130,10732.986159
286.755552,-1532.190996,-2368.659014,13175.665768
286.755860,-3753.867940,-3330.926739,13989.892304
286.756168,-4366.744339,-3404.947333,14063.912898
286.756476,-4519.963438,-2664.741391,13693.809927
286.756783,-3064.381992,-1480.411884,12435.459826
286.757091,-612.876398,-0.000000,10140.821405
286.757399,1685.410096,1480.411884,8290.306550
286.757707,3600.648841,1850.514855,7254.018232
286.758015,4366.744339,2294.638420,6143.709319
286.758323,4519.963438,1998.556043,6661.853478
286.758631,3370.820191,1110.308913,7254.018232
286.758938,1915.238745,148.041188,9178.553681
286.759246,612.876398,-888.247130,10214.842000
286.759554,-229.828649,-444.123565,10436.903782
286.759862,306.438199,1258.350101,10066.800811
286.760170,995.924147,1184.329507,8660.409521
286.760478,2528.115143,2294.638420,8068.244768
286.760786,3370.820191,2146.597232,7698.141797
286.761094,3524.039291,1924.535449,6883.915261
286.761401,2604.724693,1036.288319,8068.244768
286.761709,1455.581446,-148.041188,9918.759623
286.762017,-383.047749,-2146.597232,11695.253884
286.762325,-2604.724693,-3108.864956,13989.892304
286.762633,-4443.353888,-3627.009116,13693.809927
286.762941,-4903.011187,-3256.906145,14211.954086
286.763249,-3907.087040,-2220.617826,13027.624579
286.763557,-2451.505594,-74.020594,11473.192101
286.763864,153.219100,1110.308913,9326.594869
286.764172,2068.457845,2146.597232,7105.977043
286.764480,4366.744339,2590.720797,6661.853478
286.764788,4060.306139,2072.576638,6069.688724
286.765096,3907.087040,1406.391290,7105.977043
286.765404,2451.505594,1036.288319,8512.368333
286.765712,1149.143247,-296.082377,9696.697840
286.766020,76.609550,-0.000000,10584.944971
286.766327,0.000000,-222.061783,10436.903782
286.766635,229.828649,814.226536,9622.677246
286.766943,1455.581446,1554.432478,8438.347739
286.767251,2681.334243,2368.659014,8142.265362
286.767559,3830.477490,2664.741391,7624.121203
286.767867,3217.601092,2368.659014,6957.935855
286.768175,2451.505594,814.226536,9104.533087
286.768483,612.876398,-444.123565,10658.965565
286.768790,-1378.971896,-1776.494261,11843.295072
286.769098,-3064.381992,-3256.906145,13841.851115
286.769406,-4443.353888,-3775.050304,14359.995275
286.769714,-4673.182538,-3108.864956,13545.768739
286.770022,-3600.648841,-1480.411884,13175.665768
286.770330,-1225.752797,-0.000000,11103.089130
286.770638,995.924147,1702.473667,7698.141797
286.770946,3217.601092,2220.617826,6957.935855
286.771253,3983.696590,2664.741391,6365.771101
286.771561,3600.648841,1850.514855,6143.709319
286.771869,3600.648841,1480.411884,7328.038826
286.772177,1608.800546,-0.000000,8734.430116
286.772485,766.095498,-814.226536,9918.759623
286.772793,-306.438199,-592.164754,10658.965565
286.773101,0.000000,222.061783,10288.862594
286.773408,766.095498,962.267725,8956.491898
286.773716,2451.505594,1850.514855,7772.162391
286.774024,3600.648841,1924.535449,7550.100608
286.774332,3983.696590,1850.514855,6735.874072
286.774640,3217.601092,1480.411884,7550.100608
286.774948,1608.800546,444.123565,9326.594869
286.775256,306.438199,-1110.308913,10436.903782
286.775564,-1915.238745,-2590.720797,12583.501014
286.775871,-3983.696590,-2960.823768,13619.789333
286.776179,-3983.696590,-3108.864956,13471.748144
286.776487,-4519.963438,-2072.576638,13693.809927
286.776795,-3064.381992,-888.247130,12731.542202
286.777103,0.000000,-0.000000,9844.739029
286.777411,1608.800546,1702.473667,8216.285956
286.777719,2987.772442,2072.576638,6439.791695
286.778027,3830.477490,1702.473667,7031.956449
286.778334,3217.601092,1184.329507,7476.080014
286.778642,1991.848295,296.082377,7772.162391
286.778950,995.924147,-592.164754,9918.759623
286.779258,0.000000,-1702.473667,10807.006753
286.779566,-919.314598,-296.082377,11251.130318
286.779874,0.000000,666.185348,9400.615463
286.780182,1302.362347,1332.370696,9030.512492
286.780490,2834.553343,1850.514855,7846.182985
286.780797,3983.696590,2886.803174,5995.668130
286.781105,4060.306139,2368.659014,6883.915261
286.781413,3524.039291,740.205942,7624.121203
286.781721,2298.286494,-74.020594,9252.574275
286.782029,-306.438199,-1554.432478,11769.274478
286.782337,-2604.724693,-3404.947333,12805.562797
286.782645,-4136.915689,-3478.967927,14063.912898
286.782953,-3983.696590,-2368.659014,13989.892304
286.783260,-4060.306139,-1258.350101,12731.542202
286.783568,-2068.457845,-0.000000,11399.171507
286.783876,229.828649,1480.411884,9918.759623
286.784184,1838.629195,2294.638420,7698.141797
286.784492,3294.210641,2368.659014,7254.018232
286.784800,3140.991542,2220.617826,7105.977043
286.785108,2068.457845,1110.308913,8512.368333
286.785416,1532.190996,518.144159,9326.594869
286.785723,76.609550,-148.041188,11177.109724
286.786031,-306.438199,-962.267725,11621.233289
286.786339,-612.876398,-74.020594,10140.821405
286.786647,459.657299,444.123565,10066.800811
286.786955,1685.410096,1110.308913,9030.512492
286.787263,3370.820191,2590.720797,7624.121203
286.787571,4749.792088,2960.823768,6439.791695
286.787878,4749.792088,2146.597232,6587.832884
286.788186,3294.210641,1332.370696,7328.038826
286.788494,2145.067394,-0.000000,9548.656652
286.788802,-153.219100,-1406.391290,11177.109724
286.789110,-2681.334243,-2516.700203,12287.418637
286.789418,-2987.772442,-3034.844362,13619.789333
286.789726,-3983.696590,-1998.556043,13101.645173
286.790034,-3370.820191,-1332.370696,12287.418637
286.790342,-612.876398,-0.000000,11029.068536
286.790650,1072.533697,1924.535449,8512.368333
286.790958,2987.772442,1406.391290,6809.894666
286.791266,3600.648841,1332.370696,6957.935855
286.791574,3447.429741,1628.453072,7402.059420
286.791882,2298.286494,-222.061783,8142.265362
286.792190,995.924147,-592.164754,9400.615463
286.792498,0.000000,-1332.370696,10658.965565
286.792806,-612.876398,-1258.350101,10584.944971
286.793114,-612.876398,-370.102971,9918.759623
286.793422,306.438199,-222.061783,9622.677246
286.793730,1915.238745,1036.288319,8734.430116
286.794038,2911.162892,1998.556043,6735.874072
286.794346,3524.039291,2294.638420,6883.915261
286.794653,3600.648841,1480.411884,7402.059420
286.794961,2145.067394,740.205942,8364.327145
286.795269,689.485948,-962.267725,9918.759623
286.795577,-1455.581446,-1998.556043,11695.253884
286.795885,-3447.429741,-2738.761985,12953.603985
286.796193,-4136.915689,-2442.679609,13175.665768
286.796501,-3753.867940,-1184.329507,12435.459826
286.796809,-2068.457845,-592.164754,11843.295072
286.797117,0.000000,666.185348,9844.739029
286.797425,1608.800546,1776.494261,7846.182985
286.797733,3064.381992,2294.638420,7105.977043
286.798041,3983.696590,1628.453072,6735.874072
286.798349,2604.724693,1480.411884,7402.059420
286.798657,2221.676944,592.164754,8734.430116
286.798965,536.266849,-148.041188,10362.883188
286.799273,-459.657299,-370.102971,11251.130318
286.799581,-536.266849,-222.061783,10510.924376
286.799889,0.000000,518.144159,10584.944971
286.800197,1149.143247,740.205942,9696.697840
286.800505,1685.410096,1850.514855,8808.450710
286.800813,3064.381992,2146.597232,8068.244768
286.801121,3370.820191,1776.494261,7105.977043
286.801429,2528.115143,1332.370696,7698.141797
286.801737,1378.971896,-0.000000,9474.636058
286.802045,-306.438199,-1258.350101,10807.006753
286.802353,-2374.896044,-2294.638420,12879.583391
286.802661,-3447.429741,-2738.761985,12879.583391
286.802969,-3677.258390,-1924.535449,13397.727550
286.803277,-2757.943793,-1480.411884,12509.480420
286.803585,-1608.800546,296.082377,10881.027347
286.803893,995.924147,1480.411884,9104.533087
286.804201,2374.896044,2146.597232,6957.935855
286.804509,3370.820191,2294.638420,6513.812290
286.804817,3524.039291,1702.473667,6883.915261
286.805125,3064.381992,518.144159,8142.265362
286.805433,1378.971896,-222.061783,8660.409521
286.805741,153.219100,-888.247130,10214.842000
286.806049,-383.047749,-1332.370696,11473.192101
286.806357,-842.705048,-0.000000,10362.883188
286.806665,229.828649,-0.000000,9770.718434
286.806973,1762.019645,1406.391290,9326.594869
286.807281,2911.162892,2368.659014,7994.224174
286.807589,3753.867940,2368.659014,7031.956449
286.807897,3983.696590,2220.617826,7179.997637
286.808205,2451.505594,888.247130,7994.224174
286.808513,1302.362347,-814.226536,10214.842000
286.808821,-1302.362347,-2368.659014,12065.356855
286.809129,-3217.601092,-3034.844362,13249.686362
286.809437,-4443.353888,-3108.864956,13619.789333
286.809745,-4596.572988,-2368.659014,12879.583391
286.810053,-2987.772442,-1702.473667,12731.542202
286.810361,-306.438199,-222.061783,10510.924376
286.810669,1991.848295,1406.391290,7772.162391
286.810977,4060.306139,2368.659014,6439.791695
286.811285,4673.182538,2146.597232,5921.647536
286.811593,3753.867940,1924.535449,6883.915261
286.811901,2834.553343,1110.308913,7476.080014
286.812209,1455.581446,296.082377,9178.553681
286.812517,306.438199,-370.102971,9918.759623
286.812825,-689.485948,-888.247130,10288.862594
286.813133,-689.485948,-222.061783,10066.800811
286.813441,0.000000,-0.000000,10214.842000
286.813749,995.924147,666.185348,9474.636058
286.814057,2145.067394,2220.617826,7920.203579
286.814365,3447.429741,1702.473667,7550.100608
286.814673,2987.772442,1184.329507,7624.121203
286.814981,1915.238745,-0.000000,8808.450710
286.815289,536.266849,-1036.288319,10732.986159
286.815597,-1685.410096,-2960.823768,12213.398043
286.815905,-3064.381992,-3256.906145,13841.851115
286.816213,-3447.429741,-2516.700203,13397.727550
286.816521,-3064.381992,-1480.411884,12731.542202
286.816829,-2145.067394,296.082377,10584.944971
286.817137,536.266849,1332.370696,9770.718434
286.817445,2681.334243,2072.576638,7105.977043
286.817753,3064.381992,2960.823768,5921.647536
286.818061,4366.744339,2146.597232,7031.956449
286.818369,3677.258390,1850.514855,7105.977043
286.818677,2451.505594,370.102971,8586.388927
286.818985,1302.362347,-296.082377,9844.739029
286.819293,0.000000,-518.144159,10510.924376
286.819601,-919.314598,-518.144159,10955.047942
286.819909,-536.266849,370.102971,10510.924376
286.820217,76.609550,666.185348,10584.944971
286.820525,1915.238745,1332.370696,9770.718434
286.820833,2987.772442,2146.597232,8068.244768
286.821141,3064.381992,1850.514855,7105.977043
286.821449,2834.553343,370.102971,8660.409521
286.821757,1072.533697,-444.123565,10140.821405
286.822065,-842.705048,-1998.556043,11621.233289
286.822373,-2604.724693,-2960.823768,13619.789333
286.822681,-3370.820191,-3627.009116,13915.871710
286.822989,-3600.648841,-2294.638420,12657.521608
286.823297,-2911.162892,-1258.350101,11917.315666
286.823605,-536.266849,370.102971,10214.842000
286.823913,1455.581446,2294.638420,7550.100608
286.824221,3907.087040,2664.741391,6587.832884
286.824529,4596.572988,3552.988522,5255.462188
286.824837,4749.792088,2886.803174,5773.606348
286.825145,4136.915689,1628.453072,6513.812290
286.825453,2451.505594,592.164754,8438.347739
286.825761,842.705048,-740.205942,9918.759623
286.826069,-689.485948,-1258.350101,10807.006753
286.826377,-842.705048,-1258.350101,11325.150913
286.826685,-995.924147,-814.226536,10881.027347
286.826993,0.000000,-0.000000,10510.924376
286.827301,1762.019645,1332.370696,9474.636058
286.827609,3140.991542,1258.350101,7550.100608
286.827917,2681.334243,1110.308913,7920.203579
286.828225,2145.067394,148.041188,9030.512492
286.828533,459.657299,-1480.411884,10510.924376
286.828841,-1225.752797,-1998.556043,11843.295072
286.829149,-2681.334243,-2886.803174,12953.603985
286.829457,-3983.696590,-2590.720797,13101.645173
286.829765,-3983.696590,-1998.556043,12435.459826
286.830073,-2604.724693,-592.164754,11473.192101
286.830381,-383.047749,888.247130,9548.656652
286.830689,1991.848295,2294.638420,6735.874072
286.830997,3983.696590,2590.720797,6143.709319
286.831305,4366.744339,2738.761985,5847.626942
286.831613,3983.696590,2146.597232,6439.791695
286.831921,3140.991542,1258.350101,7846.182985
286.832229,1608.800546,148.041188,8882.471304
286.832537,0.000000,-814.226536,10584.944971
286.832845,-153.219100,-888.247130,10510.924376
286.833153,-1072.533697,-74.020594,10881.027347
286.833461,-383.047749,518.144159,10807.006753
286.833769,689.485948,962.267725,9474.636058
286.834077,2068.457845,1628.453072,8290.306550
286.834385,2451.505594,1628.453072,8068.244768
286.834693,2681.334243,814.226536,8586.388927
286.835001,689.485948,-518.144159,9992.780217
286.835309,-766.095498,-1776.494261,11917.315666
286.835617,-2604.724693,-3256.906145,13101.645173
286.835925,-3907.087040,-3478.967927,13249.686362
286.836233,-3830.477490,-2442.679609,13175.665768
286.836541,-2451.505594,-962.267725,11695.253884
286.836849,-1149.143247,-0.000000,10510.924376
286.837157,1455.581446,1406.391290,8734.430116
286.837465,3983.696590,2664.741391,6291.750507
286.837773,4979.620737,3404.947333,5329.482782
286.838081,5592.497135,2886.803174,5625.565159
286.838389,4213.525239,2220.617826,6439.791695
286.838697,2681.334243,1110.308913,8068.244768
286.839005,689.485948,-592.164754,9770.718434
286.839313,-306.438199,-814.226536,10362.883188
286.839621,-306.438199,-444.123565,11177.109724
286.839929,-383.047749,-0.000000,10807.006753
286.840237,842.705048,740.205942,10140.821405
286.840545,1838.629195,1480.411884,9474.636058
286.840853,2451.505594,1924.535449,7920.203579
286.841161,3064.381992,1776.494261,7402.059420
286.841469,1991.848295,370.102971,8882.471304
286.841777,842.705048,-814.226536,10436.903782
286.842085,-995.924147,-1554.432478,11991.336260
286.842393,-3294.210641,-3034.844362,13471.748144
286.842701,-3983.696590,-3627.009116,13841.851115
286.843009,-3983.696590,-2368.659014,13323.706956
286.843317,-2298.286494,-1036.288319,12287.418637
286.843625,-536.266849,-0.000000,10066.800811
286.843933,2221.676944,2146.597232,8068.244768
286.844240,3830.477490,3108.864956,6365.771101
286.844548,4673.182538,3330.926739,4737.318029
286.844856,5056.230287,2368.659014,5403.503377
286.845164,3983.696590,1776.494261,6661.853478
286.845472,2298.286494,444.123565,8142.265362
286.845780,766.095498,-592.164754,10214.842000
286.846088,-689.485948,-888.247130,10881.027347
286.846396,-1608.800546,-592.164754,10584.944971
286.846704,-612.876398,-222.061783,10955.047942
286.847012,459.657299,1110.308913,10288.862594
286.847320,2374.896044,1184.329507,8142.265362
286.847628,2757.943793,1406.391290,6883.915261
286.847936,2834.553343,1036.288319,7846.182985
286.848244,1685.410096,-444.123565,9696.697840
286.848552,-383.047749,-1110.308913,10732.986159
286.848860,-2221.676944,-2590.720797,13175.665768
286.849168,-3447.429741,-3182.885551,13545.768739
286.849476,-3370.820191,-2590.720797,13619.789333
286.849784,-3907.087040,-1702.473667,13397.727550
286.850092,-1608.800546,-444.123565,10955.047942
286.850400,153.219100,1110.308913,9030.512492
286.850708,2451.505594,2368.659014,7402.059420
286.851016,3830.477490,2442.679609,6513.812290
286.851324,4213.525239,3182.885551,5625.565159
286.851632,3830.477490,2516.700203,6809.894666
286.851940,3140.991542,1776.494261,7846.182985
286.852248,1915.238745,148.041188,9104.533087
286.852556,0.000000,-518.144159,10881.027347
286.852864,-995.924147,-814.226536,11695.253884
286.853172,-1225.752797,-222.061783,10732.986159
286.853480,-383.047749,888.247130,10658.965565
286.853788,1302.362347,1258.350101,9548.656652
286.854096,3064.381992,2294.638420,7550.100608
286.854404,3140.991542,1480.411884,7550.100608
286.854712,2681.334243,74.020594,8364.327145
286.855020,536.266849,-888.247130,10214.842000
286.855328,-1225.752797,-2812.782580,11917.315666
286.855636,-3140.991542,-3478.967927,12879.583391
286.855944,-3907.087040,-3923.091493,13767.830521
286.856252,-3830.477490,-2886.803174,14063.912898
286.856560,-2834.553343,-1332.370696,11621.233289
286.856868,-536.266849,222.061783,9918.759623
286.857176,2068.457845,1258.350101,8882.471304
286.857484,3294.210641,3404.947333,5921.647536
286.857792,4903.011187,3478.967927,5551.544565
286.858100,5286.058936,3256.906145,5995.668130
286.858408,4290.134789,2368.659014,5995.668130
286.858716,2298.286494,1184.329507,7624.121203
286.859024,1225.752797,-666.185348,9918.759623
286.859332,-76.609550,-888.247130,10436.903782
286.859640,-995.924147,-740.205942,11177.109724
286.859948,-1225.752797,-444.123565,11325.150913
286.860256,383.047749,740.205942,10066.800811
286.860564,2221.676944,1628.453072,8364.327145
286.860872,3370.820191,2220.617826,7550.100608
286.861180,3217.601092,1184.329507,8142.265362
286.861488,1915.238745,-0.000000,9326.594869
286.861796,-229.828649,-1184.329507,10881.027347
286.862104,-1762.019645,-2664.741391,13175.665768
286.862412,-3907.087040,-3552.988522,14211.954086
286.862720,-5822.325785,-3108.864956,14137.933492
286.863028,-3983.696590,-2442.679609,13545.768739
286.863336,-2834.553343,-814.226536,11843.295072
286.863644,-383.047749,518.144159,10732.986159
286.863952,2145.067394,2146.597232,7994.224174
286.864260,3600.648841,3182.885551,6365.771101
286.864568,5132.839837,3701.029710,5847.626942
286.864876,4519.963438,3330.926739,5181.441594
286.865184,4213.525239,2368.659014,6735.874072
286.865492,2604.724693,740.205942,7772.162391
286.865800,1149.143247,222.061783,9548.656652
286.866108,-306.438199,-222.061783,10658.965565
286.866416,-995.924147,-0.000000,10362.883188
286.866724,0.000000,666.185348,10288.862594
286.867032,1149.143247,1258.350101,9844.739029
286.867340,2145.067394,1776.494261,8290.306550
286.867648,2911.162892,1776.494261,8068.244768
286.867956,2451.505594,814.226536,8586.388927
286.868264,306.438199,-518.144159,10214.842000
286.868572,-1302.362347,-1776.494261,12287.418637
286.868880,-3217.601092,-3256.906145,14063.912898
286.869188,-4979.620737,-4071.132681,14508.036463
286.869496,-4213.525239,-3256.906145,14211.954086
286.869804,-2911.162892,-2220.617826,13027.624579
286.870112,-2451.505594,-740.205942,11325.150913
286.870420,383.047749,592.164754,9696.697840
286.870728,2451.505594,2368.659014,7179.997637
286.871036,3983.696590,2886.803174,6069.688724
286.871344,5669.106685,2960.823768,5403.503377
286.871652,4979.620737,2960.823768,5181.441594
286.871960,3677.258390,1924.535449,6957.935855
286.872268,2987.772442,222.061783,8068.244768
286.872576,1762.019645,-74.020594,9474.636058
286.872884,76.609550,-0.000000,9474.636058
286.873192,0.000000,444.123565,9474.636058
286.873500,1302.362347,1554.432478,9326.594869
286.873808,2145.067394,1628.453072,8808.450710
286.874116,3064.381992,2146.597232,7624.121203
286.874424,3294.210641,1184.329507,7550.100608
286.874732,1762.019645,-0.000000,9548.656652
286.875040,-536.266849,-1850.514855,10807.006753
286.875348,-2221.676944,-3108.864956,13249.686362
286.875656,-3983.696590,-4145.153275,14582.057057
286.875964,-4826.401637,-3997.112087,14211.954086
286.876272,-3830.477490,-2886.803174,13693.809927
286.876580,-2681.334243,-1628.453072,12361.439231
286.876888,-1072.533697,-370.102971,10140.821405
286.877196,1762.019645,1110.308913,8660.409521
286.877504,3677.258390,2590.720797,6587.832884
286.877812,4826.401637,2960.823768,5181.441594
286.878120,4903.011187,2886.803174,5403.503377
286.878428,4826.401637,1850.514855,6513.812290
286.878736,3600.648841,1184.329507,7624.121203
286.879044,1915.238745,-0.000000,9622.677246
286.879352,153.219100,-814.226536,10066.800811
286.879660,-76.609550,-0.000000,10288.862594
286.879968,459.657299,444.123565,9918.759623
286.880276,2068.457845,1924.535449,9252.574275
286.880584,3140.991542,2294.638420,7550.100608
286.880892,3983.696590,2368.659014,7254.018232
286.881200,3600.648841,1554.432478,7772.162391
286.881508,2068.457845,518.144159,9104.533087
286.881816,-842.705048,-1480.411884,11769.274478
286.882124,-2604.724693,-2886.803174,14063.912898
286.882432,-4903.011187,-3701.029710,14359.995275
286.882740,-5132.839837,-3478.967927,14582.057057
286.883048,-4443.353888,-2146.597232,13323.706956
286.883356,-3294.210641,-1332.370696,12509.480420
286.883664,-306.438199,592.164754,11103.089130
286.883972,1608.800546,1924.535449,8290.306550
286.884280,3217.601092,2590.720797,6809.894666
286.884588,4213.525239,3108.864956,5995.668130
286.884896,4519.963438,3478.967927,5773.606348
286.885204,3830.477490,2368.659014,6439.791695
286.885512,2604.724693,962.267725,8290.306550
286.885820,842.705048,296.082377,9400.615463
286.886128,76.609550,-222.061783,9548.656652
286.886436,-229.828649,-0.000000,9992.780217
286.886744,0.000000,518.144159,9696.697840
286.887052,1762.019645,518.144159,10140.821405
286.887360,1915.238745,1332.370696,8142.265362
286.887668,2451.505594,1628.453072,7698.141797
286.887976,1915.238745,222.061783,8734.430116
286.888284,-153.219100,-740.205942,9918.759623
286.888592,-2221.676944,-2664.741391,12509.480420
286.888900,-4136.915689,-3701.029710,13841.851115
286.889207,-4596.572988,-3923.091493,14359.995275
286.889515,-4903.011187,-3108.864956,13249.686362
286.889823,-3447.429741,-1480.411884,12213.398043
286.890131,-1991.848295,-222.061783,11029.068536
286.890439,383.047749,962.267725,9326.594869
286.890747,2451.505594,2442.679609,7476.080014
286.891055,4519.963438,2738.761985,5625.565159
286.891363,5209.449386,2812.782580,5403.503377
286.891671,4596.572988,2294.638420,6069.688724
286.891979,2757.943793,814.226536,7846.182985
286.892287,1685.410096,-148.041188,8882.471304
286.892595,229.828649,-518.144159,9548.656652
286.892903,76.609550,-296.082377,9622.677246
286.893211,459.657299,222.061783,9474.636058
286.893519,842.705048,1110.308913,9474.636058
286.893827,2298.286494,1702.473667,8734.430116
286.894135,3907.087040,2368.659014,7105.977043
286.894443,2757.943793,1332.370696,7179.997637
286.894750,2298.286494,518.144159,8216.285956
286.895058,306.438199,-814.226536,10658.965565
286.895366,-1991.848295,-2220.617826,12953.603985
286.895674,-3447.429741,-3775.050304,13841.851115
286.895982,-4443.353888,-3256.906145,14285.974681
286.896290,-4673.182538,-2812.782580,14285.974681
286.896598,-2834.553343,-2220.617826,12879.583391
286.896906,-1072.533697,-518.144159,11251.130318
286.897214,612.876398,1258.350101,8142.265362
286.897522,3524.039291,2294.638420,7402.059420
286.897830,4749.792088,2960.823768,5699.585753
286.898138,4903.011187,2886.803174,5847.626942
286.898446,3983.696590,1924.535449,6587.832884
286.898754,3217.601092,1184.329507,7550.100608
286.899062,1455.581446,-444.123565,9400.615463
286.899370,-229.828649,-74.020594,9844.739029
286.899678,153.219100,296.082377,10362.883188
286.899986,842.705048,1184.329507,9548.656652
286.900293,1915.238745,2442.679609,8882.471304
286.900601,2834.553343,2738.761985,7698.141797
286.900909,3294.210641,2442.679609,7846.182985
286.901217,3524.039291,1850.514855,8438.347739
286.901525,1455.581446,592.164754,8882.471304
286.901833,-383.047749,-1480.411884,11843.295072
286.902141,-2374.896044,-2886.803174,12879.583391
286.902449,-4596.572988,-3256.906145,13619.789333
286.902757,-4673.182538,-4219.173869,14804.118840
286.903065,-4290.134789,-2812.782580,13693.809927
286.903373,-3294.210641,-1554.432478,13027.624579
286.903681,-306.438199,-740.205942,11177.109724
286.903989,1378.971896,1554.432478,8290.306550
286.904297,3983.696590,2590.720797,7254.018232
286.904605,4749.792088,2812.782580,5699.585753
286.904913,4443.353888,3034.844362,5551.544565
286.905221,4290.134789,1554.432478,7328.038826
286.905528,2298.286494,740.205942,8512.368333
286.905836,306.438199,-0.000000,9474.636058
286.906144,459.657299,-74.020594,10732.986159
286.906452,-612.876398,666.185348,9104.533087
286.906760,766.095498,1258.350101,9696.697840
286.907068,2068.457845,2294.638420,8586.388927
286.907376,2681.334243,2516.700203,7994.224174
286.907684,3140.991542,2220.617826,7624.121203
286.907992,2757.943793,1332.370696,8364.327145
286.908300,459.657299,-814.226536,10214.842000
286.908608,-1685.410096,-2220.617826,12287.418637
286.908916,-2604.724693,-3404.947333,13397.727550
286.909224,-4903.011187,-3849.070898,13989.892304
286.909532,-4749.792088,-3627.009116,14211.954086
286.909840,-3983.696590,-2442.679609,12953.603985
286.910148,-2681.334243,-592.164754,11547.212695
286.910456,-383.047749,-0.000000,10066.800811
286.910764,2145.067394,1850.514855,7254.018232
286.911071,3753.867940,2738.761985,6661.853478
286.911379,4136.915689,2220.617826,5847.626942
286.911687,4519.963438,2146.597232,5551.544565
286.911995,3294.210641,1406.391290,7328.038826
286.912303,1915.238745,-222.061783,8364.327145
286.912611,689.485948,-296.082377,9030.512492
286.912919,229.828649,-370.102971,10214.842000
286.913227,0.000000,-0.000000,9178.553681
286.913535,919.314598,1036.288319,8882.471304
286.913843,2451.505594,1332.370696,8660.409521
286.914151,3677.258390,1924.535449,7105.977043
286.914459,2911.162892,1702.473667,6883.915261
286.914767,1991.848295,740.205942,8438.347739
286.915075,383.047749,-962.267725,10658.965565
286.915383,-1072.533697,-2368.659014,12139.377449
286.915691,-2911.162892,-3108.864956,13693.809927
286.915999,-4749.792088,-4071.132681,13915.871710
286.916307,-4366.744339,-3404.947333,14137.933492
286.916614,-3524.039291,-1998.556043,13249.686362
286.916922,-1991.848295,148.041188,11251.130318
286.917230,536.266849,888.247130,9252.574275
286.917538,3140.991542,2664.741391,7105.977043
286.917846,4290.134789,2960.823768,5847.626942
286.918154,4826.401637,2368.659014,6069.688724
286.918462,4213.525239,2146.597232,6957.935855
286.918770,2987.772442,1110.308913,8216.285956
286.919078,1455.581446,-0.000000,9474.636058
286.919386,536.266849,-0.000000,9992.780217
286.919694,229.828649,518.144159,9918.759623
286.920002,766.095498,888.247130,9696.697840
286.920310,1608.800546,1184.329507,9622.677246
286.920618,2834.553343,1924.535449,8586.388927
286.920926,3447.429741,1850.514855,7105.977043
286.921234,2987.772442,1554.432478,8068.244768
286.921542,1762.019645,370.102971,10140.821405
286.921850,-459.657299,-1036.288319,10881.027347
286.922157,-2451.505594,-2442.679609,12805.562797
286.922465,-3600.648841,-3404.947333,14063.912898
286.922773,-4060.306139,-3034.844362,14211.954086
286.923081,-4596.572988,-2220.617826,13619.789333
286.923389,-3294.210641,-1406.391290,12953.603985
286.923697,-383.047749,370.102971,10807.006753
286.924005,1225.752797,1702.473667,7624.121203
286.924313,3524.039291,2664.741391,6513.812290
286.924621,4749.792088,2886.803174,6217.729913
286.924929,4443.353888,2072.576638,6513.812290
286.925237,3677.258390,1036.288319,7031.956449
286.925545,2298.286494,-0.000000,8956.491898
286.925853,995.924147,-666.185348,10066.800811
286.926161,76.609550,-666.185348,9992.780217
286.926469,766.095498,518.144159,9400.615463
286.926777,995.924147,814.226536,8956.491898
286.927085,2604.724693,1554.432478,8438.347739
286.927392,3907.087040,2442.679609,7105.977043
286.927700,3677.258390,1702.473667,7328.038826
286.928008,2757.943793,962.267725,8512.368333
286.928316,1378.971896,-740.205942,10214.842000
286.928624,-919.314598,-2072.576638,11991.336260
286.928932,-3753.867940,-3552.988522,13175.665768
286.929240,-4596.572988,-3775.050304,14211.954086
286.929548,-5286.058936,-3552.988522,14285.974681
286.929856,-4519.963438,-2442.679609,13027.624579
286.930164,-2528.115143,-1110.308913,12287.418637
286.930472,-153.219100,666.185348,9770.718434
286.930780,2451.505594,2368.659014,7105.977043
286.931088,4826.401637,3034.844362,5477.523971
286.931396,4979.620737,3034.844362,5477.523971
286.931704,4519.963438,2442.679609,5847.626942
286.932012,3370.820191,1702.473667,7179.997637
286.932320,1991.848295,518.144159,9030.512492
286.932628,919.314598,-518.144159,10140.821405
286.932935,-612.876398,-74.020594,10288.862594
286.933243,383.047749,-222.061783,10658.965565
286.933551,459.657299,370.102971,9400.615463
286.933859,1532.190996,1628.453072,8734.430116
286.934167,2911.162892,1924.535449,8512.368333
286.934475,2834.553343,2146.597232,7698.141797
286.934783,1991.848295,1110.308913,8956.491898
286.935091,76.609550,-444.123565,10510.924376
286.935399,-1302.362347,-1480.411884,12139.377449
286.935707,-3217.601092,-2516.700203,13471.748144
286.936015,-3983.696590,-2960.823768,13841.851115
286.936323,-4366.744339,-2590.720797,13841.851115
286.936631,-3830.477490,-1554.432478,12287.418637
286.936939,-1991.848295,-222.061783,11547.212695
286.937247,995.924147,1184.329507,9104.533087
286.937555,3140.991542,2738.761985,7254.018232
286.937863,4519.963438,2516.700203,6217.729913
286.938171,4290.134789,2368.659014,5995.668130
286.938478,3830.477490,1702.473667,7328.038826
286.938786,2834.553343,518.144159,8882.471304
286.939094,1149.143247,-222.061783,9474.636058
286.939402,0.000000,-370.102971,10066.800811
286.939710,0.000000,-0.000000,9992.780217
286.940018,383.047749,666.185348,9326.594869
286.940326,1762.019645,1332.370696,9178.553681
286.940634,2528.115143,2368.659014,8142.265362
286.940942,3294.210641,2664.741391,7179.997637
286.941250,2987.772442,2220.617826,7328.038826
286.941558,1838.629195,370.102971,9400.615463
286.941866,0.000000,-1184.329507,11029.068536
286.942174,-2221.676944,-2516.700203,12435.459826
286.942482,-3600.648841,-3478.967927,13841.851115
286.942790,-4826.401637,-3627.009116,13841.851115
286.943098,-4213.525239,-2664.741391,13915.871710
286.943406,-3064.381992,-1036.288319,12435.459826
286.943713,-383.047749,370.102971,10140.821405
286.944021,1991.848295,1628.453072,7846.182985
286.944329,3983.696590,2294.638420,6143.709319
286.944637,4903.011187,2516.700203,5773.606348
286.944945,3907.087040,2220.617826,6661.853478
286.945253,2987.772442,1258.350101,7772.162391
286.945561,1685.410096,296.082377,9400.615463
286.945869,229.828649,-888.247130,10214.842000
286.946177,-306.438199,-592.164754,9918.759623
286.946485,153.219100,518.144159,9474.636058
286.946793,766.095498,1036.288319,9104.533087
286.947101,2068.457845,1480.411884,8586.388927
286.947409,3600.648841,2368.659014,7698.141797
286.947717,3140.991542,1924.535449,6883.915261
286.948025,2221.676944,1406.391290,8512.368333
286.948333,1072.533697,-74.020594,9844.739029
286.948641,-1225.752797,-1480.411884,11177.109724
286.948949,-2757.943793,-2960.823768,13175.665768
286.949256,-4290.134789,-3034.844362,13693.809927
286.949564,-4903.011187,-3108.864956,14137.933492
286.949872,-4136.915689,-2072.576638,13101.645173
286.950180,-2298.286494,-814.226536,11473.192101
286.950488,76.609550,888.247130,9548.656652
286.950796,2987.772442,2294.638420,7550.100608
286.951104,3447.429741,2664.741391,5921.647536
286.951412,3907.087040,2220.617826,6809.894666
286.951720,3677.258390,2072.576638,7254.018232
286.952028,2145.067394,740.205942,8586.388927
286.952336,459.657299,-666.185348,10066.800811
286.952644,-306.438199,-888.247130,10584.944971
286.952952,-536.266849,-370.102971,10732.986159
286.953260,612.876398,296.082377,9770.718434
286.953568,1072.533697,1110.308913,8882.471304
286.953876,2374.896044,1924.535449,8216.285956
286.954184,3524.039291,2294.638420,7254.018232
286.954492,3524.039291,1998.556043,7179.997637
286.954799,2451.505594,814.226536,8290.306550
286.955107,1072.533697,-592.164754,10066.800811
286.955415,-919.314598,-1702.473667,11917.315666
286.955723,-2834.553343,-3034.844362,13693.809927
286.956031,-3830.477490,-2738.761985,13323.706956
286.956339,-3830.477490,-2146.597232,13101.645173
286.956647,-2987.772442,-814.226536,12065.356855
286.956955,-612.876398,222.061783,10288.862594
286.957263,1302.362347,1480.411884,8364.327145
286.957571,3217.601092,2220.617826,6809.894666
286.957879,3983.696590,2590.720797,6217.729913
286.958187,3907.087040,1702.473667,6809.894666
286.958495,3140.991542,740.205942,8068.244768
286.958803,1762.019645,-0.000000,8956.491898
286.959111,536.266849,-888.247130,10658.965565
286.959419,-229.828649,-1036.288319,10881.027347
286.959727,0.000000,-296.082377,9918.759623
286.960034,1455.581446,370.102971,10288.862594
286.960342,1991.848295,740.205942,8882.471304
286.960650,3677.258390,2368.659014,7179.997637
286.960958,4213.525239,2146.597232,7031.956449
286.961266,3370.820191,2220.617826,7624.121203
286.961574,1991.848295,740.205942,9030.512492
286.961882,689.485948,-740.205942,10732.986159
286.962190,-2068.457845,-2442.679609,11843.295072
286.962498,-3140.991542,-2886.803174,13471.748144
286.962806,-3753.867940,-3108.864956,13915.871710
286.963114,-3830.477490,-1998.556043,13101.645173
286.963422,-2145.067394,-888.247130,11547.212695
286.963730,0.000000,888.247130,9474.636058
286.964038,2068.457845,1998.556043,7105.977043
286.964346,3217.601092,2664.741391,6291.750507
286.964654,4060.306139,2664.741391,6513.812290
286.964962,3217.601092,1998.556043,6439.791695
286.965270,2451.505594,740.205942,8290.306550
286.965577,689.485948,-370.102971,10214.842000
286.965885,-612.876398,-1110.308913,10807.006753
286.966193,-995.924147,-888.247130,11177.109724
286.966501,-612.876398,-370.102971,10584.944971
286.966809,383.047749,-0.000000,9918.759623
286.967117,1455.581446,1332.370696,8734.430116
286.967425,2757.943793,2220.617826,7698.141797
286.967733,3370.820191,2368.659014,7550.100608
286.968041,2374.896044,1702.473667,8068.244768
286.968349,1072.533697,222.061783,9474.636058
286.968657,-612.876398,-1258.350101,10510.924376
286.968965,-2374.896044,-2368.659014,12731.542202
286.969273,-3907.087040,-2590.720797,13397.727550
286.969581,-4443.353888,-2812.782580,13397.727550
286.969889,-3677.258390,-2220.617826,12213.398043
286.970197,-2068.457845,-0.000000,11029.068536
286.970505,306.438199,888.247130,9030.512492
286.970813,2298.286494,2368.659014,6809.894666
286.971120,3677.258390,2812.782580,5847.626942
286.971428,3830.477490,1998.556043,6291.750507
286.971736,2987.772442,888.247130,7772.162391
286.972044,1072.533697,-0.000000,8364.327145
286.972352,153.219100,-666.185348,10066.800811
286.972660,-459.657299,-1480.411884,11103.089130
286.972968,-536.266849,-1110.308913,10584.944971
286.973276,0.000000,592.164754,9696.697840
286.973584,842.705048,962.267725,9030.512492
286.973892,2987.772442,1924.535449,7920.203579
286.974200,3064.381992,3108.864956,6809.894666
286.974508,3600.648841,2294.638420,7698.141797
286.974816,2528.115143,666.185348,8512.368333
286.975124,383.047749,-814.226536,9622.677246
286.975432,-1072.533697,-2590.720797,11917.315666
286.975740,-3140.991542,-3256.906145,13027.624579
286.976048,-4060.306139,-3627.009116,14508.036463
286.976355,-3907.087040,-2516.700203,13323.706956
286.976663,-2145.067394,-1332.370696,11695.253884
286.976971,-612.876398,518.144159,9622.677246
286.977279,2911.162892,1998.556043,8586.388927
286.977587,3140.991542,3108.864956,5255.462188
286.977895,3830.477490,3182.885551,5477.523971
286.978203,4366.744339,2146.597232,6809.894666
286.978511,2451.505594,1480.411884,7328.038826
286.978819,1072.533697,-0.000000,10140.821405
286.979127,0.000000,-962.267725,10732.986159
286.979435,-766.095498,-1332.370696,11547.212695
286.979743,-459.657299,-1258.350101,10732.986159
286.980051,459.657299,444.123565,9696.697840
286.980359,1685.410096,1036.288319,10214.842000
286.980667,2757.943793,1628.453072,7994.224174
286.980975,3753.867940,2368.659014,7105.977043
286.981283,3753.867940,1554.432478,8142.265362
286.981591,2604.724693,222.061783,8734.430116
286.981898,919.314598,-1036.288319,10881.027347
286.982206,-1685.410096,-2368.659014,12287.418637
286.982514,-3217.601092,-2960.823768,13249.686362
286.982822,-3524.039291,-3034.844362,13545.768739
286.983130,-3217.601092,-1924.535449,12583.501014
286.983438,-1455.581446,-296.082377,10807.006753
286.983746,536.266849,1554.432478,8660.409521
286.984054,2681.334243,2368.659014,7328.038826
286.984362,4366.744339,3627.009116,5477.523971
286.984670,4290.134789,3552.988522,5551.544565
286.984978,2604.724693,2294.638420,7476.080014
286.985286,1991.848295,1184.329507,8068.244768
286.985594,383.047749,148.041188,10140.821405
286.985902,-459.657299,-740.205942,11103.089130
286.986210,-1608.800546,-1184.329507,11103.089130
286.986518,-995.924147,-888.247130,11325.150913
286.986826,0.000000,-0.000000,10658.965565
286.987134,919.314598,1036.288319,9548.656652
286.987441,2451.505594,2220.617826,8734.430116
286.987749,3064.381992,1850.514855,8142.265362
286.988057,2451.505594,518.144159,8216.285956
286.988365,919.314598,-296.082377,9622.677246
286.988673,-306.438199,-1776.494261,11103.089130
286.988981,-2604.724693,-2368.659014,12361.439231
286.989289,-3370.820191,-2664.741391,13619.789333
286.989597,-2834.553343,-2146.597232,12731.542202
286.989905,-2834.553343,-592.164754,11325.150913
286.990213,-459.657299,740.205942,9622.677246
286.990511,1378.971896,2368.659014,7550.100608
286.990819,3447.429741,3034.844362,6217.729913
286.991127,3983.696590,3404.947333,5551.544565
286.991435,4366.744339,2368.659014,6809.894666
286.991743,3140.991542,1110.308913,7624.121203
286.992051,1302.362347,-444.123565,9252.574275
286.992360,0.000000,-1480.411884,10584.944971
286.992668,-1608.800546,-1998.556043,11547.212695
286.992976,-1378.971896,-1480.411884,11325.150913
286.993284,-1072.533697,-962.267725,10732.986159
286.993592,536.266849,148.041188,9918.759623
286.993900,1838.629195,1184.329507,8660.409521
286.994208,3217.601092,1480.411884,7772.162391
286.994516,2987.772442,1184.329507,7624.121203
286.994824,1608.800546,-74.020594,9030.512492
286.995132,153.219100,-814.226536,11029.068536
286.995440,-1225.752797,-1924.535449,11843.295072
286.995749,-3370.820191,-2738.761985,13397.727550
286.996057,-3447.429741,-2960.823768,13841.851115
286.996365,-3370.820191,-1702.473667,12213.398043
286.996673,-1915.238745,-74.020594,10214.842000
286.996981,689.485948,1406.391290,9178.553681
286.997289,3064.381992,2738.761985,6143.709319
286.997597,4979.620737,3923.091493,4959.379811
286.997905,4903.011187,3627.009116,4885.359217
286.998213,4596.572988,2886.803174,6365.771101
286.998521,3447.429741,1258.350101,7846.182985
286.998829,612.876398,-370.102971,9474.636058
286.999137,-1225.752797,-1776.494261,11473.192101
286.999446,-1378.971896,-2442.679609,12657.521608
286.999754,-1762.019645,-1406.391290,11843.295072
287.000062,-1225.752797,-444.123565,11103.089130
287.000370,766.095498,-74.020594,10881.027347
287.000678,2068.457845,1702.473667,8734.430116
287.000986,3753.867940,1628.453072,7846.182985
287.001294,3294.210641,1332.370696,7994.224174
287.001602,2221.676944,-74.020594,8956.491898
287.001910,306.438199,-1332.370696,10955.047942
287.002218,-1685.410096,-2516.700203,11917.315666
287.002526,-3140.991542,-3108.864956,13027.624579
287.002835,-3600.648841,-2738.761985,12953.603985
287.003143,-2604.724693,-1628.453072,11769.274478
287.003451,-1072.533697,-74.020594,10288.862594
287.003759,842.705048,1036.288319,8438.347739
287.004067,2911.162892,3108.864956,6439.791695
287.004375,4673.182538,3478.967927,5625.565159
287.004683,4749.792088,3478.967927,5773.606348
287.004991,3677.258390,2812.782580,6883.915261
287.005299,2528.115143,1258.350101,8734.430116
287.005607,612.876398,518.144159,9548.656652
287.005915,0.000000,-740.205942,10658.965565
287.006224,-995.924147,-814.226536,11325.150913
287.006532,-1532.190996,-666.185348,11251.130318
287.006840,-919.314598,-148.041188,10881.027347
287.007148,1072.533697,814.226536,9326.594869
287.007456,2298.286494,1776.494261,8216.285956
287.007764,2528.115143,1406.391290,8216.285956
287.008072,2451.505594,-0.000000,9104.533087
287.008380,459.657299,-962.267725,10214.842000
287.008688,-1302.362347,-2960.823768,12657.521608
287.008996,-2987.772442,-4219.173869,13471.748144
287.009304,-3140.991542,-3775.050304,14359.995275
287.009612,-3217.601092,-2294.638420,12583.501014
287.009921,-2374.896044,-296.082377,10732.986159
287.010229,229.828649,1258.350101,9178.553681
287.010537,2757.943793,2738.761985,7105.977043
287.010845,4366.744339,3775.050304,5477.523971
287.011153,4749.792088,3701.029710,4441.235652
287.011461,4749.792088,2664.741391,6513.812290
287.011769,3294.210641,1258.350101,7550.100608
287.012077,919.314598,-296.082377,9252.574275
287.012385,-306.438199,-1406.391290,10732.986159
287.012693,-1455.581446,-1776.494261,11399.171507
287.013001,-1762.019645,-1998.556043,11547.212695
287.013310,-842.705048,-444.123565,11103.089130
287.013618,842.705048,-148.041188,10066.800811
287.013926,2298.286494,814.226536,8660.409521
287.014234,3447.429741,1480.411884,7846.182985
287.014542,3294.210641,1258.350101,8216.285956
287.014850,2298.286494,296.082377,9548.656652
287.015158,229.828649,-740.205942,10658.965565
287.015466,-1762.019645,-2368.659014,12213.398043
287.015774,-3140.991542,-3701.029710,14063.912898
287.016082,-3370.820191,-3182.885551,13397.727550
287.016390,-3217.601092,-2516.700203,12509.480420
287.016698,-1302.362347,-444.123565,10362.883188
287.017007,689.485948,1406.391290,9030.512492
287.017315,3677.258390,3034.844362,6661.853478
287.017623,4826.401637,4219.173869,4737.318029
287.017931,4903.011187,3849.070898,4737.318029
287.018239,4903.011187,2516.700203,5921.647536
287.018547,3447.429741,1406.391290,7994.224174
287.018855,1608.800546,-74.020594,9548.656652
287.019163,-766.095498,-1184.329507,11103.089130
287.019471,-1149.143247,-1184.329507,12509.480420
287.019779,-1072.533697,-666.185348,11103.089130
287.020087,-306.438199,592.164754,10732.986159
287.020396,1225.752797,962.267725,9696.697840
287.020704,3140.991542,1998.556043,8068.244768
287.021012,3753.867940,1776.494261,7846.182985
287.021320,2911.162892,740.205942,8660.409521
287.021628,1149.143247,-370.102971,10288.862594
287.021936,-766.095498,-1998.556043,11769.274478
287.022244,-2451.505594,-3182.885551,12879.583391
287.022552,-3830.477490,-3256.906145,13915.871710
287.022860,-3140.991542,-2960.823768,13249.686362
287.023168,-2145.067394,-1406.391290,11325.150913
287.023476,-612.876398,518.144159,9992.780217
287.023784,1225.752797,1850.514855,7772.162391
287.024093,4290.134789,3478.967927,5699.585753
287.024401,4903.011187,3997.112087,5181.441594
287.024709,4673.182538,3182.885551,5773.606348
287.025017,3753.867940,1998.556043,6957.935855
287.025325,1762.019645,666.185348,8142.265362
287.025633,76.609550,-888.247130,10510.924376
287.025941,-2145.067394,-1332.370696,11695.253884
287.026249,-1608.800546,-1258.350101,12139.377449
287.026557,-1991.848295,-740.205942,11325.150913
287.026865,0.000000,-0.000000,10881.027347
287.027173,1608.800546,1480.411884,8808.450710
287.027482,3064.381992,2294.638420,7624.121203
287.027790,3370.820191,1258.350101,8142.265362
287.028098,1915.238745,-148.041188,8512.368333
287.028406,306.438199,-1554.432478,10881.027347
287.028714,-1608.800546,-2812.782580,12361.439231
287.029022,-3524.039291,-3849.070898,13323.706956
287.029330,-3830.477490,-3849.070898,13767.830521
287.029638,-3524.039291,-2368.659014,12287.418637
287.029946,-1762.019645,-962.267725,11325.150913
287.030254,153.219100,444.123565,9326.594869
287.030562,2681.334243,2368.659014,7105.977043
287.030871,4596.572988,3552.988522,5625.565159
287.031179,5056.230287,4219.173869,5255.462188
287.031487,4903.011187,2960.823768,5847.626942
287.031795,3524.039291,2294.638420,6439.791695
287.032103,1762.019645,814.226536,8586.388927
287.032411,0.000000,-666.185348,10288.862594
287.032719,-1685.410096,-1110.308913,11251.130318
287.033027,-1762.019645,-814.226536,11251.130318
287.033335,-1072.533697,-296.082377,10807.006753
287.033643,612.876398,740.205942,10584.944971
287.033951,1762.019645,1258.350101,9548.656652
287.034259,2604.724693,1554.432478,7772.162391
287.034568,2221.676944,1184.329507,8438.347739
287.034876,995.924147,-740.205942,10214.842000
287.035184,-1072.533697,-2220.617826,11769.274478
287.035492,-2604.724693,-2960.823768,13249.686362
287.035800,-3753.867940,-3552.988522,14211.954086
287.036108,-3830.477490,-3108.864956,13027.624579
287.036416,-2604.724693,-1702.473667,12287.418637
287.036724,-919.314598,-148.041188,10584.944971
287.037032,1378.971896,1850.514855,8364.327145
287.037340,3370.820191,3256.906145,6809.894666
287.037648,4903.011187,3627.009116,5329.482782
287.037957,5439.278036,2960.823768,5403.503377
287.038265,4519.963438,2664.741391,5995.668130
287.038573,3294.210641,962.267725,7179.997637
287.038881,1685.410096,-296.082377,9104.533087
287.039189,229.828649,-518.144159,10436.903782
287.039497,-842.705048,-370.102971,10881.027347
287.039805,-459.657299,-148.041188,10436.903782
287.040113,536.266849,1110.308913,9844.739029
287.040421,1532.190996,1850.514855,9326.594869
287.040729,3600.648841,1850.514855,8808.450710
287.041037,3447.429741,1924.535449,7402.059420
287.041345,2145.067394,666.185348,8660.409521
287.041654,536.266849,-888.247130,10510.924376
287.041962,-1915.238745,-2368.659014,12287.418637
287.042270,-4060.306139,-3701.029710,14211.954086
287.042578,-4596.572988,-4293.194464,14656.077652
287.042886,-4060.306139,-3404.947333,13249.686362
287.043194,-2757.943793,-2146.597232,12287.418637
287.043502,-383.047749,-296.082377,10658.965565
287.043810,1455.581446,1554.432478,8438.347739
287.044118,3217.601092,2812.782580,6513.812290
287.044426,4596.572988,3552.988522,5181.441594
287.044734,5056.230287,3701.029710,5477.523971
287.045043,4136.915689,2590.720797,6217.729913
287.045351,2757.943793,1332.370696,7105.977043
287.045659,766.095498,518.144159,9474.636058
287.045967,-383.047749,-296.082377,11177.109724
287.046275,-919.314598,-370.102971,10881.027347
287.046583,-689.485948,222.061783,9844.739029
287.046891,766.095498,666.185348,9696.697840
287.047199,1915.238745,962.267725,9030.512492
287.047507,2757.943793,1480.411884,8068.244768
287.047815,1991.848295,296.082377,8438.347739
287.048123,1225.752797,-222.061783,9474.636058
287.048432,-919.314598,-1924.535449,11621.233289
287.048740,-2757.943793,-3182.885551,12879.583391
287.049048,-3983.696590,-4219.173869,13989.892304
287.049356,-4366.744339,-3775.050304,13767.830521
287.049664,-3907.087040,-2294.638420,12657.521608
287.049972,-1991.848295,-1332.370696,11917.315666
287.050280,-383.047749,962.267725,9548.656652
287.050588,2374.896044,2442.679609,8142.265362
287.050896,3600.648841,3478.967927,6291.750507
287.051204,4443.353888,4071.132681,5773.606348
287.051512,4596.572988,2886.803174,6291.750507
287.051820,3447.429741,2442.679609,6661.853478
287.052129,2298.286494,1036.288319,8438.347739
287.052437,536.266849,-0.000000,9474.636058
287.052745,76.609550,-222.061783,10584.944971
287.053053,-919.314598,-888.247130,10732.986159
287.053361,612.876398,296.082377,9992.780217
287.053669,1378.971896,1258.350101,8956.491898
287.053977,2681.334243,1702.473667,8216.285956
287.054285,3294.210641,1702.473667,7920.203579
287.054593,2298.286494,962.267725,8068.244768
287.054901,689.485948,-592.164754,9992.780217
287.055209,-919.314598,-2294.638420,12509.480420
287.055518,-2451.505594,-3552.988522,13915.871710
287.055826,-4060.306139,-3849.070898,15026.180623
287.056134,-4443.353888,-3478.967927,14137.933492
287.056442,-3294.210641,-2220.617826,13619.789333
287.056750,-1762.019645,-296.082377,11473.192101
287.057058,1072.533697,1554.432478,8956.491898
287.057366,3447.429741,3034.844362,7105.977043
287.057674,4979.620737,3627.009116,5551.544565
287.057982,5592.497135,3775.050304,5477.523971
287.058290,4903.011187,2146.597232,5699.585753
287.058598,3370.820191,1850.514855,7179.997637
287.058906,1915.238745,592.164754,9030.512492
287.059215,76.609550,-148.041188,9992.780217
287.059523,0.000000,-740.205942,11103.089130
287.059831,-459.657299,444.123565,9844.739029
287.060139,1225.752797,222.061783,9474.636058
287.060447,2681.334243,518.144159,9696.697840
287.060755,2987.772442,2220.617826,7550.100608
287.061063,3370.820191,1480.411884,8216.285956
287.061371,2145.067394,888.247130,8290.306550
287.061679,536.266849,-1036.288319,10584.944971
287.061987,-2221.676944,-2294.638420,12213.398043
287.062295,-3370.820191,-3478.967927,13915.871710
287.062604,-4060.306139,-4219.173869,13989.892304
287.062912,-4673.182538,-3478.967927,13471.748144
287.063220,-2834.553343,-2072.576638,12805.562797
287.063528,-1072.533697,-444.123565,10510.924376
287.063836,919.314598,1480.411884,8882.471304
287.064144,3064.381992,2442.679609,7031.956449
287.064452,4749.792088,3256.906145,5921.647536
287.064760,5515.887586,2738.761985,5625.565159
287.065068,4213.525239,1850.514855,6217.729913
287.065376,2604.724693,814.226536,7920.203579
287.065684,1302.362347,-0.000000,9548.656652
287.065992,-689.485948,-0.000000,10510.924376
287.066301,-306.438199,-74.020594,10807.006753
287.066609,459.657299,1554.432478,9548.656652
287.066917,1685.410096,1480.411884,8956.491898
287.067225,2451.505594,1850.514855,8438.347739
287.067533,3140.991542,2368.659014,7328.038826
287.067841,3294.210641,1628.453072,7254.018232
287.068149,1225.752797,-0.000000,8882.471304
287.068457,-459.657299,-1480.411884,11473.192101
287.068765,-2528.115143,-3108.864956,13101.645173
287.069073,-4366.744339,-3997.112087,13989.892304
287.069381,-4903.011187,-4071.132681,14359.995275
287.069690,-3753.867940,-3256.906145,13841.851115
287.069998,-1915.238745,-1406.391290,12065.356855
287.070306,-459.657299,-0.000000,9992.780217
287.070614,1915.238745,1850.514855,7846.182985
287.070922,3524.039291,3108.864956,7105.977043
287.071230,4903.011187,2590.720797,6291.750507
287.071538,4290.134789,2886.803174,5033.400406
287.071846,3217.601092,1702.473667,7179.997637
287.072154,1915.238745,-0.000000,8882.471304
287.072462,689.485948,-222.061783,9918.759623
287.072770,-459.657299,-0.000000,10066.800811
287.073079,0.000000,814.226536,10140.821405
287.073387,1225.752797,962.267725,9474.636058
287.073695,2451.505594,2146.597232,7994.224174
287.074003,3677.258390,2442.679609,7772.162391
287.074311,4213.525239,2220.617826,6957.935855
287.074619,3294.210641,1332.370696,7624.121203
287.074927,919.314598,222.061783,9770.718434
287.075235,-995.924147,-1702.473667,11917.315666
287.075543,-3370.820191,-3552.988522,13693.809927
287.075851,-4673.182538,-3997.112087,13915.871710
287.076159,-4596.572988,-3552.988522,13841.851115
287.076467,-3830.477490,-2738.761985,12953.603985
287.076776,-1991.848295,-888.247130,11695.253884
287.077084,0.000000,666.185348,9696.697840
287.077392,2374.896044,2368.659014,8068.244768
287.077700,3140.991542,3330.926739,6735.874072
287.078008,4290.134789,2146.597232,6513.812290
287.078316,3753.867940,2294.638420,6587.832884
287.078624,2681.334243,1184.329507,7772.162391
287.078932,995.924147,-0.000000,9474.636058
287.079240,229.828649,-666.185348,10436.903782
287.079548,-536.266849,-666.185348,10584.944971
287.079856,0.000000,740.205942,9474.636058
287.080165,1072.533697,666.185348,9400.615463
287.080473,2528.115143,1998.556043,7994.224174
287.080781,3830.477490,2590.720797,6513.812290
287.081089,3983.696590,2516.700203,6661.853478
287.081397,2987.772442,1776.494261,7772.162391
287.081705,459.657299,-222.061783,10214.842000
287.082013,-1608.800546,-2368.659014,12361.439231
287.082321,-2757.943793,-3404.947333,13693.809927
287.082629,-5056.230287,-3997.112087,14063.912898
287.082937,-4596.572988,-3627.009116,14211.954086
287.083245,-3907.087040,-2442.679609,13101.645173
287.083553,-1915.238745,-444.123565,11547.212695
287.083862,383.047749,962.267725,9252.574275
287.084170,2681.334243,2368.659014,7550.100608
287.084478,3907.087040,2664.741391,6809.894666
287.084786,4673.182538,2738.761985,6217.729913
287.085094,3907.087040,1776.494261,6735.874072
287.085402,2221.676944,1110.308913,8290.306550
287.085710,1072.533697,148.041188,9770.718434
287.086018,153.219100,-0.000000,9770.718434
287.086326,229.828649,-0.000000,10288.862594
287.086634,229.828649,962.267725,9844.739029
287.086942,2221.676944,1406.391290,9030.512492
287.087251,2757.943793,2294.638420,7698.141797
287.087559,3907.087040,2442.679609,7328.038826
287.087867,3753.867940,2220.617826,7179.997637
287.088175,2374.896044,592.164754,8734.430116
287.088483,229.828649,-962.267725,10658.965565
287.088791,-1455.581446,-2516.700203,12065.356855
287.089099,-2604.724693,-3182.885551,12953.603985
287.089407,-4136.915689,-3775.050304,14211.954086
287.089715,-3677.258390,-3404.947333,13545.768739
287.090023,-2757.943793,-1554.432478,12287.418637
287.090331,-842.705048,-0.000000,10807.006753
287.090640,1532.190996,1480.411884,8364.327145
287.090948,3447.429741,3034.844362,6735.874072
287.091256,3983.696590,2442.679609,6587.832884
287.091564,4136.915689,2368.659014,6587.832884
287.091872,2911.162892,888.247130,7402.059420
287.092180,766.095498,-370.102971,9326.594869
287.092488,306.438199,-1110.308913,10140.821405
287.092796,-995.924147,-814.226536,11177.109724
287.093104,76.609550,148.041188,10214.842000
287.093413,1455.581446,1036.288319,8586.388927
287.093721,2604.724693,1924.535449,7698.141797
287.094029,4060.306139,2294.638420,7254.018232
287.094337,4290.134789,3330.926739,6513.812290
287.094645,3600.648841,1480.411884,7550.100608
287.094953,1149.143247,592.164754,9252.574275
287.095262,-612.876398,-1554.432478,11177.109724
287.095570,-2911.162892,-3330.926739,12953.603985
287.095878,-4903.011187,-3627.009116,14063.912898
287.096186,-5056.230287,-4367.215058,14359.995275
287.096494,-4213.525239,-3034.844362,13323.706956
287.096802,-2911.162892,-814.226536,12287.418637
287.097110,0.000000,148.041188,9696.697840
287.097419,2528.115143,1924.535449,8290.306550
287.097727,3524.039291,3034.844362,6809.894666
287.098035,3524.039291,3108.864956,6143.709319
287.098343,3294.210641,2220.617826,7550.100608
287.098651,1991.848295,1184.329507,8142.265362
287.098959,766.095498,296.082377,10066.800811
287.099267,-306.438199,-222.061783,10807.006753
287.099576,-995.924147,-444.123565,10807.006753
287.099884,229.828649,666.185348,9992.780217
287.100192,1455.581446,1702.473667,8512.368333
287.100500,2604.724693,2664.741391,7994.224174
287.100808,4136.915689,2738.761985,7328.038826
287.101116,3907.087040,2738.761985,6439.791695
287.101425,2298.286494,1110.308913,7994.224174
287.101733,1225.752797,-666.185348,9918.759623
287.102041,-1532.190996,-2368.659014,11843.295072
287.102349,-2987.772442,-3775.050304,14211.954086
287.102657,-4290.134789,-3997.112087,13915.871710
287.102965,-4596.572988,-3552.988522,13841.851115
287.103273,-3753.867940,-2220.617826,13101.645173
287.103582,-1378.971896,-518.144159,11029.068536
287.103890,995.924147,1036.288319,8956.491898
287.104198,2451.505594,2516.700203,7994.224174
287.104506,3983.696590,2664.741391,6513.812290
287.104814,3600.648841,2072.576638,6513.812290
287.105122,2451.505594,1258.350101,7994.224174
287.105430,1149.143247,444.123565,9622.677246
287.105739,229.828649,-222.061783,10214.842000
287.106047,-383.047749,-148.041188,10584.944971
287.106355,0.000000,-0.000000,10732.986159
287.106663,1225.752797,740.205942,9622.677246
287.106971,2451.505594,1924.535449,8438.347739
287.107279,4213.525239,2442.679609,7105.977043
287.107588,4673.182538,3478.967927,5699.585753
287.107896,4366.744339,2442.679609,6661.853478
287.108204,3140.991542,1184.329507,7550.100608
287.108512,766.095498,-444.123565,9770.718434
287.108820,-1608.800546,-2664.741391,12213.398043
287.109128,-2834.553343,-3923.091493,13101.645173
287.109436,-4443.353888,-3552.988522,13619.789333
287.109745,-4443.353888,-3182.885551,14359.995275
287.110053,-3140.991542,-1554.432478,13323.706956
287.110361,-1072.533697,148.041188,11473.192101
287.110669,1149.143247,1702.473667,9326.594869
287.110977,2528.115143,2590.720797,7328.038826
287.111285,3140.991542,2368.659014,7179.997637
287.111594,2681.334243,1184.329507,8142.265362
287.111902,1225.752797,444.123565,8882.471304
287.112210,76.609550,-222.061783,10140.821405
287.112518,-306.438199,-518.144159,10658.965565
287.112826,-459.657299,-444.123565,10436.903782
287.113134,76.609550,370.102971,9400.615463
287.113442,1455.581446,1332.370696,9252.574275
287.113751,3064.381992,1924.535449,7698.141797
287.114059,4443.353888,2664.741391,6735.874072
287.114367,4213.525239,2812.782580,6661.853478
287.114675,3064.381992,1332.370696,7772.162391
287.114983,1378.971896,-0.000000,9104.533087
287.115291,-383.047749,-1036.288319,10732.986159
287.115599,-2528.115143,-2664.741391,11991.336260
287.115908,-3677.258390,-3182.885551,12953.603985
287.116216,-4213.525239,-2812.782580,13027.624579
287.116524,-3217.601092,-1850.514855,12065.356855
287.116832,-1532.190996,-962.267725,10140.821405
287.117140,229.828649,1036.288319,9326.594869
287.117448,2451.505594,1776.494261,7402.059420
287.117757,3524.039291,2072.576638,6217.729913
287.118065,3294.210641,1480.411884,6513.812290
287.118373,2068.457845,518.144159,7846.182985
287.118681,1532.190996,-1184.329507,9474.636058
287.118989,0.000000,-1480.411884,10288.862594
287.119297,0.000000,-1998.556043,10510.924376
287.119605,76.609550,-1036.288319,10436.903782
287.119914,766.095498,-74.020594,9622.677246
287.120222,2145.067394,1480.411884,8882.471304
287.120530,3600.648841,2146.597232,7624.121203
287.120838,4136.915689,2738.761985,6661.853478
287.121146,4290.134789,2590.720797,6735.874072
287.121454,3217.601092,1184.329507,7994.224174
287.121762,995.924147,-74.020594,9770.718434
287.122071,-1225.752797,-1924.535449,11473.192101
287.122379,-2834.553343,-2960.823768,13027.624579
287.122687,-3753.867940,-2812.782580,13323.706956
287.122995,-3753.867940,-2442.679609,13619.789333
287.123303,-2604.724693,-1480.411884,12065.356855
287.123611,-612.876398,444.123565,10510.924376
287.123920,1149.143247,2294.638420,8808.450710
287.124228,3753.867940,2664.741391,7031.956449
287.124536,3983.696590,2664.741391,6439.791695
287.124844,3677.258390,2368.659014,7105.977043
287.125152,2834.553343,1184.329507,7920.203579
287.125460,1455.581446,296.082377,9548.656652
287.125768,306.438199,-888.247130,10732.986159
287.126077,-306.438199,-370.102971,10288.862594
287.126385,229.828649,-222.061783,10436.903782
287.126693,0.000000,444.123565,10881.027347
287.127001,1838.629195,1332.370696,9474.636058
287.127309,2911.162892,2812.782580,7920.203579
287.127617,3370.820191,2664.741391,7476.080014
287.127925,3140.991542,2146.597232,7772.162391
287.128234,1991.848295,888.247130,8882.471304
287.128542,-383.047749,-1036.288319,11103.089130
287.128850,-2528.115143,-2368.659014,12361.439231
287.129158,-3294.210641,-3478.967927,13767.830521
287.129466,-4673.182538,-3034.844362,13693.809927
287.129774,-3753.867940,-2294.638420,13397.727550
287.130083,-2298.286494,-518.144159,11843.295072
287.130391,-306.438199,888.247130,10066.800811
287.130699,2374.896044,2072.576638,7920.203579
287.131007,3524.039291,3108.864956,6439.791695
287.131315,4596.572988,2886.803174,6291.750507
287.131623,3753.867940,1850.514855,6513.812290
287.131931,2221.676944,740.205942,8364.327145
287.132240,766.095498,-296.082377,9918.759623
287.132548,-459.657299,-296.082377,9696.697840
287.132856,-766.095498,-222.061783,10140.821405
287.133164,76.609550,-296.082377,10362.883188
287.133472,229.828649,888.247130,9844.739029
287.133780,2298.286494,1036.288319,8364.327145
287.134089,1915.238745,1998.556043,7179.997637
287.134397,3140.991542,2146.597232,7105.977043
287.134705,2451.505594,1184.329507,7920.203579
287.135013,612.876398,-222.061783,10066.800811
287.135321,-995.924147,-2220.617826,11325.150913
287.135629,-2757.943793,-3034.844362,11843.295072
287.135937,-3753.867940,-3923.091493,13397.727550
287.136246,-4596.572988,-3552.988522,13545.768739
287.136554,-3217.601092,-2442.679609,12509.480420
287.136862,-1838.629195,-518.144159,10807.006753
287.137170,229.828649,1258.350101,8438.347739
287.137478,3677.258390,1924.535449,7772.162391
287.137786,3294.210641,3256.906145,4811.338623
287.138094,4443.353888,2220.617826,6365.771101
287.138403,3600.648841,1702.473667,7105.977043
287.138711,3217.601092,740.205942,8216.285956
287.139019,0.000000,-814.226536,9548.656652
287.139327,0.000000,-888.247130,9770.718434
287.139635,0.000000,-814.226536,10955.047942
287.139943,-383.047749,592.164754,9252.574275
287.140252,1608.800546,444.123565,9770.718434
287.140560,2604.724693,1850.514855,8364.327145
287.140868,3370.820191,1850.514855,8068.244768
287.141176,3140.991542,1850.514855,7624.121203
287.141484,2911.162892,1036.288319,8290.306550
287.141792,766.095498,-666.185348,10288.862594
287.142100,-1072.533697,-1998.556043,11103.089130
287.142409,-2987.772442,-3108.864956,13323.706956
287.142717,-4136.915689,-3552.988522,14063.912898
287.143025,-4060.306139,-2664.741391,13767.830521
287.143333,-2757.943793,-1258.350101,12731.542202
287.143641,-383.047749,-74.020594,10955.047942
287.143949,1455.581446,1480.411884,8956.491898
287.144257,2987.772442,3182.885551,7550.100608
287.144566,4673.182538,3182.885551,6883.915261
287.144874,3447.429741,3256.906145,5255.462188
287.145182,3140.991542,1850.514855,7846.182985
287.145490,1455.581446,370.102971,9104.533087
287.145798,766.095498,-0.000000,10658.965565
287.146106,0.000000,-74.020594,10362.883188
287.146415,153.219100,222.061783,9770.718434
287.146723,919.314598,666.185348,10140.821405
287.147031,1685.410096,1776.494261,8882.471304
287.147339,2757.943793,2368.659014,8734.430116
287.147647,3600.648841,2220.617826,8068.244768
287.147955,2911.162892,962.267725,8660.409521
287.148263,1455.581446,-518.144159,9770.718434
287.148572,229.828649,-2294.638420,11695.253884
287.148880,-1991.848295,-3552.988522,12509.480420
287.149188,-3830.477490,-3552.988522,13249.686362
287.149496,-3524.039291,-3256.906145,13915.871710
287.149804,-3217.601092,-1924.535449,12287.418637
287.150112,-1378.971896,370.102971,10807.006753
287.150421,995.924147,1036.288319,9474.636058
287.150729,2681.334243,2960.823768,7105.977043
287.151037,4213.525239,3034.844362,6069.688724
287.151345,4443.353888,2960.823768,5403.503377
287.151653,3753.867940,2220.617826,6513.812290
287.151961,1838.629195,1110.308913,7920.203579
287.152269,689.485948,-666.185348,9770.718434
287.152578,-459.657299,-1258.350101,10288.862594
287.152886,-1378.971896,-1258.350101,10362.883188
287.153194,0.000000,-666.185348,10584.944971
287.153502,383.047749,370.102971,10066.800811
287.153810,1532.190996,888.247130,9474.636058
287.154118,2221.676944,1924.535449,7772.162391
287.154426,2987.772442,1998.556043,7624.121203
287.154735,2604.724693,814.226536,8068.244768
287.155043,689.485948,-666.185348,9178.553681
287.155351,-919.314598,-2294.638420,11843.295072
287.155659,-2068.457845,-3775.050304,12657.521608
287.155967,-4060.306139,-3997.112087,12731.542202
287.156275,-4136.915689,-3182.885551,13027.624579
287.156584,-2911.162892,-2368.659014,12435.459826
287.156892,-1149.143247,-370.102971,10510.924376
287.157200,1149.143247,1480.411884,8364.327145
287.157508,3753.867940,2442.679609,6883.915261
287.157816,3983.696590,3627.009116,5107.421000
287.158124,5209.449386,3182.885551,5625.565159
287.158432,4136.915689,2442.679609,6069.688724
287.158741,2068.457845,1110.308913,7994.224174
287.159049,689.485948,-0.000000,9696.697840
287.159357,-459.657299,-592.164754,10807.006753
287.159665,-1225.752797,-666.185348,11029.068536
287.159973,-383.047749,-296.082377,11251.130318
287.160281,153.219100,296.082377,11473.192101
287.160589,1225.752797,666.185348,9770.718434
287.160898,1915.238745,1554.432478,8808.450710
287.161206,2374.896044,1554.432478,7624.121203
287.161514,1685.410096,296.082377,8882.471304
287.161822,0.000000,-1332.370696,11029.068536
287.162130,-1608.800546,-2294.638420,12287.418637
287.162438,-3217.601092,-2368.659014,13101.645173
287.162747,-3753.867940,-2886.803174,12953.603985
287.163055,-3447.429741,-1998.556043,12953.603985
287.163363,-1991.848295,-370.102971,11843.295072
287.163671,-383.047749,1480.411884,10288.862594
287.163979,2221.676944,2516.700203,7994.224174
287.164287,3677.258390,4367.215058,6217.729913
287.164595,4443.353888,4145.153275,5329.482782
287.164904,4673.182538,3330.926739,5625.565159
287.165212,3447.429741,1924.535449,7772.162391
287.165520,1532.190996,592.164754,8956.491898
287.165828,0.000000,-888.247130,9770.718434
287.166136,-689.485948,-740.205942,10807.006753
287.166444,-766.095498,-888.247130,11251.130318
287.166752,-842.705048,296.082377,10436.903782
287.167061,1302.362347,814.226536,10584.944971
287.167369,1991.848295,1184.329507,8512.368333
287.167677,2911.162892,1628.453072,7698.141797
287.167985,2911.162892,1110.308913,8586.388927
287.168293,1532.190996,-444.123565,9622.677246
287.168601,-536.266849,-2368.659014,11843.295072
287.168910,-2681.334243,-3478.967927,13027.624579
287.169218,-3907.087040,-4145.153275,13989.892304
287.169526,-4366.744339,-3256.906145,13397.727550
287.169834,-2987.772442,-2368.659014,12435.459826
287.170142,-1072.533697,-518.144159,11547.212695
287.170450,1685.410096,1480.411884,8808.450710
287.170758,3600.648841,2886.803174,6217.729913
287.171067,4979.620737,3849.070898,5255.462188
287.171375,5286.058936,3627.009116,4737.318029
287.171683,4673.182538,2812.782580,5995.668130
287.171991,3217.601092,1258.350101,7254.018232
287.172299,1685.410096,-74.020594,9178.553681
287.172607,-612.876398,-1702.473667,10214.842000
287.172916,-1225.752797,-1554.432478,11103.089130
287.173224,-995.924147,-1258.350101,11029.068536
287.173532,-153.219100,296.082377,10436.903782
287.173840,1302.362347,888.247130,9474.636058
287.174148,2834.553343,1702.473667,7698.141797
287.174456,3217.601092,2220.617826,7179.997637
287.174764,2374.896044,296.082377,8364.327145
287.175073,1072.533697,-740.205942,9844.739029
287.175381,-919.314598,-2738.761985,12657.521608
287.175689,-3447.429741,-2886.803174,12805.562797
287.175997,-3753.867940,-3330.926739,13249.686362
287.176305,-3677.258390,-2812.782580,13027.624579
287.176613,-2681.334243,-1258.350101,12065.356855
287.176921,-766.095498,-74.020594,10510.924376
287.177230,1225.752797,1406.391290,8068.244768
287.177538,4136.915689,2738.761985,6439.791695
287.177846,4443.353888,3108.864956,5329.482782
287.178154,4979.620737,2590.720797,5995.668130
287.178462,3677.258390,1850.514855,7105.977043
287.178770,1991.848295,222.061783,8512.368333
287.179079,612.876398,-814.226536,9992.780217
287.179387,-383.047749,-1184.329507,10140.821405
287.179695,-842.705048,-740.205942,10881.027347
287.180003,-536.266849,-296.082377,10584.944971
287.180311,766.095498,1036.288319,10140.821405
287.180619,1762.019645,1480.411884,9178.553681
287.180927,2911.162892,2442.679609,7476.080014
287.181236,3064.381992,1776.494261,8142.265362
287.181544,1532.190996,592.164754,9030.512492
287.181852,0.000000,-1258.350101,11103.089130
287.182160,-2528.115143,-3108.864956,12731.542202
287.182468,-3447.429741,-2960.823768,14063.912898
287.182776,-4443.353888,-2738.761985,13397.727550
287.183084,-4519.963438,-2368.659014,13101.645173
287.183393,-2221.676944,-444.123565,11769.274478
287.183701,0.000000,1628.453072,9474.636058
287.184009,2221.676944,3256.906145,7994.224174
287.184317,4366.744339,3627.009116,6291.750507
287.184625,4366.744339,3627.009116,5699.585753
287.184933,4213.525239,2886.803174,6735.874072
287.185242,3140.991542,1850.514855,7624.121203
287.185550,1762.019645,296.082377,9474.636058
287.185858,0.000000,-1110.308913,10362.883188
287.186166,-842.705048,-666.185348,10658.965565
287.186474,-842.705048,-444.123565,11251.130318
287.186782,-76.609550,666.185348,10584.944971
287.187090,536.266849,1332.370696,9622.677246
287.187399,3064.381992,2294.638420,8438.347739
287.187707,3370.820191,2368.659014,7402.059420
287.188015,2834.553343,1406.391290,8142.265362
287.188323,1302.362347,-444.123565,9622.677246
287.188631,-766.095498,-1924.535449,11399.171507
287.188939,-2911.162892,-3404.947333,13027.624579
287.189248,-3753.867940,-4441.235652,14137.933492
287.189556,-4213.525239,-3034.844362,13471.748144
287.189864,-3447.429741,-2516.700203,11843.295072
287.190172,-1149.143247,-888.247130,11473.192101
287.190480,1532.190996,1036.288319,8882.471304
287.190788,3370.820191,2442.679609,5921.647536
287.191096,4826.401637,3404.947333,4737.318029
287.191404,5669.106685,2812.782580,4959.379811
287.191713,4826.401637,2146.597232,6069.688724
287.192021,3294.210641,592.164754,7105.977043
287.192329,1455.581446,-814.226536,8808.450710
287.192637,-536.266849,-518.144159,10436.903782
287.192945,-689.485948,-1036.288319,10362.883188
287.193253,-842.705048,-0.000000,10436.903782
287.193561,0.000000,962.267725,10510.924376
287.193869,1762.019645,1554.432478,9178.553681
287.194177,2528.115143,2072.576638,7698.141797
287.194486,2834.553343,1480.411884,7772.162391
287.194794,1455.581446,-222.061783,9178.553681
287.195102,-153.219100,-1924.535449,10807.006753
287.195410,-1915.238745,-3478.967927,12287.418637
287.195718,-3753.867940,-3997.112087,13619.789333
287.196026,-4366.744339,-3256.906145,13693.809927
287.196334,-3983.696590,-2590.720797,13027.624579
287.196642,-2298.286494,-962.267725,11695.253884
287.196951,0.000000,1036.288319,9844.739029
287.197259,2451.505594,2368.659014,8290.306550
287.197567,5056.230287,3552.988522,5477.523971
287.197875,4903.011187,3997.112087,4885.359217
287.198183,4903.011187,2812.782580,6661.853478
287.198491,3753.867940,2294.638420,6587.832884
287.198799,2298.286494,740.205942,8660.409521
287.199107,536.266849,-296.082377,9770.718434
287.199415,-766.095498,-888.247130,10584.944971
287.199724,-1225.752797,-74.020594,11473.192101
287.200032,-919.314598,296.082377,11251.130318
287.200340,-459.657299,1184.329507,10584.944971
287.200648,1302.362347,1628.453072,9252.574275
287.200956,2068.457845,1998.556043,8586.388927
287.201264,1991.848295,1406.391290,8882.471304
287.201572,459.657299,296.082377,10140.821405
287.201880,-1302.362347,-1998.556043,12361.439231
287.202188,-2681.334243,-2664.741391,13101.645173
287.202497,-3983.696590,-3108.864956,14063.912898
287.202805,-4903.011187,-3330.926739,14211.954086
287.203113,-3524.039291,-2072.576638,12509.480420
287.203421,-1915.238745,-148.041188,11251.130318
287.203729,842.705048,888.247130,9474.636058
287.204037,3370.820191,2738.761985,6957.935855
287.204345,5056.230287,3478.967927,5329.482782
287.204653,5975.544884,3478.967927,5181.441594
287.204961,6052.154434,2812.782580,4811.338623
287.205270,4519.963438,1406.391290,6365.771101
287.205578,3064.381992,148.041188,8364.327145
287.205886,766.095498,-518.144159,9474.636058
287.206194,-153.219100,-1110.308913,9992.780217
287.206502,-383.047749,-592.164754,10510.924376
287.206810,76.609550,-222.061783,10584.944971
287.207118,1225.752797,444.123565,9770.718434
287.207426,2298.286494,814.226536,8290.306550
287.207734,2604.724693,962.267725,7920.203579
287.208043,2068.457845,-222.061783,9030.512492
287.208351,76.609550,-1036.288319,10881.027347
287.208659,-1685.410096,-2590.720797,12213.398043
287.208967,-3140.991542,-3923.091493,13323.706956
287.209275,-3983.696590,-3404.947333,13545.768739
287.209583,-3983.696590,-3330.926739,12731.542202
287.209891,-1302.362347,-1998.556043,11473.192101
287.210199,-689.485948,148.041188,10140.821405
287.210508,2221.676944,1850.514855,8068.244768
287.210816,3983.696590,2960.823768,5477.523971
287.211124,5286.058936,4071.132681,5181.441594
287.211432,6052.154434,3330.926739,4811.338623
287.211740,5056.230287,2590.720797,5403.503377
287.212048,3753.867940,1332.370696,7105.977043
287.212356,1762.019645,-148.041188,8438.347739
287.212664,76.609550,-518.144159,10362.883188
287.212972,-766.095498,-740.205942,10510.924376
287.213281,-919.314598,-0.000000,10881.027347
287.213589,0.000000,370.102971,11177.109724
287.213897,689.485948,1258.350101,9622.677246
287.214205,1762.019645,1702.473667,9104.533087
287.214513,2298.286494,1480.411884,8512.368333
287.214821,842.705048,222.061783,9474.636058
287.215129,-766.095498,-814.226536,11177.109724
287.215437,-2604.724693,-2294.638420,12953.603985
287.215745,-4060.306139,-3108.864956,14137.933492
287.216054,-4596.572988,-3256.906145,13915.871710
287.216362,-3524.039291,-2738.761985,13175.665768
287.216670,-2834.553343,-888.247130,11547.212695
287.216978,-766.095498,222.061783,10066.800811
287.217286,2451.505594,2294.638420,8512.368333
287.217594,3907.087040,3627.009116,6143.709319
287.217902,5286.058936,3997.112087,5329.482782
287.218210,4979.620737,3627.009116,5255.462188
287.218518,4596.572988,2368.659014,6291.750507
287.218827,2757.943793,1036.288319,7550.100608
287.219135,995.924147,222.061783,9474.636058
287.219443,-536.266849,-888.247130,11177.109724
287.219751,-1302.362347,-592.164754,11251.130318
287.220059,-1378.971896,-0.000000,11029.068536
287.220367,-229.828649,148.041188,10584.944971
287.220675,1149.143247,1036.288319,9992.780217
287.220983,1225.752797,1702.473667,8216.285956
287.221291,1302.362347,962.267725,8956.491898
287.221600,76.609550,-592.164754,10510.924376
287.221908,-1378.971896,-2220.617826,11547.212695
287.222216,-2528.115143,-3404.947333,13027.624579
287.222524,-4443.353888,-3552.988522,13027.624579
287.222832,-3064.381992,-3627.009116,14063.912898
287.223140,-4136.915689,-1628.453072,11251.130318
287.223448,-306.438199,-1258.350101,11695.253884
287.223756,689.485948,1036.288319,8512.368333
287.224065,3907.087040,2442.679609,6143.709319
287.224373,6205.373534,3182.885551,5107.421000
287.224681,6894.859482,3997.112087,3404.947333
287.224989,6205.373534,2664.741391,4811.338623
287.225297,4903.011187,2146.597232,5403.503377
287.225605,2834.553343,296.082377,8068.244768
287.225913,76.609550,-518.144159,9030.512492
287.226221,-383.047749,-740.205942,10658.965565
287.226529,-306.438199,-370.102971,11325.150913
287.226838,-229.828649,-370.102971,10066.800811
287.227146,842.705048,740.205942,10362.883188
287.227454,1302.362347,962.267725,8660.409521
287.227762,1762.019645,1110.308913,8956.491898
287.228070,995.924147,222.061783,9474.636058
287.228378,0.000000,-888.247130,11103.089130
287.228686,-1455.581446,-2590.720797,13249.686362
287.228994,-3370.820191,-3330.926739,12731.542202
287.229302,-3600.648841,-3552.988522,13693.809927
287.229611,-3294.210641,-2812.782580,12879.583391
287.229919,-2221.676944,-1480.411884,11917.315666
287.230227,-306.438199,592.164754,10140.821405
287.230535,2221.676944,1776.494261,8142.265362
287.230843,4443.353888,3182.885551,6291.750507
287.231151,6052.154434,3997.112087,4737.318029
287.231459,6588.421283,3775.050304,4737.318029
287.231767,5822.325785,2664.741391,5255.462188
287.232075,3753.867940,1332.370696,7105.977043
287.232384,1532.190996,148.041188,8956.491898
287.232692,0.000000,-592.164754,10881.027347
287.233000,-1149.143247,-0.000000,10510.924376
287.233308,-919.314598,222.061783,11177.109724
287.233616,0.000000,592.164754,10807.006753
287.233924,919.314598,1702.473667,9992.780217
287.234232,1762.019645,1776.494261,8956.491898
287.234540,1072.533697,1036.288319,8956.491898
287.234849,76.609550,-0.000000,10140.821405
287.235157,-1532.190996,-1554.432478,12213.398043
287.235465,-3064.381992,-2738.761985,13545.768739
287.235773,-4596.572988,-3627.009116,13989.892304
287.236081,-5056.230287,-3923.091493,14211.954086
287.236389,-4136.915689,-2812.782580,13767.830521
287.236697,-2604.724693,-1628.453072,11991.336260
287.237005,-766.095498,-0.000000,10066.800811
287.237313,2221.676944,2146.597232,7772.162391
287.237622,4136.915689,3775.050304,5625.565159
287.237930,6128.763984,3627.009116,5181.441594
287.238238,5439.278036,3997.112087,4219.173869
287.238546,5209.449386,2368.659014,5773.606348
287.238854,3677.258390,962.267725,7550.100608
287.239162,1302.362347,-222.061783,9104.533087
287.239470,0.000000,-814.226536,10510.924376
287.239778,-383.047749,-444.123565,10584.944971
287.240086,-229.828649,-74.020594,10807.006753
287.240395,919.314598,370.102971,9770.718434
287.240703,1915.238745,1258.350101,8660.409521
287.241011,2221.676944,1406.391290,8216.285956
287.241319,1455.581446,666.185348,8438.347739
287.241627,766.095498,-666.185348,10288.862594
287.241935,-1915.238745,-2590.720797,12509.480420
287.242243,-3294.210641,-3108.864956,13693.809927
287.242551,-4443.353888,-3775.050304,14063.912898
287.242859,-4366.744339,-3404.947333,14063.912898
287.243168,-3524.039291,-2368.659014,12879.583391
287.243476,-1225.752797,-444.123565,11917.315666
287.243784,229.828649,592.164754,10066.800811
287.244092,2604.724693,2886.803174,7031.956449
287.244400,5056.230287,3330.926739,5847.626942
287.244708,5975.544884,3552.988522,4811.338623
287.245016,5822.325785,2960.823768,4959.379811
287.245324,4136.915689,1998.556043,6439.791695
287.245632,2681.334243,148.041188,7772.162391
287.245941,1225.752797,-888.247130,9252.574275
287.246249,842.705048,-666.185348,10288.862594
287.246557,-536.266849,-0.000000,10288.862594
287.246865,1072.533697,740.205942,9622.677246
287.247173,1685.410096,1184.329507,9178.553681
287.247481,2374.896044,1480.411884,8216.285956
287.247789,2298.286494,1776.494261,7994.224174
287.248097,1608.800546,888.247130,8882.471304
287.248406,153.219100,-814.226536,10732.986159
287.248714,-1762.019645,-2368.659014,12509.480420
287.249022,-3294.210641,-3923.091493,13767.830521
287.249330,-4903.011187,-3775.050304,14359.995275
287.249638,-4596.572988,-3404.947333,13841.851115
287.249946,-3753.867940,-2072.576638,12731.542202
287.250254,-1838.629195,-296.082377,11473.192101
287.250562,459.657299,1184.329507,9400.615463
287.250870,3140.991542,3182.885551,6439.791695
287.251179,4903.011187,3849.070898,5477.523971
287.251487,5515.887586,3478.967927,5773.606348
287.251795,5286.058936,2886.803174,5847.626942
287.252103,3447.429741,1554.432478,7254.018232
287.252411,1532.190996,148.041188,8660.409521
287.252719,0.000000,-518.144159,10140.821405
287.253027,76.609550,-296.082377,11177.109724
287.253335,229.828649,-0.000000,10584.944971
287.253643,612.876398,666.185348,9844.739029
287.253952,1762.019645,962.267725,9178.553681
287.254260,1991.848295,1406.391290,8290.306550
287.254568,1838.629195,1702.473667,8364.327145
287.254876,919.314598,740.205942,9474.636058
287.255184,-689.485948,-814.226536,11473.192101
287.255492,-2145.067394,-2368.659014,12805.562797
287.255800,-3217.601092,-3404.947333,13397.727550
287.256108,-4596.572988,-3552.988522,13471.748144
287.256416,-4213.525239,-2960.823768,13471.748144
287.256725,-2681.334243,-1332.370696,12287.418637
287.257033,-766.095498,-0.000000,10658.965565
287.257341,1762.019645,1776.494261,8586.388927
287.257649,3907.087040,3182.885551,5995.668130
287.257957,5209.449386,3627.009116,4589.276840
287.258265,6281.983084,2738.761985,5181.441594
287.258573,4443.353888,1554.432478,5995.668130
287.258881,2451.505594,444.123565,7328.038826
287.259190,1608.800546,-666.185348,9918.759623
287.259498,0.000000,-814.226536,10362.883188
287.259806,-536.266849,-518.144159,10955.047942
287.260114,229.828649,666.185348,9696.697840
287.260422,1455.581446,1110.308913,9326.594869
287.260730,2068.457845,1924.535449,8734.430116
287.261038,2911.162892,2146.597232,7550.100608
287.261346,2451.505594,1554.432478,8586.388927
287.261654,0.000000,-0.000000,9474.636058
287.261963,-153.219100,-1776.494261,12287.418637
287.262271,-2911.162892,-2886.803174,12731.542202
287.262579,-4903.011187,-4219.173869,14137.933492
287.262887,-4290.134789,-4515.256246,14434.015869
287.263195,-4519.963438,-2516.700203,13323.706956
287.263503,-2528.115143,-1850.514855,12509.480420
287.263811,383.047749,814.226536,9326.594869
287.264119,2987.772442,2442.679609,7772.162391
287.264427,4519.963438,3330.926739,5181.441594
287.264736,5822.325785,3775.050304,4219.173869
287.265044,5745.716235,2960.823768,5403.503377
287.265352,4596.572988,1628.453072,5995.668130
287.265660,3064.381992,740.205942,7550.100608
287.265968,1225.752797,-0.000000,9474.636058
287.266276,842.705048,-666.185348,10732.986159
287.266584,0.000000,592.164754,9770.718434
287.266892,1149.143247,962.267725,9918.759623
287.267200,1455.581446,1406.391290,9474.636058
287.267509,1915.238745,1924.535449,8290.306550
287.267817,2374.896044,2294.638420,8438.347739
287.268125,1149.143247,592.164754,9474.636058
287.268433,-383.047749,-1184.329507,11251.130318
287.268741,-1991.848295,-2368.659014,13101.645173
287.269049,-3830.477490,-3849.070898,13767.830521
287.269357,-4826.401637,-4071.132681,14285.974681
287.269665,-4903.011187,-3404.947333,14063.912898
287.269973,-3753.867940,-1998.556043,12879.583391
287.270282,-1532.190996,-444.123565,11177.109724
287.270590,1225.752797,1406.391290,9178.553681
287.270898,3140.991542,2960.823768,7254.018232
287.271206,4749.792088,3404.947333,4811.338623
287.271514,5592.497135,3108.864956,5107.421000
287.271822,4826.401637,2368.659014,5551.544565
287.272130,2834.553343,1036.288319,7031.956449
287.272438,1838.629195,-148.041188,9622.677246
287.272747,1072.533697,-1036.288319,9992.780217
287.273055,-689.485948,-0.000000,10362.883188
287.273363,76.609550,-518.144159,10510.924376
287.273671,995.924147,1258.350101,9104.533087
287.273979,1915.238745,1998.556043,8512.368333
287.274287,2834.553343,2442.679609,7772.162391
287.274595,2681.334243,1850.514855,7772.162391
287.274903,1149.143247,370.102971,9178.553681
287.275211,0.000000,-1036.288319,10881.027347
287.275520,-1532.190996,-2886.803174,12731.542202
287.275828,-4290.134789,-4515.256246,13989.892304
287.276136,-5286.058936,-4367.215058,14434.015869
287.276444,-4596.572988,-2812.782580,14211.954086
287.276752,-2681.334243,-2072.576638,13101.645173
287.277060,-1838.629195,1258.350101,9326.594869
287.277368,2528.115143,2146.597232,8068.244768
287.277676,4903.011187,3330.926739,6661.853478
287.277984,4366.744339,3034.844362,4737.318029
287.278293,5515.887586,2664.741391,6365.771101
287.278601,4060.306139,814.226536,7179.997637
287.278909,2374.896044,370.102971,7476.080014
287.279217,842.705048,-296.082377,9400.615463
287.279525,842.705048,-222.061783,9992.780217
287.279833,-612.876398,-518.144159,9474.636058
287.280141,995.924147,148.041188,9474.636058
287.280449,1532.190996,1184.329507,9696.697840
287.280757,2681.334243,1258.350101,8142.265362
287.281066,2757.943793,2146.597232,7994.224174
287.281374,2298.286494,1554.432478,8734.430116
287.281682,1149.143247,-296.082377,9992.780217
287.281990,-1302.362347,-1628.453072,11473.192101
287.282298,-2757.943793,-2738.761985,13027.624579
287.282606,-4060.306139,-4219.173869,14434.015869
287.282914,-4826.401637,-3256.906145,13249.686362
287.283222,-3907.087040,-2294.638420,13101.645173
287.283531,-1838.629195,-666.185348,11843.295072
287.283839,383.047749,1406.391290,9104.533087
287.284147,2757.943793,3330.926739,7254.018232
287.284455,4903.011187,3701.029710,5477.523971
287.284763,5056.230287,3108.864956,4441.235652
287.285071,4136.915689,2738.761985,6513.812290
287.285379,3064.381992,814.226536,7846.182985
287.285687,1072.533697,-74.020594,9030.512492
287.285995,-919.314598,-740.205942,10881.027347
287.286304,-766.095498,-1036.288319,10807.006753
287.286612,-459.657299,-592.164754,10584.944971
287.286920,383.047749,296.082377,10362.883188
287.287228,1991.848295,1406.391290,8586.388927
287.287536,3294.210641,2220.617826,8290.306550
287.287844,3217.601092,1776.494261,7328.038826
287.288152,2757.943793,1480.411884,9178.553681
287.288460,766.095498,-444.123565,9696.697840
287.288768,-1225.752797,-2146.597232,11473.192101
287.289077,-2681.334243,-3627.009116,13249.686362
287.289385,-3907.087040,-3478.967927,13471.748144
287.289693,-3907.087040,-3256.906145,13619.789333
287.290001,-2987.772442,-1850.514855,13027.624579
287.290309,-842.705048,-370.102971,11251.130318
287.290617,1838.629195,1184.329507,8364.327145
287.290925,4136.915689,2590.720797,5847.626942
287.291233,5362.668486,3552.988522,5477.523971
287.291541,5362.668486,3330.926739,5255.462188
287.291850,3983.696590,2368.659014,6661.853478
287.292158,2298.286494,444.123565,8438.347739
287.292466,1072.533697,-148.041188,9548.656652
287.292774,-459.657299,-222.061783,10510.924376
287.293082,0.000000,-222.061783,10732.986159
287.293390,459.657299,-296.082377,10584.944971
287.293698,612.876398,1258.350101,9622.677246
287.294006,2145.067394,1480.411884,8808.450710
287.294314,2757.943793,2146.597232,7920.203579
287.294622,2987.772442,1998.556043,8142.265362
287.294930,2374.896044,222.061783,9474.636058
287.295238,383.047749,-740.205942,10584.944971
287.295546,-1532.190996,-3182.885551,12361.439231
287.295854,-3907.087040,-3627.009116,13175.665768
