#time,accel_x,accel_y,accel_z
682.275515,19.142581,2201.396792,-9973.284597
682.278189,-57.427742,4862.215523,-9322.436850
682.280864,-38.285162,5359.922624,-9303.294269
682.283539,-133.998066,5130.211654,-10700.702667
682.286213,172.283227,995.414202,-7637.889739
682.288888,-516.849682,95.712904,-11236.694930
682.291563,344.566454,-6106.483275,-8269.594906
682.294237,-497.707101,-9724.431046,-9245.866526
682.296912,-95.712904,-10088.140082,-11408.978157
682.299586,689.132909,-4689.932296,-9781.858789
682.302261,-1875.972918,1856.830338,-8480.163294
682.304936,421.136778,-1435.693560,-10662.417506
682.307610,57.427742,-1167.697429,-9322.436850
682.310285,38.285162,-2086.541307,-7752.745224
682.312960,-0.000000,-3522.234867,-10987.841379
682.315634,-727.418070,-5417.350366,-9379.864592
682.318254,-0.000000,-8116.454259,-8614.161360
682.320873,-153.140646,-10451.849117,-9667.003304
682.323493,1607.976787,-8346.165229,-12768.101394
682.326112,-1186.840010,191.425808,-8212.167163
682.328731,-1244.267752,976.271621,-7944.171032
682.331351,1741.974853,2067.398726,-9647.860723
682.333970,-1646.261949,6833.901346,-8786.444587
682.336590,535.992262,2488.535504,-11619.546546
682.339209,-421.136778,-2737.389054,-9475.577496
682.341829,325.423874,-6699.903280,-5666.203917
682.344448,172.283227,-6546.762634,-12959.527202
682.347067,-880.558717,-708.275490,-10968.698798
682.349687,-114.855485,-1205.982590,-7293.323285
682.352306,153.140646,-57.427742,-11236.694930
682.354926,689.132909,3483.949706,-6699.903280
682.357545,-363.709035,5015.356170,-11983.255581
682.360165,-727.418070,574.277424,-10643.274925
682.362784,976.271621,-5934.200048,-4613.361973
682.365403,-95.712904,-4230.510357,-12787.243974
682.368023,-1339.980656,-612.562586,-12442.677520
682.370642,-248.853550,-3215.953574,-5474.778109
682.373262,689.132909,-2871.387120,-11753.544611
682.375881,267.996131,1339.980656,-9092.725880
682.378501,-267.996131,3866.801322,-10222.138147
682.381120,-880.558717,1837.687757,-10815.558152
682.383739,76.570323,-2392.822600,-5417.350366
682.386359,248.853550,-3503.092286,-10317.851051
682.388978,95.712904,-1473.978722,-11274.980091
682.391598,-899.701298,-1091.127106,-8709.874264
682.394217,-248.853550,-4192.225195,-11160.124606
682.396837,976.271621,-4460.221326,-6910.471669
682.399456,-459.421939,2239.681954,-11600.403965
682.402075,-172.283227,3560.520029,-11715.259450
682.404695,-287.138712,229.710970,-6106.483275
682.407314,708.275490,-1205.982590,-9762.716208
682.409934,248.853550,-287.138712,-10375.278794
682.412553,-1225.125171,-325.423874,-10758.130410
682.415173,57.427742,-3579.662610,-9035.298138
682.417792,727.418070,-5379.065205,-6891.329088
682.420411,-382.851616,-650.847747,-13246.665914
682.423005,-191.425808,2201.396792,-10413.563955
682.425599,-1320.838075,2277.967115,-8882.157491
682.428193,421.136778,-784.845813,-9705.288466
682.430787,937.986459,-1416.550979,-7331.608446
682.433381,-708.275490,1397.408398,-12327.822035
682.435974,-574.277424,-133.998066,-10585.847182
682.438568,-76.570323,-4804.787781,-5934.200048
682.441162,1301.695494,-4651.647134,-10911.271056
682.443756,76.570323,-363.709035,-11600.403965
682.446350,-1722.832272,1627.119368,-8939.585234
682.448944,-153.140646,-440.279358,-9226.723946
682.451537,937.986459,-497.707101,-7484.749093
682.454131,-899.701298,2411.965181,-11925.827838
682.456725,-1148.554848,19.142581,-9743.573627
682.459319,516.849682,-5455.635528,-6144.768437
682.461913,-19.142581,-4938.785846,-11772.687192
682.464507,-191.425808,-1569.691626,-8461.020714
682.467100,1531.406464,2316.252277,-9801.001370
682.469694,-708.275490,2411.965181,-9418.149754
682.472288,-497.707101,-1110.269686,-7542.176835
682.474882,1588.834206,-1627.119368,-10643.274925
682.477476,-1282.552914,995.414202,-10164.710405
682.480070,-727.418070,-2488.535504,-10681.560086
682.482664,784.845813,-4881.358104,-8059.026517
682.485257,267.996131,-2354.537438,-7523.034254
682.487851,-612.562586,669.990328,-14548.361408
682.490445,-823.130974,861.416136,-9628.718142
682.493039,746.560651,-1435.693560,-4211.367776
682.495633,344.566454,918.843878,-12672.388490
682.498227,-861.416136,2507.678085,-11753.544611
682.500820,-497.707101,-650.847747,-10260.423309
682.503414,-803.988394,-3101.098090,-11447.263318
682.506008,995.414202,-5474.778109,-5379.065205
682.508602,-382.851616,-191.425808,-10911.271056
682.511196,-612.562586,1952.543242,-14146.367211
682.513790,401.994197,-1244.267752,-5608.776174
682.516383,-133.998066,-899.701298,-9073.583299
682.518977,957.129040,-133.998066,-10987.841379
682.521571,-765.703232,880.558717,-10068.997501
682.524165,-248.853550,-1990.828403,-8690.731683
682.526738,344.566454,-4268.795518,-8997.012976
682.529311,-516.849682,-76.570323,-10145.567824
682.531885,-95.712904,784.845813,-11638.689126
682.534458,-363.709035,-1684.547110,-8422.735552
682.537031,-267.996131,-1416.550979,-7465.606512
682.539605,1186.840010,-2986.242605,-7810.172966
682.542178,-650.847747,784.845813,-13036.097525
682.544751,-765.703232,995.414202,-9820.143950
682.547324,287.138712,-3043.670347,-6049.055533
682.549898,344.566454,-2373.680019,-11447.263318
682.552471,-459.421939,535.992262,-10566.704602
682.555044,-306.281293,-267.996131,-9150.153622
682.557617,-95.712904,-2354.537438,-10011.569758
682.560191,344.566454,-2411.965181,-7465.606512
682.562764,-267.996131,1320.838075,-11734.402030
682.565337,-612.562586,1148.554848,-11045.269122
682.567911,76.570323,-2833.101958,-6355.336826
682.570484,765.703232,-2105.683888,-9801.001370
682.573057,1416.550979,248.853550,-12959.527202
682.575630,-2679.961312,3215.953574,-10604.989763
682.578204,133.998066,-899.701298,-9724.431046
682.580777,1320.838075,-5398.207786,-6336.194245
682.583350,-995.414202,-1071.984525,-9820.143950
682.585923,57.427742,727.418070,-13954.941403
682.588497,-1129.412267,-574.277424,-7599.604578
682.591070,784.845813,-2641.676150,-8269.594906
682.593643,899.701298,-976.271621,-10585.847182
682.596217,-1818.545176,2699.103893,-11083.554283
682.598790,535.992262,-1110.269686,-8901.300072
682.601363,631.705166,-4766.502619,-7197.610381
682.603936,1301.695494,-2335.394858,-10911.271056
682.606510,-1665.404530,2565.105827,-11523.833642
682.609065,-2029.113565,1244.267752,-9016.155557
682.611620,1761.117434,-2756.531635,-8039.883936
682.614175,-1263.410333,-708.275490,-8269.594906
682.616730,363.709035,248.853550,-11370.692995
682.619285,401.994197,-669.990328,-8786.444587
682.621840,-1033.699363,-5225.924558,-9743.573627
682.624395,899.701298,-6278.766502,-9150.153622
682.626950,459.421939,-1244.267752,-9265.009107
682.629505,-1454.836141,2813.959378,-12500.105262
682.632060,-382.851616,1722.832272,-8365.307810
682.634615,1110.269686,133.998066,-5417.350366
682.637170,19.142581,1646.261949,-13686.945272
682.639725,-995.414202,1186.840010,-11102.696864
682.642280,-95.712904,-3962.514226,-5072.783912
682.644835,593.420005,-5723.631659,-11906.685258
682.647390,-248.853550,-2163.111630,-10260.423309
682.649945,-535.992262,-497.707101,-9054.440718
682.652500,-1225.125171,2124.826469,-12385.249778
682.655055,1397.408398,-689.132909,-5130.211654
682.657610,-593.420005,1665.404530,-10049.854920
682.660165,172.283227,1454.836141,-11849.257515
682.662720,-631.705166,-1225.125171,-8346.165229
682.665275,-267.996131,-4268.795518,-8039.883936
682.667830,555.134843,-5608.776174,-9877.571693
682.670385,-555.134843,-267.996131,-11676.974288
682.672940,-153.140646,861.416136,-9552.147819
682.675495,-421.136778,-1110.269686,-7618.747158
682.678050,708.275490,344.566454,-10700.702667
682.680605,95.712904,2660.818731,-9915.856854
682.683160,-1397.408398,1263.410333,-10260.423309
682.685715,823.130974,-3522.234867,-8193.024582
682.688270,440.279358,-4383.651003,-7369.893608
682.690825,19.142581,-3254.238736,-13418.949141
682.693380,-689.132909,1493.121302,-10356.136213
682.695935,-708.275490,574.277424,-6221.338760
682.698490,1244.267752,-2124.826469,-11696.116869
682.701045,-95.712904,-497.707101,-8001.598774
682.703600,-229.710970,765.703232,-11351.550414
682.706155,-689.132909,-344.566454,-10547.562021
682.708710,459.421939,-3694.518094,-5551.348432
682.711252,440.279358,-1416.550979,-11734.402030
682.713795,-861.416136,995.414202,-12002.398162
682.716337,-363.709035,-1205.982590,-6738.188442
682.718880,363.709035,-2641.676150,-9954.142016
682.721422,306.281293,-861.416136,-10298.708470
682.723965,-516.849682,1741.974853,-10107.282662
682.726507,-650.847747,-114.855485,-11542.976222
682.729050,19.142581,-2679.961312,-6527.620053
682.731592,574.277424,-3139.383251,-10107.282662
682.734135,957.129040,-497.707101,-11313.265253
682.736677,-1435.693560,1799.402595,-9533.005238
682.739220,-708.275490,-1071.984525,-9054.440718
682.741762,1761.117434,-4594.219392,-8231.309744
682.744305,-1397.408398,861.416136,-10968.698798
682.746847,-306.281293,689.132909,-11198.409768
682.749390,-133.998066,-2718.246474,-7159.325219
682.751932,248.853550,-2220.539373,-9839.286531
682.754475,612.562586,-76.570323,-10470.991698
682.757017,-1359.123237,1301.695494,-10624.132344
682.759559,287.138712,-1493.121302,-8977.870395
682.762102,133.998066,-2565.105827,-7886.743290
682.764644,1225.125171,-2545.963246,-11294.122672
682.767187,-497.707101,57.427742,-9858.429112
682.769729,-765.703232,-133.998066,-10796.415571
682.772272,421.136778,-1875.972918,-8633.303941
682.774814,1167.697429,-2277.967115,-6508.477472
682.777357,-1110.269686,1339.980656,-15046.068509
682.779899,-459.421939,555.134843,-7982.456194
682.782442,401.994197,-3809.373579,-6278.766502
682.784984,76.570323,-2545.963246,-13208.380752
682.787527,19.142581,727.418070,-9303.294269
682.790069,-765.703232,784.845813,-7944.171032
682.792612,-38.285162,-1512.263883,-11542.976222
682.795154,861.416136,-2182.254211,-6106.483275
682.797697,-535.992262,631.705166,-12251.251712
682.800239,-880.558717,0.000000,-11447.263318
682.802782,-669.990328,-957.129040,-6240.481341
682.805324,1339.980656,-2909.672282,-11351.550414
682.807866,-708.275490,-440.279358,-8441.878133
682.810409,-248.853550,976.271621,-10604.989763
682.812946,-631.705166,-631.705166,-11217.552349
682.815483,172.283227,-3369.094221,-4862.215523
682.818020,57.427742,-1186.840010,-12825.529136
682.820557,-95.712904,976.271621,-11734.402030
682.823095,-1052.841944,-765.703232,-6355.336826
682.825632,880.558717,-3215.953574,-10336.993632
682.828169,-95.712904,-689.132909,-9590.432981
682.830706,-267.996131,1454.836141,-10432.706536
682.833243,-516.849682,-19.142581,-10394.421374
682.835780,114.855485,-3503.092286,-6163.911018
682.838317,478.564520,-1952.543242,-11964.113000
682.840854,267.996131,-650.847747,-10566.704602
682.843391,-497.707101,1454.836141,-10222.138147
682.845929,-210.568389,229.710970,-9188.438784
682.848466,516.849682,-2852.244539,-6987.041992
682.851003,478.564520,-1263.410333,-11983.255581
682.853540,-153.140646,-19.142581,-10222.138147
682.856077,-1895.115499,-287.138712,-8671.589102
682.858614,497.707101,-1493.121302,-10068.997501
682.861151,1129.412267,-516.849682,-7886.743290
682.863688,-1435.693560,861.416136,-12806.386555
682.866226,-76.570323,-2258.824534,-8863.014910
682.868763,708.275490,-4134.797453,-4957.928427
682.871300,-210.568389,-172.283227,-15620.345933
682.873837,-516.849682,2009.970984,-8824.729749
682.876374,-306.281293,-1588.834206,-9456.434915
682.878911,-57.427742,-2048.256146,-10987.841379
682.881448,574.277424,-2124.826469,-5761.916821
682.883985,-191.425808,306.281293,-13131.810429
682.886522,-880.558717,574.277424,-11313.265253
682.889060,-172.283227,-3139.383251,-4728.217458
682.891597,995.414202,-2986.242605,-11944.970419
682.894134,-669.990328,669.990328,-11925.827838
682.896671,-191.425808,-593.420005,-7216.752962
682.899208,-287.138712,-1397.408398,-10394.421374
682.901745,918.843878,-1990.828403,-8422.735552
682.904282,-325.423874,1378.265818,-11179.267187
682.906819,-957.129040,784.845813,-10987.841379
682.909357,-57.427742,-3503.092286,-5417.350366
682.911894,363.709035,-2239.681954,-11715.259450
682.914424,-153.140646,-1569.691626,-9284.151688
682.916955,-210.568389,976.271621,-10987.841379
682.919486,344.566454,-803.988394,-10126.425243
682.922017,-842.273555,-2067.398726,-6317.051664
682.924548,1359.123237,-1091.127106,-11868.400096
682.927079,-918.843878,1703.689691,-10030.712339
682.929609,-191.425808,-1875.972918,-8365.307810
682.932140,995.414202,-4326.223261,-9552.147819
682.934671,-746.560651,-516.849682,-8824.729749
682.937202,-1588.834206,3426.521963,-13533.804626
682.939733,861.416136,267.996131,-7025.327154
682.942263,-95.712904,-3330.809059,-7465.606512
682.944794,-19.142581,-1971.685822,-12576.675586
682.947325,191.425808,-267.996131,-10011.569758
682.949856,-957.129040,-1684.547110,-7695.317482
682.952387,-191.425808,-2947.957443,-9609.575562
682.954918,210.568389,-2105.683888,-5168.496816
682.957448,612.562586,459.421939,-13170.095590
682.959979,-1052.841944,2105.683888,-11389.835576
682.962510,-0.000000,-1856.830338,-5302.494882
682.965041,133.998066,-3005.385186,-11791.829773
682.967572,153.140646,-1129.412267,-9743.573627
682.970103,-229.710970,114.855485,-9379.864592
682.972633,-689.132909,-1569.691626,-11006.983960
682.975164,267.996131,-3043.670347,-6297.909083
682.977695,459.421939,459.421939,-11428.120738
682.980226,-937.986459,2105.683888,-11983.255581
682.982757,-153.140646,-1129.412267,-6661.618118
682.985287,210.568389,-2431.107762,-10030.712339
682.987818,-191.425808,-842.273555,-9858.429112
682.990349,-306.281293,-727.418070,-12078.968485
682.992880,-842.273555,287.138712,-10183.852986
682.995411,440.279358,-2890.529701,-8269.594906
682.997942,382.851616,-1225.125171,-11294.122672
683.000472,133.998066,2201.396792,-8575.876198
683.003003,210.568389,574.277424,-10241.280728
683.005534,-1205.982590,-1244.267752,-10413.563955
683.008065,1397.408398,-4019.941968,-5972.485210
683.010596,267.996131,-1167.697429,-11791.829773
683.013126,-1550.549045,478.564520,-12710.673651
683.015655,-880.558717,-1741.974853,-6489.334891
683.018183,937.986459,-823.130974,-8422.735552
683.020712,516.849682,1091.127106,-12480.962682
683.023240,-1301.695494,1129.412267,-10068.997501
683.025768,593.420005,-3158.525832,-7771.887805
683.028296,-497.707101,-4441.078746,-6623.332957
683.030825,497.707101,-2584.248408,-11562.118803
683.033353,-57.427742,708.275490,-10547.562021
683.035881,-1129.412267,-440.279358,-8729.016845
683.038409,172.283227,-2009.970984,-10260.423309
683.040937,612.562586,-248.853550,-6891.329088
683.043466,-248.853550,2009.970984,-12940.384621
683.045994,-535.992262,306.281293,-10030.712339
683.048522,-248.853550,-3215.953574,-5091.926493
683.051050,842.273555,-2699.103893,-12002.398162
683.053579,-727.418070,172.283227,-12078.968485
683.056107,-459.421939,-1646.261949,-7063.612315
683.058635,497.707101,-2718.246474,-9705.288466
683.061163,-229.710970,-574.277424,-9552.147819
683.063692,76.570323,1531.406464,-11447.263318
683.066220,-459.421939,1895.115499,-10796.415571
683.068748,-535.992262,-1071.984525,-7829.315547
683.071276,421.136778,-2450.250342,-9054.440718
683.073804,-497.707101,-823.130974,-9743.573627
683.076333,497.707101,-880.558717,-11562.118803
683.078861,-669.990328,-1473.978722,-9111.868461
683.081389,-76.570323,-3215.953574,-5800.201982
683.083917,899.701298,-612.562586,-13591.232368
683.086446,-1320.838075,1971.685822,-10145.567824
683.088974,440.279358,-1952.543242,-6317.051664
683.091502,612.562586,-2297.109696,-10758.130410
683.094030,-1110.269686,1914.258080,-10930.413637
683.096559,19.142581,1665.404530,-9303.294269
683.099087,76.570323,-1703.689691,-9418.149754
683.101615,-593.420005,-4728.217458,-6872.186507
683.104143,669.990328,-4211.367776,-9667.003304
683.106671,-38.285162,-689.132909,-10968.698798
683.109200,-727.418070,842.273555,-11408.978157
683.111728,-229.710970,344.566454,-7408.178770
683.114256,497.707101,-669.990328,-7561.319416
683.116782,-38.285162,1435.693560,-13763.515595
683.119307,-727.418070,1071.984525,-9360.722011
683.121833,95.712904,-4019.941968,-6642.475538
683.124358,-172.283227,-3407.379382,-11351.550414
683.126884,191.425808,-650.847747,-10375.278794
683.129409,-574.277424,-535.992262,-9399.007173
683.131934,-267.996131,-1971.685822,-10183.852986
683.134460,421.136778,-1665.404530,-7331.608446
683.136985,38.285162,2201.396792,-11542.976222
683.139511,57.427742,1741.974853,-11715.259450
683.142036,-823.130974,38.285162,-7925.028451
683.144562,-19.142581,-3081.955509,-9016.155557
683.147087,555.134843,-3541.377448,-9360.722011
683.149613,-612.562586,172.283227,-11485.548480
683.152138,-210.568389,-612.562586,-10049.854920
683.154664,-497.707101,-2833.101958,-6757.331022
683.157189,995.414202,-1301.695494,-10624.132344
683.159715,-765.703232,1818.545176,-10968.698798
683.162240,133.998066,516.849682,-10107.282662
683.164766,-133.998066,-1531.406464,-8422.735552
683.167291,306.281293,-1378.265818,-7121.040058
683.169816,1091.127106,-1378.265818,-13016.954944
683.172342,-2029.113565,382.851616,-11083.554283
683.174867,-191.425808,-2584.248408,-5627.918755
683.177393,-19.142581,-1588.834206,-10145.567824
683.179918,325.423874,-765.703232,-9016.155557
683.182444,-0.000000,229.710970,-10892.128475
683.184969,-267.996131,-1895.115499,-10528.419440
683.187495,-57.427742,-4307.080680,-6393.621987
683.190020,210.568389,-593.420005,-10547.562021
683.192546,-0.000000,1339.980656,-12863.814298
683.195071,-727.418070,-784.845813,-6680.760699
683.197597,382.851616,-1493.121302,-9571.290400
683.200122,306.281293,133.998066,-9379.864592
683.202648,-612.562586,1148.554848,-11562.118803
683.205173,-76.570323,-1780.260014,-9399.007173
683.207699,133.998066,-3847.658741,-5838.487144
683.210224,-229.710970,-976.271621,-12193.823970
683.212749,-76.570323,344.566454,-12193.823970
683.215275,-363.709035,976.271621,-9360.722011
683.217800,-210.568389,-1091.127106,-9915.856854
683.220325,248.853550,-2009.970984,-7216.752962
683.222851,1627.119368,401.994197,-12480.962682
683.225376,-689.132909,2833.101958,-11026.126541
683.227901,-1875.972918,-880.558717,-5130.211654
683.230426,2067.398726,-5972.485210,-11045.269122
683.232951,-1167.697429,-1799.402595,-9111.868461
683.235476,-459.421939,-2794.816797,-9571.290400
683.238002,-229.710970,-3062.812928,-12595.818166
683.240527,363.709035,-1014.556782,-5359.922624
683.243052,-95.712904,3924.229064,-12634.103328
683.245577,-133.998066,3158.525832,-10758.130410
683.248102,38.285162,-1627.119368,-5111.069074
683.250628,1052.841944,-3349.951640,-11868.400096
683.253153,-957.129040,-1761.117434,-8671.589102
683.255678,-229.710970,555.134843,-10490.134278
683.258203,497.707101,-1052.841944,-10643.274925
683.260728,-957.129040,-4000.799387,-7121.040058
683.263253,746.560651,-3005.385186,-10604.989763
683.265779,-344.566454,1033.699363,-10566.704602
683.268304,-344.566454,880.558717,-10202.995566
683.270829,95.712904,-574.277424,-7848.458128
683.273354,133.998066,-593.420005,-8518.448456
683.275879,-287.138712,1033.699363,-12519.247843
683.278405,-114.855485,-401.994197,-9647.860723
683.280930,-95.712904,-4115.654872,-6604.190376
683.283455,95.712904,-2871.387120,-11772.687192
683.285980,-95.712904,-133.998066,-10394.421374
683.288505,-325.423874,-995.414202,-12385.249778
683.291030,-210.568389,19.142581,-9992.427178
683.293556,-38.285162,-1378.265818,-5321.637462
683.296081,267.996131,918.843878,-12672.388490
683.298606,-535.992262,1531.406464,-10700.702667
683.301131,-210.568389,-2277.967115,-7159.325219
683.303656,248.853550,-4249.652938,-11370.692995
683.306182,-382.851616,-1684.547110,-8595.018779
683.308707,1282.552914,0.000000,-10987.841379
683.311232,-976.271621,1263.410333,-10470.991698
683.313757,-784.845813,-1110.269686,-5647.061336
683.316282,1761.117434,-1627.119368,-11734.402030
683.318807,-1914.258080,2124.826469,-10547.562021
683.321331,421.136778,-2258.824534,-8920.442653
683.323855,-114.855485,-3101.098090,-10011.569758
683.326379,153.140646,-842.273555,-5953.342629
683.328903,-287.138712,95.712904,-14261.222696
683.331427,-593.420005,1703.689691,-10681.560086
683.333951,861.416136,-1933.400661,-5130.211654
683.336476,-803.988394,-1186.840010,-12576.675586
683.339000,746.560651,-650.847747,-8154.739421
683.341524,-555.134843,57.427742,-10547.562021
683.344048,-114.855485,-2718.246474,-11255.837510
683.346572,497.707101,-3464.807125,-4766.502619
683.349096,-478.564520,880.558717,-13438.091722
683.351621,19.142581,1320.838075,-11925.827838
683.354145,-440.279358,-1339.980656,-4747.360038
683.356669,344.566454,-2067.398726,-11753.544611
683.359193,-287.138712,459.421939,-10432.706536
683.361717,-133.998066,153.140646,-9054.440718
683.364241,-440.279358,-516.849682,-11734.402030
683.366766,-95.712904,-3847.658741,-5493.920690
683.369290,555.134843,-3139.383251,-9973.284597
683.371814,-325.423874,918.843878,-11542.976222
683.374338,153.140646,1512.263883,-11504.691061
683.376862,-842.273555,1186.840010,-6853.043926
683.379386,1607.976787,-1282.552914,-8480.163294
683.381911,-1148.554848,1320.838075,-12519.247843
683.384435,-95.712904,-1052.841944,-10164.710405
683.386959,631.705166,-5627.918755,-6183.053598
683.389483,-593.420005,-3043.670347,-11504.691061
683.392007,-153.140646,-19.142581,-10030.712339
683.394531,287.138712,-1110.269686,-9513.862658
683.397055,-612.562586,-401.994197,-9245.866526
683.399580,76.570323,-210.568389,-7733.602643
683.402104,-57.427742,842.273555,-12366.107197
683.404628,-248.853550,1588.834206,-10260.423309
683.407152,114.855485,-2124.826469,-8116.454259
683.409676,-631.705166,-3369.094221,-10049.854920
683.412200,669.990328,-2852.244539,-8039.883936
683.414725,-823.130974,-38.285162,-12480.962682
683.417249,114.855485,-1052.841944,-10107.282662
683.419771,-76.570323,-1914.258080,-5264.209720
683.422294,-133.998066,803.988394,-12902.099459
683.424817,-76.570323,2584.248408,-10853.843314
683.427339,76.570323,-727.418070,-6833.901346
683.429862,-57.427742,-2526.820666,-11083.554283
683.432384,76.570323,-1875.972918,-8020.741355
683.434907,-478.564520,-937.986459,-11274.980091
683.437430,38.285162,-2794.816797,-11466.405899
683.439952,-401.994197,-2488.535504,-4957.928427
683.442475,-95.712904,-784.845813,-11332.407834
683.444997,612.562586,3751.945837,-10738.987829
683.447520,-497.707101,5532.205851,-10030.712339
683.450043,95.712904,2718.246474,-9169.296203
683.452565,401.994197,3943.371645,-8039.883936
683.455088,-306.281293,4058.227130,-11179.267187
683.457611,38.285162,-459.421939,-10681.560086
683.460133,-114.855485,-1531.406464,-8327.022648
683.462656,19.142581,-344.566454,-9131.011042
683.465178,-459.421939,1148.554848,-12327.822035
683.467701,-287.138712,-229.710970,-8288.737486
683.470224,191.425808,-555.134843,-9341.579430
683.472746,-880.558717,-344.566454,-10815.558152
683.475269,535.992262,1320.838075,-9475.577496
683.477791,210.568389,5245.067139,-9303.294269
683.480314,57.427742,9992.427178,-11562.118803
683.482837,95.712904,8403.592971,-6202.196179
683.485359,401.994197,4498.506488,-11504.691061
683.487882,-1512.263883,1454.836141,-12519.247843
683.490404,287.138712,-8135.596840,-4862.215523
683.492927,-382.851616,-11485.548480,-12136.396227
683.495450,-210.568389,-7101.897477,-10432.706536
683.497972,-38.285162,-2316.252277,-7771.887805
683.500495,-516.849682,1033.699363,-13418.949141
683.503017,401.994197,3598.805190,-5513.063270
683.505540,325.423874,6757.331022,-9877.571693
683.508063,-746.560651,6661.618118,-14548.361408
683.510585,-172.283227,-1091.127106,-4785.645200
683.513108,-114.855485,-7791.030386,-9724.431046
683.515631,-344.566454,-8537.591037,-10528.419440
683.518153,210.568389,-5340.780043,-8384.450390
683.520676,-459.421939,-1339.980656,-12672.388490
683.523199,-153.140646,306.281293,-8059.026517
683.525722,631.705166,3024.527766,-6604.190376
683.528245,-287.138712,6853.043926,-14088.939469
683.530768,-172.283227,3847.658741,-9054.440718
683.533291,-516.849682,-1167.697429,-7159.325219
683.535814,440.279358,-5513.063270,-10088.140082
683.538337,-555.134843,-4747.360038,-9609.575562
683.540860,-287.138712,-5321.637462,-11964.113000
683.543383,440.279358,-6489.334891,-7465.606512
683.545906,-631.705166,-516.849682,-9418.149754
683.548429,306.281293,5340.780043,-11657.831707
683.550952,-325.423874,6508.477472,-10336.993632
683.553475,-153.140646,3254.238736,-10356.136213
683.555998,478.564520,-2986.242605,-6470.192310
683.558521,-899.701298,-3617.947771,-9533.005238
683.561044,516.849682,-3656.232933,-12902.099459
683.563567,-689.132909,-5187.639397,-7886.743290
683.566090,-325.423874,-4996.213589,-9169.296203
683.568613,574.277424,-440.279358,-10547.562021
683.571136,-497.707101,4307.080680,-9667.003304
683.573659,153.140646,3732.803256,-11428.120738
683.576182,95.712904,880.558717,-5685.346498
683.578705,95.712904,0.000000,-8882.157491
683.581228,-153.140646,-708.275490,-14433.505923
683.583751,-784.845813,-4862.215523,-7140.182638
683.586274,535.992262,-6833.901346,-10336.993632
683.588797,-497.707101,-4039.084549,-8135.596840
683.591320,612.562586,57.427742,-9762.716208
683.593843,-287.138712,4287.938099,-13093.525267
683.596366,172.283227,1952.543242,-6910.471669
683.598889,-784.845813,229.710970,-7159.325219
683.601412,-823.130974,229.710970,-11734.402030
683.603935,1741.974853,-3292.523898,-13533.804626
683.606458,-1301.695494,-3522.234867,-4039.084549
683.608981,555.134843,-4651.647134,-11389.835576
683.611504,-689.132909,-363.709035,-11562.118803
683.614027,133.998066,2699.103893,-9226.723946
683.616550,38.285162,95.712904,-9265.009107
683.619073,-842.273555,-344.566454,-7714.460062
683.621596,1397.408398,-746.560651,-10279.565890
683.624119,-1110.269686,-574.277424,-12193.823970
683.626641,-267.996131,-344.566454,-11581.261384
683.629164,593.420005,-3809.373579,-5379.065205
683.631687,-1052.841944,-2201.396792,-10451.849117
683.634210,918.843878,401.994197,-13284.951075
683.636733,-765.703232,1741.974853,-6680.760699
683.639255,-19.142581,-1225.125171,-11485.548480
683.641778,114.855485,-976.271621,-7197.610381
683.644301,-172.283227,842.273555,-8786.444587
683.646824,-535.992262,-401.994197,-14376.078181
683.649347,-38.285162,-3866.801322,-5685.346498
683.651870,229.710970,-3866.801322,-8097.311678
683.654392,-0.000000,555.134843,-14797.214958
683.656915,-708.275490,1071.984525,-7867.600709
683.659438,229.710970,-1933.400661,-7657.032320
683.661961,-421.136778,-2029.113565,-7561.319416
683.664484,478.564520,-1359.123237,-7503.891674
683.667007,-267.996131,2048.256146,-13610.374949
683.669529,-287.138712,-574.277424,-9590.432981
683.672052,325.423874,-3311.666478,-6125.625856
683.674575,76.570323,-1761.117434,-10758.130410
683.677098,-1378.265818,-363.709035,-10604.989763
683.679621,593.420005,-2507.678085,-11906.685258
683.682143,-363.709035,-2852.244539,-5800.201982
683.684666,593.420005,-287.138712,-8958.727814
683.687189,-172.283227,3407.379382,-13935.798822
683.689712,-669.990328,1244.267752,-7312.465866
683.692235,325.423874,-1914.258080,-8307.880067
683.694758,-880.558717,287.138712,-12442.677520
683.697280,421.136778,-325.423874,-9494.720077
683.699803,-516.849682,-823.130974,-13801.800757
683.702326,-133.998066,-3196.810994,-4173.082614
683.704849,-210.568389,-3483.949706,-7963.313613
683.707372,2182.254211,-2871.387120,-15103.496251
683.709895,-535.992262,1301.695494,-9322.436850
683.712417,-1378.265818,1895.115499,-7427.321350
683.714940,1703.689691,-1837.687757,-10107.282662
683.717463,-976.271621,957.129040,-9877.571693
683.719986,-191.425808,1914.258080,-10738.987829
683.722508,899.701298,-3503.092286,-9533.005238
683.725030,-1435.693560,-4096.512291,-7982.456194
683.727551,440.279358,-2124.826469,-9839.286531
683.730073,363.709035,-516.849682,-11504.691061
683.732595,-1435.693560,306.281293,-10662.417506
683.735117,1110.269686,-1741.974853,-5417.350366
683.737639,-516.849682,-784.845813,-7676.174901
683.740161,-229.710970,1588.834206,-14203.794954
683.742683,76.570323,-382.851616,-8327.022648
683.745205,-287.138712,-3043.670347,-8327.022648
683.747727,114.855485,-3617.947771,-9820.143950
683.750248,-38.285162,-957.129040,-9762.716208
683.752770,-0.000000,344.566454,-11255.837510
683.755292,-1531.406464,-1780.260014,-8020.741355
683.757814,650.847747,-2699.103893,-9150.153622
683.760336,574.277424,1646.261949,-11313.265253
683.762858,-803.988394,2718.246474,-9207.581365
683.765380,-38.285162,-1148.554848,-9245.866526
683.767902,-19.142581,-2507.678085,-8250.452325
683.770423,650.847747,-1607.976787,-9954.142016
683.772945,-765.703232,267.996131,-13954.941403
683.775467,1014.556782,-2871.387120,-8461.020714
683.777989,-2220.539373,-1646.261949,-7580.461997
683.780511,823.130974,-1186.840010,-11255.837510
683.783033,95.712904,1990.828403,-9494.720077
683.785555,-1033.699363,2545.963246,-11006.983960
683.788077,746.560651,-2297.109696,-7427.321350
683.790598,-172.283227,-1780.260014,-7408.178770
683.793120,-76.570323,-153.140646,-14088.939469
683.795642,-172.283227,-2699.103893,-9533.005238
683.798164,-440.279358,-4019.941968,-7159.325219
683.800686,612.562586,-1895.115499,-9265.009107
683.803208,-478.564520,1780.260014,-12174.681389
683.805730,-516.849682,1531.406464,-10260.423309
683.808252,401.994197,-1684.547110,-6297.909083
683.810774,-172.283227,-2335.394858,-8193.024582
683.813295,267.996131,-842.273555,-10490.134278
683.815817,-38.285162,-516.849682,-10700.702667
683.818339,-803.988394,-2009.970984,-10375.278794
683.820861,344.566454,-4096.512291,-7637.889739
683.823384,57.427742,-1225.125171,-9552.147819
683.825907,-459.421939,2526.820666,-13016.954944
683.828431,76.570323,57.427742,-8403.592971
683.830954,153.140646,-1588.834206,-6163.911018
683.833477,459.421939,-114.855485,-11868.400096
683.836000,-612.562586,440.279358,-10260.423309
683.838523,-1148.554848,-1895.115499,-9667.003304
683.841047,3330.809059,-7465.606512,-5895.914886
683.843570,-1990.828403,-2201.396792,-10413.563955
683.846093,1167.697429,1454.836141,-13629.517530
683.848616,229.710970,3177.668413,-7159.325219
683.851139,-1225.125171,1301.695494,-11696.116869
683.853663,363.709035,-114.855485,-8614.161360
683.856186,555.134843,1320.838075,-6527.620053
683.858709,-2316.252277,842.273555,-14758.929797
683.861232,937.986459,-5915.057467,-7255.038123
683.863755,-248.853550,-4613.361973,-5130.211654
683.866279,229.710970,-1167.697429,-16539.189811
683.868802,-880.558717,478.564520,-8403.592971
683.871325,38.285162,-612.562586,-6144.768437
683.873848,382.851616,-325.423874,-12078.968485
683.876371,-306.281293,2143.969050,-9743.573627
683.878895,-57.427742,1952.543242,-9533.005238
683.881418,-459.421939,-2756.531635,-8690.731683
683.883941,76.570323,-4670.789715,-7312.465866
683.886464,880.558717,-3828.516160,-8824.729749
683.888987,-669.990328,-842.273555,-12729.816232
683.891511,-76.570323,57.427742,-10164.710405
683.894034,-114.855485,-1225.125171,-5149.354235
683.896557,382.851616,-287.138712,-12059.825904
683.899080,-306.281293,3196.810994,-11753.544611
683.901603,-76.570323,76.570323,-6412.764568
683.904127,-306.281293,-3062.812928,-10547.562021
683.906650,421.136778,-2545.963246,-9609.575562
683.909173,95.712904,-421.136778,-9265.009107
683.911696,-555.134843,-1148.554848,-12614.960747
683.914219,-765.703232,-2967.100024,-6029.912952
683.916743,631.705166,-2775.674216,-8365.307810
683.919266,-76.570323,1033.699363,-17247.465301
683.921789,-287.138712,2718.246474,-5417.350366
683.924313,-191.425808,803.988394,-11332.407834
683.926837,-248.853550,-1359.123237,-9111.868461
683.929361,842.273555,-842.273555,-7235.895542
683.931885,-746.560651,957.129040,-14242.080115
683.934409,95.712904,-4000.799387,-8269.594906
683.936933,-669.990328,-4077.369710,-6259.623922
683.939457,1014.556782,-1895.115499,-12787.243974
683.941981,-1148.554848,1263.410333,-10624.132344
683.944505,-191.425808,669.990328,-7733.602643
683.947029,669.990328,-1205.982590,-8327.022648
683.949553,1167.697429,-803.988394,-9686.145885
683.952077,-957.129040,957.129040,-11619.546546
683.954601,-899.701298,-2182.254211,-9131.011042
683.957125,1033.699363,-4689.932296,-8920.442653
683.959649,-0.000000,-2469.392923,-8384.450390
683.962173,95.712904,440.279358,-11121.839445
683.964697,-1071.984525,2411.965181,-11160.124606
683.967221,133.998066,-1473.978722,-6297.909083
683.969745,-0.000000,-2373.680019,-9686.145885
683.972269,689.132909,363.709035,-12059.825904
683.974792,-1014.556782,114.855485,-7982.456194
683.977316,-267.996131,-3005.385186,-10298.708470
683.979840,650.847747,-3196.810994,-7982.456194
683.982364,153.140646,-382.851616,-10451.849117
683.984888,-669.990328,1397.408398,-13170.095590
683.987412,-76.570323,-1320.838075,-4938.785846
683.989936,708.275490,-1761.117434,-9667.003304
683.992460,-765.703232,1473.978722,-13055.240106
683.994984,-459.421939,-612.562586,-9188.438784
683.997508,-957.129040,-823.130974,-13189.238171
684.000032,401.994197,-3101.098090,-4900.500685
684.002556,267.996131,-1205.982590,-9494.720077
684.005080,-95.712904,1895.115499,-14682.359474
684.007604,-823.130974,976.271621,-6106.483275
684.010128,76.570323,-2373.680019,-8595.018779
684.012652,803.988394,-2431.107762,-11657.831707
684.015176,-727.418070,229.710970,-8882.157491
684.017700,-842.273555,-229.710970,-10968.698798
684.020224,631.705166,-3885.943902,-8154.739421
684.022748,76.570323,-1512.263883,-8269.594906
684.025272,287.138712,1933.400661,-13476.376883
684.027796,-1473.978722,1378.265818,-8461.020714
684.030320,631.705166,-2737.389054,-7216.752962
684.032844,210.568389,-1933.400661,-7886.743290
684.035368,669.990328,-2335.394858,-10375.278794
684.037892,-19.142581,363.709035,-11772.687192
684.040416,-1473.978722,-861.416136,-8059.026517
684.042940,1091.127106,-3541.377448,-8882.157491
684.045465,-19.142581,-38.285162,-10892.128475
684.047990,-535.992262,1780.260014,-10317.851051
684.050515,-957.129040,784.845813,-9590.432981
684.053040,842.273555,-2699.103893,-6680.760699
684.055565,382.851616,-1627.119368,-11351.550414
684.058090,-708.275490,478.564520,-12327.822035
684.060615,-306.281293,-2852.244539,-6278.766502
684.063140,-95.712904,-3656.232933,-9513.862658
684.065665,708.275490,95.712904,-11657.831707
684.068189,-1110.269686,2967.100024,-9265.009107
684.070714,-114.855485,1244.267752,-12614.960747
684.073239,-210.568389,-2316.252277,-6106.483275
684.075764,478.564520,-3081.955509,-7752.745224
684.078289,248.853550,612.562586,-14758.929797
684.080814,-1263.410333,1378.265818,-6757.331022
684.083339,-133.998066,-2373.680019,-9456.434915
684.085864,612.562586,-2890.529701,-9954.142016
684.088389,210.568389,-765.703232,-9111.868461
684.090914,-880.558717,1205.982590,-13476.376883
684.093439,-229.710970,-2009.970984,-6068.198114
684.095963,784.845813,-3024.527766,-8001.598774
684.098488,153.140646,861.416136,-14031.511726
684.101013,-1148.554848,1129.412267,-8135.596840
684.103538,57.427742,-1971.685822,-8288.737486
684.106063,478.564520,-2105.683888,-9437.292334
684.108588,1225.125171,-2565.105827,-9303.294269
684.111113,-172.283227,172.283227,-12787.243974
684.113638,-1531.406464,-114.855485,-7982.456194
684.116163,267.996131,-3254.238736,-9437.292334
684.118688,459.421939,-1646.261949,-8748.159426
684.121213,267.996131,689.132909,-11600.403965
684.123737,-1569.691626,1454.836141,-10834.700733
684.126201,478.564520,-2775.674216,-5666.203917
684.128665,574.277424,-2373.680019,-10719.845248
684.131128,-153.140646,1837.687757,-13227.523333
684.133592,-1033.699363,-114.855485,-6853.043926
684.136055,133.998066,-3503.092286,-9188.438784
684.138519,689.132909,-2258.824534,-10566.704602
684.140982,-267.996131,382.851616,-9360.722011
684.143446,-937.986459,612.562586,-12366.107197
684.145909,-708.275490,95.712904,-5819.344563
684.148373,689.132909,-3235.096155,-8882.157491
684.150836,593.420005,-784.845813,-12595.818166
684.153300,-344.566454,1301.695494,-7886.743290
684.155763,-1550.549045,-153.140646,-11217.552349
684.158227,95.712904,-5130.211654,-7350.751027
684.160690,1282.552914,-3771.088418,-10260.423309
684.163154,-1320.838075,1033.699363,-12385.249778
684.165617,-267.996131,-995.414202,-7714.460062
684.168081,210.568389,-2009.970984,-7542.176835
684.170544,765.703232,2105.683888,-12155.538808
684.173008,-995.414202,4039.084549,-10145.567824
684.175471,-765.703232,-306.281293,-7963.313613
684.177935,957.129040,-4613.361973,-8690.731683
684.180398,57.427742,-2545.963246,-9762.716208
684.182862,-325.423874,-497.707101,-12710.673651
684.185325,-861.416136,363.709035,-8997.012976
684.187789,-401.994197,-1435.693560,-7523.034254
684.190252,1071.984525,-1148.554848,-9399.007173
684.192716,-421.136778,2316.252277,-11236.694930
684.195179,-555.134843,1914.258080,-11045.269122
684.197643,267.996131,-3522.234867,-6393.621987
684.200107,-76.570323,-3139.383251,-9035.298138
684.202570,708.275490,-1014.556782,-13189.238171
684.205034,-1550.549045,-382.851616,-8231.309744
684.207497,153.140646,-2622.533570,-8997.012976
684.209961,535.992262,-1569.691626,-8843.872330
684.212424,-133.998066,1473.978722,-10853.843314
684.214888,-669.990328,1646.261949,-11887.542677
684.217351,-1052.841944,210.568389,-7006.184573
684.219815,555.134843,-3905.086483,-9054.440718
684.222278,421.136778,-1799.402595,-10241.280728
684.224758,-401.994197,689.132909,-9973.284597
684.227239,-593.420005,-248.853550,-11696.116869
684.229719,325.423874,-2833.101958,-5742.774240
684.232199,708.275490,-1856.830338,-10030.712339
684.234679,-1071.984525,1569.691626,-13112.667848
684.237159,-708.275490,-1033.699363,-8958.727814
684.239640,-57.427742,-3483.949706,-5666.203917
684.242120,976.271621,-2277.967115,-13514.662045
684.244600,287.138712,1186.840010,-9533.005238
684.247080,-1550.549045,3101.098090,-9131.011042
684.249561,1301.695494,-1703.689691,-7312.465866
684.252041,95.712904,-593.420005,-9934.999435
684.254521,803.988394,-2105.683888,-12346.964616
684.257001,-918.843878,-1569.691626,-10279.565890
684.259481,-1129.412267,-2220.539373,-9092.725880
684.261962,516.849682,-3905.086483,-7867.600709
684.264442,650.847747,-1397.408398,-10279.565890
684.266922,-995.414202,3388.236802,-11810.972354
684.269402,-382.851616,1071.984525,-7312.465866
684.271883,689.132909,-2622.533570,-8805.587168
684.274363,880.558717,-1091.127106,-10643.274925
684.276843,-1148.554848,267.996131,-9896.714274
684.279323,-382.851616,-2871.387120,-10528.419440
684.281803,57.427742,-4632.504554,-7274.180704
684.284284,727.418070,-2009.970984,-9609.575562
684.286764,-765.703232,3292.523898,-13993.226565
684.289244,-784.845813,1148.554848,-6508.477472
684.291724,-191.425808,-899.701298,-8690.731683
684.294205,459.421939,-3349.951640,-8882.157491
684.296685,114.855485,-899.701298,-10049.854920
684.299165,-650.847747,842.273555,-12366.107197
684.301645,-459.421939,-2775.674216,-6604.190376
684.304125,899.701298,-3560.520029,-7925.028451
684.306606,210.568389,937.986459,-13055.240106
684.309086,-1071.984525,1952.543242,-9284.151688
684.311566,-669.990328,-1837.687757,-8365.307810
684.314046,363.709035,-4345.365842,-9896.714274
684.316527,229.710970,-1607.976787,-9226.723946
684.319007,-593.420005,1282.552914,-12882.956878
684.321487,-344.566454,-727.418070,-5838.487144
684.323980,1129.412267,-1569.691626,-8461.020714
684.326473,689.132909,3292.523898,-10030.712339
684.328966,-363.709035,1225.125171,-10662.417506
684.331460,-1493.121302,-650.847747,-11964.113000
684.333953,803.988394,-5953.342629,-6068.198114
684.336446,-344.566454,-3541.377448,-9801.001370
684.338939,57.427742,650.847747,-13189.238171
684.341432,-689.132909,1263.410333,-7293.323285
684.343925,-459.421939,-555.134843,-8556.733618
684.346419,995.414202,-1071.984525,-9839.286531
684.348912,344.566454,229.710970,-10202.995566
684.351405,-1588.834206,1473.978722,-12346.964616
684.353898,459.421939,-3656.232933,-5551.348432
684.356391,555.134843,-4441.078746,-8690.731683
684.358884,-133.998066,-133.998066,-14280.365277
684.361378,-1225.125171,899.701298,-8059.026517
684.363871,-650.847747,1263.410333,-10815.558152
684.366364,555.134843,-2067.398726,-7063.612315
684.368857,574.277424,-1225.125171,-8384.450390
684.371350,-478.564520,1416.550979,-14108.082050
684.373843,-842.273555,-1167.697429,-8097.311678
684.376336,401.994197,-4000.799387,-7235.895542
684.378830,689.132909,-2009.970984,-10815.558152
684.381323,-612.562586,1186.840010,-11160.124606
684.383816,-784.845813,574.277424,-10107.282662
684.386309,727.418070,-2756.531635,-6776.473603
684.388802,-76.570323,-823.130974,-10088.140082
684.391295,19.142581,2143.969050,-12538.390424
684.393789,-689.132909,-1531.406464,-9226.723946
684.396282,-95.712904,-4594.219392,-6929.614250
684.398775,1359.123237,-2392.822600,-11121.839445
684.401268,-478.564520,2756.531635,-10432.706536
684.403761,-76.570323,3101.098090,-14184.652373
684.406254,-593.420005,-267.996131,-5819.344563
684.408747,401.994197,-3522.234867,-7446.463931
684.411241,1225.125171,-1895.115499,-14624.931731
684.413734,-2143.969050,957.129040,-7599.604578
684.416227,-325.423874,-1397.408398,-10662.417506
684.418720,1186.840010,-3541.377448,-8039.883936
684.421213,-497.707101,612.562586,-7255.038123
684.423718,-325.423874,2048.256146,-14318.650438
684.426222,-650.847747,-1933.400661,-7752.745224
684.428727,1052.841944,-4249.652938,-7369.893608
684.431231,-287.138712,38.285162,-11810.972354
684.433735,-669.990328,1014.556782,-10624.132344
684.436240,-133.998066,-1512.263883,-9035.298138
684.438744,-459.421939,-2029.113565,-6738.188442
684.441249,765.703232,-3139.383251,-8671.589102
684.443753,76.570323,1435.693560,-11964.113000
684.446258,-918.843878,1512.263883,-10451.849117
684.448762,1167.697429,-3407.379382,-7178.467800
684.451266,287.138712,-4479.363907,-7312.465866
684.453771,-1703.689691,38.285162,-13438.091722
684.456275,535.992262,1588.834206,-11887.542677
684.458780,-440.279358,-1282.552914,-6546.762634
684.461284,306.281293,-2048.256146,-9915.856854
684.463789,-248.853550,2603.390989,-10853.843314
684.466293,-1933.400661,1091.127106,-8575.876198
684.468797,765.703232,-4900.500685,-10624.132344
684.471302,478.564520,-3445.664544,-7121.040058
684.473806,-76.570323,612.562586,-10202.995566
684.476311,-535.992262,2411.965181,-14069.796888
684.478815,-1052.841944,880.558717,-5379.065205
684.481320,382.851616,-2699.103893,-10298.708470
684.483824,440.279358,-1148.554848,-10317.851051
684.486328,-229.710970,708.275490,-7963.313613
684.488833,-1110.269686,-823.130974,-13667.802691
684.491337,153.140646,-3905.086483,-5761.916821
684.493842,708.275490,-2373.680019,-8307.880067
684.496346,-535.992262,1933.400661,-15467.205286
684.498851,-765.703232,1167.697429,-5685.346498
684.501355,153.140646,-2297.109696,-8078.169098
684.503859,823.130974,-2699.103893,-12308.679454
684.506364,-248.853550,-344.566454,-8939.585234
684.508868,-1684.547110,555.134843,-10585.847182
684.511373,937.986459,-3905.086483,-8193.024582
684.513877,516.849682,-3043.670347,-7101.897477
684.516382,689.132909,-325.423874,-11906.685258
684.518886,-1129.412267,1875.972918,-10815.558152
684.521390,-593.420005,-287.138712,-8920.442653
