#time,accel_x,accel_y,accel_z
294.662408,459.657299,-0.000000,9400.615463
294.662716,689.485948,370.102971,9622.677246
294.663024,766.095498,296.082377,9696.697840
294.663332,306.438199,-0.000000,9548.656652
294.663640,995.924147,-0.000000,9474.636058
294.663948,766.095498,518.144159,9844.739029
294.664255,842.705048,222.061783,9622.677246
294.664563,842.705048,222.061783,9770.718434
294.664871,459.657299,296.082377,9474.636058
294.665179,689.485948,-0.000000,9400.615463
294.665487,612.876398,370.102971,9696.697840
294.665795,689.485948,74.020594,9474.636058
294.666103,306.438199,370.102971,9474.636058
294.666411,383.047749,-0.000000,9622.677246
294.666719,536.266849,222.061783,9474.636058
294.667027,842.705048,518.144159,9548.656652
294.667335,459.657299,222.061783,9696.697840
294.667643,612.876398,148.041188,9474.636058
294.667951,612.876398,222.061783,9622.677246
294.668259,536.266849,296.082377,9622.677246
294.668567,612.876398,-148.041188,9844.739029
294.668875,459.657299,-0.000000,9400.615463
294.669183,536.266849,148.041188,9548.656652
294.669491,766.095498,-0.000000,9474.636058
294.669799,536.266849,222.061783,9548.656652
294.670107,612.876398,296.082377,9548.656652
294.670415,459.657299,222.061783,9474.636058
294.670723,459.657299,74.020594,9474.636058
294.671031,536.266849,-0.000000,9918.759623
294.671339,689.485948,-0.000000,9696.697840
294.671647,536.266849,-148.041188,9770.718434
294.671955,689.485948,370.102971,9770.718434
294.672263,459.657299,222.061783,9622.677246
294.672571,459.657299,-0.000000,9696.697840
294.672879,995.924147,-148.041188,9918.759623
294.673187,1149.143247,-222.061783,9992.780217
294.673495,842.705048,-444.123565,10066.800811
294.673803,842.705048,-740.205942,9844.739029
294.674111,229.828649,-444.123565,10288.862594
294.674419,995.924147,-296.082377,10140.821405
294.674727,1149.143247,-74.020594,9696.697840
294.675035,1532.190996,370.102971,8882.471304
294.675343,1991.848295,740.205942,9030.512492
294.675651,2604.724693,518.144159,9104.533087
294.675959,1991.848295,592.164754,9548.656652
294.676267,1455.581446,296.082377,9326.594869
294.676575,2145.067394,296.082377,9474.636058
294.676883,1455.581446,74.020594,9696.697840
294.677191,1608.800546,74.020594,9696.697840
294.677499,1532.190996,-0.000000,9770.718434
294.677807,1608.800546,-0.000000,9770.718434
294.678115,1915.238745,-222.061783,9992.780217
294.678423,1915.238745,-222.061783,10362.883188
294.678731,2298.286494,-74.020594,10066.800811
294.679039,2681.334243,222.061783,9770.718434
294.679346,2911.162892,370.102971,9252.574275
294.679654,2987.772442,370.102971,9474.636058
294.679962,2757.943793,444.123565,9474.636058
294.680270,2757.943793,444.123565,9548.656652
294.680578,2604.724693,370.102971,9104.533087
294.680886,2604.724693,222.061783,9622.677246
294.681194,2604.724693,-0.000000,9918.759623
294.681502,2911.162892,370.102971,9844.739029
294.681810,3140.991542,-0.000000,9548.656652
294.682118,2834.553343,296.082377,9770.718434
294.682426,3064.381992,-0.000000,9844.739029
294.682734,2987.772442,-74.020594,10066.800811
294.683042,3217.601092,-0.000000,9770.718434
294.683350,3447.429741,-222.061783,9770.718434
294.683658,3677.258390,296.082377,9474.636058
294.683966,3907.087040,148.041188,9474.636058
294.684274,3753.867940,518.144159,9474.636058
294.684582,4290.134789,592.164754,9178.553681
294.684890,4290.134789,592.164754,9252.574275
294.685198,4366.744339,296.082377,9326.594869
294.685506,4519.963438,148.041188,9474.636058
294.685814,4673.182538,-148.041188,9178.553681
294.686122,4596.572988,-0.000000,9252.574275
294.686430,4136.915689,148.041188,9548.656652
294.686738,4443.353888,-0.000000,9474.636058
294.687046,4060.306139,444.123565,9548.656652
294.687354,4443.353888,592.164754,9252.574275
294.687662,4519.963438,814.226536,9252.574275
294.687970,4903.011187,888.247130,9178.553681
294.688278,4979.620737,1258.350101,9178.553681
294.688586,4673.182538,1110.308913,8808.450710
294.688894,4213.525239,1406.391290,9178.553681
294.689202,3830.477490,962.267725,8808.450710
294.689510,4136.915689,1036.288319,9918.759623
294.689818,3294.210641,296.082377,9696.697840
294.690126,3753.867940,962.267725,9474.636058
294.690434,2911.162892,148.041188,9918.759623
294.690742,2757.943793,518.144159,9918.759623
294.691050,2451.505594,370.102971,9474.636058
294.691358,2757.943793,592.164754,10066.800811
294.691666,2681.334243,296.082377,10214.842000
294.691974,2451.505594,740.205942,9992.780217
294.692282,2145.067394,888.247130,9696.697840
294.692590,1838.629195,222.061783,9992.780217
294.692898,2145.067394,592.164754,10288.862594
294.693206,1762.019645,-296.082377,9696.697840
294.693514,1455.581446,-518.144159,10732.986159
294.693822,1225.752797,-1406.391290,10881.027347
294.694130,1378.971896,-1184.329507,10658.965565
294.694438,1378.971896,-1702.473667,10881.027347
294.694745,1991.848295,-2220.617826,10288.862594
294.695053,2757.943793,-1776.494261,10214.842000
294.695361,2911.162892,-1110.308913,10140.821405
294.695669,3447.429741,-1184.329507,9400.615463
294.695977,4060.306139,-1110.308913,9178.553681
294.696285,4366.744339,-518.144159,9326.594869
294.696593,4903.011187,-0.000000,9030.512492
294.696901,4826.401637,740.205942,8438.347739
294.697209,4979.620737,666.185348,8660.409521
294.697517,4596.572988,740.205942,8142.265362
294.697825,4596.572988,740.205942,8956.491898
294.698133,3753.867940,296.082377,8660.409521
294.698441,3600.648841,-0.000000,9474.636058
294.698749,3140.991542,-222.061783,9474.636058
294.699057,3064.381992,-0.000000,9696.697840
294.699365,2757.943793,296.082377,9548.656652
294.699673,3294.210641,962.267725,9474.636058
294.699981,3907.087040,1850.514855,8882.471304
294.700289,4596.572988,2738.761985,8512.368333
294.700597,4596.572988,2738.761985,8142.265362
294.700905,4366.744339,2738.761985,8660.409521
294.701213,3830.477490,2220.617826,8956.491898
294.701521,3140.991542,1036.288319,9992.780217
294.701829,2221.676944,-222.061783,10955.047942
294.702137,1378.971896,-1628.453072,12213.398043
294.702445,612.876398,-2738.761985,13027.624579
294.702753,76.609550,-3404.947333,13545.768739
294.703061,612.876398,-3552.988522,13619.789333
294.703369,2221.676944,-2886.803174,12361.439231
294.703677,3830.477490,-1924.535449,10214.842000
294.703985,5439.278036,-222.061783,9622.677246
294.704293,7124.688131,888.247130,8068.244768
294.704601,7201.297681,2960.823768,5773.606348
294.704909,8197.221829,3627.009116,5995.668130
294.705217,8197.221829,4293.194464,5329.482782
294.705525,7354.516781,5033.400406,4959.379811
294.705833,5975.544884,4589.276840,6069.688724
294.706141,4290.134789,3552.988522,7772.162391
294.706449,2911.162892,2072.576638,8512.368333
294.706757,1532.190996,666.185348,9696.697840
294.707065,1149.143247,-1184.329507,11843.295072
294.707373,0.000000,-2886.803174,12287.418637
294.707681,-689.485948,-3404.947333,14063.912898
294.707989,229.828649,-4071.132681,14137.933492
294.708297,1455.581446,-4663.297435,13323.706956
294.708605,1838.629195,-3182.885551,12805.562797
294.708913,3447.429741,-2294.638420,11843.295072
294.709221,4826.401637,-1554.432478,10362.883188
294.709529,5286.058936,222.061783,8216.285956
294.709836,6358.592633,1480.411884,7328.038826
294.710144,6052.154434,2146.597232,6661.853478
294.710452,5975.544884,3182.885551,6365.771101
294.710760,6052.154434,3552.988522,6069.688724
294.711068,5132.839837,3256.906145,6587.832884
294.711376,4366.744339,1924.535449,7476.080014
294.711684,3064.381992,444.123565,8216.285956
294.711992,1838.629195,-1776.494261,10658.965565
294.712300,689.485948,-3627.009116,12583.501014
294.712608,76.609550,-3552.988522,13249.686362
294.712916,842.705048,-3182.885551,13101.645173
294.713224,1455.581446,-1924.535449,11917.315666
294.713532,3600.648841,222.061783,10362.883188
294.713840,5745.716235,2664.741391,7994.224174
294.714148,7048.078582,4663.297435,5329.482782
294.714456,7507.735880,6291.750507,4145.153275
294.714764,7660.954980,6439.791695,4515.256246
294.715072,6052.154434,5773.606348,5329.482782
294.715380,4443.353888,3108.864956,7920.203579
294.715688,1685.410096,370.102971,10732.986159
294.715996,-1608.800546,-1628.453072,11695.253884
294.716304,-4136.915689,-4663.297435,14656.077652
294.716612,-4519.963438,-6217.729913,17764.942608
294.716920,-4519.963438,-6883.915261,17542.880825
294.717228,-3600.648841,-6365.771101,16802.674883
294.717536,-1072.533697,-4441.235652,13989.892304
294.717844,1991.848295,-1406.391290,9992.780217
294.718152,5209.449386,2294.638420,6809.894666
294.718460,6818.249932,4737.318029,5625.565159
294.718768,8427.050478,5847.626942,4071.132681
294.719076,8197.221829,6661.853478,2664.741391
294.719384,7431.126331,5995.668130,2886.803174
294.719692,5592.497135,2368.659014,5403.503377
294.720000,1762.019645,-518.144159,8882.471304
294.720308,-1149.143247,-3849.070898,12065.356855
294.720616,-3140.991542,-5921.647536,14137.933492
294.720924,-3600.648841,-6143.709319,14952.160028
294.721232,-2221.676944,-4737.318029,13323.706956
294.721540,536.266849,-1406.391290,11177.109724
294.721848,3524.039291,888.247130,9178.553681
294.722156,5975.544884,2738.761985,7179.997637
294.722464,7584.345430,5255.462188,5773.606348
294.722772,7201.297681,5847.626942,4959.379811
294.723080,5975.544884,5551.544565,5995.668130
294.723388,3447.429741,4293.194464,7402.059420
294.723696,1072.533697,1406.391290,10436.903782
294.724004,-1302.362347,-2590.720797,13323.706956
294.724312,-4443.353888,-4663.297435,15100.201217
294.724620,-5439.278036,-6217.729913,16358.551318
294.724927,-5745.716235,-6735.874072,15692.365970
294.725235,-3677.258390,-4959.379811,14434.015869
294.725543,153.219100,-1332.370696,11399.171507
294.725851,3064.381992,1332.370696,7254.018232
294.726159,6358.592633,2738.761985,6513.812290
294.726467,6588.421283,5995.668130,2812.782580
294.726775,7814.174080,7105.977043,2960.823768
294.727083,7354.516781,4959.379811,5551.544565
294.727391,4519.963438,4885.359217,5329.482782
294.727699,1762.019645,1850.514855,8660.409521
294.728007,0.000000,740.205942,9474.636058
294.728315,-1915.238745,-74.020594,10807.006753
294.728623,-2221.676944,-962.267725,11473.192101
294.728931,-1378.971896,-1258.350101,12139.377449
294.729239,-153.219100,-1554.432478,12287.418637
294.729547,612.876398,-1554.432478,10066.800811
294.729855,306.438199,-3034.844362,10807.006753
294.730163,306.438199,-3775.050304,11325.150913
294.730471,-383.047749,-3404.947333,11769.274478
294.730779,-1608.800546,-2072.576638,11843.295072
294.731087,-1608.800546,-1480.411884,10362.883188
294.731395,-1762.019645,444.123565,9696.697840
294.731703,-842.705048,1924.535449,8660.409521
294.732011,1455.581446,3034.844362,8660.409521
294.732318,1072.533697,2886.803174,7254.018232
294.732626,2528.115143,2442.679609,6883.915261
294.732934,2451.505594,962.267725,7328.038826
294.733242,1532.190996,-1258.350101,9252.574275
294.733550,76.609550,-3034.844362,10807.006753
294.733858,-1072.533697,-3997.112087,11769.274478
294.734166,-1225.752797,-3552.988522,11843.295072
294.734474,-612.876398,-2368.659014,10584.944971
294.734782,689.485948,444.123565,9474.636058
294.735090,2528.115143,2812.782580,7624.121203
294.735398,4519.963438,3923.091493,6217.729913
294.735706,5362.668486,4737.318029,4959.379811
294.736014,5362.668486,4441.235652,5477.523971
294.736322,3907.087040,2886.803174,7550.100608
294.736629,1685.410096,296.082377,10584.944971
294.736937,-766.095498,-2590.720797,13915.871710
294.737245,-3753.867940,-4071.132681,14878.139434
294.737553,-4673.182538,-4737.318029,14952.160028
294.737861,-4903.011187,-3775.050304,13249.686362
294.738169,-3064.381992,-1406.391290,12583.501014
294.738477,-1072.533697,1036.288319,10955.047942
294.738785,1608.800546,2368.659014,8586.388927
294.739093,3447.429741,3552.988522,6587.832884
294.739401,3830.477490,3923.091493,5773.606348
294.739709,5132.839837,3775.050304,6439.791695
294.740017,4060.306139,3108.864956,7476.080014
294.740325,2298.286494,1332.370696,9548.656652
294.740633,995.924147,-74.020594,10288.862594
294.740940,-689.485948,-296.082377,10955.047942
294.741248,-1149.143247,-222.061783,11103.089130
294.741556,0.000000,444.123565,9548.656652
294.741864,842.705048,666.185348,9918.759623
294.742172,1608.800546,-0.000000,9252.574275
294.742480,1608.800546,-518.144159,9252.574275
294.742788,1225.752797,-1702.473667,11103.089130
294.743096,-229.828649,-2664.741391,10732.986159
294.743404,-842.705048,-2442.679609,11769.274478
294.743712,-1378.971896,-2442.679609,11991.336260
294.744020,-1762.019645,-888.247130,10510.924376
294.744328,-1608.800546,740.205942,9992.780217
294.744636,153.219100,2072.576638,9696.697840
294.744943,995.924147,2146.597232,8438.347739
294.745251,1685.410096,2960.823768,7031.956449
294.745559,2374.896044,1998.556043,7476.080014
294.745867,1608.800546,-518.144159,8882.471304
294.746175,536.266849,-1776.494261,10510.924376
294.746483,0.000000,-2960.823768,11547.212695
294.746791,-612.876398,-3034.844362,11325.150913
294.747099,-459.657299,-1776.494261,10510.924376
294.747407,612.876398,296.082377,9696.697840
294.747715,1838.629195,2368.659014,8290.306550
294.748023,3677.258390,3404.947333,7698.141797
294.748331,4136.915689,4219.173869,6143.709319
294.748639,4136.915689,3775.050304,6365.771101
294.748947,3447.429741,2220.617826,7550.100608
294.749254,1455.581446,444.123565,9992.780217
294.749562,-536.266849,-1628.453072,12065.356855
294.749870,-2451.505594,-3849.070898,13101.645173
294.750178,-4443.353888,-3701.029710,13619.789333
294.750486,-4903.011187,-2812.782580,12953.603985
294.750794,-3524.039291,-814.226536,11695.253884
294.751102,-995.924147,1036.288319,10436.903782
294.751410,995.924147,2146.597232,8808.450710
294.751718,2451.505594,2442.679609,6439.791695
294.752026,2911.162892,2960.823768,6069.688724
294.752334,3677.258390,1480.411884,7772.162391
294.752642,2681.334243,-0.000000,8512.368333
294.752950,1302.362347,-296.082377,9696.697840
294.753258,306.438199,-1406.391290,10584.944971
294.753565,-842.705048,-962.267725,10066.800811
294.753873,-689.485948,-222.061783,10288.862594
294.754181,229.828649,592.164754,9918.759623
294.754489,2068.457845,1406.391290,8956.491898
294.754797,3064.381992,1110.308913,8142.265362
294.755105,2987.772442,1184.329507,6957.935855
294.755413,2374.896044,-0.000000,8290.306550
294.755721,689.485948,-1332.370696,10510.924376
294.756029,-459.657299,-2590.720797,11621.233289
294.756337,-2451.505594,-2220.617826,11843.295072
294.756645,-2528.115143,-1776.494261,11843.295072
294.756953,-2911.162892,-518.144159,10955.047942
294.757261,-1762.019645,1332.370696,9770.718434
294.757569,-689.485948,1924.535449,9696.697840
294.757876,1149.143247,2590.720797,8364.327145
294.758184,1685.410096,1628.453072,8142.265362
294.758492,1608.800546,888.247130,8142.265362
294.758800,919.314598,-888.247130,9844.739029
294.759108,0.000000,-2072.576638,11251.130318
294.759416,-1072.533697,-2738.761985,12065.356855
294.759724,-689.485948,-2072.576638,11473.192101
294.760032,-1072.533697,-222.061783,9918.759623
294.760340,612.876398,1406.391290,9474.636058
294.760648,2298.286494,2516.700203,7920.203579
294.760956,3907.087040,3404.947333,7328.038826
294.761264,3907.087040,3404.947333,6069.688724
294.761572,3524.039291,2442.679609,6587.832884
294.761879,2987.772442,592.164754,8808.450710
294.762187,1072.533697,-740.205942,9696.697840
294.762495,-995.924147,-2368.659014,12287.418637
294.762803,-2298.286494,-3034.844362,12361.439231
294.763111,-3064.381992,-2146.597232,11473.192101
294.763419,-2987.772442,-370.102971,11325.150913
294.763727,0.000000,-0.000000,11399.171507
294.764035,689.485948,814.226536,9252.574275
294.764343,1149.143247,1628.453072,7254.018232
294.764651,2604.724693,666.185348,7550.100608
294.764959,1915.238745,222.061783,8290.306550
294.765267,1685.410096,-518.144159,9918.759623
294.765575,919.314598,-1480.411884,10807.006753
294.765883,0.000000,-1554.432478,10658.965565
294.766190,-306.438199,-1776.494261,10436.903782
294.766498,536.266849,148.041188,9548.656652
294.766806,1762.019645,1332.370696,8808.450710
294.767114,3217.601092,1554.432478,8512.368333
294.767422,4060.306139,2294.638420,6809.894666
294.767730,3830.477490,2220.617826,6587.832884
294.768038,3447.429741,1110.308913,7550.100608
294.768346,2145.067394,-0.000000,9474.636058
294.768654,1072.533697,-1702.473667,11103.089130
294.768962,-1072.533697,-2220.617826,11769.274478
294.769270,-1838.629195,-1776.494261,11251.130318
294.769578,-1915.238745,-222.061783,11399.171507
294.769886,-1072.533697,962.267725,10510.924376
294.770194,536.266849,2368.659014,9918.759623
294.770501,1455.581446,2294.638420,8364.327145
294.770809,1608.800546,2220.617826,8216.285956
294.771117,2374.896044,1110.308913,7698.141797
294.771425,1455.581446,-0.000000,9400.615463
294.771733,536.266849,-1258.350101,10732.986159
294.772041,-536.266849,-2738.761985,11991.336260
294.772349,-1149.143247,-1332.370696,11843.295072
294.772657,-1072.533697,-666.185348,10881.027347
294.772965,0.000000,814.226536,9992.780217
294.773273,1762.019645,2072.576638,9178.553681
294.773581,2987.772442,2590.720797,7846.182985
294.773889,3677.258390,3182.885551,6809.894666
294.774197,4136.915689,2368.659014,7179.997637
294.774505,3294.210641,1184.329507,7994.224174
294.774812,1225.752797,-444.123565,9622.677246
294.775120,-229.828649,-1702.473667,10881.027347
294.775428,-1915.238745,-2664.741391,11695.253884
294.775736,-3064.381992,-2220.617826,11695.253884
294.776044,-2374.896044,-888.247130,11399.171507
294.776352,-1455.581446,296.082377,10436.903782
294.776660,383.047749,1406.391290,9548.656652
294.776968,1685.410096,1628.453072,7550.100608
294.777276,2221.676944,1998.556043,7179.997637
294.777584,1915.238745,444.123565,8438.347739
294.777892,1225.752797,-370.102971,9400.615463
294.778200,0.000000,-1332.370696,10955.047942
294.778508,-306.438199,-2516.700203,11695.253884
294.778815,-919.314598,-2220.617826,10881.027347
294.779123,-766.095498,-296.082377,10881.027347
294.779431,0.000000,666.185348,9770.718434
294.779739,1608.800546,2294.638420,8216.285956
294.780047,2911.162892,2294.638420,7550.100608
294.780355,3370.820191,2516.700203,6957.935855
294.780663,3600.648841,1110.308913,7328.038826
294.780971,2145.067394,-296.082377,8808.450710
294.781279,689.485948,-962.267725,10510.924376
294.781587,-536.266849,-2146.597232,11769.274478
294.781895,-2145.067394,-1776.494261,11843.295072
294.782203,-2911.162892,-814.226536,11103.089130
294.782511,-2145.067394,-0.000000,11103.089130
294.782819,-612.876398,1850.514855,10362.883188
294.783126,919.314598,2294.638420,8660.409521
294.783434,2068.457845,2220.617826,7550.100608
294.783742,2145.067394,1628.453072,7994.224174
294.784050,2374.896044,370.102971,8660.409521
294.784358,995.924147,-444.123565,9844.739029
294.784666,919.314598,-1628.453072,10881.027347
294.784974,-612.876398,-1480.411884,10732.986159
294.785282,-766.095498,-592.164754,10362.883188
294.785590,-306.438199,370.102971,10140.821405
294.785898,459.657299,1480.411884,9474.636058
294.786206,2221.676944,2368.659014,9474.636058
294.786514,2145.067394,1850.514855,7846.182985
294.786822,3217.601092,1036.288319,8364.327145
294.787130,2528.115143,-0.000000,8808.450710
294.787437,1455.581446,-1184.329507,9770.718434
294.787745,-229.828649,-2072.576638,11251.130318
294.788053,-1378.971896,-2368.659014,12065.356855
294.788361,-1838.629195,-1554.432478,11917.315666
294.788669,-3447.429741,-222.061783,11621.233289
294.788977,-1072.533697,370.102971,11325.150913
294.789285,-229.828649,1998.556043,9104.533087
294.789593,1608.800546,1924.535449,8290.306550
294.789901,2221.676944,2220.617826,7105.977043
294.790209,2374.896044,1258.350101,7698.141797
294.790517,1608.800546,370.102971,9252.574275
294.790825,1072.533697,-370.102971,10066.800811
294.791133,536.266849,-1776.494261,11991.336260
294.791441,-995.924147,-1184.329507,10584.944971
294.791748,-383.047749,-0.000000,11029.068536
294.792056,153.219100,962.267725,9992.780217
294.792364,1302.362347,1998.556043,8660.409521
294.792672,2298.286494,2590.720797,7920.203579
294.792980,3677.258390,1850.514855,7920.203579
294.793288,2757.943793,1406.391290,7994.224174
294.793596,2068.457845,-148.041188,9178.553681
294.793904,919.314598,-1702.473667,11103.089130
294.794212,-1149.143247,-2812.782580,11769.274478
294.794520,-2068.457845,-2442.679609,11843.295072
294.794828,-2221.676944,-1036.288319,11177.109724
294.795136,-1608.800546,222.061783,10881.027347
294.795444,0.000000,1998.556043,9326.594869
294.795751,1762.019645,2738.761985,7772.162391
294.796059,2451.505594,3108.864956,6661.853478
294.796367,2834.553343,1850.514855,6513.812290
294.796675,3294.210641,1036.288319,8512.368333
294.796983,919.314598,296.082377,7994.224174
294.797291,1838.629195,-1998.556043,11473.192101
294.797599,-306.438199,-2294.638420,11325.150913
294.797907,-2298.286494,-1776.494261,11029.068536
294.798215,0.000000,-1850.514855,11843.295072
294.798523,-766.095498,592.164754,9696.697840
294.798831,842.705048,740.205942,10140.821405
294.799139,2757.943793,1110.308913,7698.141797
294.799447,2834.553343,1850.514855,7328.038826
294.799755,2451.505594,-0.000000,8734.430116
294.800062,2068.457845,-444.123565,9178.553681
294.800370,306.438199,-1628.453072,11177.109724
294.800678,-536.266849,-3034.844362,12287.418637
294.800986,-1685.410096,-1702.473667,11177.109724
294.801294,-2451.505594,-74.020594,10584.944971
294.801602,0.000000,444.123565,10584.944971
294.801910,0.000000,2368.659014,7994.224174
294.802218,1838.629195,2812.782580,7550.100608
294.802526,2834.553343,2294.638420,7105.977043
294.802834,2528.115143,2072.576638,6439.791695
294.803142,2604.724693,666.185348,8660.409521
294.803450,2145.067394,-296.082377,10066.800811
294.803758,153.219100,-1110.308913,10732.986159
294.804066,-536.266849,-1924.535449,11473.192101
294.804373,-1225.752797,-518.144159,11695.253884
294.804681,-919.314598,148.041188,10881.027347
294.804989,153.219100,1184.329507,10066.800811
294.805297,1838.629195,2368.659014,9918.759623
294.805605,2221.676944,1702.473667,8216.285956
294.805913,2298.286494,1480.411884,8216.285956
294.806221,1608.800546,74.020594,9474.636058
294.806529,766.095498,-1332.370696,11251.130318
294.806837,-1149.143247,-2442.679609,11843.295072
294.807145,-2451.505594,-2442.679609,12435.459826
294.807453,-2834.553343,-1406.391290,11843.295072
294.807761,-2298.286494,148.041188,10955.047942
294.808069,0.000000,1406.391290,9844.739029
294.808377,1608.800546,2738.761985,8068.244768
294.808684,2757.943793,2812.782580,6957.935855
294.808992,3677.258390,2886.803174,5921.647536
294.809300,3447.429741,1850.514855,7105.977043
294.809608,2374.896044,148.041188,8364.327145
294.809916,1149.143247,-666.185348,10066.800811
294.810224,-229.828649,-2072.576638,11325.150913
294.810532,-1685.410096,-1850.514855,11621.233289
294.810840,-689.485948,-1110.308913,11325.150913
294.811148,-153.219100,518.144159,10362.883188
294.811456,612.876398,1406.391290,9844.739029
294.811764,1991.848295,1554.432478,8142.265362
294.812072,2528.115143,1628.453072,7994.224174
294.812380,2298.286494,370.102971,8734.430116
294.812687,1225.752797,-1036.288319,9844.739029
294.812995,0.000000,-2368.659014,11621.233289
294.813303,-995.924147,-3108.864956,12065.356855
294.813611,-2604.724693,-2368.659014,12065.356855
294.813919,-2757.943793,-1184.329507,11325.150913
294.814227,-1455.581446,666.185348,10140.821405
294.814535,0.000000,1924.535449,8512.368333
294.814843,1838.629195,3034.844362,7031.956449
294.815151,3907.087040,2886.803174,6735.874072
294.815459,3370.820191,1998.556043,5847.626942
294.815767,2604.724693,1480.411884,7402.059420
294.816075,2834.553343,-296.082377,9252.574275
294.816383,612.876398,-962.267725,10140.821405
294.816691,-229.828649,-1924.535449,11473.192101
294.816998,-1149.143247,-814.226536,10436.903782
294.817306,-1378.971896,-0.000000,10658.965565
294.817614,-153.219100,666.185348,10584.944971
294.817922,1072.533697,1628.453072,9548.656652
294.818230,1991.848295,1406.391290,9326.594869
294.818538,2221.676944,962.267725,8142.265362
294.818846,2374.896044,444.123565,8438.347739
294.819154,1608.800546,-1258.350101,10732.986159
294.819462,76.609550,-2886.803174,12139.377449
294.819770,-1991.848295,-2738.761985,11695.253884
294.820078,-2604.724693,-2368.659014,11769.274478
294.820386,-1838.629195,-1258.350101,11177.109724
294.820694,-459.657299,888.247130,9474.636058
294.821002,1302.362347,2146.597232,9104.533087
294.821309,2681.334243,2738.761985,7328.038826
294.821617,3600.648841,3256.906145,5921.647536
294.821925,3830.477490,2590.720797,6587.832884
294.822233,3370.820191,1406.391290,7846.182985
294.822541,1532.190996,-814.226536,9548.656652
294.822849,1072.533697,-1036.288319,11325.150913
294.823157,-1072.533697,-1110.308913,11177.109724
294.823465,-1225.752797,-1036.288319,11547.212695
294.823773,-766.095498,518.144159,11029.068536
294.824081,919.314598,1776.494261,10214.842000
294.824389,1532.190996,2368.659014,8660.409521
294.824697,2451.505594,1776.494261,8290.306550
294.825005,2987.772442,814.226536,7772.162391
294.825313,1225.752797,-370.102971,9400.615463
294.825620,689.485948,-1776.494261,11769.274478
294.825928,-1225.752797,-2368.659014,12139.377449
294.826236,-2528.115143,-2368.659014,12583.501014
294.826544,-2757.943793,-1628.453072,11917.315666
294.826852,-1991.848295,-0.000000,10807.006753
294.827160,0.000000,2220.617826,9030.512492
294.827468,1532.190996,2294.638420,8068.244768
294.827776,3140.991542,2738.761985,6809.894666
294.828084,3217.601092,2812.782580,5477.523971
294.828392,3677.258390,1776.494261,6513.812290
294.828699,2298.286494,444.123565,8142.265362
294.829007,842.705048,-814.226536,10140.821405
294.829315,0.000000,-1554.432478,11029.068536
294.829623,-1149.143247,-1554.432478,10955.047942
294.829931,-995.924147,-0.000000,10362.883188
294.830239,842.705048,962.267725,9918.759623
294.830547,1838.629195,1776.494261,9252.574275
294.830854,2068.457845,1332.370696,7920.203579
294.831162,2145.067394,1110.308913,7772.162391
294.831470,1302.362347,-814.226536,8882.471304
294.831778,0.000000,-2220.617826,11547.212695
294.832086,-1149.143247,-3182.885551,12657.521608
294.832394,-2911.162892,-3997.112087,13323.706956
294.832702,-3370.820191,-3701.029710,12657.521608
294.833009,-2681.334243,-1036.288319,11029.068536
294.833317,-1532.190996,592.164754,10288.862594
294.833625,229.828649,1850.514855,9474.636058
294.833933,2528.115143,3034.844362,6809.894666
294.834241,3447.429741,3775.050304,5033.400406
294.834549,4060.306139,2442.679609,5773.606348
294.834857,3370.820191,1184.329507,7105.977043
294.835164,1991.848295,296.082377,8734.430116
294.835472,995.924147,-666.185348,10436.903782
294.835780,-229.828649,-1406.391290,10288.862594
294.836088,-536.266849,-148.041188,10436.903782
294.836396,-995.924147,1184.329507,9474.636058
294.836704,383.047749,2146.597232,9474.636058
294.837011,1838.629195,2220.617826,8882.471304
294.837319,1915.238745,1406.391290,8364.327145
294.837627,1838.629195,222.061783,8068.244768
294.837935,919.314598,-814.226536,10066.800811
294.838243,-536.266849,-2368.659014,12065.356855
294.838551,-1991.848295,-3034.844362,12657.521608
294.838859,-2757.943793,-3552.988522,13471.748144
294.839166,-3370.820191,-2220.617826,12435.459826
294.839474,-1915.238745,518.144159,10362.883188
294.839782,-383.047749,1702.473667,10436.903782
294.840090,1762.019645,2812.782580,8734.430116
294.840398,3217.601092,3034.844362,6883.915261
294.840706,3907.087040,2886.803174,5921.647536
294.841014,4290.134789,1702.473667,6439.791695
294.841321,3064.381992,1184.329507,7402.059420
294.841629,2451.505594,296.082377,9474.636058
294.841937,1455.581446,-1554.432478,10807.006753
294.842245,0.000000,-296.082377,9992.780217
294.842553,-612.876398,740.205942,9474.636058
294.842861,229.828649,1628.453072,9844.739029
294.843169,1455.581446,1702.473667,9178.553681
294.843476,2068.457845,2220.617826,8808.450710
294.843784,2451.505594,1628.453072,8216.285956
294.844092,1991.848295,-222.061783,8734.430116
294.844400,536.266849,-1998.556043,11177.109724
294.844708,-306.438199,-2516.700203,12583.501014
294.845016,-2604.724693,-3701.029710,12805.562797
294.845323,-3064.381992,-3034.844362,13471.748144
294.845631,-3217.601092,-1850.514855,12213.398043
294.845939,-1915.238745,-148.041188,10881.027347
294.846247,0.000000,1332.370696,9104.533087
294.846555,1762.019645,2368.659014,7328.038826
294.846863,3064.381992,2368.659014,6291.750507
294.847171,4443.353888,2072.576638,5921.647536
294.847478,3983.696590,1998.556043,7105.977043
294.847786,3524.039291,-0.000000,8290.306550
294.848094,1608.800546,-0.000000,9104.533087
294.848402,153.219100,-740.205942,10362.883188
294.848710,-766.095498,-444.123565,10510.924376
294.849018,-459.657299,518.144159,10362.883188
294.849326,536.266849,1628.453072,9622.677246
294.849633,2221.676944,1554.432478,9104.533087
294.849941,2221.676944,814.226536,8808.450710
294.850249,2374.896044,518.144159,8216.285956
294.850557,1685.410096,-444.123565,9326.594869
294.850865,76.609550,-1924.535449,10807.006753
294.851173,-1532.190996,-2960.823768,12509.480420
294.851481,-2834.553343,-3182.885551,13471.748144
294.851788,-3217.601092,-1998.556043,12435.459826
294.852096,-2451.505594,-1184.329507,11621.233289
294.852404,-1608.800546,962.267725,10584.944971
294.852712,306.438199,2146.597232,9474.636058
294.853020,2374.896044,2220.617826,7698.141797
294.853328,3524.039291,2664.741391,6513.812290
294.853635,3677.258390,1702.473667,7105.977043
294.853943,3217.601092,814.226536,7994.224174
294.854251,2221.676944,296.082377,9252.574275
294.854559,919.314598,-370.102971,10066.800811
294.854867,229.828649,-222.061783,10436.903782
294.855175,0.000000,592.164754,10140.821405
294.855483,536.266849,1998.556043,9252.574275
294.855790,1991.848295,2590.720797,8290.306550
294.856098,2451.505594,2220.617826,8512.368333
294.856406,2911.162892,1628.453072,7994.224174
294.856714,2298.286494,444.123565,8142.265362
294.857022,689.485948,-814.226536,10807.006753
294.857330,-612.876398,-2516.700203,12139.377449
294.857638,-2145.067394,-2812.782580,12953.603985
294.857945,-3370.820191,-3108.864956,13841.851115
294.858253,-3753.867940,-2516.700203,12805.562797
294.858561,-3064.381992,-814.226536,11621.233289
294.858869,-1225.752797,888.247130,10362.883188
294.859177,383.047749,1850.514855,8512.368333
294.859485,2834.553343,2738.761985,6513.812290
294.859793,3830.477490,2738.761985,6217.729913
294.860100,4213.525239,2220.617826,6513.812290
294.860408,3447.429741,1406.391290,6957.935855
294.860716,2374.896044,666.185348,8512.368333
294.861024,612.876398,-518.144159,9696.697840
294.861332,-536.266849,-222.061783,9696.697840
294.861640,-919.314598,-0.000000,10436.903782
294.861947,0.000000,1036.288319,10214.842000
294.862255,1302.362347,1110.308913,9622.677246
294.862563,2298.286494,1110.308913,9104.533087
294.862871,2298.286494,962.267725,7624.121203
294.863179,1225.752797,-0.000000,8956.491898
294.863487,689.485948,-1776.494261,11621.233289
294.863795,-1762.019645,-2664.741391,12287.418637
294.864102,-3370.820191,-3108.864956,13175.665768
294.864410,-4136.915689,-3330.926739,13027.624579
294.864718,-3140.991542,-1702.473667,12287.418637
294.865026,-2145.067394,148.041188,10584.944971
294.865334,153.219100,1702.473667,9622.677246
294.865642,1608.800546,2590.720797,7846.182985
294.865950,3217.601092,2960.823768,6365.771101
294.866257,3600.648841,2368.659014,6735.874072
294.866565,3447.429741,1702.473667,7328.038826
294.866873,2987.772442,444.123565,8882.471304
294.867181,1838.629195,-444.123565,9474.636058
294.867489,0.000000,-74.020594,9844.739029
294.867797,229.828649,-222.061783,10584.944971
294.868104,383.047749,1406.391290,9400.615463
294.868412,1225.752797,2072.576638,8882.471304
294.868720,2757.943793,2294.638420,8512.368333
294.869028,3830.477490,1702.473667,7920.203579
294.869336,2451.505594,1258.350101,8068.244768
294.869644,1378.971896,-444.123565,9474.636058
294.869952,76.609550,-2072.576638,11473.192101
294.870259,-2068.457845,-3034.844362,12509.480420
294.870567,-3370.820191,-3256.906145,12731.542202
294.870875,-3524.039291,-2664.741391,12879.583391
294.871183,-3677.258390,-1184.329507,12139.377449
294.871491,-1685.410096,-0.000000,10732.986159
294.871799,383.047749,1850.514855,9474.636058
294.872107,1608.800546,1776.494261,7846.182985
294.872414,3294.210641,1850.514855,6439.791695
294.872722,3830.477490,1998.556043,6513.812290
294.873030,3677.258390,592.164754,7698.141797
294.873338,2221.676944,222.061783,8438.347739
294.873646,1685.410096,-222.061783,10288.862594
294.873954,-229.828649,-814.226536,10066.800811
294.874262,0.000000,444.123565,9548.656652
294.874569,689.485948,1332.370696,9326.594869
294.874877,2221.676944,2442.679609,8364.327145
294.875185,3447.429741,1998.556043,7624.121203
294.875493,3064.381992,1998.556043,6809.894666
294.875801,2681.334243,962.267725,7772.162391
294.876109,995.924147,-666.185348,10066.800811
294.876416,-766.095498,-2738.761985,12287.418637
294.876724,-2604.724693,-3478.967927,13101.645173
294.877032,-3294.210641,-3478.967927,13545.768739
294.877340,-4366.744339,-2368.659014,13175.665768
294.877648,-3370.820191,-666.185348,12213.398043
294.877956,-995.924147,518.144159,11547.212695
294.878264,0.000000,1702.473667,9104.533087
294.878571,2221.676944,1924.535449,7624.121203
294.878879,3907.087040,1998.556043,6735.874072
294.879187,2834.553343,1406.391290,7402.059420
294.879495,2374.896044,444.123565,8882.471304
294.879803,1915.238745,-0.000000,9400.615463
294.880111,306.438199,-518.144159,9918.759623
294.880419,-306.438199,-0.000000,9992.780217
294.880726,306.438199,1332.370696,9252.574275
294.881034,1378.971896,2442.679609,8882.471304
294.881342,2451.505594,1850.514855,8290.306550
294.881650,3677.258390,2738.761985,6809.894666
294.881958,3370.820191,1702.473667,7698.141797
294.882266,2374.896044,222.061783,8956.491898
294.882574,842.705048,-222.061783,10362.883188
294.882881,-689.485948,-2368.659014,12731.542202
294.883189,-2834.553343,-2960.823768,12879.583391
294.883497,-3677.258390,-2368.659014,12509.480420
294.883805,-4060.306139,-2072.576638,12879.583391
294.884113,-3294.210641,-592.164754,12361.439231
294.884421,-1149.143247,444.123565,10584.944971
294.884728,459.657299,1628.453072,9474.636058
294.885036,2145.067394,1406.391290,7550.100608
294.885344,2911.162892,1406.391290,7105.977043
294.885652,2604.724693,1184.329507,8586.388927
294.885960,2451.505594,-444.123565,8808.450710
294.886268,919.314598,-148.041188,10140.821405
294.886576,383.047749,-148.041188,10732.986159
294.886883,-766.095498,-74.020594,9918.759623
294.887191,536.266849,1554.432478,9030.512492
294.887499,2068.457845,2886.803174,7994.224174
294.887807,3217.601092,2738.761985,6957.935855
294.888115,3983.696590,2368.659014,6809.894666
294.888423,3830.477490,1480.411884,7031.956449
294.888731,2374.896044,148.041188,8660.409521
294.889038,536.266849,-1406.391290,10732.986159
294.889346,-1225.752797,-2812.782580,12731.542202
294.889654,-3600.648841,-2664.741391,12731.542202
294.889962,-4290.134789,-2590.720797,12583.501014
294.890270,-3140.991542,-962.267725,12435.459826
294.890578,-2374.896044,370.102971,11325.150913
294.890886,76.609550,814.226536,10214.842000
294.891193,1762.019645,1184.329507,7846.182985
294.891501,2757.943793,1924.535449,6735.874072
294.891809,2987.772442,740.205942,7698.141797
294.892117,2374.896044,-0.000000,8438.347739
294.892425,1302.362347,-370.102971,9770.718434
294.892733,612.876398,-888.247130,9992.780217
294.893040,76.609550,-592.164754,10288.862594
294.893348,0.000000,518.144159,9844.739029
294.893656,1762.019645,1110.308913,8882.471304
294.893964,2451.505594,2368.659014,8216.285956
294.894272,3830.477490,2442.679609,7624.121203
294.894580,3600.648841,2294.638420,6735.874072
294.894888,3140.991542,1184.329507,7476.080014
294.895195,1685.410096,-370.102971,9622.677246
294.895503,153.219100,-1702.473667,10510.924376
294.895811,-2221.676944,-2368.659014,12139.377449
294.896119,-3524.039291,-3330.926739,12953.603985
294.896427,-3294.210641,-2738.761985,12879.583391
294.896735,-3677.258390,-518.144159,12065.356855
294.897043,-1915.238745,-0.000000,11769.274478
294.897350,306.438199,962.267725,9400.615463
294.897658,2068.457845,1924.535449,7994.224174
294.897966,2987.772442,1184.329507,7476.080014
294.898274,2987.772442,1036.288319,7476.080014
294.898582,2145.067394,-0.000000,8734.430116
294.898890,1072.533697,-888.247130,10214.842000
294.899198,0.000000,-666.185348,10214.842000
294.899505,0.000000,-0.000000,10436.903782
294.899813,459.657299,1406.391290,9474.636058
294.900121,1685.410096,2368.659014,8290.306550
294.900429,3217.601092,2738.761985,7920.203579
294.900737,3370.820191,2220.617826,7550.100608
294.901045,2987.772442,1332.370696,7550.100608
294.901352,1991.848295,444.123565,8734.430116
294.901660,766.095498,-1480.411884,10658.965565
294.901968,-1149.143247,-2442.679609,11917.315666
294.902276,-2528.115143,-2738.761985,12657.521608
294.902584,-3524.039291,-2368.659014,12583.501014
294.902892,-2911.162892,-740.205942,11991.336260
294.903200,-1915.238745,518.144159,11177.109724
294.903507,153.219100,1036.288319,9992.780217
294.903815,612.876398,1998.556043,8142.265362
294.904123,2834.553343,1406.391290,7254.018232
294.904431,3217.601092,1480.411884,7328.038826
294.904739,1991.848295,222.061783,8512.368333
294.905047,1455.581446,-666.185348,9918.759623
294.905355,229.828649,-1184.329507,11029.068536
294.905662,-383.047749,-1110.308913,10955.047942
294.905970,-459.657299,-0.000000,9622.677246
294.906278,766.095498,1110.308913,9252.574275
294.906586,1838.629195,2220.617826,8808.450710
294.906894,3524.039291,2516.700203,7550.100608
294.907202,3907.087040,2812.782580,6365.771101
294.907510,3294.210641,1406.391290,7254.018232
294.907817,2834.553343,-74.020594,8808.450710
294.908125,612.876398,-740.205942,9770.718434
294.908433,-919.314598,-2442.679609,12287.418637
294.908741,-2681.334243,-2812.782580,12361.439231
294.909049,-3907.087040,-1776.494261,12213.398043
294.909357,-3447.429741,-1258.350101,12731.542202
294.909664,-2221.676944,148.041188,11029.068536
294.909972,0.000000,1332.370696,9622.677246
294.910280,1991.848295,1258.350101,8438.347739
294.910588,2451.505594,1184.329507,6957.935855
294.910896,2145.067394,370.102971,8364.327145
294.911204,2451.505594,-592.164754,9992.780217
294.911512,229.828649,-888.247130,9474.636058
294.911819,-153.219100,-1332.370696,11103.089130
294.912127,-383.047749,-814.226536,10658.965565
294.912435,-306.438199,222.061783,9474.636058
294.912743,1149.143247,1332.370696,9474.636058
294.913051,3064.381992,2664.741391,7550.100608
294.913359,3524.039291,2220.617826,7105.977043
294.913667,3983.696590,1554.432478,6883.915261
294.913974,3370.820191,1332.370696,8068.244768
294.914282,1762.019645,-148.041188,9178.553681
294.914590,0.000000,-1628.453072,11103.089130
294.914898,-1455.581446,-2368.659014,11843.295072
294.915206,-3524.039291,-2220.617826,11917.315666
294.915514,-3294.210641,-1036.288319,12879.583391
294.915822,-2068.457845,148.041188,11843.295072
294.916129,-229.828649,1628.453072,10288.862594
294.916437,995.924147,1998.556043,8512.368333
294.916745,2604.724693,1554.432478,8068.244768
294.917053,2145.067394,740.205942,7624.121203
294.917361,1608.800546,444.123565,8660.409521
294.917669,919.314598,-518.144159,10436.903782
294.917976,-919.314598,-1184.329507,11843.295072
294.918284,-919.314598,-1480.411884,11917.315666
294.918592,-612.876398,-592.164754,11103.089130
294.918900,0.000000,814.226536,10288.862594
294.919208,1225.752797,1776.494261,8734.430116
294.919516,3064.381992,2590.720797,8142.265362
294.919824,4136.915689,2738.761985,7476.080014
294.920131,4136.915689,2072.576638,7179.997637
294.920439,3524.039291,1628.453072,7698.141797
294.920747,1838.629195,-444.123565,9252.574275
294.921055,689.485948,-1554.432478,10362.883188
294.921363,-1455.581446,-1850.514855,11251.130318
294.921671,-2528.115143,-1332.370696,11547.212695
294.921979,-2604.724693,-592.164754,11177.109724
294.922286,-1685.410096,296.082377,10732.986159
294.922594,153.219100,1184.329507,9992.780217
294.922902,1608.800546,1332.370696,8438.347739
294.923210,2911.162892,1184.329507,7402.059420
294.923518,2604.724693,444.123565,7328.038826
294.923826,1838.629195,-370.102971,9548.656652
294.924134,919.314598,-1258.350101,10214.842000
294.924441,-766.095498,-1554.432478,10955.047942
294.924749,-612.876398,-1184.329507,11251.130318
294.925057,-383.047749,-222.061783,9918.759623
294.925365,229.828649,740.205942,9918.759623
294.925673,2221.676944,962.267725,8364.327145
294.925981,2911.162892,1702.473667,7846.182985
294.926288,3370.820191,1480.411884,7846.182985
294.926596,3294.210641,518.144159,7846.182985
294.926904,1915.238745,-518.144159,8734.430116
294.927212,612.876398,-1702.473667,10658.965565
294.927520,-1225.752797,-2146.597232,11325.150913
294.927828,-2604.724693,-2294.638420,11843.295072
294.928136,-3064.381992,-1406.391290,11843.295072
294.928443,-2451.505594,148.041188,10881.027347
294.928751,-612.876398,1480.411884,9696.697840
294.929059,1455.581446,1776.494261,8438.347739
294.929367,2681.334243,2516.700203,6587.832884
294.929675,3217.601092,2220.617826,6439.791695
294.929983,2911.162892,740.205942,7994.224174
294.930291,1685.410096,148.041188,9030.512492
294.930599,459.657299,-1110.308913,10066.800811
294.930907,-919.314598,-1776.494261,11399.171507
294.931215,-1455.581446,-962.267725,11029.068536
294.931524,-919.314598,222.061783,11251.130318
294.931832,306.438199,1036.288319,10362.883188
294.932140,1685.410096,1702.473667,9178.553681
294.932448,2834.553343,1332.370696,8882.471304
294.932756,3140.991542,1184.329507,7328.038826
294.933064,2221.676944,370.102971,8438.347739
294.933372,1915.238745,-518.144159,9918.759623
294.933680,-153.219100,-1184.329507,10436.903782
294.933988,-1762.019645,-1554.432478,11991.336260
294.934296,-2604.724693,-1628.453072,12139.377449
294.934604,-2604.724693,-296.082377,11547.212695
294.934912,-2298.286494,740.205942,11251.130318
294.935221,153.219100,1480.411884,9992.780217
294.935529,1915.238745,2516.700203,7994.224174
294.935837,3064.381992,1776.494261,7624.121203
294.936145,2987.772442,1184.329507,7105.977043
294.936453,2451.505594,518.144159,8808.450710
294.936761,1762.019645,-740.205942,9992.780217
294.937069,689.485948,-1036.288319,10510.924376
294.937377,-229.828649,-666.185348,10214.842000
294.937685,-689.485948,-444.123565,10214.842000
294.937993,153.219100,1554.432478,10732.986159
294.938301,995.924147,1998.556043,9992.780217
294.938609,2068.457845,2368.659014,8290.306550
294.938918,3294.210641,1924.535449,7698.141797
294.939226,2757.943793,1184.329507,8068.244768
294.939534,1608.800546,-74.020594,9474.636058
294.939842,612.876398,-1702.473667,10732.986159
294.940150,-1838.629195,-2812.782580,11843.295072
294.940458,-2987.772442,-2960.823768,12879.583391
294.940766,-4213.525239,-2146.597232,12287.418637
294.941074,-3064.381992,-814.226536,11547.212695
294.941382,-1149.143247,592.164754,10436.903782
294.941690,689.485948,1554.432478,8586.388927
294.941998,2528.115143,2220.617826,7402.059420
294.942306,3753.867940,1924.535449,6587.832884
294.942615,2604.724693,1184.329507,6365.771101
294.942923,2298.286494,370.102971,8660.409521
294.943231,1378.971896,-444.123565,9474.636058
294.943539,76.609550,-1110.308913,10288.862594
294.943847,-766.095498,-740.205942,9918.759623
294.944155,-536.266849,-74.020594,9918.759623
294.944463,0.000000,740.205942,9918.759623
294.944771,1072.533697,1036.288319,9622.677246
294.945079,2604.724693,1628.453072,8290.306550
294.945387,2451.505594,1184.329507,7105.977043
294.945695,2068.457845,-0.000000,8808.450710
294.946003,766.095498,-740.205942,9918.759623
294.946312,-536.266849,-1998.556043,11695.253884
294.946620,-1915.238745,-2590.720797,12139.377449
294.946928,-3140.991542,-1924.535449,12065.356855
294.947236,-2451.505594,-1258.350101,12065.356855
294.947544,-2374.896044,-0.000000,10955.047942
294.947852,-153.219100,1850.514855,9622.677246
294.948160,1838.629195,1924.535449,8808.450710
294.948468,2911.162892,2516.700203,6365.771101
294.948776,3370.820191,2072.576638,6439.791695
294.949084,2834.553343,1258.350101,7550.100608
294.949392,2145.067394,-0.000000,9252.574275
294.949700,1149.143247,-740.205942,10214.842000
294.950009,229.828649,-592.164754,10288.862594
294.950317,-459.657299,-0.000000,10066.800811
294.950625,-383.047749,666.185348,10140.821405
294.950933,1072.533697,1332.370696,10288.862594
294.951241,1455.581446,1998.556043,9474.636058
294.951549,2681.334243,1702.473667,8290.306550
294.951857,3217.601092,1554.432478,8290.306550
294.952165,2145.067394,-592.164754,9326.594869
294.952473,689.485948,-1332.370696,11103.089130
294.952781,-383.047749,-2294.638420,11695.253884
294.953089,-2374.896044,-2886.803174,12287.418637
294.953397,-2757.943793,-1850.514855,11843.295072
294.953705,-2374.896044,-0.000000,11325.150913
294.954014,-306.438199,962.267725,10658.965565
294.954322,689.485948,2294.638420,8142.265362
294.954630,2604.724693,2368.659014,7105.977043
294.954938,4213.525239,2294.638420,7031.956449
294.955246,3600.648841,1628.453072,7254.018232
294.955554,2451.505594,666.185348,8882.471304
294.955862,1532.190996,-74.020594,9622.677246
294.956170,612.876398,-1406.391290,10362.883188
294.956478,-459.657299,-814.226536,10140.821405
294.956786,-383.047749,-74.020594,10288.862594
294.957094,383.047749,518.144159,10288.862594
294.957402,1149.143247,1554.432478,9770.718434
294.957711,2528.115143,1406.391290,9030.512492
294.958019,2604.724693,1554.432478,7698.141797
294.958327,2834.553343,518.144159,8290.306550
294.958635,1532.190996,-814.226536,9400.615463
294.958943,-536.266849,-1924.535449,11399.171507
294.959251,-2221.676944,-3552.988522,13027.624579
294.959559,-3140.991542,-2812.782580,12287.418637
294.959867,-3447.429741,-1702.473667,12287.418637
294.960175,-2757.943793,-592.164754,11473.192101
294.960483,-612.876398,1036.288319,9770.718434
294.960791,1072.533697,1924.535449,8364.327145
294.961099,2604.724693,2146.597232,6809.894666
294.961408,3294.210641,2146.597232,6291.750507
294.961716,3447.429741,1776.494261,6809.894666
294.962024,2911.162892,814.226536,8216.285956
294.962332,1378.971896,-666.185348,9474.636058
294.962640,0.000000,-1036.288319,10214.842000
294.962948,-1225.752797,-370.102971,10214.842000
294.963256,-842.705048,148.041188,10732.986159
294.963564,0.000000,1184.329507,10510.924376
294.963872,1302.362347,1924.535449,9844.739029
294.964180,2145.067394,1258.350101,8438.347739
294.964488,2528.115143,1184.329507,7772.162391
294.964796,1915.238745,-222.061783,9104.533087
294.965105,536.266849,-1332.370696,10436.903782
294.965413,-995.924147,-2368.659014,12139.377449
294.965721,-3217.601092,-2664.741391,12435.459826
294.966029,-3447.429741,-2368.659014,12361.439231
294.966337,-3217.601092,-740.205942,11769.274478
294.966645,-1838.629195,592.164754,11251.130318
294.966953,229.828649,2072.576638,9622.677246
294.967261,2145.067394,2516.700203,7624.121203
294.967569,3677.258390,2738.761985,7105.977043
294.967877,3907.087040,2146.597232,6809.894666
294.968185,3524.039291,1480.411884,7846.182985
294.968493,2221.676944,444.123565,9030.512492
294.968802,1149.143247,-814.226536,9844.739029
294.969110,229.828649,-1036.288319,10881.027347
294.969418,-306.438199,-222.061783,10362.883188
294.969726,0.000000,592.164754,10214.842000
294.970034,766.095498,1850.514855,9622.677246
294.970342,2834.553343,1702.473667,8660.409521
294.970650,3064.381992,2220.617826,7179.997637
294.970958,3140.991542,1110.308913,7994.224174
294.971266,2068.457845,-296.082377,9252.574275
294.971574,383.047749,-1628.453072,11177.109724
294.971882,-1915.238745,-3034.844362,13175.665768
294.972190,-3370.820191,-3552.988522,12879.583391
294.972499,-3600.648841,-2220.617826,13027.624579
294.972807,-2528.115143,-814.226536,11843.295072
294.973115,-612.876398,888.247130,10510.924376
294.973423,766.095498,1628.453072,9030.512492
294.973731,2604.724693,2146.597232,7179.997637
294.974039,4290.134789,2442.679609,5921.647536
294.974347,3370.820191,1850.514855,6587.832884
294.974655,3294.210641,370.102971,8068.244768
294.974963,1608.800546,-148.041188,8660.409521
294.975271,0.000000,-888.247130,10066.800811
294.975579,-766.095498,-666.185348,10658.965565
294.975887,-536.266849,666.185348,9992.780217
294.976196,153.219100,1628.453072,9918.759623
294.976504,1838.629195,1406.391290,9622.677246
294.976812,3217.601092,2294.638420,7772.162391
294.977120,3217.601092,1332.370696,8586.388927
294.977428,2528.115143,148.041188,8512.368333
294.977736,1455.581446,-1258.350101,10140.821405
294.978044,-995.924147,-2146.597232,11769.274478
294.978352,-2604.724693,-3330.926739,12509.480420
294.978660,-2757.943793,-2886.803174,12731.542202
294.978968,-3524.039291,-1480.411884,12139.377449
294.979276,-1608.800546,-666.185348,11029.068536
294.979584,-459.657299,1110.308913,9326.594869
294.979892,919.314598,1628.453072,8808.450710
294.980201,2757.943793,2590.720797,6513.812290
294.980509,3524.039291,2368.659014,6735.874072
294.980817,3217.601092,1480.411884,7550.100608
294.981125,1838.629195,444.123565,8438.347739
294.981433,1072.533697,-740.205942,10436.903782
294.981741,-306.438199,-962.267725,10807.006753
294.982049,-383.047749,-0.000000,10732.986159
294.982357,-383.047749,592.164754,9696.697840
294.982665,995.924147,1332.370696,9696.697840
294.982973,2298.286494,2072.576638,8512.368333
294.983281,3217.601092,1924.535449,7254.018232
294.983589,3524.039291,592.164754,7624.121203
294.983898,2145.067394,-518.144159,8438.347739
294.984206,842.705048,-1406.391290,11251.130318
294.984514,-1532.190996,-3256.906145,12657.521608
294.984822,-2987.772442,-3256.906145,13101.645173
294.985130,-3830.477490,-2590.720797,12953.603985
294.985438,-2834.553343,-1480.411884,11917.315666
294.985746,-1302.362347,592.164754,10288.862594
294.986054,1149.143247,1480.411884,9474.636058
294.986362,2451.505594,2368.659014,7105.977043
294.986670,3830.477490,2664.741391,6291.750507
294.986978,4136.915689,1924.535449,7179.997637
294.987286,2834.553343,1480.411884,7402.059420
294.987595,2145.067394,370.102971,9104.533087
294.987903,1225.752797,-0.000000,9474.636058
294.988211,-306.438199,-370.102971,10214.842000
294.988519,-229.828649,-0.000000,10066.800811
294.988827,153.219100,888.247130,10362.883188
294.989135,1378.971896,1480.411884,9696.697840
294.989443,3217.601092,1702.473667,8290.306550
294.989751,3370.820191,1850.514855,8068.244768
294.990059,2604.724693,666.185348,8216.285956
294.990367,1225.752797,-962.267725,9992.780217
294.990675,-383.047749,-2146.597232,11695.253884
294.990983,-2221.676944,-3034.844362,12361.439231
294.991292,-3753.867940,-3478.967927,13545.768739
294.991600,-3217.601092,-2368.659014,12065.356855
294.991908,-2834.553343,-740.205942,11769.274478
294.992216,-1225.752797,666.185348,10288.862594
294.992524,1149.143247,1850.514855,8586.388927
294.992832,2757.943793,2368.659014,7179.997637
294.993140,3370.820191,2590.720797,6291.750507
294.993448,3447.429741,2072.576638,7254.018232
294.993756,3140.991542,666.185348,8586.388927
294.994064,1685.410096,-0.000000,8734.430116
294.994372,383.047749,-740.205942,9992.780217
294.994680,-383.047749,-0.000000,9992.780217
294.994989,0.000000,814.226536,9844.739029
294.995297,383.047749,1850.514855,9548.656652
294.995605,1685.410096,1850.514855,8512.368333
294.995913,3064.381992,1702.473667,8142.265362
294.996221,2451.505594,1110.308913,7772.162391
294.996529,1991.848295,-0.000000,9548.656652
294.996837,0.000000,-1554.432478,11473.192101
294.997145,-1608.800546,-2812.782580,12139.377449
294.997453,-3600.648841,-3552.988522,12731.542202
294.997761,-4136.915689,-3256.906145,13175.665768
294.998069,-3983.696590,-2146.597232,13175.665768
294.998377,-2221.676944,-370.102971,11473.192101
294.998686,-229.828649,888.247130,9474.636058
294.998994,1608.800546,1406.391290,8216.285956
294.999302,3294.210641,2220.617826,6809.894666
294.999610,4060.306139,2368.659014,6217.729913
294.999918,4060.306139,1924.535449,6957.935855
295.000226,2987.772442,666.185348,7550.100608
295.000534,1685.410096,148.041188,8586.388927
295.000842,612.876398,-148.041188,9326.594869
295.001150,689.485948,-0.000000,9104.533087
295.001458,612.876398,1702.473667,9326.594869
295.001766,1762.019645,1924.535449,9474.636058
295.002074,2757.943793,1998.556043,8808.450710
295.002383,3217.601092,1924.535449,7402.059420
295.002691,2681.334243,814.226536,8364.327145
295.002999,1225.752797,-814.226536,10066.800811
295.003307,-612.876398,-2442.679609,11769.274478
295.003615,-2451.505594,-3701.029710,13841.851115
295.003923,-4290.134789,-3849.070898,13249.686362
295.004231,-4060.306139,-2960.823768,13249.686362
295.004539,-3064.381992,-888.247130,11843.295072
295.004847,-1149.143247,444.123565,11103.089130
295.005155,1072.533697,1258.350101,9474.636058
295.005463,2528.115143,2368.659014,7402.059420
295.005771,3830.477490,2146.597232,6661.853478
295.006080,3677.258390,1924.535449,6217.729913
295.006388,3677.258390,1702.473667,8068.244768
295.006696,2604.724693,-0.000000,9178.553681
295.007004,1072.533697,-444.123565,9400.615463
295.007312,459.657299,148.041188,9474.636058
295.007620,536.266849,592.164754,9474.636058
295.007928,766.095498,1628.453072,9178.553681
295.008236,2528.115143,1998.556043,9400.615463
295.008544,2987.772442,2072.576638,7920.203579
295.008852,3524.039291,1480.411884,7550.100608
295.009160,2528.115143,666.185348,8142.265362
295.009468,995.924147,-592.164754,10362.883188
295.009776,-766.095498,-1998.556043,12139.377449
295.010085,-3064.381992,-3108.864956,12953.603985
295.010393,-4290.134789,-3108.864956,14063.912898
295.010701,-4213.525239,-2220.617826,12805.562797
295.011009,-2528.115143,-740.205942,11843.295072
295.011317,-1608.800546,740.205942,11399.171507
295.011625,766.095498,1628.453072,9400.615463
295.011933,2451.505594,2072.576638,7698.141797
295.012241,3370.820191,2590.720797,6587.832884
295.012549,3677.258390,1554.432478,7179.997637
295.012857,2911.162892,1110.308913,7846.182985
295.013165,1915.238745,296.082377,9104.533087
295.013473,-459.657299,-370.102971,9844.739029
295.013782,0.000000,666.185348,9622.677246
295.014090,536.266849,1184.329507,9030.512492
295.014398,689.485948,2294.638420,8438.347739
295.014706,2298.286494,1702.473667,8660.409521
295.015014,2681.334243,1628.453072,7994.224174
295.015322,1838.629195,740.205942,7846.182985
295.015630,1378.971896,-962.267725,8734.430116
295.015938,-459.657299,-2072.576638,11103.089130
295.016246,-2451.505594,-3404.947333,12805.562797
295.016554,-3600.648841,-3330.926739,13249.686362
295.016862,-3907.087040,-2368.659014,13397.727550
295.017170,-3140.991542,-1406.391290,11621.233289
295.017479,-1685.410096,-0.000000,10140.821405
295.017787,0.000000,1332.370696,9696.697840
295.018095,2298.286494,1628.453072,8290.306550
295.018403,3753.867940,2220.617826,5995.668130
295.018711,3753.867940,1924.535449,6809.894666
295.019019,3447.429741,-0.000000,7179.997637
295.019327,1838.629195,-296.082377,8808.450710
295.019635,459.657299,-962.267725,10140.821405
295.019943,-306.438199,-814.226536,10288.862594
295.020251,-459.657299,-0.000000,10436.903782
295.020559,995.924147,888.247130,9918.759623
295.020867,2068.457845,1776.494261,8734.430116
295.021176,2987.772442,2368.659014,7772.162391
295.021484,3677.258390,2442.679609,7550.100608
295.021792,3217.601092,1554.432478,7550.100608
295.022100,1685.410096,148.041188,9252.574275
295.022408,0.000000,-1110.308913,10955.047942
295.022716,-1608.800546,-2294.638420,12213.398043
295.023024,-3370.820191,-2590.720797,13175.665768
295.023332,-3294.210641,-2516.700203,13027.624579
295.023640,-3677.258390,-1258.350101,12139.377449
295.023948,-1915.238745,-74.020594,11251.130318
295.024256,229.828649,592.164754,10214.842000
295.024564,2374.896044,1924.535449,7920.203579
295.024873,3524.039291,1628.453072,7105.977043
295.025181,3600.648841,1406.391290,6661.853478
295.025489,3524.039291,444.123565,8438.347739
295.025797,2451.505594,-74.020594,9474.636058
295.026105,1608.800546,-74.020594,9992.780217
295.026413,919.314598,296.082377,9992.780217
295.026721,459.657299,1776.494261,8660.409521
295.027029,1455.581446,2146.597232,8882.471304
295.027337,2681.334243,2590.720797,8142.265362
295.027645,3140.991542,2442.679609,8142.265362
295.027953,2681.334243,1850.514855,7772.162391
295.028256,2604.724693,222.061783,8586.388927
295.028564,-153.219100,-1480.411884,10584.944971
295.028872,-2068.457845,-2516.700203,12731.542202
295.029181,-3217.601092,-3108.864956,13767.830521
295.029489,-4826.401637,-2516.700203,13471.748144
295.029797,-3600.648841,-2294.638420,13619.789333
295.030105,-2451.505594,-148.041188,11103.089130
295.030413,-766.095498,592.164754,11029.068536
295.030721,1149.143247,1184.329507,9474.636058
295.031029,2757.943793,1702.473667,7105.977043
295.031337,3064.381992,1924.535449,7105.977043
295.031646,3064.381992,444.123565,7624.121203
295.031954,2757.943793,740.205942,7994.224174
295.032262,1225.752797,-0.000000,9622.677246
295.032570,1378.971896,-518.144159,9474.636058
295.032878,842.705048,296.082377,9326.594869
295.033186,842.705048,1110.308913,9252.574275
295.033494,2145.067394,1998.556043,8068.244768
295.033802,3370.820191,3108.864956,7105.977043
295.034111,4060.306139,2664.741391,7254.018232
295.034419,3600.648841,1776.494261,6883.915261
295.034727,1991.848295,592.164754,7994.224174
295.035035,0.000000,-1554.432478,10807.006753
295.035343,-2221.676944,-3256.906145,12805.562797
295.035651,-3907.087040,-3182.885551,12731.542202
295.035959,-4749.792088,-3552.988522,13545.768739
295.036267,-4443.353888,-2812.782580,12731.542202
295.036576,-2911.162892,-1110.308913,11325.150913
295.036884,-919.314598,-148.041188,11251.130318
295.037192,1455.581446,518.144159,8512.368333
295.037500,2757.943793,1480.411884,6883.915261
295.037808,3370.820191,740.205942,7624.121203
295.038116,3294.210641,222.061783,7402.059420
295.038424,1991.848295,-0.000000,8216.285956
295.038732,1378.971896,-148.041188,9474.636058
295.039041,689.485948,-148.041188,8882.471304
295.039349,612.876398,962.267725,8808.450710
295.039657,1378.971896,1924.535449,9178.553681
295.039965,2604.724693,2368.659014,8216.285956
295.040273,3064.381992,2442.679609,7846.182985
295.040581,3677.258390,1628.453072,7031.956449
295.040889,2987.772442,740.205942,7402.059420
295.041197,1378.971896,-296.082377,9844.739029
295.041506,-306.438199,-2220.617826,11547.212695
295.041814,-2451.505594,-2442.679609,12287.418637
295.042122,-3370.820191,-2442.679609,13323.706956
295.042430,-4290.134789,-1998.556043,13027.624579
295.042738,-3447.429741,-148.041188,12287.418637
295.043046,-1838.629195,814.226536,12287.418637
295.043354,766.095498,1628.453072,9992.780217
295.043662,1762.019645,2368.659014,8068.244768
295.043971,2374.896044,1776.494261,7698.141797
295.044279,2528.115143,1036.288319,7994.224174
295.044587,2145.067394,444.123565,9326.594869
295.044895,766.095498,-814.226536,10584.944971
295.045203,0.000000,-814.226536,10436.903782
295.045511,153.219100,-518.144159,10584.944971
295.045819,229.828649,814.226536,9918.759623
295.046127,2145.067394,1998.556043,8438.347739
295.046436,3600.648841,3330.926739,7105.977043
295.046744,4290.134789,2664.741391,7328.038826
295.047052,3907.087040,2220.617826,6513.812290
295.047360,2757.943793,1110.308913,7994.224174
295.047668,1072.533697,-740.205942,10436.903782
295.047976,-536.266849,-1998.556043,11399.171507
295.048284,-2757.943793,-2960.823768,12731.542202
295.048592,-4213.525239,-3108.864956,13471.748144
295.048901,-3907.087040,-1702.473667,12435.459826
295.049209,-2911.162892,-222.061783,11843.295072
295.049517,-919.314598,296.082377,11251.130318
295.049825,536.266849,1406.391290,8512.368333
295.050133,2221.676944,1332.370696,7402.059420
295.050441,1991.848295,888.247130,7550.100608
295.050749,2911.162892,-0.000000,8586.388927
295.051057,2374.896044,-592.164754,9030.512492
295.051366,153.219100,-592.164754,9178.553681
295.051674,153.219100,-1258.350101,10510.924376
295.051982,0.000000,296.082377,9548.656652
295.052290,842.705048,962.267725,9178.553681
295.052598,2451.505594,2294.638420,7994.224174
295.052906,3217.601092,2072.576638,7328.038826
295.053214,3217.601092,1480.411884,7105.977043
295.053522,3217.601092,1332.370696,6957.935855
295.053831,2145.067394,148.041188,8956.491898
295.054139,153.219100,-1776.494261,10140.821405
295.054447,-1915.238745,-2368.659014,11473.192101
295.054755,-2681.334243,-3034.844362,12731.542202
295.055063,-3907.087040,-2220.617826,12213.398043
295.055371,-3217.601092,-222.061783,11473.192101
295.055679,-2145.067394,296.082377,11325.150913
295.055987,76.609550,814.226536,10066.800811
295.056296,1685.410096,1480.411884,7994.224174
295.056604,2451.505594,1406.391290,7402.059420
295.056912,2604.724693,666.185348,7624.121203
295.057220,2221.676944,-148.041188,8290.306550
295.057528,995.924147,-740.205942,10214.842000
295.057836,536.266849,-1998.556043,10955.047942
295.058144,-229.828649,-888.247130,10140.821405
295.058452,229.828649,592.164754,9696.697840
295.058761,1685.410096,1776.494261,8660.409521
295.059069,2298.286494,2294.638420,8142.265362
295.059377,3524.039291,2590.720797,7772.162391
295.059685,4213.525239,2072.576638,6957.935855
295.059993,2451.505594,1998.556043,8290.306550
295.060301,1225.752797,-666.185348,10214.842000
295.060609,-612.876398,-1258.350101,11399.171507
295.060917,-2528.115143,-2368.659014,12435.459826
295.061226,-3830.477490,-2294.638420,12879.583391
295.061534,-3753.867940,-1554.432478,13175.665768
295.061842,-3064.381992,-0.000000,12287.418637
295.062150,-766.095498,666.185348,10732.986159
295.062458,1149.143247,2220.617826,9326.594869
295.062766,3370.820191,1850.514855,7698.141797
295.063074,3294.210641,1776.494261,6883.915261
295.063382,3064.381992,740.205942,7550.100608
295.063691,2451.505594,222.061783,8956.491898
295.063999,1378.971896,-592.164754,10140.821405
295.064307,383.047749,-666.185348,10584.944971
295.064615,153.219100,-0.000000,10140.821405
295.064923,1225.752797,740.205942,10140.821405
295.065231,2068.457845,1850.514855,9252.574275
295.065539,3140.991542,2220.617826,7994.224174
295.065847,4213.525239,2886.803174,7105.977043
295.066156,3447.429741,1924.535449,6957.935855
295.066464,2604.724693,444.123565,8808.450710
295.066772,842.705048,-592.164754,10066.800811
295.067080,-995.924147,-2590.720797,11473.192101
295.067388,-2834.553343,-2812.782580,11991.336260
295.067696,-3294.210641,-2072.576638,11917.315666
295.068004,-3524.039291,-1110.308913,12287.418637
295.068312,-1915.238745,-74.020594,11769.274478
295.068621,-612.876398,1036.288319,10214.842000
295.068929,1608.800546,1258.350101,8290.306550
295.069237,2221.676944,1258.350101,7105.977043
295.069545,2604.724693,444.123565,7772.162391
295.069853,2221.676944,-444.123565,9030.512492
295.070161,919.314598,-740.205942,9918.759623
295.070469,612.876398,-1258.350101,9992.780217
295.070777,459.657299,-962.267725,9622.677246
295.071086,536.266849,444.123565,9104.533087
295.071394,1838.629195,1924.535449,8142.265362
295.071702,2987.772442,2368.659014,7624.121203
295.072010,3753.867940,2368.659014,6957.935855
295.072318,3447.429741,1480.411884,6809.894666
295.072626,2681.334243,1184.329507,7105.977043
295.072934,1838.629195,-296.082377,9474.636058
295.073242,-306.438199,-1702.473667,10658.965565
295.073551,-2221.676944,-2812.782580,11917.315666
295.073859,-3600.648841,-2886.803174,12879.583391
295.074167,-4213.525239,-2516.700203,12731.542202
295.074475,-3524.039291,-666.185348,12361.439231
295.074783,-536.266849,592.164754,11251.130318
295.075091,612.876398,1258.350101,9104.533087
295.075399,2221.676944,1702.473667,7920.203579
295.075707,2528.115143,1924.535449,6735.874072
295.076016,2451.505594,1110.308913,7624.121203
295.076324,1915.238745,370.102971,9326.594869
295.076632,536.266849,-518.144159,10362.883188
295.076940,-612.876398,-1406.391290,10807.006753
295.077248,-689.485948,-666.185348,10881.027347
295.077556,-306.438199,296.082377,9770.718434
295.077864,1378.971896,1332.370696,9474.636058
295.078172,2451.505594,2146.597232,8734.430116
295.078481,3677.258390,2590.720797,7105.977043
295.078789,4213.525239,2442.679609,6661.853478
295.079097,3447.429741,1702.473667,7698.141797
295.079405,2068.457845,370.102971,9696.697840
295.079713,0.000000,-888.247130,10955.047942
295.080021,-1685.410096,-1924.535449,12065.356855
295.080329,-2757.943793,-1332.370696,11991.336260
295.080637,-3064.381992,-962.267725,12361.439231
295.080946,-2451.505594,370.102971,11769.274478
295.081254,-536.266849,814.226536,10807.006753
295.081562,1072.533697,1406.391290,9104.533087
295.081870,1838.629195,1628.453072,7624.121203
295.082178,2757.943793,740.205942,8512.368333
295.082486,1838.629195,-0.000000,9178.553681
295.082794,919.314598,-740.205942,9992.780217
295.083102,76.609550,-1258.350101,10732.986159
295.083411,0.000000,-962.267725,10732.986159
295.083719,0.000000,-0.000000,9844.739029
295.084027,1302.362347,1406.391290,9622.677246
295.084335,2528.115143,1998.556043,8586.388927
295.084643,2911.162892,2146.597232,7772.162391
295.084951,3983.696590,1850.514855,7550.100608
295.085259,3294.210641,1332.370696,6957.935855
295.085567,2451.505594,370.102971,8290.306550
295.085876,1072.533697,-1184.329507,9992.780217
295.086184,-919.314598,-2294.638420,11325.150913
295.086492,-2604.724693,-3256.906145,12139.377449
295.086800,-3064.381992,-2516.700203,11991.336260
295.087108,-2221.676944,-296.082377,11917.315666
295.087416,-1225.752797,518.144159,10955.047942
295.087724,536.266849,1184.329507,9030.512492
295.088032,1991.848295,1850.514855,8068.244768
295.088341,2757.943793,1850.514855,6365.771101
295.088649,2604.724693,1628.453072,7105.977043
295.088957,1838.629195,-0.000000,8734.430116
295.089265,1225.752797,-1036.288319,10288.862594
295.089573,-612.876398,-1628.453072,11251.130318
295.089881,-1072.533697,-888.247130,11103.089130
295.090189,-612.876398,-592.164754,10955.047942
295.090497,0.000000,1258.350101,9770.718434
295.090806,1838.629195,1480.411884,9178.553681
295.091114,2911.162892,2368.659014,7476.080014
295.091422,3600.648841,2368.659014,6957.935855
295.091730,3600.648841,1184.329507,7476.080014
295.092038,2068.457845,666.185348,8290.306550
295.092346,689.485948,-1554.432478,10584.944971
295.092654,-1225.752797,-2442.679609,11325.150913
295.092962,-2757.943793,-2368.659014,12435.459826
295.093270,-3447.429741,-1628.453072,12065.356855
295.093579,-2451.505594,-666.185348,11399.171507
295.093887,-1149.143247,296.082377,10658.965565
295.094195,459.657299,1036.288319,8956.491898
295.094503,2298.286494,2072.576638,7254.018232
295.094811,2604.724693,1480.411884,6809.894666
295.095119,1838.629195,296.082377,8586.388927
295.095427,919.314598,-0.000000,9326.594869
295.095735,229.828649,-888.247130,10807.006753
295.096044,-383.047749,-0.000000,10658.965565
295.096352,-612.876398,-0.000000,10436.903782
295.096660,153.219100,962.267725,10732.986159
295.096968,1455.581446,1850.514855,10140.821405
295.097276,2145.067394,2442.679609,8364.327145
295.097584,2834.553343,2368.659014,7698.141797
295.097892,2911.162892,1406.391290,8216.285956
295.098200,2145.067394,518.144159,8068.244768
295.098509,766.095498,-1184.329507,10881.027347
295.098817,-612.876398,-2294.638420,11251.130318
295.099125,-2451.505594,-2664.741391,12361.439231
295.099433,-2604.724693,-2516.700203,12583.501014
295.099741,-2298.286494,-962.267725,11917.315666
295.100049,-1532.190996,962.267725,10807.006753
295.100357,459.657299,1776.494261,9326.594869
295.100665,2528.115143,2516.700203,7550.100608
295.100974,2757.943793,3108.864956,5847.626942
295.101282,2757.943793,1850.514855,6809.894666
295.101590,2681.334243,518.144159,7846.182985
295.101898,995.924147,-0.000000,9622.677246
295.102206,-306.438199,-962.267725,11251.130318
295.102514,-995.924147,-1406.391290,10732.986159
295.102822,-842.705048,-814.226536,10955.047942
295.103130,0.000000,222.061783,10214.842000
295.103439,1302.362347,1332.370696,9474.636058
295.103747,3064.381992,666.185348,8882.471304
295.104055,2987.772442,1184.329507,7550.100608
295.104363,3294.210641,592.164754,7402.059420
295.104671,2068.457845,-740.205942,9400.615463
295.104979,383.047749,-1628.453072,11325.150913
295.105287,-1685.410096,-2664.741391,11769.274478
295.105595,-2604.724693,-2812.782580,13101.645173
295.105904,-2987.772442,-2368.659014,12435.459826
295.106212,-2528.115143,-666.185348,10732.986159
295.106520,-306.438199,740.205942,10066.800811
295.106828,1762.019645,1628.453072,7994.224174
295.107136,3140.991542,2368.659014,6957.935855
295.107444,3983.696590,2590.720797,5699.585753
295.107752,3524.039291,2294.638420,6143.709319
295.108060,2604.724693,666.185348,8364.327145
295.108369,1455.581446,-148.041188,9696.697840
295.108677,306.438199,-1036.288319,11103.089130
295.108985,-612.876398,-1110.308913,10362.883188
295.109293,-459.657299,-0.000000,10658.965565
295.109601,306.438199,740.205942,9844.739029
295.109909,1762.019645,1332.370696,9696.697840
295.110217,2911.162892,814.226536,8216.285956
295.110525,2911.162892,1628.453072,7254.018232
295.110834,2451.505594,-296.082377,8808.450710
295.111142,689.485948,-1924.535449,10288.862594
295.111450,-459.657299,-2368.659014,11843.295072
295.111758,-2298.286494,-3108.864956,12657.521608
295.112066,-3064.381992,-2368.659014,12065.356855
295.112374,-2451.505594,-666.185348,11621.233289
295.112682,-1532.190996,1110.308913,10288.862594
295.112990,919.314598,2516.700203,8808.450710
295.113299,2681.334243,2960.823768,7105.977043
295.113607,3983.696590,2960.823768,5773.606348
295.113915,3907.087040,2664.741391,5773.606348
295.114223,2987.772442,1554.432478,7476.080014
295.114531,1915.238745,592.164754,9474.636058
295.114839,0.000000,-666.185348,10436.903782
295.115147,-1378.971896,-1406.391290,11547.212695
295.115455,-1608.800546,-1554.432478,11695.253884
295.115764,-229.828649,-148.041188,10955.047942
295.116072,-306.438199,518.144159,10658.965565
295.116380,1838.629195,666.185348,9918.759623
295.116688,2757.943793,1184.329507,8882.471304
295.116996,2145.067394,814.226536,7624.121203
295.117304,1838.629195,-444.123565,9178.553681
295.117612,306.438199,-1406.391290,10807.006753
295.117920,-1378.971896,-2442.679609,11917.315666
295.118229,-3217.601092,-2664.741391,12805.562797
295.118537,-3753.867940,-2368.659014,12287.418637
295.118845,-2374.896044,-222.061783,11843.295072
295.119153,-1378.971896,1110.308913,9474.636058
295.119461,1225.752797,1924.535449,7994.224174
295.119769,3217.601092,2812.782580,6735.874072
295.120077,3983.696590,3404.947333,5107.421000
295.120385,3753.867940,2220.617826,6217.729913
295.120694,3370.820191,962.267725,7920.203579
295.121002,1991.848295,296.082377,9030.512492
295.121310,383.047749,-1258.350101,10140.821405
295.121618,-612.876398,-1332.370696,10658.965565
295.121926,-1455.581446,-518.144159,11103.089130
295.122234,-306.438199,296.082377,10436.903782
295.122542,995.924147,814.226536,9548.656652
295.122850,2145.067394,666.185348,8808.450710
295.123159,1991.848295,1036.288319,8290.306550
295.123467,2221.676944,-74.020594,9400.615463
295.123775,1378.971896,-1184.329507,9992.780217
295.124083,-766.095498,-2368.659014,11843.295072
295.124391,-2374.896044,-2886.803174,12213.398043
295.124699,-2681.334243,-2960.823768,12731.542202
295.125007,-3447.429741,-1184.329507,11843.295072
295.125315,-1838.629195,444.123565,10658.965565
295.125624,383.047749,2146.597232,9104.533087
295.125932,2757.943793,3256.906145,7550.100608
295.126240,3447.429741,3849.070898,5847.626942
295.126548,4519.963438,3478.967927,6291.750507
295.126856,3600.648841,1924.535449,7105.977043
295.127164,2221.676944,888.247130,8142.265362
295.127472,1072.533697,-222.061783,10066.800811
295.127780,-229.828649,-1258.350101,11029.068536
295.128089,-1072.533697,-962.267725,10955.047942
295.128397,-383.047749,-0.000000,10214.842000
295.128705,842.705048,740.205942,10288.862594
295.129013,1455.581446,1480.411884,9178.553681
295.129321,2604.724693,1776.494261,8438.347739
295.129629,2834.553343,888.247130,8290.306550
295.129937,1608.800546,-592.164754,9030.512492
295.130245,229.828649,-2294.638420,11325.150913
295.130553,-1455.581446,-3182.885551,12509.480420
295.130862,-3064.381992,-3330.926739,13323.706956
295.131170,-3753.867940,-3108.864956,13397.727550
295.131478,-2987.772442,-1258.350101,11843.295072
295.131786,-689.485948,814.226536,9622.677246
295.132094,1149.143247,2368.659014,8068.244768
295.132402,3217.601092,3330.926739,6291.750507
295.132710,3983.696590,3627.009116,5699.585753
295.133018,4060.306139,3034.844362,5329.482782
295.133326,3447.429741,1184.329507,7550.100608
295.133634,1455.581446,-148.041188,8956.491898
295.133942,76.609550,-1480.411884,10807.006753
295.134250,-1532.190996,-1702.473667,11325.150913
295.134558,-1685.410096,-814.226536,10955.047942
295.134866,-1072.533697,222.061783,10881.027347
295.135174,459.657299,666.185348,9770.718434
295.135483,2145.067394,1702.473667,8586.388927
295.135791,3217.601092,1480.411884,7994.224174
295.136099,2987.772442,1036.288319,8438.347739
295.136407,1532.190996,-518.144159,9622.677246
295.136715,-153.219100,-1850.514855,11843.295072
295.137023,-1838.629195,-2590.720797,12287.418637
295.137331,-2681.334243,-2812.782580,12879.583391
295.137639,-3447.429741,-2072.576638,12509.480420
295.137947,-2068.457845,-518.144159,11473.192101
295.138255,0.000000,1480.411884,9844.739029
295.138563,612.876398,2072.576638,8808.450710
295.138871,3217.601092,2442.679609,6957.935855
295.139179,3830.477490,3330.926739,5403.503377
295.139487,3907.087040,2072.576638,6883.915261
295.139796,2681.334243,740.205942,8142.265362
295.140104,1378.971896,148.041188,9770.718434
295.140412,76.609550,-1036.288319,11251.130318
295.140720,-842.705048,-666.185348,10881.027347
295.141028,-766.095498,-0.000000,10584.944971
295.141336,536.266849,1554.432478,10658.965565
295.141644,1838.629195,1998.556043,9178.553681
295.141952,2834.553343,2664.741391,7179.997637
295.142260,3370.820191,1480.411884,8068.244768
295.142568,2681.334243,444.123565,8142.265362
295.142876,1378.971896,-1258.350101,9992.780217
295.143184,-1532.190996,-2960.823768,12435.459826
295.143492,-2221.676944,-4071.132681,13249.686362
295.143800,-3217.601092,-3256.906145,13545.768739
295.144109,-3217.601092,-1924.535449,12509.480420
295.144417,-1685.410096,-0.000000,10881.027347
295.144725,306.438199,1850.514855,9252.574275
295.145033,2911.162892,2590.720797,7550.100608
295.145341,4290.134789,3849.070898,5181.441594
295.145649,4366.744339,2960.823768,5329.482782
295.145957,4213.525239,1480.411884,6883.915261
295.146265,2374.896044,888.247130,8142.265362
295.146573,995.924147,-592.164754,10584.944971
295.146881,-842.705048,-1406.391290,10881.027347
295.147189,-1532.190996,-666.185348,10732.986159
295.147497,-612.876398,-0.000000,10362.883188
295.147805,1455.581446,1184.329507,9918.759623
295.148113,2221.676944,1036.288319,9326.594869
295.148422,3677.258390,1480.411884,7920.203579
295.148730,3753.867940,1110.308913,7624.121203
295.149038,1915.238745,-518.144159,9252.574275
295.149346,0.000000,-2146.597232,11473.192101
295.149654,-2221.676944,-3182.885551,13249.686362
295.149962,-3370.820191,-3849.070898,13693.809927
295.150270,-3830.477490,-3034.844362,12879.583391
295.150578,-2757.943793,-1480.411884,12065.356855
295.150886,-995.924147,-0.000000,10436.903782
295.151194,919.314598,1406.391290,8586.388927
295.151502,2451.505594,2368.659014,7476.080014
295.151810,3753.867940,2812.782580,5847.626942
295.152118,3830.477490,2442.679609,5847.626942
295.152426,3140.991542,1850.514855,7624.121203
295.152735,2451.505594,740.205942,8142.265362
295.153043,1149.143247,518.144159,9622.677246
295.153351,76.609550,-0.000000,10140.821405
295.153659,-459.657299,296.082377,9770.718434
295.153967,153.219100,1332.370696,9844.739029
295.154275,1378.971896,1924.535449,9474.636058
295.154583,2604.724693,2072.576638,8734.430116
295.154891,3217.601092,1480.411884,7920.203579
295.155199,2068.457845,444.123565,8438.347739
295.155507,153.219100,-1702.473667,10658.965565
295.155815,-1149.143247,-2590.720797,12731.542202
295.156123,-2834.553343,-3701.029710,13915.871710
295.156431,-4366.744339,-3775.050304,13471.748144
295.156739,-3677.258390,-2516.700203,12953.603985
295.157048,-2528.115143,-814.226536,11473.192101
295.157356,-306.438199,1110.308913,9992.780217
295.157664,2145.067394,2294.638420,8364.327145
295.157972,2911.162892,2516.700203,6809.894666
295.158280,4366.744339,2738.761985,6365.771101
295.158588,3370.820191,2442.679609,6661.853478
295.158896,2834.553343,1480.411884,7698.141797
295.159204,1225.752797,444.123565,9326.594869
295.159512,76.609550,-518.144159,10066.800811
295.159820,-383.047749,-74.020594,10658.965565
295.160128,0.000000,1110.308913,9770.718434
295.160436,536.266849,962.267725,8956.491898
295.160744,1762.019645,1406.391290,9104.533087
295.161052,3983.696590,1480.411884,8142.265362
295.161361,2681.334243,1332.370696,7105.977043
295.161669,1915.238745,-296.082377,9178.553681
295.161977,536.266849,-1850.514855,10732.986159
295.162285,-1915.238745,-3034.844362,12139.377449
295.162593,-3370.820191,-3478.967927,13841.851115
295.162901,-4366.744339,-3404.947333,13471.748144
295.163209,-3677.258390,-2294.638420,12139.377449
295.163517,-2604.724693,-0.000000,11251.130318
295.163825,0.000000,1184.329507,9918.759623
295.164133,1838.629195,1850.514855,8290.306550
295.164441,3140.991542,2960.823768,6365.771101
295.164749,3753.867940,2220.617826,6291.750507
295.165057,2834.553343,1628.453072,7476.080014
295.165365,2451.505594,592.164754,8364.327145
295.165674,1302.362347,-370.102971,9326.594869
295.165982,0.000000,-444.123565,9696.697840
295.166290,-229.828649,74.020594,9918.759623
295.166598,536.266849,1184.329507,9474.636058
295.166906,1915.238745,1776.494261,8586.388927
295.167214,2681.334243,1998.556043,8142.265362
295.167522,3677.258390,1480.411884,7698.141797
295.167830,2911.162892,518.144159,8290.306550
295.168138,1685.410096,-1184.329507,9696.697840
295.168446,-612.876398,-2664.741391,11621.233289
295.168754,-2757.943793,-3182.885551,13397.727550
295.169062,-3983.696590,-3552.988522,13767.830521
295.169370,-3677.258390,-2738.761985,13101.645173
295.169678,-3064.381992,-592.164754,11621.233289
295.169987,-1072.533697,222.061783,10807.006753
295.170295,306.438199,1924.535449,9474.636058
295.170603,2298.286494,2590.720797,7476.080014
295.170911,3447.429741,2220.617826,6587.832884
295.171219,3294.210641,2220.617826,7031.956449
295.171527,2757.943793,1258.350101,8142.265362
295.171835,1455.581446,740.205942,8808.450710
295.172143,1149.143247,-518.144159,10510.924376
295.172451,-153.219100,-222.061783,9178.553681
295.172759,0.000000,592.164754,10288.862594
295.173067,995.924147,1332.370696,9918.759623
295.173375,2145.067394,2220.617826,8216.285956
295.173683,3217.601092,1924.535449,8142.265362
295.173991,3140.991542,2368.659014,6661.853478
295.174299,2604.724693,444.123565,8364.327145
295.174608,229.828649,-1332.370696,10140.821405
295.174916,-1149.143247,-2294.638420,11843.295072
295.175224,-3140.991542,-2960.823768,13471.748144
295.175532,-3830.477490,-3108.864956,13545.768739
295.175840,-3524.039291,-2220.617826,12953.603985
295.176148,-2528.115143,-1036.288319,11843.295072
295.176456,0.000000,592.164754,10066.800811
295.176764,995.924147,1776.494261,8290.306550
295.177072,2987.772442,2220.617826,7254.018232
295.177380,3600.648841,1924.535449,6809.894666
295.177688,3370.820191,1480.411884,6809.894666
295.177996,2221.676944,814.226536,8586.388927
295.178304,2068.457845,-222.061783,9400.615463
295.178612,-383.047749,-0.000000,9548.656652
295.178921,0.000000,-518.144159,10881.027347
295.179229,76.609550,962.267725,9548.656652
295.179537,1149.143247,1850.514855,9474.636058
295.179845,2451.505594,1850.514855,9178.553681
295.180153,2987.772442,1924.535449,7772.162391
295.180461,2451.505594,1036.288319,7550.100608
295.180769,1378.971896,296.082377,9030.512492
295.181077,306.438199,-1332.370696,11029.068536
295.181385,-1762.019645,-2220.617826,11991.336260
295.181693,-2987.772442,-3108.864956,13545.768739
295.182001,-3524.039291,-2886.803174,12509.480420
295.182309,-3064.381992,-1480.411884,11695.253884
295.182617,-1838.629195,-0.000000,11325.150913
295.182925,459.657299,1036.288319,8808.450710
295.183234,2221.676944,2220.617826,9252.574275
295.183542,2987.772442,1850.514855,7328.038826
295.183850,3140.991542,2294.638420,6365.771101
295.184158,2757.943793,666.185348,8586.388927
295.184466,2068.457845,-74.020594,9400.615463
295.184774,1225.752797,-74.020594,9400.615463
295.185082,-306.438199,-74.020594,9326.594869
295.185390,459.657299,-74.020594,10584.944971
295.185698,919.314598,1702.473667,8956.491898
295.186006,2221.676944,2664.741391,8660.409521
295.186314,3370.820191,2442.679609,7624.121203
295.186622,3677.258390,2294.638420,6809.894666
295.186930,2528.115143,1110.308913,7476.080014
295.187238,1608.800546,-518.144159,9548.656652
295.187547,0.000000,-2220.617826,11473.192101
295.187855,-2068.457845,-3404.947333,12805.562797
295.188163,-3447.429741,-3701.029710,13545.768739
295.188471,-3600.648841,-2886.803174,12583.501014
295.188779,-2911.162892,-1850.514855,11991.336260
295.189087,-919.314598,-222.061783,11177.109724
295.189395,995.924147,814.226536,8660.409521
295.189703,2451.505594,2294.638420,8290.306550
295.190011,3294.210641,1924.535449,6883.915261
295.190319,3830.477490,1776.494261,7179.997637
295.190627,2451.505594,962.267725,8290.306550
295.190935,1532.190996,370.102971,8734.430116
295.191243,536.266849,-296.082377,9622.677246
295.191551,-229.828649,-0.000000,9622.677246
295.191860,-229.828649,1036.288319,9696.697840
295.192168,1225.752797,2220.617826,8734.430116
295.192476,2757.943793,2590.720797,8364.327145
295.192784,3064.381992,2072.576638,7402.059420
295.193092,3064.381992,1776.494261,6587.832884
295.193400,2451.505594,444.123565,8660.409521
295.193708,76.609550,-666.185348,10066.800811
295.194016,-1302.362347,-2516.700203,12213.398043
295.194324,-2987.772442,-4071.132681,13471.748144
295.194632,-4366.744339,-3627.009116,13323.706956
295.194940,-3600.648841,-2664.741391,12583.501014
295.195248,-2681.334243,-666.185348,12213.398043
295.195556,-612.876398,444.123565,10140.821405
295.195864,1225.752797,2072.576638,8364.327145
295.196173,2757.943793,2368.659014,7550.100608
295.196481,3064.381992,2072.576638,6661.853478
295.196789,2221.676944,1332.370696,7846.182985
295.197097,2451.505594,-0.000000,9696.697840
295.197405,842.705048,-222.061783,9770.718434
295.197713,-306.438199,-444.123565,10732.986159
295.198021,-612.876398,148.041188,9918.759623
295.198329,383.047749,1036.288319,9844.739029
295.198637,1378.971896,2146.597232,8882.471304
295.198945,2911.162892,2664.741391,7994.224174
295.199253,4749.792088,2516.700203,6809.894666
295.199561,3217.601092,1924.535449,6143.709319
295.199869,1838.629195,222.061783,8438.347739
295.200177,1149.143247,-1702.473667,10732.986159
295.200486,-1378.971896,-2886.803174,12065.356855
295.200794,-3447.429741,-3923.091493,13101.645173
295.201102,-3907.087040,-3404.947333,13027.624579
295.201410,-3524.039291,-2220.617826,12731.542202
295.201718,-2298.286494,-296.082377,11547.212695
295.202026,536.266849,962.267725,9918.759623
295.202334,1915.238745,2368.659014,8068.244768
295.202642,3217.601092,2220.617826,7254.018232
295.202950,3677.258390,1998.556043,5921.647536
295.203258,3294.210641,1702.473667,7994.224174
295.203566,2068.457845,444.123565,9104.533087
295.203874,229.828649,-370.102971,9844.739029
295.204182,-919.314598,-444.123565,11103.089130
295.204490,153.219100,-0.000000,10807.006753
295.204799,459.657299,1628.453072,10140.821405
295.205107,2451.505594,2368.659014,8660.409521
295.205415,3677.258390,1554.432478,8142.265362
295.205723,3830.477490,2590.720797,6957.935855
295.206031,3524.039291,814.226536,7476.080014
295.206339,1532.190996,-370.102971,9178.553681
295.206647,-153.219100,-2072.576638,11399.171507
295.206955,-2068.457845,-3182.885551,12731.542202
295.207263,-3677.258390,-3256.906145,12583.501014
295.207571,-3370.820191,-2294.638420,12583.501014
295.207879,-2834.553343,-888.247130,11695.253884
295.208187,-1072.533697,518.144159,10881.027347
295.208495,1149.143247,1628.453072,9548.656652
295.208803,2604.724693,2516.700203,7698.141797
295.209112,2681.334243,2442.679609,6809.894666
295.209420,3294.210641,1628.453072,8216.285956
295.209728,1915.238745,-0.000000,8956.491898
295.210036,76.609550,-370.102971,9770.718434
295.210344,-459.657299,-1258.350101,10881.027347
295.210652,-536.266849,-0.000000,10362.883188
295.210960,76.609550,1036.288319,9474.636058
295.211268,1455.581446,1924.535449,9030.512492
295.211576,3294.210641,2442.679609,8808.450710
295.211884,3600.648841,2886.803174,6809.894666
295.212192,3907.087040,2294.638420,6883.915261
295.212500,2451.505594,740.205942,8142.265362
295.212808,842.705048,-1184.329507,10214.842000
295.213116,-1532.190996,-2442.679609,11843.295072
295.213424,-3064.381992,-3775.050304,12657.521608
295.213733,-4136.915689,-3552.988522,13249.686362
295.214041,-3907.087040,-2294.638420,12509.480420
295.214349,-2298.286494,-592.164754,11769.274478
295.214657,-383.047749,1184.329507,10807.006753
295.214965,1532.190996,1702.473667,8586.388927
295.215273,2451.505594,2664.741391,6809.894666
295.215581,3064.381992,1998.556043,7105.977043
295.215889,2374.896044,1184.329507,8512.368333
295.216197,1532.190996,296.082377,9400.615463
295.216505,0.000000,-888.247130,10288.862594
295.216813,-766.095498,-444.123565,11251.130318
295.217121,-689.485948,-0.000000,10288.862594
295.217429,536.266849,1406.391290,9918.759623
295.217737,2221.676944,2368.659014,8660.409521
295.218046,3140.991542,2368.659014,7624.121203
295.218354,4366.744339,2516.700203,7105.977043
295.218662,3294.210641,1332.370696,6957.935855
295.218970,2221.676944,-222.061783,9030.512492
295.219278,689.485948,-1850.514855,10510.924376
295.219586,-1149.143247,-3108.864956,11695.253884
295.219894,-3524.039291,-3701.029710,13101.645173
295.220202,-4060.306139,-2368.659014,13027.624579
295.220510,-2911.162892,-1036.288319,13101.645173
295.220818,-1762.019645,666.185348,11547.212695
295.221126,995.924147,2220.617826,9474.636058
295.221434,1915.238745,3034.844362,8586.388927
295.221742,2298.286494,3108.864956,7846.182985
295.222050,2681.334243,2146.597232,8586.388927
295.222359,2145.067394,1036.288319,9178.553681
295.222667,689.485948,222.061783,10066.800811
295.222975,0.000000,-740.205942,10732.986159
295.223283,-306.438199,-0.000000,10510.924376
295.223591,766.095498,666.185348,10214.842000
295.223899,2221.676944,1702.473667,9030.512492
295.224207,3524.039291,1628.453072,8142.265362
295.224515,3907.087040,2368.659014,7105.977043
295.224823,4290.134789,1776.494261,7328.038826
295.225131,3447.429741,962.267725,7772.162391
295.225439,1378.971896,-296.082377,9622.677246
295.225747,-383.047749,-2294.638420,11399.171507
295.226055,-2221.676944,-3256.906145,12213.398043
295.226363,-3370.820191,-3256.906145,12065.356855
295.226672,-3677.258390,-1554.432478,12435.459826
295.226980,-1762.019645,-962.267725,11103.089130
295.227288,-919.314598,1184.329507,9992.780217
295.227596,1149.143247,1924.535449,8808.450710
295.227904,3140.991542,2516.700203,7105.977043
295.228212,3140.991542,2146.597232,6217.729913
295.228520,3064.381992,888.247130,7698.141797
295.228828,2374.896044,-666.185348,8734.430116
295.229136,76.609550,-1702.473667,10066.800811
295.229444,-536.266849,-2072.576638,10510.924376
295.229752,-306.438199,-1480.411884,9622.677246
295.230060,76.609550,-444.123565,9770.718434
295.230368,1455.581446,-0.000000,9252.574275
295.230676,2681.334243,962.267725,8142.265362
295.230985,3677.258390,1702.473667,7550.100608
295.231293,3447.429741,888.247130,6957.935855
295.231601,2068.457845,-0.000000,8512.368333
295.231908,689.485948,-1110.308913,10288.862594
295.232216,-1225.752797,-2368.659014,11251.130318
295.232524,-3140.991542,-2590.720797,11917.315666
295.232832,-3600.648841,-2368.659014,12361.439231
295.233140,-3064.381992,-962.267725,11843.295072
295.233448,-1762.019645,962.267725,10807.006753
295.233756,-153.219100,1702.473667,9548.656652
295.234064,1378.971896,2294.638420,7624.121203
295.234372,2911.162892,2886.803174,6661.853478
295.234680,2451.505594,2072.576638,6883.915261
295.234988,2145.067394,666.185348,8882.471304
295.235296,1072.533697,-518.144159,9844.739029
295.235604,-383.047749,-888.247130,10436.903782
295.235912,-689.485948,-888.247130,10881.027347
295.236220,-383.047749,-0.000000,10362.883188
295.236528,536.266849,1184.329507,10214.842000
295.236835,2068.457845,1776.494261,9104.533087
295.237143,3447.429741,2368.659014,7772.162391
295.237451,2987.772442,2368.659014,7624.121203
295.237759,3217.601092,1184.329507,8660.409521
295.238067,1762.019645,518.144159,9400.615463
295.238375,0.000000,-1628.453072,10881.027347
295.238683,-1532.190996,-2516.700203,12583.501014
295.238991,-2987.772442,-2812.782580,12361.439231
295.239299,-3217.601092,-1628.453072,12805.562797
295.239607,-1685.410096,-296.082377,11547.212695
295.239915,-306.438199,1554.432478,10436.903782
295.240223,1991.848295,2072.576638,8512.368333
295.240531,2451.505594,3404.947333,6217.729913
295.240839,3064.381992,2294.638420,7179.997637
295.241147,3217.601092,1258.350101,7994.224174
295.241454,1915.238745,222.061783,8734.430116
295.241762,536.266849,-1184.329507,10288.862594
295.242070,-383.047749,-1702.473667,11621.233289
295.242378,-536.266849,-1036.288319,10881.027347
295.242686,0.000000,222.061783,9622.677246
295.242994,1455.581446,1110.308913,9918.759623
295.243302,2298.286494,1776.494261,8586.388927
295.243610,3370.820191,1998.556043,7698.141797
295.243918,3140.991542,2220.617826,7772.162391
295.244226,3294.210641,-74.020594,8142.265362
295.244534,459.657299,-444.123565,8290.306550
295.244842,-995.924147,-2516.700203,11177.109724
295.245150,-2145.067394,-3108.864956,11843.295072
295.245458,-3370.820191,-1998.556043,11917.315666
295.245766,-2911.162892,-1628.453072,11843.295072
295.246074,-766.095498,-0.000000,11029.068536
295.246381,383.047749,1258.350101,9696.697840
295.246689,1225.752797,2738.761985,7772.162391
295.246997,3370.820191,2220.617826,7254.018232
295.247305,2757.943793,2146.597232,6513.812290
295.247613,1991.848295,814.226536,8142.265362
295.247921,1532.190996,-296.082377,9622.677246
295.248229,0.000000,-2072.576638,10140.821405
295.248537,-766.095498,-1702.473667,10362.883188
295.248845,-153.219100,-962.267725,10584.944971
295.249153,919.314598,148.041188,10362.883188
295.249461,766.095498,666.185348,9400.615463
295.249769,2451.505594,1258.350101,8512.368333
295.250077,3294.210641,1332.370696,7698.141797
295.250385,2681.334243,962.267725,7624.121203
295.250693,1838.629195,-444.123565,9252.574275
295.251000,306.438199,-1332.370696,11103.089130
295.251308,-1378.971896,-2220.617826,11399.171507
295.251616,-2987.772442,-3330.926739,11547.212695
295.251924,-3064.381992,-2146.597232,12287.418637
295.252232,-2451.505594,-814.226536,11251.130318
295.252540,-842.705048,1184.329507,9918.759623
295.252848,1149.143247,2072.576638,8808.450710
295.253156,2451.505594,2368.659014,7402.059420
295.253464,2604.724693,2590.720797,6291.750507
295.253772,2911.162892,1628.453072,7328.038826
295.254080,2451.505594,666.185348,8882.471304
295.254388,612.876398,-518.144159,9696.697840
295.254696,-689.485948,-1554.432478,10881.027347
295.255004,-842.705048,-1036.288319,10510.924376
295.255312,-459.657299,-0.000000,10362.883188
295.255620,1149.143247,740.205942,9696.697840
295.255927,2298.286494,1480.411884,8956.491898
295.256235,2528.115143,2072.576638,8216.285956
295.256543,3753.867940,1998.556043,7772.162391
295.256851,2757.943793,1036.288319,7994.224174
295.257159,1455.581446,-0.000000,9548.656652
295.257467,0.000000,-1258.350101,11547.212695
295.257775,-1991.848295,-2368.659014,12361.439231
295.258083,-2451.505594,-2664.741391,12805.562797
295.258391,-3064.381992,-1480.411884,11843.295072
295.258699,-1685.410096,-74.020594,11695.253884
295.259007,-383.047749,1184.329507,10362.883188
295.259315,1149.143247,2368.659014,8438.347739
295.259623,2451.505594,2220.617826,8290.306550
295.259931,3064.381992,2368.659014,7179.997637
295.260239,2374.896044,1184.329507,7920.203579
295.260546,919.314598,-0.000000,9030.512492
295.260854,1302.362347,-1258.350101,10732.986159
295.261162,-1072.533697,-1554.432478,10584.944971
295.261470,-1532.190996,-962.267725,10584.944971
295.261778,76.609550,-0.000000,10955.047942
295.262086,1302.362347,1480.411884,9326.594869
295.262394,2068.457845,1776.494261,9474.636058
295.262702,3753.867940,2072.576638,7179.997637
295.263010,3600.648841,1332.370696,7105.977043
295.263318,2221.676944,296.082377,8290.306550
295.263626,919.314598,-1184.329507,9844.739029
295.263934,-1302.362347,-2664.741391,12287.418637
295.264242,-3140.991542,-3182.885551,12583.501014
295.264550,-2987.772442,-2590.720797,12361.439231
295.264858,-2911.162892,-1258.350101,11621.233289
295.265166,-1378.971896,222.061783,11103.089130
295.265473,689.485948,1110.308913,8956.491898
295.265781,2528.115143,3034.844362,7550.100608
295.266089,3370.820191,2516.700203,6661.853478
295.266397,3140.991542,2072.576638,6291.750507
295.266705,2528.115143,1406.391290,7920.203579
295.267013,1685.410096,148.041188,9178.553681
295.267321,306.438199,-814.226536,9696.697840
295.267629,-689.485948,-888.247130,10584.944971
295.267937,-536.266849,-962.267725,10732.986159
295.268245,-229.828649,-74.020594,9548.656652
295.268553,1608.800546,814.226536,9844.739029
295.268861,2374.896044,1776.494261,8808.450710
295.269169,2911.162892,1924.535449,7179.997637
295.269477,2911.162892,666.185348,7846.182985
295.269785,1915.238745,-740.205942,9104.533087
295.270093,76.609550,-1332.370696,10955.047942
295.270400,-1608.800546,-2960.823768,11843.295072
295.270708,-2757.943793,-3330.926739,12361.439231
295.271016,-2757.943793,-2146.597232,11621.233289
295.271324,-1915.238745,-296.082377,10436.903782
295.271632,-766.095498,1110.308913,9622.677246
295.271940,1302.362347,1998.556043,8364.327145
295.272248,2451.505594,3034.844362,7254.018232
295.272556,3064.381992,2812.782580,5699.585753
295.272864,3447.429741,1702.473667,7179.997637
295.273172,1838.629195,814.226536,8364.327145
295.273480,1149.143247,-740.205942,10436.903782
295.273788,-612.876398,-1406.391290,10510.924376
295.274096,-842.705048,-1036.288319,10436.903782
295.274404,-1072.533697,-148.041188,10362.883188
295.274712,459.657299,592.164754,10362.883188
295.275019,1302.362347,1406.391290,9548.656652
295.275327,2451.505594,2072.576638,7402.059420
295.275635,3064.381992,888.247130,8216.285956
295.275943,1915.238745,1258.350101,8808.450710
295.276251,76.609550,-962.267725,10288.862594
295.276559,-1225.752797,-2072.576638,11843.295072
295.276867,-2451.505594,-3330.926739,12287.418637
295.277175,-3447.429741,-2664.741391,12435.459826
295.277483,-3600.648841,-1702.473667,12065.356855
295.277791,-1608.800546,-0.000000,11177.109724
295.278099,0.000000,2072.576638,9548.656652
295.278407,2068.457845,3034.844362,7550.100608
295.278715,4136.915689,3108.864956,6587.832884
295.279023,3677.258390,3330.926739,6217.729913
295.279331,2834.553343,1998.556043,7920.203579
295.279639,1991.848295,888.247130,8956.491898
295.279946,153.219100,-592.164754,10214.842000
295.280254,-1149.143247,-1480.411884,10881.027347
295.280562,-153.219100,-444.123565,11251.130318
295.280870,-306.438199,296.082377,10436.903782
295.281178,0.000000,814.226536,10214.842000
295.281486,2221.676944,1480.411884,9844.739029
295.281794,3217.601092,1998.556043,7698.141797
295.282102,2834.553343,1924.535449,7402.059420
295.282410,2145.067394,-74.020594,9178.553681
295.282718,1378.971896,-962.267725,10955.047942
295.283026,-1455.581446,-2664.741391,11917.315666
295.283334,-2604.724693,-3627.009116,12583.501014
295.283642,-3294.210641,-2812.782580,12731.542202
295.283950,-3064.381992,-1258.350101,12065.356855
295.284258,-1608.800546,518.144159,10881.027347
295.284565,995.924147,1554.432478,9770.718434
295.284873,2528.115143,2516.700203,7476.080014
295.285181,3140.991542,2590.720797,6143.709319
295.285489,4290.134789,1998.556043,7105.977043
295.285797,3217.601092,740.205942,7772.162391
295.286105,1608.800546,-148.041188,8808.450710
295.286413,689.485948,-814.226536,10066.800811
295.286721,0.000000,-1036.288319,9844.739029
295.287029,-689.485948,-0.000000,9548.656652
295.287337,459.657299,888.247130,9918.759623
295.287645,2068.457845,1702.473667,9474.636058
295.287953,2911.162892,1702.473667,7698.141797
295.288261,3064.381992,2072.576638,7476.080014
295.288569,3064.381992,444.123565,8216.285956
295.288877,1072.533697,-592.164754,9400.615463
295.289185,-306.438199,-2442.679609,11399.171507
295.289492,-2221.676944,-3627.009116,12879.583391
295.289800,-3294.210641,-3552.988522,12879.583391
295.290108,-3294.210641,-1998.556043,12657.521608
295.290416,-1685.410096,-370.102971,11769.274478
295.290724,0.000000,444.123565,9548.656652
295.291032,1991.848295,2442.679609,7698.141797
295.291340,2911.162892,2738.761985,6735.874072
295.291648,3600.648841,1998.556043,6809.894666
295.291956,3370.820191,1554.432478,7105.977043
295.292264,2298.286494,-0.000000,8142.265362
295.292572,842.705048,-1406.391290,9622.677246
295.292880,-383.047749,-1776.494261,10584.944971
295.293188,-1685.410096,-1184.329507,10510.924376
295.293496,-536.266849,-0.000000,10584.944971
295.293804,842.705048,1628.453072,9548.656652
295.294111,1762.019645,2664.741391,8956.491898
295.294419,3217.601092,2294.638420,8216.285956
295.294727,3600.648841,2738.761985,7624.121203
295.295035,2528.115143,1258.350101,8808.450710
295.295343,1072.533697,-740.205942,10362.883188
295.295651,-919.314598,-2294.638420,11621.233289
295.295959,-3294.210641,-2886.803174,12953.603985
295.296267,-4443.353888,-2516.700203,12879.583391
295.296575,-3294.210641,-1554.432478,12509.480420
295.296883,-2374.896044,-0.000000,11695.253884
295.297191,-383.047749,1406.391290,10362.883188
295.297499,1685.410096,2220.617826,8586.388927
295.297807,3140.991542,2368.659014,6957.935855
295.298115,3064.381992,2294.638420,6883.915261
295.298423,3294.210641,1110.308913,7550.100608
295.298731,2374.896044,-0.000000,8808.450710
295.299038,229.828649,-592.164754,9548.656652
295.299346,-153.219100,-1110.308913,10140.821405
295.299654,-229.828649,-222.061783,10066.800811
295.299962,306.438199,962.267725,9474.636058
295.300270,1608.800546,1184.329507,9474.636058
295.300578,2604.724693,1998.556043,8586.388927
295.300886,2681.334243,1776.494261,7772.162391
295.301194,2681.334243,962.267725,7920.203579
295.301502,1762.019645,-518.144159,9178.553681
295.301810,-536.266849,-2220.617826,11621.233289
295.302118,-2298.286494,-3701.029710,13027.624579
295.302426,-3447.429741,-3552.988522,13175.665768
295.302734,-3064.381992,-2146.597232,12361.439231
295.303042,-2068.457845,-740.205942,11695.253884
295.303350,0.000000,1258.350101,9622.677246
295.303658,1915.238745,2368.659014,8438.347739
295.303965,3600.648841,3256.906145,6661.853478
295.304273,4136.915689,3478.967927,5551.544565
295.304581,3983.696590,2294.638420,6439.791695
295.304889,4443.353888,-0.000000,9400.615463
295.305197,229.828649,-74.020594,7550.100608
295.305505,229.828649,-1924.535449,10881.027347
295.305813,-459.657299,-1702.473667,11621.233289
295.306121,-1532.190996,370.102971,9326.594869
295.306429,306.438199,740.205942,11325.150913
295.306737,1762.019645,2146.597232,8512.368333
295.307045,2911.162892,2294.638420,8512.368333
295.307353,2834.553343,1998.556043,7179.997637
295.307661,2528.115143,1110.308913,8290.306550
295.307969,459.657299,-962.267725,10807.006753
295.308277,-1378.971896,-2442.679609,11399.171507
295.308584,-2911.162892,-3552.988522,13397.727550
295.308892,-3524.039291,-3775.050304,12731.542202
295.309200,-3370.820191,-2146.597232,11843.295072
295.309508,-1685.410096,-518.144159,10881.027347
295.309816,612.876398,518.144159,9474.636058
295.310124,1991.848295,1924.535449,7846.182985
295.310432,3907.087040,3256.906145,5403.503377
295.310740,5439.278036,2590.720797,6143.709319
295.311048,3524.039291,2294.638420,5995.668130
295.311356,3600.648841,222.061783,8142.265362
295.311664,1225.752797,-222.061783,9178.553681
295.311972,-689.485948,-666.185348,10658.965565
295.312280,-995.924147,-444.123565,10881.027347
295.312588,-536.266849,1036.288319,11029.068536
295.312896,229.828649,1702.473667,10066.800811
295.313204,919.314598,2368.659014,9104.533087
295.313511,2068.457845,1998.556043,9030.512492
295.313819,1302.362347,666.185348,8882.471304
295.314127,0.000000,-592.164754,10362.883188
295.314435,-1455.581446,-1924.535449,12657.521608
295.314743,-3217.601092,-3849.070898,12879.583391
295.315051,-3830.477490,-3849.070898,13323.706956
295.315359,-3983.696590,-3182.885551,13027.624579
295.315667,-2604.724693,-1332.370696,11843.295072
295.315975,-919.314598,666.185348,9992.780217
295.316283,1838.629195,1850.514855,8512.368333
295.316591,3294.210641,3330.926739,6069.688724
295.316899,4519.963438,3701.029710,5403.503377
295.317207,5592.497135,3034.844362,5699.585753
295.317515,4443.353888,2368.659014,6735.874072
295.317823,3064.381992,518.144159,7698.141797
295.318130,1378.971896,-444.123565,9030.512492
295.318438,153.219100,-370.102971,9326.594869
295.318746,-612.876398,-74.020594,10140.821405
295.319054,0.000000,518.144159,10584.944971
295.319362,919.314598,1628.453072,9918.759623
295.319670,2221.676944,1258.350101,8882.471304
295.319978,2068.457845,1258.350101,7772.162391
295.320286,1991.848295,-222.061783,9474.636058
295.320594,0.000000,-1924.535449,11547.212695
295.320902,-1915.238745,-3404.947333,12953.603985
295.321210,-3370.820191,-4367.215058,13841.851115
295.321518,-4443.353888,-4367.215058,13841.851115
295.321826,-3370.820191,-2960.823768,12879.583391
295.322134,-1838.629195,-888.247130,11695.253884
295.322442,0.000000,1036.288319,9992.780217
295.322750,1915.238745,2146.597232,7994.224174
295.323057,3753.867940,3330.926739,6069.688724
295.323365,5209.449386,3330.926739,5625.565159
295.323673,5209.449386,3034.844362,5625.565159
295.323981,4443.353888,2368.659014,6883.915261
295.324289,2911.162892,-0.000000,7994.224174
295.324597,1455.581446,-74.020594,9030.512492
295.324905,306.438199,444.123565,9178.553681
295.325213,0.000000,1258.350101,9474.636058
295.325521,1225.752797,1776.494261,9696.697840
295.325829,2298.286494,1998.556043,9104.533087
295.326137,2451.505594,1850.514855,8364.327145
295.326445,2145.067394,814.226536,8364.327145
295.326753,995.924147,-444.123565,9770.718434
295.327061,0.000000,-2146.597232,12731.542202
295.327369,-2681.334243,-4071.132681,13841.851115
295.327676,-4366.744339,-3997.112087,14137.933492
295.327984,-4749.792088,-3552.988522,14063.912898
295.328292,-3677.258390,-1924.535449,12435.459826
295.328600,-1991.848295,-0.000000,11399.171507
295.328908,612.876398,1332.370696,9770.718434
295.329216,2451.505594,2294.638420,7624.121203
295.329524,3830.477490,3034.844362,6143.709319
295.329832,4290.134789,2960.823768,6217.729913
295.330140,3983.696590,2368.659014,6661.853478
295.330448,2834.553343,1184.329507,7624.121203
295.330756,1532.190996,-222.061783,8808.450710
295.331064,76.609550,-296.082377,8808.450710
295.331372,-766.095498,-74.020594,10214.842000
295.331680,612.876398,518.144159,9918.759623
295.331988,1762.019645,1702.473667,9474.636058
295.332296,1838.629195,1332.370696,9030.512492
295.332603,2145.067394,1258.350101,7994.224174
295.332911,1532.190996,740.205942,8290.306550
295.333219,383.047749,-1258.350101,10584.944971
295.333527,-1225.752797,-2516.700203,12213.398043
295.333835,-3370.820191,-3701.029710,13767.830521
295.334143,-4060.306139,-4515.256246,14211.954086
295.334451,-4213.525239,-2664.741391,12657.521608
295.334759,-2834.553343,-1332.370696,11991.336260
295.335067,-842.705048,-0.000000,10510.924376
295.335375,995.924147,2368.659014,8512.368333
295.335683,3064.381992,2738.761985,6957.935855
295.335991,4366.744339,3404.947333,5329.482782
295.336299,4596.572988,2368.659014,6365.771101
295.336607,4136.915689,1406.391290,6661.853478
295.336915,3064.381992,444.123565,7550.100608
295.337222,1225.752797,-888.247130,9326.594869
295.337530,229.828649,-740.205942,9770.718434
295.337838,-153.219100,-0.000000,10066.800811
295.338146,612.876398,1036.288319,9696.697840
295.338454,1838.629195,1702.473667,9104.533087
295.338762,2451.505594,1554.432478,8512.368333
295.339070,2681.334243,1184.329507,7476.080014
295.339378,2298.286494,-0.000000,8660.409521
295.339686,229.828649,-1036.288319,10584.944971
295.339994,-1455.581446,-2960.823768,12657.521608
295.340302,-3370.820191,-3775.050304,13249.686362
295.340610,-3447.429741,-3330.926739,13101.645173
295.340918,-3677.258390,-1776.494261,12139.377449
295.341226,-2451.505594,-740.205942,11991.336260
295.341533,0.000000,666.185348,10584.944971
295.341841,1072.533697,2294.638420,8068.244768
295.342149,3370.820191,2886.803174,7328.038826
295.342457,4519.963438,3182.885551,5995.668130
295.342765,4366.744339,1850.514855,7105.977043
295.343073,3524.039291,740.205942,7698.141797
295.343381,1838.629195,-0.000000,9104.533087
295.343689,536.266849,-888.247130,10214.842000
295.343997,153.219100,296.082377,9326.594869
295.344305,1149.143247,1184.329507,10288.862594
295.344613,1225.752797,1258.350101,9326.594869
295.344921,2221.676944,2294.638420,8364.327145
295.345229,2757.943793,2146.597232,8068.244768
295.345536,2221.676944,1554.432478,8364.327145
295.345844,1225.752797,-0.000000,9474.636058
295.346152,-919.314598,-1332.370696,11399.171507
295.346460,-2451.505594,-3108.864956,13841.851115
295.346768,-4290.134789,-4071.132681,13545.768739
295.347076,-4136.915689,-3108.864956,12879.583391
295.347384,-4060.306139,-1702.473667,13027.624579
295.347692,-2068.457845,222.061783,10881.027347
295.348000,-229.828649,1480.411884,9844.739029
295.348308,1991.848295,2368.659014,8364.327145
295.348616,3983.696590,1998.556043,6217.729913
295.348924,4519.963438,2516.700203,6587.832884
295.349231,4213.525239,740.205942,7402.059420
295.349539,2451.505594,-0.000000,8512.368333
295.349847,1149.143247,-666.185348,9844.739029
295.350155,76.609550,-888.247130,9696.697840
295.350463,0.000000,-0.000000,9474.636058
295.350771,1532.190996,1332.370696,9474.636058
295.351079,2911.162892,2368.659014,8808.450710
295.351387,3830.477490,2738.761985,7179.997637
295.351695,4290.134789,2368.659014,6439.791695
295.352003,2604.724693,1554.432478,7254.018232
295.352311,1149.143247,-0.000000,9844.739029
295.352619,-1072.533697,-1850.514855,12065.356855
295.352927,-3830.477490,-3478.967927,13915.871710
295.353234,-5209.449386,-4293.194464,14804.118840
295.353542,-4979.620737,-3330.926739,14211.954086
295.353850,-4290.134789,-1554.432478,13027.624579
295.354158,-3140.991542,-592.164754,11843.295072
295.354466,76.609550,1036.288319,9474.636058
295.354774,1915.238745,2220.617826,7698.141797
295.355082,3600.648841,2738.761985,6365.771101
295.355390,4136.915689,2072.576638,6365.771101
295.355698,4060.306139,1184.329507,7698.141797
295.356006,2681.334243,-148.041188,7772.162391
295.356314,1455.581446,-592.164754,9104.533087
295.356622,842.705048,-740.205942,9474.636058
295.356929,612.876398,1036.288319,9400.615463
295.357237,1915.238745,1776.494261,8956.491898
295.357545,2757.943793,2294.638420,8586.388927
295.357853,3830.477490,2294.638420,7994.224174
295.358161,3677.258390,1998.556043,7031.956449
295.358469,2298.286494,962.267725,8882.471304
295.358777,1378.971896,-1406.391290,10584.944971
295.359085,-1302.362347,-2146.597232,11695.253884
295.359393,-3294.210641,-3849.070898,13101.645173
295.359701,-4443.353888,-3404.947333,13249.686362
295.360009,-4673.182538,-2146.597232,12657.521608
295.360317,-3447.429741,-740.205942,12287.418637
295.360625,-766.095498,518.144159,10584.944971
295.360932,536.266849,1924.535449,8512.368333
295.361240,2757.943793,1998.556043,7550.100608
295.361548,3830.477490,1924.535449,6069.688724
295.361856,3294.210641,1554.432478,7550.100608
295.362164,2528.115143,-222.061783,8734.430116
295.362472,1072.533697,-666.185348,9178.553681
295.362780,153.219100,-1184.329507,9696.697840
295.363088,0.000000,-148.041188,9844.739029
295.363396,1149.143247,1036.288319,9326.594869
295.363704,2911.162892,2368.659014,8660.409521
295.364012,3064.381992,2368.659014,7328.038826
295.364320,3677.258390,2886.803174,6735.874072
295.364627,3370.820191,1924.535449,7179.997637
295.364935,1838.629195,592.164754,9474.636058
295.365243,-153.219100,-1110.308913,10955.047942
295.365551,-2068.457845,-2516.700203,12953.603985
295.365859,-3677.258390,-3627.009116,13767.830521
295.366167,-4213.525239,-2960.823768,13175.665768
295.366475,-3140.991542,-2516.700203,12435.459826
295.366783,-2681.334243,-74.020594,11473.192101
295.367091,-153.219100,1184.329507,10066.800811
295.367399,1762.019645,2072.576638,7994.224174
295.367707,2834.553343,2442.679609,7105.977043
295.368015,3983.696590,1554.432478,7179.997637
295.368323,3447.429741,888.247130,7846.182985
295.368630,2604.724693,-814.226536,9030.512492
295.368938,842.705048,-888.247130,9474.636058
295.369246,229.828649,-592.164754,10658.965565
295.369554,76.609550,222.061783,9992.780217
295.369862,1072.533697,1406.391290,9400.615463
295.370170,2911.162892,2146.597232,8290.306550
295.370478,2911.162892,3108.864956,6735.874072
295.370786,3370.820191,2294.638420,7254.018232
295.371094,2834.553343,1184.329507,7994.224174
295.371402,536.266849,-518.144159,9696.697840
295.371710,-1072.533697,-2368.659014,12065.356855
295.372018,-3217.601092,-3108.864956,12435.459826
295.372325,-4366.744339,-3330.926739,13471.748144
295.372633,-4366.744339,-2590.720797,12879.583391
295.372941,-2911.162892,-740.205942,11991.336260
295.373249,-995.924147,518.144159,11769.274478
295.373557,689.485948,1258.350101,8882.471304
295.373865,2451.505594,2442.679609,7476.080014
295.374173,3600.648841,2812.782580,6291.750507
295.374481,3370.820191,1628.453072,7105.977043
295.374789,3140.991542,444.123565,7846.182985
295.375097,1838.629195,-148.041188,8734.430116
295.375405,995.924147,-1110.308913,10510.924376
295.375713,383.047749,-222.061783,9918.759623
295.376021,1225.752797,962.267725,9770.718434
295.376328,1149.143247,1776.494261,9326.594869
295.376636,3140.991542,2368.659014,7550.100608
295.376944,3753.867940,3182.885551,7550.100608
295.377252,3064.381992,1702.473667,7846.182985
295.377560,2374.896044,962.267725,8512.368333
295.377868,766.095498,-1036.288319,11251.130318
295.378176,-1762.019645,-2960.823768,12509.480420
295.378484,-3217.601092,-3552.988522,12953.603985
295.378792,-4673.182538,-3182.885551,13397.727550
295.379100,-3830.477490,-2294.638420,12953.603985
295.379408,-2604.724693,-222.061783,11029.068536
295.379716,-536.266849,1258.350101,10214.842000
295.380023,1838.629195,1776.494261,9178.553681
295.380331,3217.601092,3256.906145,6291.750507
295.380639,3600.648841,2072.576638,7105.977043
295.380947,3524.039291,888.247130,7476.080014
295.381255,2451.505594,-148.041188,8438.347739
295.381563,766.095498,-962.267725,10140.821405
295.381871,-153.219100,-888.247130,9770.718434
295.382179,612.876398,-74.020594,9844.739029
295.382487,919.314598,1184.329507,9400.615463
295.382795,2451.505594,1998.556043,8660.409521
295.383103,3524.039291,2368.659014,7254.018232
295.383411,3677.258390,2294.638420,7105.977043
295.383719,3294.210641,1702.473667,8068.244768
295.384026,1685.410096,-0.000000,8956.491898
295.384334,-229.828649,-1702.473667,11695.253884
295.384642,-2681.334243,-3627.009116,12509.480420
295.384950,-3677.258390,-3404.947333,12879.583391
295.385258,-4519.963438,-3330.926739,13101.645173
295.385566,-3140.991542,-1554.432478,12435.459826
295.385874,-2221.676944,222.061783,11103.089130
295.386182,612.876398,1554.432478,9326.594869
295.386490,2451.505594,2220.617826,7254.018232
295.386798,3600.648841,2368.659014,5699.585753
295.387106,3524.039291,1480.411884,6957.935855
295.387414,2604.724693,444.123565,7994.224174
295.387721,1608.800546,-962.267725,8882.471304
295.388029,0.000000,-1480.411884,10214.842000
295.388337,-229.828649,-740.205942,10584.944971
295.388645,383.047749,-0.000000,9992.780217
295.388953,1072.533697,1850.514855,9474.636058
295.389261,2834.553343,1998.556043,8882.471304
295.389569,3370.820191,2590.720797,7179.997637
295.389877,3753.867940,2516.700203,7328.038826
295.390185,2834.553343,888.247130,8512.368333
295.390493,919.314598,-0.000000,9918.759623
295.390801,-995.924147,-1924.535449,12287.418637
295.391109,-3064.381992,-3108.864956,12287.418637
295.391417,-3830.477490,-2886.803174,13027.624579
295.391724,-4673.182538,-2220.617826,12805.562797
295.392032,-3294.210641,-222.061783,12287.418637
295.392340,-919.314598,962.267725,11029.068536
295.392648,612.876398,2072.576638,8438.347739
295.392956,2834.553343,2886.803174,7105.977043
295.393264,3983.696590,2220.617826,6217.729913
295.393572,2681.334243,1184.329507,7772.162391
295.393880,1838.629195,-74.020594,8882.471304
295.394188,536.266849,-962.267725,9992.780217
295.394496,-612.876398,-1258.350101,10510.924376
295.394804,-612.876398,-518.144159,10214.842000
295.395112,689.485948,444.123565,9918.759623
295.395419,2374.896044,1998.556043,8512.368333
295.395727,2911.162892,2516.700203,7328.038826
295.396035,4213.525239,2590.720797,6439.791695
295.396343,3907.087040,1998.556043,7105.977043
295.396651,2298.286494,518.144159,8290.306550
295.396959,612.876398,-1110.308913,10288.862594
295.397267,-1762.019645,-2960.823768,12287.418637
295.397575,-3600.648841,-3923.091493,12657.521608
295.397883,-3524.039291,-3330.926739,12953.603985
295.398191,-3370.820191,-1776.494261,12731.542202
295.398499,-2068.457845,-0.000000,11769.274478
295.398807,459.657299,1406.391290,9770.718434
295.399115,2298.286494,2368.659014,7476.080014
295.399422,3217.601092,2368.659014,6513.812290
295.399730,3907.087040,1554.432478,6513.812290
295.400038,2987.772442,888.247130,8586.388927
295.400346,1532.190996,-962.267725,9400.615463
295.400654,459.657299,-1184.329507,10510.924376
295.400962,-612.876398,-1332.370696,10955.047942
295.401270,0.000000,222.061783,9918.759623
295.401578,919.314598,1406.391290,9770.718434
295.401886,2911.162892,2368.659014,8290.306550
295.402194,3830.477490,2368.659014,7550.100608
295.402502,3294.210641,2738.761985,6661.853478
295.402810,3294.210641,1406.391290,7624.121203
295.403117,1608.800546,592.164754,9104.533087
295.403425,-229.828649,-1628.453072,11103.089130
295.403733,-1915.238745,-3034.844362,12435.459826
295.404041,-4213.525239,-2886.803174,12953.603985
295.404349,-3983.696590,-2368.659014,13619.789333
295.404657,-2987.772442,-1036.288319,12287.418637
295.404965,-995.924147,1110.308913,10881.027347
295.405273,919.314598,1332.370696,9326.594869
295.405581,2068.457845,2368.659014,6957.935855
295.405889,3064.381992,2960.823768,7179.997637
295.406197,3140.991542,1184.329507,7772.162391
295.406505,1685.410096,962.267725,7994.224174
295.406813,766.095498,-888.247130,10214.842000
295.407120,0.000000,-1332.370696,10732.986159
295.407428,-689.485948,-222.061783,10510.924376
295.407736,0.000000,-0.000000,10881.027347
295.408044,995.924147,1258.350101,9548.656652
295.408352,2374.896044,2072.576638,8438.347739
295.408660,3064.381992,2220.617826,7550.100608
295.408968,3064.381992,2072.576638,7624.121203
295.409276,2451.505594,592.164754,8142.265362
295.409584,1072.533697,-888.247130,9844.739029
295.409892,-1225.752797,-2442.679609,11695.253884
295.410200,-3140.991542,-3330.926739,12731.542202
295.410508,-4136.915689,-2368.659014,13323.706956
295.410815,-3907.087040,-1554.432478,12065.356855
295.411123,-2528.115143,-0.000000,11473.192101
295.411431,-536.266849,962.267725,9770.718434
295.411739,995.924147,2442.679609,7624.121203
295.412047,2604.724693,1924.535449,7550.100608
295.412355,3064.381992,1554.432478,7105.977043
295.412663,2604.724693,370.102971,7994.224174
295.412971,306.438199,-814.226536,9400.615463
295.413279,383.047749,-1628.453072,10955.047942
295.413587,-536.266849,-1184.329507,10066.800811
295.413895,-766.095498,-296.082377,10140.821405
295.414203,1838.629195,370.102971,9918.759623
295.414511,1685.410096,2442.679609,7402.059420
295.414818,2987.772442,1850.514855,7994.224174
295.415126,4596.572988,2146.597232,6513.812290
295.415434,3677.258390,1998.556043,6809.894666
295.415742,2451.505594,296.082377,9104.533087
295.416050,842.705048,-1406.391290,10066.800811
295.416358,-1762.019645,-3034.844362,12731.542202
295.416666,-3830.477490,-3627.009116,13027.624579
295.416974,-3753.867940,-2294.638420,12435.459826
295.417282,-2604.724693,-1110.308913,12435.459826
295.417590,-1378.971896,518.144159,10436.903782
295.417898,1302.362347,2072.576638,8734.430116
295.418206,2221.676944,2368.659014,7476.080014
295.418513,2987.772442,2516.700203,6439.791695
295.418821,3524.039291,1850.514855,6809.894666
295.419129,2604.724693,444.123565,8586.388927
295.419437,229.828649,-1036.288319,9992.780217
295.419745,-306.438199,-1702.473667,11029.068536
295.420053,-229.828649,-1332.370696,11103.089130
295.420361,-612.876398,-444.123565,10732.986159
295.420669,536.266849,1036.288319,9474.636058
295.420977,2451.505594,2294.638420,9696.697840
295.421285,3677.258390,2516.700203,7698.141797
295.421593,4213.525239,2516.700203,6365.771101
295.421901,3907.087040,2146.597232,8660.409521
295.422209,2681.334243,296.082377,9548.656652
295.422516,-153.219100,-1406.391290,11325.150913
295.422824,-1838.629195,-2812.782580,12509.480420
295.423132,-3064.381992,-2590.720797,12731.542202
295.423440,-3677.258390,-1776.494261,11843.295072
295.423748,-2374.896044,-148.041188,11621.233289
295.424056,-306.438199,1332.370696,10288.862594
295.424364,1378.971896,2368.659014,8882.471304
295.424672,3217.601092,2960.823768,7105.977043
295.424980,2987.772442,2516.700203,6957.935855
295.425288,2528.115143,1184.329507,7994.224174
295.425596,1455.581446,296.082377,9326.594869
295.425904,-229.828649,-962.267725,10732.986159
295.426211,-766.095498,-1628.453072,11325.150913
295.426519,-995.924147,-1110.308913,10584.944971
295.426827,-536.266849,222.061783,10658.965565
295.427135,1072.533697,1036.288319,10436.903782
295.427443,2068.457845,1998.556043,8956.491898
295.427751,2987.772442,2368.659014,7846.182985
295.428059,3217.601092,2072.576638,7254.018232
295.428367,2374.896044,962.267725,7920.203579
295.428675,1302.362347,-666.185348,9844.739029
295.428983,-995.924147,-2294.638420,11325.150913
295.429291,-2451.505594,-2960.823768,12361.439231
295.429599,-3217.601092,-2738.761985,12435.459826
295.429907,-2451.505594,-1406.391290,11103.089130
295.430214,-1072.533697,370.102971,10510.924376
295.430522,689.485948,1628.453072,9400.615463
295.430830,2298.286494,2516.700203,7254.018232
295.431138,2911.162892,2442.679609,6143.709319
295.431446,2911.162892,1628.453072,6883.915261
295.431754,2451.505594,814.226536,8586.388927
295.432062,1378.971896,-666.185348,9474.636058
295.432370,-76.609550,-2072.576638,10658.965565
295.432678,-1149.143247,-2072.576638,10510.924376
295.432986,-1149.143247,-1110.308913,10584.944971
295.433294,-229.828649,-0.000000,10436.903782
295.433602,842.705048,888.247130,9770.718434
295.433910,2528.115143,1406.391290,8438.347739
295.434218,2987.772442,1554.432478,8216.285956
295.434526,2681.334243,740.205942,7624.121203
295.434834,1225.752797,-666.185348,8512.368333
295.435142,0.000000,-1924.535449,10881.027347
295.435450,-1685.410096,-3701.029710,12287.418637
295.435758,-2911.162892,-2886.803174,11769.274478
295.436066,-3217.601092,-1850.514855,11843.295072
295.436374,-1378.971896,-74.020594,11251.130318
295.436682,153.219100,1628.453072,9178.553681
295.436990,1991.848295,3182.885551,7846.182985
295.437298,3600.648841,3182.885551,6291.750507
295.437606,3907.087040,3182.885551,5477.523971
295.437914,3064.381992,2072.576638,7179.997637
295.438222,2451.505594,518.144159,8882.471304
295.438530,459.657299,-666.185348,10214.842000
295.438838,-536.266849,-1998.556043,12139.377449
295.439146,-919.314598,-1702.473667,11473.192101
295.439454,-1608.800546,-148.041188,11399.171507
295.439762,-536.266849,740.205942,10955.047942
295.440070,1838.629195,1924.535449,9770.718434
295.440378,2681.334243,2368.659014,8364.327145
295.440686,3140.991542,2072.576638,7994.224174
295.440994,2528.115143,1258.350101,8290.306550
295.441302,1455.581446,-296.082377,10066.800811
295.441610,-229.828649,-2146.597232,11843.295072
295.441918,-2068.457845,-3182.885551,12509.480420
295.442226,-3524.039291,-2886.803174,12953.603985
