#time,accel_x,accel_y,accel_z
245.917536,2604.724693,-0.000000,9474.636058
245.917844,2757.943793,148.041188,9548.656652
245.918153,3064.381992,148.041188,9474.636058
245.918461,3140.991542,-0.000000,9548.656652
245.918769,3677.258390,222.061783,9400.615463
245.919077,3524.039291,222.061783,9474.636058
245.919385,3753.867940,222.061783,9918.759623
245.919693,3907.087040,-0.000000,9326.594869
245.920001,3524.039291,444.123565,9400.615463
245.920310,3524.039291,962.267725,9104.533087
245.920618,3677.258390,1332.370696,8882.471304
245.920926,3907.087040,1258.350101,9400.615463
245.921234,3140.991542,1184.329507,9252.574275
245.921542,3447.429741,1184.329507,8882.471304
245.921850,3140.991542,666.185348,9474.636058
245.922158,2987.772442,-148.041188,10362.883188
245.922467,2451.505594,-444.123565,10732.986159
245.922775,2068.457845,-814.226536,10955.047942
245.923083,1838.629195,-962.267725,11325.150913
245.923391,1991.848295,-1332.370696,11251.130318
245.923699,2451.505594,-1110.308913,10807.006753
245.924007,2681.334243,-814.226536,10288.862594
245.924315,3677.258390,-518.144159,9918.759623
245.924623,4290.134789,-370.102971,9400.615463
245.924932,4136.915689,-74.020594,9104.533087
245.925240,4136.915689,-148.041188,9178.553681
245.925548,4136.915689,-0.000000,9400.615463
245.925856,4596.572988,148.041188,9030.512492
245.926164,4060.306139,-74.020594,8956.491898
245.926472,4366.744339,-370.102971,9400.615463
245.926780,4443.353888,-148.041188,9178.553681
245.927089,4749.792088,-148.041188,9252.574275
245.927397,4673.182538,-0.000000,9178.553681
245.927705,4826.401637,222.061783,9178.553681
245.928013,5056.230287,666.185348,8882.471304
245.928321,5439.278036,962.267725,8512.368333
245.928629,5745.716235,666.185348,8364.327145
245.928937,5975.544884,1258.350101,8364.327145
245.929245,5439.278036,1628.453072,8364.327145
245.929554,5515.887586,1702.473667,8216.285956
245.929862,5362.668486,1702.473667,8512.368333
245.930170,4903.011187,1850.514855,8734.430116
245.930478,4903.011187,1628.453072,9104.533087
245.930786,4443.353888,1406.391290,9548.656652
245.931094,3830.477490,444.123565,10066.800811
245.931402,3370.820191,296.082377,10214.842000
245.931711,2834.553343,-0.000000,11251.130318
245.932019,2451.505594,-666.185348,11103.089130
245.932327,2298.286494,-592.164754,11251.130318
245.932635,2221.676944,-740.205942,11399.171507
245.932943,2221.676944,-962.267725,11473.192101
245.933251,2604.724693,-888.247130,11029.068536
245.933559,3140.991542,-740.205942,10955.047942
245.933867,3600.648841,-666.185348,10584.944971
245.934176,3830.477490,-370.102971,10140.821405
245.934484,4673.182538,-296.082377,9844.739029
245.934792,4673.182538,-0.000000,9622.677246
245.935100,4596.572988,-296.082377,9474.636058
245.935408,4749.792088,-370.102971,9178.553681
245.935716,4673.182538,-296.082377,9252.574275
245.936024,4596.572988,-888.247130,9326.594869
245.936333,4826.401637,-148.041188,9252.574275
245.936641,4903.011187,-370.102971,9104.533087
245.936949,4903.011187,-296.082377,8660.409521
245.937257,4903.011187,-0.000000,9326.594869
245.937565,4826.401637,-222.061783,9326.594869
245.937873,4596.572988,-0.000000,8808.450710
245.938181,4749.792088,370.102971,8882.471304
245.938489,4749.792088,592.164754,8364.327145
245.938798,5286.058936,1702.473667,8068.244768
245.939106,5439.278036,2738.761985,7402.059420
245.939414,5056.230287,3330.926739,7254.018232
245.939722,4903.011187,3775.050304,7105.977043
245.940030,4749.792088,3997.112087,7402.059420
245.940338,3907.087040,2886.803174,8512.368333
245.940646,2681.334243,1554.432478,9770.718434
245.940955,1838.629195,-444.123565,11029.068536
245.941263,229.828649,-1776.494261,11843.295072
245.941571,-612.876398,-3256.906145,13693.809927
245.941879,-995.924147,-4293.194464,14952.160028
245.942187,-1378.971896,-4367.215058,14656.077652
245.942495,-306.438199,-3997.112087,13767.830521
245.942803,995.924147,-3182.885551,12805.562797
245.943112,2604.724693,-2146.597232,11103.089130
245.943420,4366.744339,222.061783,9400.615463
245.943728,5515.887586,1776.494261,7254.018232
245.944036,7354.516781,3256.906145,6809.894666
245.944344,7277.907231,4441.235652,5329.482782
245.944652,7048.078582,4737.318029,4811.338623
245.944960,5669.106685,4515.256246,4811.338623
245.945268,4519.963438,4071.132681,5995.668130
245.945577,2834.553343,3627.009116,6439.791695
245.945885,1608.800546,2368.659014,7920.203579
245.946193,766.095498,1480.411884,9770.718434
245.946501,-229.828649,-0.000000,10955.047942
245.946809,-1149.143247,-888.247130,11177.109724
245.947117,-2221.676944,-1406.391290,11251.130318
245.947425,-1225.752797,-3034.844362,14063.912898
245.947734,-1991.848295,-3330.926739,13915.871710
245.948042,-2528.115143,-4441.235652,13841.851115
245.948350,-689.485948,-4441.235652,13915.871710
245.948658,-612.876398,-4367.215058,13175.665768
245.948966,-842.705048,-3849.070898,12731.542202
245.949274,1072.533697,-2960.823768,10510.924376
245.949582,2145.067394,-1554.432478,9918.759623
245.949890,2374.896044,-148.041188,8068.244768
245.950199,3677.258390,1480.411884,7179.997637
245.950507,4826.401637,2812.782580,6291.750507
245.950815,5132.839837,3849.070898,4737.318029
245.951122,5132.839837,5329.482782,4071.132681
245.951430,4826.401637,5033.400406,4367.215058
245.951738,4596.572988,4367.215058,5625.565159
245.952046,2757.943793,3627.009116,6439.791695
245.952354,1762.019645,1702.473667,9030.512492
245.952662,0.000000,-592.164754,10584.944971
245.952970,-1762.019645,-2368.659014,12731.542202
245.953277,-2681.334243,-3552.988522,14211.954086
245.953585,-3294.210641,-3849.070898,14878.139434
245.953893,-1915.238745,-3923.091493,14211.954086
245.954201,-995.924147,-2368.659014,12139.377449
245.954509,689.485948,-1332.370696,10955.047942
245.954817,2298.286494,444.123565,8364.327145
245.955125,3600.648841,2368.659014,6883.915261
245.955433,4290.134789,3627.009116,6587.832884
245.955741,4290.134789,4515.256246,5773.606348
245.956049,3907.087040,4219.173869,7105.977043
245.956357,2451.505594,2664.741391,7402.059420
245.956665,766.095498,1332.370696,8734.430116
245.956973,-1072.533697,-518.144159,10881.027347
245.957280,-2221.676944,-3108.864956,13323.706956
245.957588,-3447.429741,-4441.235652,14359.995275
245.957896,-3370.820191,-5255.462188,14656.077652
245.958204,-2681.334243,-5255.462188,13619.789333
245.958512,-689.485948,-3701.029710,12287.418637
245.958820,1608.800546,-1998.556043,9918.759623
245.959128,3370.820191,814.226536,7031.956449
245.959436,4749.792088,2738.761985,5625.565159
245.959744,5822.325785,4885.359217,4293.194464
245.960052,6052.154434,6143.709319,3404.947333
245.960360,5822.325785,5995.668130,2960.823768
245.960668,4136.915689,5255.462188,4071.132681
245.960976,2987.772442,2664.741391,7031.956449
245.961283,383.047749,-1406.391290,10436.903782
245.961591,-2604.724693,-4663.297435,13841.851115
245.961899,-4826.401637,-6587.832884,15692.365970
245.962207,-5592.497135,-7994.224174,16580.613101
245.962515,-5056.230287,-7698.141797,16728.654289
245.962823,-2068.457845,-5699.585753,15248.242405
245.963131,383.047749,-2664.741391,12287.418637
245.963439,3294.210641,888.247130,7772.162391
245.963747,5362.668486,4663.297435,4737.318029
245.964055,7431.126331,7254.018232,3330.926739
245.964363,8963.317327,9178.553681,2442.679609
245.964671,8580.269578,10214.842000,1702.473667
245.964979,7967.393179,9326.594869,2738.761985
245.965286,5056.230287,6069.688724,5181.441594
245.965594,1302.362347,1850.514855,9400.615463
245.965902,-1915.238745,-2738.761985,12953.603985
245.966210,-4903.011187,-5699.585753,15470.304188
245.966518,-7048.078582,-8216.285956,18357.107362
245.966826,-7048.078582,-8882.471304,18727.210333
245.967134,-4979.620737,-7105.977043,17394.839637
245.967442,-2068.457845,-4441.235652,15100.201217
245.967750,459.657299,-1036.288319,10658.965565
245.968058,3140.991542,2960.823768,6217.729913
245.968366,5515.887586,6439.791695,4959.379811
245.968674,6511.811733,8290.306550,3775.050304
245.968982,7354.516781,9918.759623,1776.494261
245.969289,6588.421283,9474.636058,1924.535449
245.969597,4596.572988,5847.626942,5107.421000
245.969905,1225.752797,1332.370696,8438.347739
245.970213,-2681.334243,-3182.885551,13471.748144
245.970521,-7507.735880,-8882.471304,16580.613101
245.970829,-8350.440928,-9770.718434,18875.251521
245.971137,-9193.145976,-11177.109724,18209.066173
245.971445,-5362.668486,-8660.409521,17394.839637
245.971753,-1455.581446,-4885.359217,12435.459826
245.972061,2451.505594,-444.123565,7105.977043
245.972369,5898.935335,4959.379811,3034.844362
245.972677,7737.564530,8142.265362,1628.453072
245.972985,9422.974625,9992.780217,2146.597232
245.973293,8580.269578,11251.130318,444.123565
245.973600,7660.954980,10658.965565,444.123565
245.973908,4903.011187,6587.832884,3997.112087
245.974216,842.705048,814.226536,9400.615463
245.974524,-3600.648841,-5107.421000,16062.468941
245.974832,-9269.755526,-9474.636058,17912.983796
245.975140,-12180.918418,-13249.686362,20577.725188
245.975448,-10955.165621,-13471.748144,22502.260637
245.975756,-7737.564530,-10140.821405,19541.436869
245.976064,-4213.525239,-5625.565159,14730.098246
245.976372,612.876398,-888.247130,9104.533087
245.976680,4060.306139,4219.173869,5107.421000
245.976988,6435.202183,9326.594869,2516.700203
245.977296,8197.221829,10288.862594,3182.885551
245.977603,9116.536426,13027.624579,296.082377
245.977911,7660.954980,12213.398043,-1628.453072
245.978219,5592.497135,8956.491898,2442.679609
245.978527,2068.457845,3034.844362,8290.306550
245.978835,-2451.505594,-2664.741391,13619.789333
245.979143,-7201.297681,-7994.224174,16580.613101
245.979451,-10265.679673,-10955.047942,18061.024985
245.979759,-10418.898773,-12435.459826,19393.395680
245.980067,-7660.954980,-10214.842000,18801.230927
245.980375,-3294.210641,-6291.750507,14730.098246
245.980683,1455.581446,-1554.432478,9474.636058
245.980991,5286.058936,3923.091493,3923.091493
245.981299,8656.879127,8808.450710,1850.514855
245.981606,11491.432470,11177.109724,1480.411884
245.981914,10035.851024,12287.418637,-370.102971
245.982222,7814.174080,11399.171507,-592.164754
245.982530,5898.935335,7624.121203,3775.050304
245.982838,1072.533697,1184.329507,10288.862594
245.983146,-2451.505594,-4959.379811,15988.448347
245.983454,-7584.345430,-8956.491898,17838.963202
245.983762,-10955.165621,-13101.645173,20947.828159
245.984070,-12870.404366,-15544.324782,22058.137072
245.984378,-9193.145976,-12657.521608,22354.219448
245.984686,-3677.258390,-6735.874072,15692.365970
245.984994,1225.752797,-1332.370696,8438.347739
245.985302,5592.497135,4589.276840,2072.576638
245.985609,9422.974625,8512.368333,1332.370696
245.985917,12027.699319,11473.192101,1776.494261
245.986225,10878.556072,12731.542202,-1850.514855
245.986533,9346.365076,11547.212695,-2146.597232
245.986841,7584.345430,9844.739029,888.247130
245.987149,2757.943793,4071.132681,6735.874072
245.987457,0.000000,-2664.741391,13767.830521
245.987765,-4903.011187,-7328.038826,16432.571912
245.988073,-8733.488677,-10436.903782,18431.127956
245.988381,-10801.946522,-12879.583391,20133.601622
245.988689,-8350.440928,-11177.109724,20355.663405
245.988997,-3753.867940,-5847.626942,16654.633695
245.989305,383.047749,-1628.453072,10140.821405
245.989612,6435.202183,3997.112087,4663.297435
245.989920,9346.365076,9030.512492,1110.308913
245.990228,10801.946522,10066.800811,2516.700203
245.990536,10955.165621,12361.439231,-666.185348
245.990844,8810.098227,12435.459826,-666.185348
245.991152,5056.230287,7105.977043,4441.235652
245.991460,919.314598,1480.411884,9696.697840
245.991768,-2145.067394,-2886.803174,16210.510130
245.992076,-5515.887586,-8142.265362,18357.107362
245.992384,-9269.755526,-11177.109724,18135.045579
245.992692,-10265.679673,-13767.830521,21243.910535
245.993000,-9806.022374,-12435.459826,21317.931130
245.993308,-4903.011187,-8290.306550,18357.107362
245.993615,1072.533697,-2146.597232,11029.068536
245.993923,4826.401637,4219.173869,4071.132681
245.994231,8733.488677,8364.327145,592.164754
245.994539,12410.747068,12139.377449,1110.308913
245.994847,11721.261119,12583.501014,-222.061783
245.995155,9806.022374,12731.542202,-3330.926739
245.995463,8120.612279,9696.697840,1480.411884
245.995771,2757.943793,3997.112087,6735.874072
245.996079,-1302.362347,-2072.576638,12287.418637
245.996387,-4903.011187,-7920.203579,18061.024985
245.996695,-9806.022374,-10288.862594,17987.004391
245.997003,-11261.603821,-13767.830521,20725.766376
245.997311,-10265.679673,-13175.665768,21614.013506
245.997618,-5362.668486,-7994.224174,18431.127956
245.997926,-1378.971896,-2886.803174,11769.274478
245.998234,4290.134789,3108.864956,4811.338623
245.998542,7814.174080,9474.636058,222.061783
245.998850,10878.556072,10288.862594,2516.700203
245.999158,11184.994271,13397.727550,888.247130
245.999466,8733.488677,12879.583391,-2516.700203
245.999774,6205.373534,8882.471304,2442.679609
246.000082,2068.457845,3701.029710,8068.244768
246.000390,-1378.971896,-2886.803174,14730.098246
246.000698,-5362.668486,-7328.038826,18061.024985
246.001006,-10572.117872,-10881.027347,17690.922014
246.001314,-11491.432470,-13545.768739,20725.766376
246.001621,-10801.946522,-13915.871710,22946.384202
246.001929,-7584.345430,-9400.615463,19319.375086
246.002237,-1915.238745,-3775.050304,12731.542202
246.002545,4136.915689,2590.720797,5921.647536
246.002853,6665.030833,8734.430116,-74.020594
246.003161,10342.289223,10066.800811,1110.308913
246.003469,11644.651570,13471.748144,-148.041188
246.003777,9806.022374,13397.727550,-3034.844362
246.004085,7660.954980,10436.903782,0.000000
246.004393,3753.867940,4737.318029,5551.544565
246.004701,-766.095498,-1184.329507,11399.171507
246.005009,-5669.106685,-7254.018232,16654.633695
246.005317,-9806.022374,-11103.089130,17098.757260
246.005624,-11951.089769,-13249.686362,19541.436869
246.005932,-11338.213370,-13693.809927,21836.075289
246.006240,-6818.249932,-8882.471304,18431.127956
246.006548,-1762.019645,-3849.070898,12509.480420
246.006856,3830.477490,1924.535449,5995.668130
246.007164,7277.907231,6883.915261,222.061783
246.007472,11644.651570,12065.356855,518.144159
246.007780,12027.699319,11695.253884,370.102971
246.008088,9806.022374,12583.501014,-2738.761985
246.008396,8120.612279,10955.047942,962.267725
246.008704,3140.991542,4441.235652,6069.688724
246.009012,-1455.581446,-1406.391290,11843.295072
246.009320,-4519.963438,-7328.038826,19097.313304
246.009628,-8733.488677,-10732.986159,19467.416275
246.009935,-11644.651570,-12953.603985,20133.601622
246.010243,-11491.432470,-14508.036463,21539.992912
246.010551,-7354.516781,-10362.883188,20429.683999
246.010859,-2681.334243,-4367.215058,13323.706956
246.011167,3753.867940,1998.556043,7402.059420
246.011475,6894.859482,6883.915261,1258.350101
246.011783,10725.336972,11177.109724,592.164754
246.012091,11184.994271,11177.109724,1036.288319
246.012399,10189.070123,12361.439231,-1702.473667
246.012707,8273.831378,11695.253884,-370.102971
246.013015,3907.087040,6587.832884,4293.194464
246.013323,-153.219100,666.185348,10362.883188
246.013631,-3983.696590,-5773.606348,17542.880825
246.013938,-8273.831378,-9400.615463,18653.189738
246.014246,-10801.946522,-12139.377449,18579.169144
246.014554,-10572.117872,-13397.727550,20651.745782
246.014862,-7354.516781,-9178.553681,19023.292709
246.015170,-2451.505594,-4145.153275,13175.665768
246.015478,3677.258390,962.267725,7994.224174
246.015786,6665.030833,7254.018232,370.102971
246.016094,10572.117872,9696.697840,1628.453072
246.016402,12027.699319,11769.274478,1036.288319
246.016710,9806.022374,13175.665768,-2146.597232
246.017018,8886.707777,10436.903782,888.247130
246.017326,4136.915689,5403.503377,5847.626942
246.017634,-383.047749,-0.000000,10955.047942
246.017941,-3064.381992,-4959.379811,17468.860231
246.018249,-7584.345430,-9918.759623,19171.333898
246.018557,-10342.289223,-12287.418637,19911.539840
246.018865,-10955.165621,-13397.727550,20725.766376
246.019173,-7354.516781,-11547.212695,21762.054695
246.019481,-3370.820191,-6883.915261,15100.201217
246.019789,2604.724693,296.082377,8734.430116
246.020097,6358.592633,4885.359217,2368.659014
246.020405,10035.851024,9918.759623,444.123565
246.020713,12104.308868,10658.965565,1332.370696
246.021021,10418.898773,12805.562797,-2812.782580
246.021329,8503.660028,11621.233289,-1480.411884
246.021637,5669.106685,6957.935855,4293.194464
246.021944,1072.533697,1332.370696,7920.203579
246.022252,-2604.724693,-4219.173869,16210.510130
246.022560,-6128.763984,-8290.306550,18209.066173
246.022868,-10418.898773,-10807.006753,17764.942608
246.023176,-11031.775171,-12953.603985,19985.560434
246.023484,-7814.174080,-10436.903782,20355.663405
246.023792,-3600.648841,-5625.565159,15026.180623
246.024100,1915.238745,-518.144159,8438.347739
246.024408,6358.592633,4515.256246,3478.967927
246.024716,9193.145976,9548.656652,518.144159
246.025024,10878.556072,10362.883188,1110.308913
246.025332,11031.775171,12361.439231,-1110.308913
246.025640,8963.317327,12139.377449,-1110.308913
246.025947,5439.278036,6957.935855,4367.215058
246.026255,229.828649,1036.288319,8734.430116
246.026563,-3294.210641,-4219.173869,16580.613101
246.026871,-6741.640382,-9400.615463,20281.642811
246.027179,-11414.822920,-12065.356855,19023.292709
246.027487,-11797.870669,-13915.871710,20133.601622
246.027795,-8810.098227,-11917.315666,21317.931130
246.028103,-4903.011187,-6587.832884,16358.551318
246.028411,1455.581446,-0.000000,9918.759623
246.028719,5898.935335,4219.173869,3404.947333
246.029027,9269.755526,9252.574275,296.082377
246.029335,11184.994271,9696.697840,1036.288319
246.029643,11108.384721,12065.356855,-1850.514855
246.029950,9346.365076,12879.583391,-1998.556043
246.030258,6588.421283,8438.347739,2664.741391
246.030566,1838.629195,2886.803174,6883.915261
246.030874,-2374.896044,-3034.844362,14211.954086
246.031182,-6358.592633,-8364.327145,18875.251521
246.031490,-10801.946522,-11325.150913,18061.024985
246.031798,-11031.775171,-12583.501014,18949.272115
246.032106,-9576.193725,-10807.006753,20577.725188
246.032414,-5362.668486,-7031.956449,16506.592507
246.032722,76.609550,-1110.308913,10510.924376
246.033030,5132.839837,3108.864956,5403.503377
246.033338,7507.735880,9178.553681,-148.041188
246.033646,10955.165621,10881.027347,888.247130
246.033953,10495.508323,12361.439231,1776.494261
246.034261,7814.174080,11843.295072,-1110.308913
246.034569,5132.839837,7920.203579,3404.947333
246.034877,689.485948,2146.597232,8808.450710
246.035185,-2681.334243,-3552.988522,15322.262999
246.035493,-6588.421283,-8290.306550,19393.395680
246.035801,-10189.070123,-11843.295072,18949.272115
246.036109,-11644.651570,-13323.706956,19985.560434
246.036417,-9959.241474,-13101.645173,21762.054695
246.036725,-6052.154434,-8956.491898,17764.942608
246.037033,-766.095498,-1998.556043,11399.171507
246.037341,5209.449386,2960.823768,4885.359217
246.037649,7584.345430,8660.409521,518.144159
246.037956,10648.727422,9844.739029,1776.494261
246.038264,11108.384721,12879.583391,-1480.411884
246.038572,9652.803275,13175.665768,-2442.679609
246.038880,6971.469032,9252.574275,2072.576638
246.039188,3600.648841,4515.256246,5033.400406
246.039496,-383.047749,-518.144159,12065.356855
246.039804,-4213.525239,-6143.709319,17690.922014
246.040112,-9116.536426,-9918.759623,17468.860231
246.040420,-10801.946522,-12435.459826,18801.230927
246.040728,-10418.898773,-11843.295072,20725.766376
246.041036,-6588.421283,-9178.553681,18727.210333
246.041344,-1149.143247,-3256.906145,12731.542202
246.041652,3600.648841,2072.576638,7328.038826
246.041959,7507.735880,6809.894666,2368.659014
246.042267,9806.022374,8882.471304,1702.473667
246.042575,10342.289223,11843.295072,518.144159
246.042883,9729.412825,12657.521608,-962.267725
246.043191,6894.859482,9326.594869,2738.761985
246.043499,3140.991542,3775.050304,7550.100608
246.043807,-536.266849,-1332.370696,13175.665768
246.044115,-4519.963438,-6365.771101,19097.313304
246.044423,-9346.365076,-11177.109724,18431.127956
246.044731,-10189.070123,-12583.501014,19097.313304
246.045039,-10189.070123,-12361.439231,20947.828159
246.045347,-6588.421283,-9696.697840,19097.313304
246.045655,-842.705048,-3478.967927,12583.501014
246.045963,3524.039291,1850.514855,5921.647536
246.046270,7354.516781,7031.956449,1554.432478
246.046578,11031.775171,9326.594869,1702.473667
246.046886,11184.994271,12583.501014,-222.061783
246.047194,10801.946522,13249.686362,-3108.864956
246.047502,9346.365076,10510.924376,-222.061783
246.047810,4826.401637,6143.709319,4811.338623
246.048118,459.657299,592.164754,9252.574275
246.048426,-2681.334243,-5181.441594,15840.407159
246.048734,-7660.954980,-9992.780217,17616.901420
246.049042,-10112.460574,-11695.253884,18875.251521
246.049350,-9959.241474,-12139.377449,19763.498651
246.049658,-7354.516781,-9844.739029,19541.436869
246.049966,-2298.286494,-4515.256246,14211.954086
246.050273,3370.820191,1110.308913,7698.141797
246.050581,6205.373534,6661.853478,1554.432478
246.050889,9499.584175,8364.327145,1480.411884
246.051197,10801.946522,11917.315666,1036.288319
246.051505,10418.898773,12361.439231,-1480.411884
246.051813,7354.516781,10658.965565,74.020594
246.052121,3830.477490,5107.421000,5995.668130
246.052429,-383.047749,-222.061783,11473.192101
246.052737,-3830.477490,-5477.523971,17542.880825
246.053045,-8120.612279,-10510.924376,18653.189738
246.053353,-10342.289223,-12361.439231,19393.395680
246.053661,-10801.946522,-14285.974681,21614.013506
246.053969,-8580.269578,-11695.253884,20133.601622
246.054277,-2221.676944,-5033.400406,15396.283594
246.054584,2451.505594,592.164754,7772.162391
246.054892,6052.154434,6513.812290,1036.288319
246.055200,10265.679673,10066.800811,814.226536
246.055508,11414.822920,11473.192101,888.247130
246.055816,10955.165621,13249.686362,-2368.659014
246.056124,9193.145976,12065.356855,-2072.576638
246.056432,5898.935335,7031.956449,4515.256246
246.056740,1225.752797,2368.659014,8364.327145
246.057048,-2757.943793,-3997.112087,15322.262999
246.057356,-7354.516781,-8808.450710,18209.066173
246.057664,-10725.336972,-11399.171507,18135.045579
246.057972,-11644.651570,-13175.665768,20725.766376
246.058280,-8963.317327,-10584.944971,20873.807564
246.058588,-4366.744339,-6069.688724,15544.324782
246.058896,1302.362347,-370.102971,9918.759623
246.059204,5822.325785,5107.421000,3034.844362
246.059512,8503.660028,9474.636058,74.020594
246.059819,10572.117872,10732.986159,1776.494261
246.060127,10878.556072,12731.542202,-148.041188
246.060435,8656.879127,11991.336260,-2220.617826
246.060743,5669.106685,6735.874072,4737.318029
246.061051,995.924147,888.247130,9474.636058
246.061359,-3064.381992,-4515.256246,17024.736666
246.061667,-7354.516781,-9918.759623,19171.333898
246.061975,-10955.165621,-12509.480420,19245.354492
246.062283,-12257.527968,-13693.809927,21021.848753
246.062591,-9576.193725,-12287.418637,21539.992912
246.062899,-3907.087040,-7254.018232,17172.777854
246.063207,1225.752797,-0.000000,9326.594869
246.063515,5898.935335,4959.379811,2590.720797
246.063823,8963.317327,8660.409521,888.247130
246.064131,11491.432470,10955.047942,1406.391290
246.064439,11031.775171,12731.542202,-2368.659014
246.064747,9806.022374,13101.645173,-2738.761985
246.065054,7201.297681,8364.327145,3478.967927
246.065362,2451.505594,3034.844362,6735.874072
246.065670,-1455.581446,-2738.761985,13323.706956
246.065978,-6435.202183,-8216.285956,18505.148550
246.066286,-10342.289223,-11547.212695,18283.086767
246.066594,-11874.480219,-13027.624579,20059.581028
246.066902,-10189.070123,-11769.274478,21391.951724
246.067210,-5439.278036,-7920.203579,17394.839637
246.067518,76.609550,-1110.308913,9844.739029
246.067826,5669.106685,4589.276840,4145.153275
246.068134,8656.879127,7624.121203,666.185348
246.068442,10801.946522,10658.965565,444.123565
246.068750,11491.432470,13175.665768,-370.102971
246.069058,9346.365076,12583.501014,-1998.556043
246.069366,6358.592633,7772.162391,3997.112087
246.069674,1608.800546,2368.659014,8586.388927
246.069982,-2145.067394,-2960.823768,14211.954086
246.070289,-6281.983084,-8216.285956,18949.272115
246.070597,-9806.022374,-11917.315666,19837.519246
246.070905,-11951.089769,-13545.768739,20577.725188
246.071213,-10648.727422,-13175.665768,21539.992912
246.071521,-5975.544884,-9104.533087,18579.169144
246.071829,766.095498,-1554.432478,10658.965565
246.072137,5439.278036,4515.256246,3478.967927
246.072445,8733.488677,8068.244768,1184.329507
246.072753,12487.356617,9400.615463,1110.308913
246.073061,11491.432470,13249.686362,-2664.741391
246.073369,10189.070123,13249.686362,-2442.679609
246.073677,8427.050478,9104.533087,3182.885551
246.073985,3140.991542,4959.379811,5181.441594
246.074293,-612.876398,-222.061783,11399.171507
246.074601,-3907.087040,-6143.709319,17320.819043
246.074909,-8886.707777,-10288.862594,18135.045579
246.075217,-10955.165621,-12435.459826,19319.375086
246.075524,-9959.241474,-12805.562797,21317.931130
246.075832,-6128.763984,-9622.677246,18875.251521
246.076140,-1532.190996,-3108.864956,11769.274478
246.076448,4290.134789,2294.638420,6957.935855
246.076756,8044.002729,7254.018232,1110.308913
246.077064,10418.898773,10214.842000,148.041188
246.077372,11338.213370,12657.521608,-296.082377
246.077680,11031.775171,12953.603985,-962.267725
246.077988,7354.516781,8882.471304,3034.844362
246.078296,2298.286494,2960.823768,7328.038826
246.078604,-2221.676944,-2220.617826,14063.912898
246.078912,-5515.887586,-7476.080014,19319.375086
246.079220,-10648.727422,-11769.274478,19689.478057
246.079528,-12410.747068,-13841.851115,20281.642811
246.079836,-10725.336972,-13915.871710,21614.013506
246.080144,-6665.030833,-9770.718434,19319.375086
246.080452,-689.485948,-2590.720797,11473.192101
246.080759,4903.011187,1480.411884,6661.853478
246.081067,7277.907231,6661.853478,1110.308913
246.081375,11031.775171,11547.212695,-370.102971
246.081683,12410.747068,12065.356855,0.000000
246.081991,10418.898773,14137.933492,-2590.720797
246.082299,8810.098227,11177.109724,0.000000
246.082607,4673.182538,6957.935855,4441.235652
246.082915,229.828649,666.185348,9696.697840
246.083223,-3983.696590,-5477.523971,16358.551318
246.083531,-8503.660028,-9770.718434,18727.210333
246.083839,-11644.651570,-12731.542202,20133.601622
246.084147,-11644.651570,-13323.706956,21243.910535
246.084455,-7814.174080,-10066.800811,19837.519246
246.084763,-2451.505594,-4145.153275,13027.624579
246.085071,3677.258390,518.144159,7550.100608
246.085379,7201.297681,6365.771101,2442.679609
246.085687,10648.727422,11325.150913,0.000000
246.085994,11797.870669,12583.501014,1184.329507
246.086302,10342.289223,13027.624579,-1110.308913
246.086610,7431.126331,11325.150913,962.267725
246.086918,3217.601092,5181.441594,6661.853478
246.087226,-1378.971896,-740.205942,12139.377449
246.087534,-4826.401637,-6513.812290,18875.251521
246.087842,-9422.974625,-10955.047942,19911.539840
246.088150,-12257.527968,-13175.665768,20207.622217
246.088458,-11721.261119,-14730.098246,22650.301825
246.088766,-8427.050478,-11029.068536,20133.601622
246.089074,-2757.943793,-4737.318029,13545.768739
246.089382,3217.601092,962.267725,6957.935855
246.089690,6894.859482,5773.606348,1406.391290
246.089998,11338.213370,10732.986159,74.020594
246.090306,12793.794817,11399.171507,0.000000
246.090614,11031.775171,14137.933492,-2516.700203
246.090922,9422.974625,11621.233289,-1258.350101
246.091230,5592.497135,6661.853478,4293.194464
246.091537,536.266849,1332.370696,8438.347739
246.091845,-2987.772442,-4145.153275,15396.283594
246.092153,-6741.640382,-8216.285956,17987.004391
246.092461,-11184.994271,-11251.130318,18653.189738
246.092769,-11031.775171,-13471.748144,20429.683999
246.093077,-8656.879127,-10732.986159,20503.704593
246.093385,-3600.648841,-5033.400406,14656.077652
246.093693,1915.238745,592.164754,8808.450710
246.094001,6205.373534,5477.523971,3108.864956
246.094309,9116.536426,9474.636058,370.102971
246.094617,10112.460574,11029.068536,592.164754
246.094925,10955.165621,12805.562797,-592.164754
246.095233,8273.831378,11399.171507,-518.144159
246.095541,4979.620737,6217.729913,5403.503377
246.095849,-229.828649,-0.000000,10288.862594
246.096157,-3677.258390,-4959.379811,16950.716072
246.096465,-8503.660028,-9918.759623,19097.313304
246.096772,-11721.261119,-13101.645173,19763.498651
246.097080,-10878.556072,-14359.995275,22058.137072
246.097388,-9346.365076,-11399.171507,20207.622217
246.097696,-3370.820191,-5625.565159,14359.995275
246.098004,3217.601092,296.082377,8956.491898
246.098312,6435.202183,4515.256246,2294.638420
246.098620,9959.241474,10214.842000,-666.185348
246.098928,11797.870669,10955.047942,518.144159
246.099236,10801.946522,12953.603985,-1110.308913
246.099544,9729.412825,11399.171507,-962.267725
246.099852,5592.497135,7179.997637,3552.988522
246.100160,766.095498,2220.617826,7624.121203
246.100468,-2221.676944,-3701.029710,14211.954086
246.100776,-6818.249932,-8364.327145,17764.942608
246.101084,-10801.946522,-11621.233289,18949.272115
246.101392,-11108.384721,-13471.748144,20947.828159
246.101700,-9193.145976,-11251.130318,20503.704593
246.102007,-4366.744339,-5847.626942,14730.098246
246.102315,1608.800546,-444.123565,9548.656652
246.102623,5439.278036,5033.400406,3182.885551
246.102931,9193.145976,9326.594869,666.185348
246.103239,11184.994271,12139.377449,740.205942
246.103547,11108.384721,13915.871710,-814.226536
246.103855,9806.022374,11251.130318,-444.123565
246.104163,4519.963438,7772.162391,3775.050304
246.104471,1072.533697,962.267725,9844.739029
246.104779,-2987.772442,-4071.132681,16358.551318
246.105087,-7660.954980,-8364.327145,18949.272115
246.105395,-10495.508323,-12583.501014,20207.622217
246.105703,-12027.699319,-13323.706956,21243.910535
246.106011,-9422.974625,-12213.398043,21984.116477
246.106319,-5209.449386,-6661.853478,15618.345376
246.106627,1762.019645,-296.082377,10510.924376
246.106935,5209.449386,4145.153275,3923.091493
246.107242,9499.584175,9104.533087,814.226536
246.107550,12104.308868,9918.759623,962.267725
246.107858,11568.042020,13101.645173,-2146.597232
246.108166,9806.022374,12509.480420,-1924.535449
246.108474,7354.516781,8734.430116,2812.782580
246.108782,3064.381992,3701.029710,6513.812290
246.109090,-1762.019645,-1702.473667,12731.542202
246.109398,-4903.011187,-7402.059420,17468.860231
246.109706,-9806.022374,-10807.006753,19023.292709
246.110014,-11184.994271,-12435.459826,19615.457463
246.110322,-9576.193725,-11399.171507,21391.951724
246.110630,-5669.106685,-7105.977043,16728.654289
246.110938,0.000000,-1776.494261,11029.068536
246.111246,4366.744339,3701.029710,4663.297435
246.111554,8044.002729,7920.203579,1850.514855
246.111862,10955.165621,10881.027347,1406.391290
246.112170,10878.556072,12435.459826,-962.267725
246.112477,8963.317327,11991.336260,-740.205942
246.112785,5975.544884,7550.100608,3849.070898
246.113093,766.095498,2368.659014,7920.203579
246.113401,-2298.286494,-2812.782580,14211.954086
246.113709,-6205.373534,-7698.141797,18283.086767
246.114017,-9882.631924,-11177.109724,18431.127956
246.114325,-11338.213370,-12953.603985,20429.683999
246.114633,-9959.241474,-12361.439231,21317.931130
246.114941,-6128.763984,-8290.306550,17024.736666
246.115249,-536.266849,-1924.535449,12139.377449
246.115557,4596.572988,3256.906145,5551.544565
246.115865,7967.393179,7402.059420,888.247130
246.116173,11031.775171,9622.677246,666.185348
246.116481,11797.870669,12139.377449,-1628.453072
246.116789,9729.412825,12065.356855,-2516.700203
246.117097,7507.735880,8586.388927,2294.638420
246.117405,3600.648841,4293.194464,4959.379811
246.117712,-536.266849,-518.144159,10288.862594
246.118020,-4136.915689,-6291.750507,16580.613101
246.118328,-8733.488677,-10140.821405,17616.901420
246.118636,-11184.994271,-12361.439231,18949.272115
246.118944,-10572.117872,-11843.295072,21243.910535
246.119252,-7354.516781,-8586.388927,18579.169144
246.119560,-1455.581446,-3108.864956,12657.521608
246.119868,3600.648841,2368.659014,6513.812290
246.120176,6818.249932,6735.874072,2294.638420
246.120484,10265.679673,9918.759623,666.185348
246.120792,10878.556072,11991.336260,-814.226536
246.121100,9039.926876,11991.336260,-1184.329507
246.121408,6971.469032,8142.265362,3701.029710
246.121716,2068.457845,3701.029710,7179.997637
246.122024,-1302.362347,-1850.514855,12361.439231
246.122332,-4749.792088,-6957.935855,17764.942608
246.122640,-9576.193725,-10658.965565,18653.189738
246.122947,-11568.042020,-11917.315666,19763.498651
246.123255,-10265.679673,-12509.480420,21317.931130
246.123563,-7660.954980,-8808.450710,18875.251521
246.123871,-1762.019645,-2738.761985,13101.645173
246.124179,3907.087040,2664.741391,7031.956449
246.124487,7431.126331,5699.585753,1776.494261
246.124795,10265.679673,9474.636058,370.102971
246.125103,11797.870669,11991.336260,-740.205942
246.125411,10572.117872,12139.377449,-1406.391290
246.125719,8120.612279,9696.697840,1850.514855
246.126027,4596.572988,5847.626942,4737.318029
246.126335,612.876398,1036.288319,8956.491898
246.126643,-3140.991542,-5625.565159,15470.304188
246.126951,-6971.469032,-9696.697840,18135.045579
246.127259,-10342.289223,-11473.192101,18727.210333
246.127567,-10495.508323,-11695.253884,21169.889941
246.127875,-7660.954980,-9474.636058,19097.313304
246.128182,-2604.724693,-3775.050304,13915.871710
246.128490,3294.210641,1776.494261,9252.574275
246.128798,6665.030833,5181.441594,3627.009116
246.129106,10342.289223,9844.739029,-740.205942
246.129414,11414.822920,12287.418637,-222.061783
246.129722,10189.070123,11991.336260,222.061783
246.130030,7814.174080,9622.677246,2294.638420
246.130338,4136.915689,5329.482782,6587.832884
246.130646,536.266849,444.123565,10807.006753
246.130954,-3600.648841,-5477.523971,16284.530724
246.131262,-7814.174080,-9770.718434,18949.272115
246.131570,-11261.603821,-11473.192101,19171.333898
246.131878,-11568.042020,-12805.562797,21539.992912
246.132186,-9039.926876,-10658.965565,20577.725188
246.132494,-3983.696590,-5551.544565,15174.221811
246.132802,2221.676944,444.123565,9400.615463
246.133110,7124.688131,5477.523971,2664.741391
246.133417,9652.803275,8512.368333,666.185348
246.133725,11184.994271,11177.109724,-148.041188
246.134033,10418.898773,12583.501014,-1406.391290
246.134341,8197.221829,10732.986159,740.205942
246.134649,5975.544884,6513.812290,3552.988522
246.134957,1838.629195,1998.556043,7920.203579
246.135265,-1532.190996,-3256.906145,13989.892304
246.135573,-6205.373534,-8586.388927,17098.757260
246.135881,-9576.193725,-11251.130318,18061.024985
246.136189,-10955.165621,-12287.418637,20577.725188
246.136497,-9039.926876,-10732.986159,19837.519246
246.136805,-4903.011187,-5995.668130,14804.118840
246.137113,1302.362347,-148.041188,9474.636058
246.137421,6281.983084,5477.523971,3404.947333
246.137729,9499.584175,8364.327145,592.164754
246.138037,10878.556072,11621.233289,-666.185348
246.138345,10495.508323,13027.624579,-1998.556043
246.138652,8580.269578,10881.027347,666.185348
246.138960,4826.401637,6291.750507,5181.441594
246.139268,842.705048,592.164754,9178.553681
246.139576,-2451.505594,-4219.173869,15396.283594
246.139884,-7354.516781,-9548.656652,18283.086767
246.140192,-11031.775171,-11695.253884,19393.395680
246.140500,-12334.137518,-12731.542202,21614.013506
246.140808,-10648.727422,-11695.253884,21836.075289
246.141116,-5975.544884,-6513.812290,16358.551318
246.141424,306.438199,-962.267725,10807.006753
246.141732,5439.278036,4441.235652,3478.967927
246.142040,8963.317327,7105.977043,1258.350101
246.142348,10572.117872,10955.047942,222.061783
246.142656,10342.289223,12287.418637,-1184.329507
246.142964,9346.365076,11177.109724,-370.102971
246.143272,6358.592633,7920.203579,2442.679609
246.143580,3064.381992,3256.906145,6883.915261
246.143887,-536.266849,-2442.679609,12435.459826
246.144195,-6205.373534,-7624.121203,16506.592507
246.144503,-9193.145976,-10732.986159,18727.210333
246.144811,-10878.556072,-12287.418637,20133.601622
246.145119,-9806.022374,-10732.986159,20725.766376
246.145427,-5592.497135,-6957.935855,16654.633695
246.145735,612.876398,-666.185348,10658.965565
246.146043,5286.058936,4293.194464,4885.359217
246.146351,8427.050478,7550.100608,1406.391290
246.146659,11031.775171,10807.006753,0.000000
246.146967,10878.556072,12879.583391,-1406.391290
246.147275,9039.926876,11843.295072,740.205942
246.147583,5975.544884,7846.182985,3849.070898
246.147891,2145.067394,2590.720797,8586.388927
246.148199,-1685.410096,-3034.844362,14582.057057
246.148507,-6665.030833,-7698.141797,17542.880825
246.148815,-10495.508323,-10807.006753,19837.519246
246.149122,-11414.822920,-12065.356855,21317.931130
246.149430,-11338.213370,-12361.439231,22280.198854
246.149738,-6741.640382,-8808.450710,18727.210333
246.150046,0.000000,-2072.576638,12065.356855
246.150354,4366.744339,3256.906145,4367.215058
246.150662,8427.050478,7105.977043,2294.638420
246.150970,11031.775171,10584.944971,444.123565
246.151278,10725.336972,12361.439231,-592.164754
246.151586,9806.022374,11399.171507,-296.082377
246.151894,7431.126331,8956.491898,1850.514855
246.152202,4213.525239,4219.173869,6217.729913
246.152510,536.266849,-666.185348,10584.944971
246.152818,-4213.525239,-6439.791695,15840.407159
246.153126,-8273.831378,-9474.636058,17764.942608
246.153434,-11108.384721,-11325.150913,18949.272115
246.153742,-10189.070123,-11473.192101,21391.951724
246.154050,-7201.297681,-8586.388927,18135.045579
246.154358,-306.438199,-2738.761985,11547.212695
246.154666,4596.572988,3330.926739,5921.647536
246.154974,8350.440928,5921.647536,1850.514855
246.155281,10112.460574,9918.759623,-814.226536
246.155589,10035.851024,11843.295072,296.082377
246.155897,9806.022374,11325.150913,888.247130
246.156205,7277.907231,8956.491898,2590.720797
246.156513,3600.648841,3849.070898,7698.141797
246.156821,-459.657299,-1702.473667,12213.398043
246.157129,-4596.572988,-6809.894666,16654.633695
246.157437,-9269.755526,-10214.842000,18579.169144
246.157745,-11721.261119,-11843.295072,19911.539840
246.158053,-11568.042020,-12583.501014,21688.034101
246.158361,-7124.688131,-9548.656652,19615.457463
246.158669,-1378.971896,-3404.947333,12879.583391
246.158977,3907.087040,1628.453072,6957.935855
246.159285,6741.640382,4737.318029,2664.741391
246.159593,9499.584175,9622.677246,-740.205942
246.159901,10725.336972,11029.068536,814.226536
246.160209,10035.851024,12065.356855,-888.247130
246.160517,8733.488677,10066.800811,0.000000
246.160825,5669.106685,6217.729913,4737.318029
246.161133,2221.676944,1184.329507,8068.244768
246.161441,-2834.553343,-4959.379811,14582.057057
246.161749,-7431.126331,-9400.615463,17024.736666
246.162057,-10572.117872,-11177.109724,18949.272115
246.162365,-11338.213370,-12509.480420,21021.848753
246.162673,-8503.660028,-9992.780217,19763.498651
246.162981,-3217.601092,-4737.318029,13619.789333
246.163289,2681.334243,1110.308913,7994.224174
246.163597,7201.297681,4145.153275,3034.844362
246.163905,9039.926876,9548.656652,-592.164754
246.164213,11031.775171,11547.212695,888.247130
246.164521,10572.117872,11843.295072,0.000000
246.164829,7660.954980,10140.821405,666.185348
246.165137,4673.182538,5625.565159,6661.853478
246.165445,612.876398,-0.000000,10881.027347
246.165753,-4366.744339,-5033.400406,16284.530724
246.166061,-8350.440928,-9252.574275,18801.230927
246.166369,-10572.117872,-11695.253884,19689.478057
246.166677,-11797.870669,-12509.480420,21688.034101
246.166985,-9193.145976,-11769.274478,20725.766376
246.167293,-3983.696590,-5255.462188,14804.118840
246.167601,2068.457845,444.123565,8808.450710
246.167909,5515.887586,4071.132681,4293.194464
246.168217,8963.317327,8956.491898,444.123565
246.168525,10648.727422,11399.171507,444.123565
246.168833,10418.898773,11843.295072,-814.226536
246.169141,9806.022374,11473.192101,-814.226536
246.169449,6894.859482,8068.244768,3330.926739
246.169757,3064.381992,3330.926739,7402.059420
246.170065,-1685.410096,-2738.761985,12805.562797
246.170373,-6128.763984,-7846.182985,17172.777854
246.170681,-9806.022374,-10732.986159,18949.272115
246.170989,-10801.946522,-12139.377449,20873.807564
246.171297,-8963.317327,-11251.130318,20429.683999
246.171605,-4519.963438,-6291.750507,16062.468941
246.171913,2221.676944,-0.000000,9400.615463
246.172221,5669.106685,3034.844362,4441.235652
246.172529,8886.707777,8216.285956,1332.370696
246.172837,10342.289223,11473.192101,-296.082377
246.173145,10955.165621,12509.480420,0.000000
246.173453,9193.145976,10362.883188,74.020594
246.173761,5286.058936,7179.997637,4663.297435
246.174069,2451.505594,1332.370696,10288.862594
246.174377,-3064.381992,-4071.132681,14878.139434
246.174685,-7814.174080,-8512.368333,18875.251521
246.174993,-10878.556072,-10881.027347,19837.519246
246.175301,-12410.747068,-12435.459826,21169.889941
246.175609,-9959.241474,-12509.480420,22058.137072
246.175917,-4903.011187,-7772.162391,16432.571912
246.176225,1072.533697,-962.267725,9474.636058
246.176533,5056.230287,1628.453072,4737.318029
246.176841,8427.050478,6957.935855,888.247130
246.177149,10801.946522,11251.130318,0.000000
246.177457,11568.042020,12139.377449,-1332.370696
246.177765,10035.851024,12361.439231,-2220.617826
246.178073,7737.564530,8290.306550,2442.679609
246.178381,3830.477490,4145.153275,6143.709319
246.178689,-612.876398,-2220.617826,11547.212695
246.178997,-4290.134789,-7254.018232,16728.654289
246.179305,-9346.365076,-9992.780217,17616.901420
246.179613,-11414.822920,-12287.418637,19541.436869
246.179921,-10342.289223,-12065.356855,20577.725188
246.180229,-5439.278036,-7402.059420,16876.695478
246.180537,-76.609550,-1258.350101,9844.739029
246.180845,5822.325785,1480.411884,6143.709319
246.181153,8350.440928,7402.059420,1110.308913
246.181461,10035.851024,10140.821405,-1702.473667
246.181769,11338.213370,11843.295072,-296.082377
246.182077,10112.460574,11473.192101,-962.267725
246.182385,7124.688131,8660.409521,3627.009116
246.182693,2374.896044,3478.967927,7772.162391
246.183001,-1762.019645,-2220.617826,12583.501014
246.183309,-5975.544884,-7624.121203,18653.189738
246.183617,-9806.022374,-10658.965565,19541.436869
246.183925,-12870.404366,-12435.459826,20651.745782
246.184233,-11414.822920,-12731.542202,22724.322419
246.184541,-6894.859482,-9030.512492,18505.148550
246.184849,-536.266849,-1850.514855,11251.130318
246.185157,4213.525239,1924.535449,6439.791695
246.185465,7201.297681,6217.729913,1036.288319
246.185773,9576.193725,10881.027347,0.000000
246.186081,11338.213370,11843.295072,-222.061783
246.186389,10265.679673,12213.398043,-1110.308913
246.186697,8580.269578,9918.759623,1924.535449
246.187005,4519.963438,5329.482782,5921.647536
246.187313,-536.266849,-740.205942,10658.965565
246.187621,-4903.011187,-6365.771101,16432.571912
246.187929,-8810.098227,-9918.759623,18727.210333
246.188237,-11261.603821,-12361.439231,20059.581028
246.188545,-10265.679673,-12361.439231,20355.663405
246.188853,-6435.202183,-7846.182985,17320.819043
246.189161,-995.924147,-3034.844362,12065.356855
246.189469,4290.134789,1776.494261,6883.915261
246.189777,7967.393179,6957.935855,1850.514855
246.190085,10189.070123,10732.986159,-592.164754
246.190393,12104.308868,12509.480420,-148.041188
246.190701,11031.775171,13101.645173,-518.144159
246.191009,7890.783629,9992.780217,2294.638420
246.191317,2757.943793,4589.276840,6809.894666
246.191625,-1455.581446,-1110.308913,12583.501014
246.191933,-5439.278036,-6365.771101,18283.086767
246.192241,-9882.631924,-10362.883188,19985.560434
246.192549,-12257.527968,-12657.521608,21317.931130
246.192857,-11414.822920,-13323.706956,21910.095883
246.193165,-8350.440928,-9992.780217,19319.375086
246.193473,-1838.629195,-4293.194464,13693.809927
246.193781,2757.943793,1554.432478,7624.121203
246.194089,6971.469032,5773.606348,2368.659014
246.194397,9959.241474,9992.780217,222.061783
246.194705,11874.480219,12435.459826,-518.144159
246.195013,11261.603821,13471.748144,-1480.411884
246.195321,9806.022374,11621.233289,222.061783
246.195629,4903.011187,6809.894666,4293.194464
246.195937,919.314598,888.247130,9400.615463
246.196245,-3447.429741,-4811.338623,16136.489536
246.196553,-8427.050478,-9400.615463,17987.004391
246.196861,-11568.042020,-11843.295072,19393.395680
246.197169,-11338.213370,-12361.439231,21021.848753
246.197476,-8427.050478,-9696.697840,18949.272115
246.197784,-2298.286494,-4441.235652,13397.727550
246.198092,2757.943793,1776.494261,7179.997637
246.198400,7354.516781,5329.482782,2590.720797
246.198708,10418.898773,9770.718434,-222.061783
246.199016,11721.261119,11843.295072,0.000000
246.199324,11184.994271,12361.439231,-518.144159
246.199632,9039.926876,10807.006753,666.185348
246.199940,4673.182538,5699.585753,5625.565159
246.200248,-229.828649,-370.102971,10510.924376
246.200556,-3677.258390,-5921.647536,16802.674883
246.200864,-9039.926876,-10732.986159,19467.416275
246.201172,-11721.261119,-13027.624579,20503.704593
246.201480,-12257.527968,-13693.809927,21539.992912
246.201788,-9039.926876,-11251.130318,19763.498651
246.202096,-3140.991542,-5255.462188,14211.954086
246.202404,2145.067394,-0.000000,8586.388927
246.202712,5975.544884,4589.276840,3404.947333
246.203020,8656.879127,8956.491898,-222.061783
246.203328,12027.699319,11621.233289,-148.041188
246.203636,11874.480219,13471.748144,-2072.576638
246.203944,10035.851024,12139.377449,-1184.329507
246.204252,7048.078582,7328.038826,2812.782580
246.204560,1378.971896,2220.617826,7179.997637
246.204868,-2451.505594,-4145.153275,14582.057057
246.205176,-7354.516781,-9696.697840,17764.942608
246.205484,-11644.651570,-11991.336260,19171.333898
246.205792,-11568.042020,-13693.809927,21391.951724
246.206100,-9269.755526,-11473.192101,19689.478057
246.206408,-3907.087040,-5551.544565,15100.201217
246.206716,1149.143247,-518.144159,8882.471304
246.207024,6052.154434,4663.297435,3478.967927
246.207332,9499.584175,9844.739029,222.061783
246.207640,11644.651570,11843.295072,0.000000
246.207948,11031.775171,12879.583391,-962.267725
246.208256,9422.974625,11917.315666,74.020594
246.208564,5132.839837,6957.935855,5403.503377
246.208872,0.000000,888.247130,9622.677246
246.209180,-3677.258390,-4441.235652,15988.448347
246.209488,-8350.440928,-9474.636058,19245.354492
246.209796,-11568.042020,-11843.295072,20059.581028
246.210104,-12180.918418,-13175.665768,21539.992912
246.210412,-9806.022374,-12139.377449,21465.972318
246.210720,-4903.011187,-6883.915261,16136.489536
246.211028,689.485948,-740.205942,10214.842000
246.211336,6818.249932,3478.967927,4959.379811
246.211644,8733.488677,9104.533087,-740.205942
246.211952,12027.699319,11917.315666,0.000000
246.212260,12410.747068,13693.809927,-1332.370696
246.212568,9959.241474,13545.768739,-1924.535449
246.212876,6665.030833,8364.327145,2812.782580
246.213184,3064.381992,3404.947333,6661.853478
246.213492,-1225.752797,-2368.659014,13027.624579
246.213800,-6435.202183,-7698.141797,17468.860231
246.214108,-9729.412825,-10658.965565,19097.313304
246.214416,-11797.870669,-12435.459826,21021.848753
246.214724,-10265.679673,-12065.356855,21317.931130
246.215032,-4903.011187,-7846.182985,17098.757260
246.215340,0.000000,-1628.453072,11103.089130
246.215648,5209.449386,2886.803174,5551.544565
246.215956,8580.269578,8586.388927,1184.329507
246.216264,11338.213370,11029.068536,962.267725
246.216572,11874.480219,13101.645173,-296.082377
246.216880,10112.460574,12435.459826,-962.267725
246.217188,7048.078582,8364.327145,4145.153275
246.217496,1378.971896,2442.679609,7772.162391
246.217804,-2374.896044,-2738.761985,14211.954086
246.218112,-6894.859482,-7920.203579,18875.251521
246.218420,-9882.631924,-11251.130318,19763.498651
246.218728,-12257.527968,-12583.501014,20799.786970
246.219036,-10801.946522,-12879.583391,21910.095883
246.219344,-6435.202183,-8364.327145,18505.148550
246.219652,-919.314598,-2368.659014,10881.027347
246.219960,4673.182538,1924.535449,5995.668130
246.220268,7584.345430,7031.956449,1184.329507
246.220576,10955.165621,10436.903782,-444.123565
246.220884,12640.575717,12731.542202,-296.082377
246.221192,10878.556072,12583.501014,-1850.514855
246.221500,8427.050478,9622.677246,888.247130
246.221808,4060.306139,4737.318029,5033.400406
246.222116,0.000000,-666.185348,10658.965565
246.222424,-4673.182538,-7105.977043,16358.551318
246.222732,-8503.660028,-10214.842000,17690.922014
246.223040,-11031.775171,-12139.377449,18875.251521
246.223348,-10725.336972,-12139.377449,20725.766376
246.223656,-6741.640382,-8364.327145,17764.942608
246.223964,-1532.190996,-2442.679609,11843.295072
246.224272,4366.744339,1776.494261,6439.791695
246.224580,7584.345430,7105.977043,888.247130
246.224888,10572.117872,10140.821405,-148.041188
246.225196,11721.261119,11991.336260,444.123565
246.225504,9806.022374,12657.521608,-814.226536
246.225812,7277.907231,9178.553681,2664.741391
246.226120,2681.334243,3923.091493,6735.874072
246.226428,-1838.629195,-1776.494261,12213.398043
246.226736,-5669.106685,-7105.977043,18431.127956
246.227044,-9806.022374,-10584.944971,19171.333898
246.227352,-11721.261119,-12361.439231,20503.704593
246.227660,-11951.089769,-13175.665768,22280.198854
246.227968,-8120.612279,-9844.739029,19689.478057
246.228276,-2451.505594,-3997.112087,13027.624579
246.228584,2681.334243,962.267725,7846.182985
246.228892,6818.249932,6217.729913,1776.494261
246.229200,9806.022374,10214.842000,0.000000
246.229508,11797.870669,11473.192101,444.123565
246.229816,11184.994271,12657.521608,-1924.535449
246.230124,9576.193725,10732.986159,0.000000
246.230432,5362.668486,6217.729913,4589.276840
246.230740,306.438199,370.102971,9326.594869
246.231048,-3907.087040,-5033.400406,15396.283594
246.231356,-8427.050478,-9178.553681,18061.024985
246.231664,-11414.822920,-11621.233289,19171.333898
246.231972,-10801.946522,-12287.418637,21021.848753
246.232280,-7890.783629,-9400.615463,19393.395680
246.232588,-2298.286494,-3923.091493,12879.583391
246.232896,2528.115143,666.185348,7624.121203
246.233204,7660.954980,5921.647536,2886.803174
246.233512,9882.631924,10066.800811,0.000000
246.233820,11644.651570,11843.295072,1036.288319
246.234128,10801.946522,12509.480420,0.000000
246.234436,8197.221829,10140.821405,1110.308913
246.234744,4136.915689,5181.441594,5995.668130
246.235052,-842.705048,-592.164754,11029.068536
246.235360,-4903.011187,-5773.606348,16802.674883
246.235668,-8963.317327,-9622.677246,19319.375086
246.235976,-11184.994271,-12065.356855,20577.725188
246.236284,-11721.261119,-13323.706956,22132.157666
246.236592,-9346.365076,-10881.027347,20799.786970
246.236900,-3677.258390,-5625.565159,15322.262999
246.237208,2528.115143,-0.000000,9178.553681
246.237516,6818.249932,4737.318029,3182.885551
246.237824,10265.679673,9030.512492,518.144159
246.238132,11874.480219,11695.253884,0.000000
246.238440,11951.089769,12805.562797,-1554.432478
246.238748,9959.241474,11991.336260,-1258.350101
246.239056,6281.983084,7698.141797,2590.720797
246.239364,1991.848295,1924.535449,7179.997637
246.239672,-1838.629195,-3108.864956,13323.706956
246.239979,-6128.763984,-8142.265362,17394.839637
246.240287,-10648.727422,-10881.027347,17987.004391
246.240595,-11491.432470,-12065.356855,21021.848753
246.240903,-9422.974625,-10584.944971,20725.766376
246.241211,-3753.867940,-4737.318029,14508.036463
246.241519,1225.752797,-666.185348,10066.800811
246.241827,6358.592633,4293.194464,4145.153275
246.242135,9652.803275,9326.594869,-148.041188
246.242443,11338.213370,10658.965565,1036.288319
246.242751,11031.775171,11473.192101,0.000000
246.243059,9269.755526,10955.047942,444.123565
246.243367,5056.230287,7179.997637,4441.235652
246.243675,536.266849,814.226536,9326.594869
246.243983,-3524.039291,-4589.276840,15322.262999
246.244291,-7507.735880,-9474.636058,19541.436869
246.244599,-11108.384721,-11843.295072,19689.478057
246.244907,-11951.089769,-13471.748144,20947.828159
246.245215,-10725.336972,-12879.583391,21984.116477
246.245523,-5362.668486,-7105.977043,16136.489536
246.245831,383.047749,-1258.350101,10955.047942
246.246139,5592.497135,3849.070898,4737.318029
246.246447,8810.098227,8734.430116,-444.123565
246.246755,11031.775171,10955.047942,-888.247130
246.247063,12717.185267,12139.377449,-1184.329507
246.247371,11261.603821,13027.624579,-2146.597232
246.247679,7507.735880,8734.430116,1776.494261
246.247987,3753.867940,3923.091493,5921.647536
246.248295,-612.876398,-1628.453072,11399.171507
246.248603,-5439.278036,-7105.977043,16580.613101
246.248911,-9499.584175,-10288.862594,18283.086767
246.249219,-12027.699319,-12213.398043,19763.498651
246.249527,-11108.384721,-11399.171507,20725.766376
246.249835,-5745.716235,-6883.915261,17246.798449
246.250143,0.000000,-1480.411884,11991.336260
246.250451,4213.525239,2960.823768,5181.441594
246.250759,7967.393179,8216.285956,222.061783
246.251067,10265.679673,10881.027347,666.185348
246.251375,10801.946522,11843.295072,518.144159
246.251683,8886.707777,11399.171507,222.061783
246.251991,5822.325785,7994.224174,3849.070898
246.252299,1455.581446,1924.535449,8290.306550
246.252607,-2068.457845,-3923.091493,14137.933492
246.252915,-6511.811733,-8068.244768,18875.251521
246.253223,-9806.022374,-11769.274478,19319.375086
246.253531,-11568.042020,-13619.789333,20651.745782
246.253839,-11414.822920,-13323.706956,21614.013506
246.254147,-6511.811733,-9104.533087,18801.230927
246.254455,-459.657299,-2812.782580,11917.315666
246.254763,4749.792088,2368.659014,5699.585753
246.255071,8580.269578,7698.141797,444.123565
246.255379,11951.089769,11621.233289,-740.205942
246.255687,12640.575717,13323.706956,-1554.432478
246.255995,11644.651570,13397.727550,-2146.597232
246.256303,8503.660028,10140.821405,740.205942
246.256611,4136.915689,5107.421000,5329.482782
246.256919,76.609550,-148.041188,10658.965565
246.257227,-4366.744339,-5625.565159,16432.571912
246.257535,-9116.536426,-9770.718434,18653.189738
246.257843,-12334.137518,-11917.315666,19837.519246
246.258151,-11338.213370,-12139.377449,21910.095883
246.258459,-7660.954980,-8660.409521,18801.230927
246.258767,-2221.676944,-3034.844362,13101.645173
246.259075,3294.210641,888.247130,7994.224174
246.259383,7201.297681,6587.832884,1702.473667
246.259691,9116.536426,10362.883188,814.226536
246.259999,11797.870669,11621.233289,1110.308913
246.260307,10572.117872,12657.521608,-592.164754
246.260615,7124.688131,9696.697840,2664.741391
246.260923,3064.381992,4441.235652,7031.956449
246.261230,-1072.533697,-1702.473667,12509.480420
246.261538,-5209.449386,-6439.791695,17764.942608
246.261846,-9039.926876,-11547.212695,19319.375086
246.262154,-11491.432470,-12435.459826,20429.683999
246.262462,-11491.432470,-12805.562797,21539.992912
246.262770,-8120.612279,-10362.883188,20059.581028
246.263078,-1532.190996,-3997.112087,13323.706956
246.263386,3753.867940,1776.494261,6365.771101
246.263694,8273.831378,6513.812290,888.247130
246.264002,11414.822920,10807.006753,-962.267725
246.264310,12870.404366,11991.336260,-296.082377
246.264618,12257.527968,13027.624579,-2516.700203
246.264926,9499.584175,11251.130318,-444.123565
246.265234,4903.011187,6069.688724,4663.297435
246.265542,612.876398,1110.308913,9844.739029
246.265850,-3753.867940,-4589.276840,16062.468941
246.266158,-8273.831378,-9622.677246,18875.251521
246.266466,-11721.261119,-12065.356855,20133.601622
246.266774,-12257.527968,-12435.459826,21836.075289
246.267082,-9346.365076,-10140.821405,20207.622217
246.267390,-2528.115143,-4589.276840,14434.015869
246.267698,2145.067394,962.267725,6587.832884
246.268006,6971.469032,5847.626942,2220.617826
246.268314,9882.631924,9252.574275,518.144159
246.268622,11338.213370,11695.253884,-148.041188
246.268930,11338.213370,12805.562797,-518.144159
246.269238,8963.317327,10362.883188,148.041188
246.269546,4366.744339,5699.585753,5921.647536
246.269853,-1072.533697,-592.164754,11547.212695
246.270161,-4443.353888,-5255.462188,17024.736666
246.270469,-8733.488677,-10288.862594,19541.436869
246.270777,-11261.603821,-12139.377449,19615.457463
246.271085,-11721.261119,-13101.645173,21095.869347
246.271393,-8886.707777,-11177.109724,20725.766376
246.271701,-3064.381992,-5033.400406,14285.974681
246.272009,2451.505594,962.267725,6883.915261
246.272317,7201.297681,4885.359217,1702.473667
246.272625,9882.631924,9030.512492,-1184.329507
246.272933,11797.870669,11251.130318,-444.123565
246.273241,11951.089769,12361.439231,-1776.494261
246.273549,9499.584175,11621.233289,-1258.350101
246.273857,5515.887586,7105.977043,3182.885551
246.274165,766.095498,962.267725,8438.347739
246.274473,-3753.867940,-3923.091493,14804.118840
246.274781,-7737.564530,-9400.615463,18727.210333
246.275089,-11414.822920,-11843.295072,19911.539840
246.275397,-12027.699319,-12509.480420,21317.931130
246.275705,-9959.241474,-10658.965565,20503.704593
246.276013,-3447.429741,-5551.544565,15470.304188
246.276321,1532.190996,-0.000000,7846.182985
246.276629,6511.811733,4737.318029,2886.803174
246.276937,9729.412825,9326.594869,592.164754
246.277245,12180.918418,11325.150913,-222.061783
246.277553,11568.042020,13027.624579,-1258.350101
246.277861,9652.803275,11621.233289,-370.102971
246.278169,5132.839837,6957.935855,4589.276840
246.278476,383.047749,444.123565,10140.821405
246.278784,-2834.553343,-4441.235652,16580.613101
246.279092,-7814.174080,-10214.842000,19985.560434
246.279400,-11338.213370,-12361.439231,20577.725188
246.279708,-11874.480219,-12139.377449,21762.054695
246.280016,-10342.289223,-12213.398043,22576.281231
246.280324,-4519.963438,-6439.791695,16136.489536
246.280632,1838.629195,592.164754,8734.430116
246.280940,6818.249932,4663.297435,3478.967927
246.281248,9346.365076,8734.430116,222.061783
246.281556,11721.261119,11399.171507,-222.061783
246.281864,12640.575717,12953.603985,-1332.370696
246.282172,10189.070123,12065.356855,-2072.576638
246.282480,6818.249932,8734.430116,2442.679609
246.282788,2681.334243,3182.885551,7550.100608
246.283096,-1991.848295,-2294.638420,13989.892304
246.283404,-7124.688131,-8068.244768,18209.066173
246.283712,-10418.898773,-11769.274478,19393.395680
246.284020,-12180.918418,-12361.439231,21243.910535
246.284328,-10342.289223,-12065.356855,21762.054695
246.284636,-4749.792088,-7105.977043,17098.757260
246.284944,383.047749,-814.226536,9474.636058
246.285252,5745.716235,3923.091493,4219.173869
246.285560,9499.584175,8068.244768,666.185348
246.285868,11261.603821,11621.233289,-370.102971
246.286176,11874.480219,13101.645173,-592.164754
246.286484,10495.508323,11917.315666,-962.267725
246.286792,6665.030833,8216.285956,3478.967927
246.287099,1991.848295,1258.350101,8734.430116
246.287407,-2451.505594,-3775.050304,14508.036463
246.287715,-7431.126331,-9474.636058,19393.395680
246.288023,-11414.822920,-12879.583391,20651.745782
246.288331,-12334.137518,-13397.727550,21836.075289
246.288639,-11568.042020,-12657.521608,22576.281231
246.288947,-5592.497135,-8734.430116,17838.963202
246.289255,383.047749,-888.247130,9104.533087
246.289563,5592.497135,3478.967927,4663.297435
246.289871,9499.584175,7254.018232,518.144159
246.290179,11568.042020,11251.130318,-1480.411884
246.290487,12717.185267,12583.501014,-814.226536
246.290795,11414.822920,13027.624579,-2590.720797
246.291103,7507.735880,9696.697840,1036.288319
246.291411,3677.258390,3997.112087,6439.791695
246.291719,-919.314598,-1554.432478,11251.130318
246.292027,-5439.278036,-6957.935855,16950.716072
246.292335,-10035.851024,-11325.150913,18949.272115
246.292643,-12257.527968,-12287.418637,20799.786970
246.292951,-11184.994271,-11843.295072,21539.992912
246.293259,-6511.811733,-8216.285956,18283.086767
246.293567,-459.657299,-2146.597232,10658.965565
246.293875,4136.915689,2442.679609,5255.462188
246.294183,7967.393179,7846.182985,1332.370696
246.294491,10648.727422,10436.903782,0.000000
246.294799,12027.699319,13397.727550,-962.267725
246.295107,10342.289223,12435.459826,-1110.308913
246.295415,6588.421283,9030.512492,2812.782580
246.295722,1685.410096,2220.617826,8660.409521
246.296030,-2145.067394,-3775.050304,14582.057057
246.296338,-7507.735880,-9104.533087,19689.478057
246.296646,-11644.651570,-13397.727550,21095.869347
246.296954,-13483.280765,-14063.912898,21391.951724
246.297262,-12257.527968,-13397.727550,22354.219448
246.297570,-6435.202183,-9622.677246,18949.272115
246.297878,-383.047749,-1924.535449,10288.862594
246.298186,5439.278036,3182.885551,4367.215058
246.298494,8810.098227,7254.018232,74.020594
246.298802,12027.699319,11399.171507,-1110.308913
246.299110,13176.842566,13841.851115,-1776.494261
246.299418,11951.089769,13989.892304,-3256.906145
246.299726,9269.755526,11029.068536,370.102971
246.300034,4596.572988,5625.565159,5107.421000
246.300342,-459.657299,-0.000000,10584.944971
246.300650,-5439.278036,-6291.750507,17024.736666
246.300958,-10265.679673,-11325.150913,20133.601622
246.301266,-12870.404366,-12361.439231,21095.869347
246.301574,-12180.918418,-12583.501014,21910.095883
246.301882,-7967.393179,-9474.636058,19985.560434
246.302190,-1608.800546,-2960.823768,12509.480420
246.302498,3600.648841,2442.679609,5773.606348
246.302806,7890.783629,6661.853478,1924.535449
246.303114,11108.384721,10658.965565,0.000000
246.303422,12257.527968,13249.686362,-740.205942
246.303730,11874.480219,13619.789333,-740.205942
246.304038,8350.440928,9844.739029,1776.494261
246.304345,3524.039291,4737.318029,7179.997637
246.304653,-1072.533697,-1998.556043,12953.603985
246.304961,-5975.544884,-7328.038826,18579.169144
246.305269,-10495.508323,-12065.356855,20503.704593
246.305577,-12563.966167,-12953.603985,21317.931130
246.305885,-11951.089769,-13175.665768,22724.322419
246.306193,-8427.050478,-11103.089130,20133.601622
246.306501,-2604.724693,-3701.029710,11991.336260
246.306809,4213.525239,2294.638420,6735.874072
246.307117,8427.050478,5995.668130,444.123565
246.307425,11568.042020,11103.089130,-1628.453072
246.307733,13866.328514,12657.521608,-1036.288319
246.308041,12487.356617,14211.954086,-3997.112087
246.308349,10035.851024,11177.109724,-592.164754
246.308657,4979.620737,6217.729913,4367.215058
246.308965,0.000000,370.102971,9252.574275
246.309273,-4519.963438,-5921.647536,16358.551318
246.309581,-8886.707777,-10362.883188,19097.313304
246.309889,-12180.918418,-12139.377449,20281.642811
246.310197,-12334.137518,-13101.645173,21465.972318
246.310505,-9652.803275,-11325.150913,20577.725188
246.310813,-2528.115143,-4737.318029,14063.912898
246.311121,3907.087040,1184.329507,7624.121203
246.311429,6894.859482,6217.729913,888.247130
246.311737,10418.898773,9474.636058,-370.102971
246.312045,12334.137518,11991.336260,148.041188
246.312353,11568.042020,13619.789333,-2220.617826
246.312660,9729.412825,10584.944971,666.185348
246.312968,4903.011187,5921.647536,4885.359217
246.313276,76.609550,-888.247130,10658.965565
246.313584,-4290.134789,-6217.729913,16136.489536
246.313892,-9193.145976,-11473.192101,19689.478057
246.314200,-12640.575717,-13397.727550,21021.848753
246.314508,-12640.575717,-12805.562797,21688.034101
246.314816,-9499.584175,-11399.171507,21465.972318
246.315124,-2757.943793,-5107.421000,14359.995275
246.315432,2987.772442,962.267725,7105.977043
246.315740,7354.516781,5033.400406,1702.473667
246.316048,10648.727422,9252.574275,-740.205942
246.316356,12027.699319,11695.253884,-296.082377
246.316664,12180.918418,13101.645173,-1998.556043
246.316972,10189.070123,12139.377449,-1036.288319
246.317280,5669.106685,7550.100608,3034.844362
246.317588,919.314598,1480.411884,8142.265362
246.317896,-3140.991542,-3997.112087,14730.098246
246.318204,-8197.221829,-9326.594869,18801.230927
246.318512,-11568.042020,-12287.418637,19985.560434
246.318820,-12104.308868,-12361.439231,21317.931130
246.319128,-9729.412825,-11251.130318,20873.807564
246.319436,-3370.820191,-5921.647536,15914.427753
246.319744,1072.533697,-0.000000,8142.265362
246.320052,6511.811733,4885.359217,3182.885551
246.320360,9806.022374,8660.409521,370.102971
246.320668,12027.699319,12287.418637,-370.102971
246.320976,12793.794817,13323.706956,-1480.411884
246.321283,9806.022374,11917.315666,0.000000
246.321591,5209.449386,7105.977043,4959.379811
246.321899,383.047749,-0.000000,10510.924376
246.322207,-4290.134789,-4589.276840,15914.427753
246.322515,-8427.050478,-9918.759623,19985.560434
246.322823,-11568.042020,-12435.459826,20725.766376
246.323131,-12027.699319,-12287.418637,22354.219448
246.323439,-9959.241474,-12287.418637,21984.116477
246.323747,-4136.915689,-6365.771101,16580.613101
246.324055,1455.581446,592.164754,8882.471304
246.324363,6818.249932,4515.256246,3997.112087
246.324671,9499.584175,9030.512492,0.000000
246.324979,12027.699319,11843.295072,-222.061783
246.325287,13406.671215,12583.501014,-740.205942
246.325595,10648.727422,12139.377449,-1702.473667
246.325903,6818.249932,8956.491898,2960.823768
246.326211,2221.676944,2812.782580,7994.224174
246.326519,-2528.115143,-2220.617826,13101.645173
246.326827,-6894.859482,-7772.162391,17690.922014
246.327135,-10495.508323,-11177.109724,19171.333898
246.327443,-12257.527968,-11843.295072,20503.704593
246.327751,-10648.727422,-11843.295072,22206.178260
246.328059,-5132.839837,-7846.182985,17098.757260
246.328367,-153.219100,-740.205942,9548.656652
246.328675,4903.011187,2812.782580,5477.523971
246.328983,7660.954980,7402.059420,888.247130
246.329291,10418.898773,10955.047942,222.061783
246.329599,12180.918418,12065.356855,-296.082377
246.329906,9959.241474,11991.336260,-1554.432478
246.330214,6281.983084,7846.182985,3330.926739
246.330522,2068.457845,1628.453072,8216.285956
246.330830,-2374.896044,-3330.926739,13397.727550
246.331138,-6894.859482,-8808.450710,18505.148550
246.331446,-10495.508323,-12065.356855,19467.416275
246.331754,-12334.137518,-12435.459826,20429.683999
246.332062,-10878.556072,-12509.480420,22058.137072
246.332370,-5209.449386,-8364.327145,17764.942608
246.332678,76.609550,-1480.411884,9770.718434
246.332986,5132.839837,2516.700203,4515.256246
246.333294,8197.221829,6735.874072,666.185348
246.333602,11414.822920,10658.965565,-296.082377
246.333910,12947.013916,12213.398043,-814.226536
246.334218,11031.775171,12287.418637,-2442.679609
246.334526,8120.612279,9770.718434,666.185348
246.334834,3677.258390,4145.153275,5625.565159
246.335142,-689.485948,-1036.288319,11325.150913
246.335450,-6435.202183,-6957.935855,17024.736666
246.335758,-9806.022374,-10732.986159,19541.436869
246.336066,-11797.870669,-12065.356855,20059.581028
246.336374,-10955.165621,-11769.274478,21465.972318
246.336682,-6128.763984,-8216.285956,18505.148550
246.336990,-1302.362347,-2294.638420,11251.130318
246.337298,3830.477490,2072.576638,6217.729913
246.337606,7967.393179,6735.874072,1998.556043
246.337914,10572.117872,10807.006753,148.041188
246.338222,12410.747068,13027.624579,-148.041188
246.338529,11184.994271,12509.480420,-1110.308913
246.338837,7584.345430,9474.636058,2368.659014
246.339145,2987.772442,3627.009116,7550.100608
246.339453,-1532.190996,-1924.535449,13101.645173
246.339761,-5975.544884,-7105.977043,18505.148550
246.340069,-10189.070123,-11399.171507,19911.539840
246.340377,-11797.870669,-11917.315666,20947.828159
246.340685,-12104.308868,-12139.377449,22058.137072
246.340993,-6971.469032,-9622.677246,19837.519246
246.341301,-1762.019645,-2738.761985,12139.377449
246.341609,4060.306139,2368.659014,6661.853478
246.341917,8350.440928,6291.750507,1702.473667
246.342225,10725.336972,10584.944971,-592.164754
246.342533,13023.623466,12213.398043,0.000000
246.342841,11414.822920,12657.521608,-2664.741391
246.343149,8810.098227,10955.047942,74.020594
246.343457,5209.449386,5551.544565,5033.400406
246.343765,153.219100,-0.000000,9548.656652
246.344073,-4443.353888,-4959.379811,16136.489536
246.344381,-8733.488677,-10584.944971,19097.313304
246.344689,-11951.089769,-12065.356855,20207.622217
246.344997,-11721.261119,-12435.459826,21910.095883
246.345305,-7890.783629,-10140.821405,20207.622217
246.345613,-2528.115143,-4071.132681,13471.748144
246.345921,2911.162892,1184.329507,7698.141797
246.346229,7967.393179,5921.647536,2294.638420
246.346537,10112.460574,10288.862594,0.000000
246.346845,12180.918418,12509.480420,-444.123565
246.347152,12027.699319,13545.768739,-1184.329507
246.347460,9806.022374,10510.924376,1554.432478
246.347768,3294.210641,5255.462188,5625.565159
246.348076,-1149.143247,-1110.308913,12065.356855
246.348384,-5056.230287,-6217.729913,17320.819043
246.348692,-10572.117872,-10510.924376,19615.457463
246.349000,-12257.527968,-12435.459826,20725.766376
246.349308,-12257.527968,-11991.336260,21095.869347
246.349616,-8963.317327,-10732.986159,21021.848753
246.349924,-2604.724693,-4811.338623,14211.954086
246.350232,2911.162892,1406.391290,7994.224174
246.350540,6588.421283,4441.235652,2738.761985
246.350848,9882.631924,8068.244768,296.082377
246.351156,11261.603821,12213.398043,-444.123565
246.351464,12180.918418,11991.336260,-1258.350101
246.351772,9422.974625,11695.253884,-1258.350101
246.352080,5515.887586,6735.874072,3330.926739
246.352388,1225.752797,962.267725,8808.450710
246.352696,-3064.381992,-3923.091493,13915.871710
246.353004,-7814.174080,-9844.739029,18135.045579
246.353312,-11184.994271,-12361.439231,19467.416275
246.353620,-12180.918418,-12287.418637,20577.725188
246.353928,-9346.365076,-11251.130318,20799.786970
246.354236,-3677.258390,-5625.565159,14656.077652
246.354544,1838.629195,222.061783,7846.182985
246.354852,6665.030833,4811.338623,3256.906145
246.355160,10418.898773,9178.553681,0.000000
246.355468,12947.013916,11991.336260,-518.144159
246.355775,13176.842566,13767.830521,-1924.535449
246.356083,10112.460574,11251.130318,-592.164754
246.356391,5745.716235,6587.832884,4737.318029
246.356699,536.266849,-74.020594,10510.924376
246.357007,-4136.915689,-4959.379811,15988.448347
246.357315,-8733.488677,-9918.759623,19541.436869
246.357623,-12257.527968,-12583.501014,20429.683999
246.357931,-12793.794817,-12435.459826,21836.075289
246.358239,-10801.946522,-11621.233289,21836.075289
246.358547,-4673.182538,-6217.729913,16432.571912
246.358855,766.095498,-74.020594,9474.636058
246.359163,5745.716235,3997.112087,3849.070898
246.359471,9499.584175,7920.203579,296.082377
246.359779,11491.432470,11547.212695,-518.144159
246.360087,12104.308868,13101.645173,-1332.370696
246.360395,10648.727422,11843.295072,-666.185348
246.360703,7124.688131,8660.409521,2368.659014
246.361011,1915.238745,2590.720797,7328.038826
246.361319,-1762.019645,-2960.823768,13323.706956
246.361627,-7124.688131,-8438.347739,17542.880825
246.361935,-10342.289223,-11917.315666,19985.560434
246.362243,-11721.261119,-12287.418637,20799.786970
246.362551,-9806.022374,-11473.192101,21317.931130
246.362859,-5132.839837,-6883.915261,16358.551318
246.363167,1378.971896,-740.205942,9770.718434
246.363475,6358.592633,4071.132681,3478.967927
246.363782,9193.145976,8808.450710,444.123565
246.364090,12947.013916,11399.171507,222.061783
246.364398,12717.185267,13693.809927,-2294.638420
246.364706,11031.775171,11769.274478,0.000000
246.365014,6971.469032,7920.203579,3701.029710
246.365322,1608.800546,1702.473667,8808.450710
246.365630,-3140.991542,-3627.009116,15396.283594
246.365938,-7584.345430,-8586.388927,18653.189738
246.366246,-11338.213370,-12213.398043,20947.828159
246.366554,-12947.013916,-11991.336260,21391.951724
246.366862,-11874.480219,-11991.336260,22502.260637
246.367170,-6511.811733,-7402.059420,18135.045579
246.367478,0.000000,-2220.617826,11547.212695
246.367786,5822.325785,3034.844362,5181.441594
246.368094,7507.735880,7328.038826,222.061783
246.368402,11184.994271,10288.862594,888.247130
246.368710,11874.480219,13027.624579,-1184.329507
246.369018,10725.336972,12879.583391,-1258.350101
246.369326,7507.735880,9548.656652,1850.514855
246.369634,2987.772442,3775.050304,5551.544565
246.369942,-1149.143247,-1332.370696,11991.336260
246.370250,-5669.106685,-6587.832884,16728.654289
246.370558,-9576.193725,-10140.821405,18949.272115
246.370866,-12027.699319,-11695.253884,20355.663405
246.371174,-10878.556072,-11917.315666,21465.972318
246.371482,-6818.249932,-8734.430116,18357.107362
246.371789,-1608.800546,-2442.679609,11621.233289
246.372097,4519.963438,2146.597232,6513.812290
246.372405,7967.393179,6439.791695,1110.308913
246.372713,11184.994271,10732.986159,0.000000
246.373021,12487.356617,11991.336260,-518.144159
246.373329,11338.213370,12509.480420,-1850.514855
246.373637,7967.393179,9474.636058,2442.679609
246.373945,3140.991542,2886.803174,7105.977043
246.374253,-2145.067394,-2368.659014,12509.480420
246.374561,-6052.154434,-7328.038826,18505.148550
246.374869,-10495.508323,-11843.295072,20059.581028
246.375177,-12640.575717,-12953.603985,21169.889941
246.375485,-12027.699319,-12805.562797,21984.116477
246.375793,-7967.393179,-10066.800811,19541.436869
246.376101,-1991.848295,-3108.864956,11621.233289
246.376409,3600.648841,1776.494261,7328.038826
246.376717,7737.564530,5033.400406,1628.453072
246.377025,10342.289223,10584.944971,-1850.514855
246.377333,12717.185267,11843.295072,-370.102971
246.377641,12257.527968,12805.562797,-2664.741391
246.377949,9193.145976,11473.192101,-888.247130
246.378257,5286.058936,5995.668130,4589.276840
246.378565,536.266849,-0.000000,9104.533087
246.378873,-4136.915689,-5329.482782,15322.262999
246.379181,-9193.145976,-10584.944971,18579.169144
246.379488,-10955.165621,-12139.377449,20577.725188
246.379796,-11261.603821,-11991.336260,20577.725188
246.380104,-8963.317327,-9770.718434,19763.498651
246.380412,-1685.410096,-4071.132681,14211.954086
246.380720,2987.772442,1332.370696,6513.812290
246.381028,7277.907231,6365.771101,2368.659014
246.381336,11108.384721,9770.718434,148.041188
246.381644,12410.747068,12657.521608,-740.205942
246.381952,12180.918418,13101.645173,-592.164754
246.382260,9039.926876,10436.903782,1184.329507
246.382568,4213.525239,4737.318029,6291.750507
246.382876,-1302.362347,-1110.308913,12287.418637
246.383184,-5286.058936,-5921.647536,17616.901420
246.383492,-9576.193725,-11029.068536,20133.601622
246.383800,-12563.966167,-12361.439231,20873.807564
246.384108,-12180.918418,-12065.356855,21984.116477
246.384416,-8886.707777,-10436.903782,21317.931130
246.384724,-2451.505594,-4737.318029,14730.098246
246.385032,2528.115143,1258.350101,7476.080014
246.385340,7507.735880,5107.421000,2368.659014
246.385648,10418.898773,9548.656652,-444.123565
246.385956,12027.699319,12361.439231,-962.267725
246.386264,12947.013916,13397.727550,-2072.576638
246.386572,10648.727422,12139.377449,-1184.329507
246.386880,5898.935335,7254.018232,3478.967927
246.387188,1378.971896,962.267725,8734.430116
246.387495,-3064.381992,-3701.029710,15100.201217
246.387803,-8350.440928,-9474.636058,18653.189738
246.388111,-11338.213370,-11917.315666,20059.581028
246.388419,-12180.918418,-11991.336260,21614.013506
246.388727,-9806.022374,-11103.089130,20947.828159
246.389035,-3907.087040,-5181.441594,14804.118840
246.389343,2221.676944,666.185348,8142.265362
246.389651,7507.735880,4515.256246,3330.926739
246.389959,9499.584175,9474.636058,-592.164754
246.390267,12257.527968,11547.212695,-370.102971
246.390575,12334.137518,13101.645173,-1628.453072
246.390883,9652.803275,11769.274478,0.000000
246.391191,5286.058936,6291.750507,5181.441594
246.391499,76.609550,-0.000000,10881.027347
246.391807,-4060.306139,-5181.441594,17024.736666
246.392115,-9116.536426,-10288.862594,19763.498651
246.392423,-11951.089769,-12361.439231,21095.869347
246.392731,-12717.185267,-12361.439231,21465.972318
246.393039,-10572.117872,-11917.315666,21688.034101
246.393347,-4673.182538,-6365.771101,16432.571912
246.393655,995.924147,-0.000000,8586.388927
246.393963,6205.373534,4367.215058,4145.153275
246.394271,8580.269578,8216.285956,-592.164754
246.394579,12027.699319,11843.295072,-1406.391290
246.394887,12947.013916,13841.851115,-1924.535449
246.395194,11031.775171,13175.665768,-2294.638420
246.395502,7048.078582,9252.574275,2294.638420
246.395810,2145.067394,2294.638420,7920.203579
246.396118,-2374.896044,-2368.659014,12657.521608
246.396426,-7737.564530,-9474.636058,18061.024985
246.396734,-11261.603821,-12731.542202,20799.786970
246.397042,-13100.233016,-12731.542202,21021.848753
246.397350,-10878.556072,-11917.315666,20947.828159
246.397658,-4826.401637,-7328.038826,17024.736666
246.397966,459.657299,-888.247130,8660.409521
246.398274,5975.544884,3627.009116,3775.050304
246.398582,10265.679673,7550.100608,740.205942
246.398890,12717.185267,11843.295072,-1850.514855
246.399198,13559.890315,13175.665768,-1406.391290
246.399506,11491.432470,12213.398043,-444.123565
246.399814,6971.469032,8068.244768,3404.947333
246.400122,1762.019645,1480.411884,9474.636058
246.400430,-2757.943793,-2960.823768,14656.077652
246.400738,-7277.907231,-8586.388927,19097.313304
246.401046,-10801.946522,-11843.295072,20725.766376
246.401354,-12257.527968,-12731.542202,21169.889941
246.401662,-11338.213370,-12287.418637,21688.034101
246.401970,-5745.716235,-8512.368333,18431.127956
246.402278,-536.266849,-1110.308913,9326.594869
246.402586,5056.230287,3478.967927,5033.400406
246.402894,8963.317327,7105.977043,1036.288319
246.403201,11031.775171,11769.274478,-2886.803174
246.403509,13866.328514,12583.501014,-148.041188
246.403817,11491.432470,12435.459826,-2146.597232
246.404125,7507.735880,9548.656652,962.267725
246.404433,3370.820191,2590.720797,8364.327145
246.404741,-2068.457845,-1850.514855,12065.356855
246.405049,-6511.811733,-7624.121203,18135.045579
246.405357,-10572.117872,-11695.253884,19393.395680
246.405665,-12487.356617,-12139.377449,20873.807564
246.405973,-11644.651570,-11695.253884,20651.745782
246.406281,-6435.202183,-8068.244768,18283.086767
246.406589,766.095498,-1332.370696,11399.171507
246.406897,4749.792088,3552.988522,4515.256246
246.407205,8810.098227,7402.059420,1184.329507
246.407513,12334.137518,11473.192101,-1258.350101
246.407821,12487.356617,13175.665768,-1702.473667
246.408129,11951.089769,12287.418637,-518.144159
246.408437,8886.707777,9030.512492,2220.617826
246.408745,2604.724693,2516.700203,9178.553681
246.409053,-2451.505594,-2738.761985,14211.954086
246.409361,-6435.202183,-7698.141797,18801.230927
246.409669,-11491.432470,-11991.336260,21539.992912
246.409977,-12793.794817,-12509.480420,21836.075289
246.410285,-12180.918418,-11769.274478,21391.951724
246.410593,-8503.660028,-8882.471304,20207.622217
246.410900,76.609550,-2072.576638,12805.562797
246.411208,3600.648841,3404.947333,5329.482782
246.411516,7277.907231,6291.750507,2146.597232
246.411824,11184.994271,10807.006753,-444.123565
246.412132,12104.308868,13619.789333,-1480.411884
246.412440,11721.261119,12805.562797,-1406.391290
246.412748,8886.707777,11029.068536,296.082377
246.413056,3830.477490,4663.297435,5995.668130
246.413364,-1455.581446,-1554.432478,11621.233289
246.413672,-5362.668486,-6661.853478,17246.798449
246.413980,-10189.070123,-11103.089130,19467.416275
246.414288,-12410.747068,-11991.336260,20651.745782
246.414596,-11568.042020,-11621.233289,20577.725188
246.414904,-7967.393179,-9030.512492,18875.251521
246.415212,-1302.362347,-2886.803174,13027.624579
246.415520,3217.601092,2294.638420,5107.421000
246.415828,8733.488677,6217.729913,2146.597232
246.416136,13100.233016,10140.821405,-740.205942
246.416444,12257.527968,12953.603985,-2294.638420
246.416752,12180.918418,11547.212695,-296.082377
246.417060,9039.926876,9622.677246,962.267725
246.417368,3677.258390,3330.926739,7031.956449
246.417676,-1072.533697,-2368.659014,12731.542202
246.417984,-5209.449386,-7105.977043,17172.777854
246.418292,-9806.022374,-11991.336260,19985.560434
246.418600,-11721.261119,-13175.665768,20873.807564
246.418907,-11491.432470,-12435.459826,21317.931130
246.419215,-9116.536426,-10584.944971,19541.436869
246.419523,-2068.457845,-3256.906145,13027.624579
246.419831,2528.115143,2220.617826,6439.791695
246.420139,8427.050478,5403.503377,2738.761985
246.420447,10189.070123,10510.924376,-2738.761985
246.420755,12334.137518,12583.501014,-2146.597232
246.421063,12640.575717,12361.439231,-1332.370696
246.421371,9422.974625,11547.212695,-962.267725
246.421679,5056.230287,5403.503377,5107.421000
246.421987,-153.219100,-0.000000,9696.697840
246.422295,-4673.182538,-5625.565159,15026.180623
246.422603,-9806.022374,-10510.924376,19097.313304
246.422911,-11951.089769,-12139.377449,20725.766376
246.423219,-11644.651570,-11695.253884,21021.848753
246.423527,-8427.050478,-9400.615463,18727.210333
246.423835,-1838.629195,-3256.906145,13545.768739
246.424143,2834.553343,1480.411884,7846.182985
246.424451,8273.831378,5403.503377,2960.823768
246.424759,10572.117872,10584.944971,-1480.411884
246.425067,12640.575717,12065.356855,-666.185348
246.425375,11874.480219,12731.542202,-1332.370696
246.425683,9346.365076,10436.903782,1110.308913
246.425991,4826.401637,5033.400406,7179.997637
246.426299,-842.705048,-1110.308913,11843.295072
246.426606,-4826.401637,-5181.441594,16580.613101
246.426914,-9422.974625,-10362.883188,19837.519246
246.427222,-11644.651570,-11917.315666,21391.951724
246.427530,-12027.699319,-11843.295072,21465.972318
246.427838,-9576.193725,-10436.903782,20577.725188
246.428146,-3524.039291,-4367.215058,14359.995275
246.428454,2911.162892,1184.329507,8216.285956
246.428762,7507.735880,4367.215058,3627.009116
246.429070,9959.241474,9474.636058,-1258.350101
246.429378,12180.918418,12361.439231,-962.267725
246.429686,12257.527968,12435.459826,-1554.432478
246.429994,9652.803275,11621.233289,-444.123565
246.430302,5362.668486,6291.750507,4219.173869
246.430610,689.485948,370.102971,9696.697840
246.430918,-3600.648841,-3849.070898,15100.201217
246.431226,-8120.612279,-9474.636058,18135.045579
246.431534,-10801.946522,-11251.130318,19837.519246
246.431842,-12027.699319,-11251.130318,20429.683999
246.432150,-9576.193725,-9992.780217,19985.560434
246.432458,-3370.820191,-4885.359217,15322.262999
246.432766,1072.533697,518.144159,8216.285956
246.433074,6281.983084,4589.276840,3627.009116
246.433382,9652.803275,7698.141797,222.061783
246.433690,11184.994271,11325.150913,-370.102971
246.433998,11414.822920,11769.274478,-148.041188
246.434306,9652.803275,10732.986159,666.185348
246.434613,4979.620737,6217.729913,4959.379811
246.434921,0.000000,-74.020594,10140.821405
246.435229,-3753.867940,-4071.132681,15470.304188
246.435537,-8044.002729,-9622.677246,19023.292709
246.435845,-11797.870669,-12435.459826,20947.828159
246.436153,-12257.527968,-11769.274478,20577.725188
246.436461,-10112.460574,-10807.006753,20725.766376
246.436769,-4136.915689,-6291.750507,16136.489536
246.437077,1149.143247,-0.000000,9178.553681
246.437385,5592.497135,3923.091493,4145.153275
246.437693,8886.707777,7254.018232,666.185348
246.438001,11414.822920,11251.130318,-1998.556043
246.438309,11951.089769,12435.459826,-1332.370696
246.438617,11261.603821,11473.192101,-370.102971
246.438925,6894.859482,8438.347739,1850.514855
246.439233,1991.848295,1850.514855,8216.285956
246.439541,-2374.896044,-2664.741391,12731.542202
246.439849,-6894.859482,-7624.121203,17024.736666
246.440157,-10572.117872,-10881.027347,19837.519246
246.440465,-11951.089769,-11843.295072,20355.663405
246.440773,-9806.022374,-10510.924376,19837.519246
246.441081,-4826.401637,-6587.832884,16062.468941
246.441389,612.876398,-592.164754,9622.677246
246.441697,5745.716235,3034.844362,5033.400406
246.442005,8963.317327,7179.997637,1036.288319
246.442312,11874.480219,11029.068536,-666.185348
246.442620,11951.089769,12139.377449,-814.226536
246.442928,10878.556072,11029.068536,296.082377
246.443236,7277.907231,7846.182985,2886.803174
246.443544,1915.238745,1850.514855,9030.512492
246.443852,-2298.286494,-3108.864956,14137.933492
246.444160,-6358.592633,-7476.080014,17987.004391
246.444468,-9959.241474,-11325.150913,20281.642811
246.444776,-11721.261119,-12065.356855,20947.828159
246.445084,-10955.165621,-11177.109724,20725.766376
246.445392,-5975.544884,-7772.162391,17987.004391
246.445700,153.219100,-1554.432478,11251.130318
246.446008,4749.792088,2738.761985,5181.441594
246.446316,7660.954980,6217.729913,1998.556043
246.446624,11414.822920,9918.759623,-370.102971
246.446932,11261.603821,12139.377449,-1332.370696
246.447240,11108.384721,11399.171507,0.000000
246.447548,8427.050478,9622.677246,1406.391290
246.447856,3447.429741,3701.029710,6291.750507
246.448164,-1378.971896,-1184.329507,11473.192101
246.448472,-5515.887586,-5699.585753,15766.386565
246.448780,-9576.193725,-9918.759623,19245.354492
246.449088,-11721.261119,-11029.068536,19911.539840
246.449396,-10648.727422,-9918.759623,19467.416275
246.449704,-6358.592633,-7179.997637,17468.860231
246.450012,229.828649,-2590.720797,11695.253884
246.450319,3217.601092,2146.597232,5255.462188
246.450627,8044.002729,5107.421000,2738.761985
246.450935,10878.556072,9400.615463,74.020594
246.451243,10878.556072,11399.171507,-74.020594
246.451551,11184.994271,11251.130318,370.102971
246.451859,8197.221829,8734.430116,1776.494261
246.452167,2834.553343,3330.926739,7328.038826
246.452475,-766.095498,-1406.391290,12583.501014
246.452783,-4826.401637,-5995.668130,17098.757260
246.453091,-9806.022374,-10584.944971,19689.478057
246.453399,-11414.822920,-12139.377449,21539.992912
246.453707,-11261.603821,-11251.130318,20651.745782
246.454015,-8656.879127,-9178.553681,18949.272115
246.454323,-1915.238745,-3627.009116,13693.809927
246.454631,2681.334243,2220.617826,6513.812290
246.454939,6971.469032,5033.400406,2960.823768
246.455247,10495.508323,8956.491898,222.061783
246.455555,11184.994271,11473.192101,-1258.350101
246.455863,11338.213370,11399.171507,-592.164754
246.456171,9116.536426,10436.903782,74.020594
246.456479,4903.011187,5625.565159,4663.297435
246.456787,-229.828649,148.041188,10362.883188
246.457095,-3983.696590,-3923.091493,14878.139434
246.457403,-9422.974625,-8882.471304,18579.169144
246.457711,-11951.089769,-11325.150913,20207.622217
246.458018,-11338.213370,-10140.821405,19689.478057
246.458326,-8273.831378,-8438.347739,18209.066173
246.458634,-2068.457845,-3923.091493,13841.851115
246.458942,2451.505594,1036.288319,7105.977043
246.459250,6665.030833,4737.318029,2960.823768
246.459558,9959.241474,8364.327145,888.247130
246.459866,11184.994271,10362.883188,-1258.350101
246.460174,11108.384721,10955.047942,148.041188
246.460482,10035.851024,9474.636058,2368.659014
246.460790,4826.401637,5107.421000,5181.441594
246.461098,-536.266849,-370.102971,11325.150913
246.461406,-3753.867940,-5181.441594,16432.571912
246.461714,-8810.098227,-9622.677246,19467.416275
246.462022,-11797.870669,-12213.398043,21391.951724
246.462330,-11568.042020,-12065.356855,20577.725188
246.462638,-9806.022374,-10362.883188,19097.313304
246.462946,-3447.429741,-5625.565159,15914.427753
246.463254,2298.286494,1110.308913,8438.347739
246.463562,6052.154434,4145.153275,3552.988522
246.463870,9576.193725,8586.388927,0.000000
246.464178,11797.870669,10955.047942,-1850.514855
246.464486,11414.822920,12139.377449,-1406.391290
246.464794,10725.336972,11547.212695,0.000000
246.465101,6741.640382,7846.182985,2960.823768
246.465409,1455.581446,1628.453072,8660.409521
246.465717,-2451.505594,-3034.844362,13841.851115
246.466025,-7431.126331,-7550.100608,17764.942608
246.466333,-11184.994271,-10658.965565,20207.622217
246.466641,-11797.870669,-10362.883188,20059.581028
246.466949,-9499.584175,-9030.512492,18357.107362
246.467257,-3677.258390,-5033.400406,15100.201217
246.467565,919.314598,-0.000000,8882.471304
246.467873,6511.811733,3627.009116,5181.441594
246.468181,8810.098227,7105.977043,666.185348
246.468489,10801.946522,10510.924376,-814.226536
246.468797,11414.822920,10288.862594,370.102971
246.469105,9806.022374,10288.862594,666.185348
246.469413,5439.278036,6291.750507,4737.318029
246.469721,842.705048,-0.000000,10066.800811
246.470029,-3294.210641,-4219.173869,15248.242405
246.470337,-7814.174080,-8438.347739,19245.354492
246.470645,-11031.775171,-12065.356855,21317.931130
246.470953,-11797.870669,-11917.315666,20799.786970
246.471261,-10265.679673,-10436.903782,19171.333898
246.471569,-4443.353888,-7031.956449,16580.613101
246.471876,1762.019645,-148.041188,9474.636058
246.472184,4596.572988,3775.050304,4737.318029
246.472492,8733.488677,7105.977043,2220.617826
246.472800,10648.727422,10732.986159,-1554.432478
246.473108,11338.213370,11917.315666,-370.102971
246.473416,10648.727422,11547.212695,148.041188
246.473724,7277.907231,9326.594869,1924.535449
246.474032,2298.286494,3108.864956,8142.265362
246.474340,-2604.724693,-1554.432478,12657.521608
246.474648,-6052.154434,-6069.688724,17690.922014
246.474956,-10342.289223,-10510.924376,20725.766376
246.475264,-11031.775171,-11029.068536,20725.766376
246.475572,-10725.336972,-8364.327145,19023.292709
246.475880,-4903.011187,-6587.832884,16284.530724
246.476188,306.438199,-962.267725,9992.780217
246.476496,5286.058936,3108.864956,4811.338623
246.476804,8886.707777,6291.750507,1998.556043
246.477112,10495.508323,9474.636058,-666.185348
246.477420,10801.946522,10510.924376,0.000000
246.477728,10418.898773,10510.924376,1184.329507
246.478036,6435.202183,7698.141797,3627.009116
246.478344,1838.629195,1998.556043,9474.636058
246.478652,-2681.334243,-2738.761985,14211.954086
246.478959,-6358.592633,-7105.977043,18357.107362
246.479267,-10189.070123,-11843.295072,21243.910535
246.479575,-11721.261119,-12287.418637,20799.786970
246.479883,-10801.946522,-11325.150913,19245.354492
246.480191,-6358.592633,-8512.368333,17172.777854
246.480499,919.314598,-1850.514855,10732.986159
246.480807,5056.230287,2886.803174,4071.132681
246.481115,8503.660028,5699.585753,1036.288319
246.481423,10878.556072,9400.615463,-1406.391290
246.481731,11721.261119,11251.130318,-592.164754
246.482039,10955.165621,10807.006753,0.000000
246.482347,7814.174080,9178.553681,1258.350101
246.482655,3600.648841,3330.926739,6883.915261
246.482963,-1685.410096,-1480.411884,11325.150913
246.483271,-5515.887586,-5403.503377,16580.613101
246.483579,-9499.584175,-9992.780217,19911.539840
246.483887,-11108.384721,-10881.027347,19467.416275
246.484195,-10112.460574,-9104.533087,18505.148550
246.484503,-5286.058936,-7550.100608,16432.571912
246.484811,383.047749,-1776.494261,10881.027347
246.485119,4443.353888,2442.679609,4737.318029
246.485427,8273.831378,5551.544565,2590.720797
246.485734,10265.679673,9696.697840,-1184.329507
246.486042,11031.775171,10658.965565,148.041188
246.486350,10878.556072,11103.089130,740.205942
246.486658,7431.126331,9400.615463,2294.638420
246.486966,2757.943793,3256.906145,8512.368333
246.487274,-2145.067394,-1776.494261,13249.686362
246.487582,-5515.887586,-5995.668130,17468.860231
246.487890,-9882.631924,-11103.089130,21169.889941
246.488198,-12104.308868,-12583.501014,21169.889941
246.488506,-11338.213370,-11251.130318,20355.663405
246.488814,-7890.783629,-9474.636058,18431.127956
246.489122,-766.095498,-2590.720797,11843.295072
246.489430,3830.477490,2220.617826,5847.626942
246.489738,8197.221829,5329.482782,2590.720797
246.490046,10955.165621,9622.677246,-2220.617826
246.490354,11721.261119,11325.150913,-1406.391290
246.490662,11874.480219,10807.006753,-148.041188
246.490970,8580.269578,10658.965565,-148.041188
246.491278,4060.306139,4959.379811,5921.647536
246.491586,-689.485948,-370.102971,11325.150913
246.491894,-5209.449386,-4515.256246,15544.324782
246.492202,-9193.145976,-9474.636058,20355.663405
246.492509,-11491.432470,-11769.274478,20725.766376
246.492817,-11491.432470,-9622.677246,19615.457463
246.493125,-7584.345430,-8438.347739,17542.880825
246.493433,-1685.410096,-2590.720797,12287.418637
246.493741,4060.306139,1850.514855,7254.018232
246.494049,7737.564530,4737.318029,2590.720797
246.494357,10189.070123,9030.512492,-814.226536
246.494665,11568.042020,10362.883188,-148.041188
246.494973,11031.775171,10732.986159,296.082377
246.495281,8656.879127,9696.697840,2368.659014
246.495589,4136.915689,4885.359217,6661.853478
246.495897,-1225.752797,-962.267725,12509.480420
246.496205,-4979.620737,-5107.421000,16654.633695
246.496513,-9116.536426,-10066.800811,21095.869347
246.496821,-11721.261119,-12731.542202,21984.116477
246.497129,-11797.870669,-11547.212695,20207.622217
246.497437,-8427.050478,-9992.780217,18875.251521
246.497745,-1608.800546,-4515.256246,13841.851115
246.498053,2681.334243,1850.514855,6735.874072
246.498361,7048.078582,4515.256246,3034.844362
246.498669,10418.898773,9030.512492,-1036.288319
246.498977,12257.527968,11029.068536,-1776.494261
246.499285,11414.822920,11547.212695,-592.164754
246.499592,9959.241474,11547.212695,0.000000
246.499900,5822.325785,6513.812290,4663.297435
246.500208,306.438199,1258.350101,10066.800811
246.500516,-3907.087040,-2664.741391,14211.954086
246.500824,-7967.393179,-7994.224174,19245.354492
246.501132,-11414.822920,-11399.171507,21095.869347
246.501440,-12027.699319,-10807.006753,19837.519246
246.501748,-8427.050478,-8882.471304,18283.086767
246.502056,-2298.286494,-4293.194464,13693.809927
246.502364,2987.772442,962.267725,8142.265362
246.502672,6971.469032,4219.173869,3182.885551
246.502980,9652.803275,8512.368333,0.000000
246.503288,11491.432470,10214.842000,-1036.288319
246.503596,11184.994271,11621.233289,0.000000
246.503904,9193.145976,9918.759623,1480.411884
246.504212,4903.011187,6069.688724,5107.421000
246.504520,76.609550,370.102971,11547.212695
246.504828,-4136.915689,-3775.050304,15692.365970
246.505136,-7890.783629,-8882.471304,20429.683999
246.505444,-11721.261119,-12731.542202,22502.260637
246.505752,-12640.575717,-12583.501014,20355.663405
246.506060,-10342.289223,-11029.068536,19171.333898
246.506367,-3907.087040,-6513.812290,15544.324782
246.506675,1532.190996,370.102971,8216.285956
246.506983,8044.002729,3404.947333,4367.215058
246.507291,9729.412825,8438.347739,-1110.308913
246.507599,12180.918418,10955.047942,-2146.597232
246.507907,12717.185267,11177.109724,-518.144159
246.508215,11108.384721,12805.562797,-1924.535449
246.508523,7124.688131,7772.162391,3330.926739
246.508831,1838.629195,1924.535449,8068.244768
246.509139,-2221.676944,-1998.556043,13175.665768
246.509447,-7660.954980,-7328.038826,18135.045579
246.509755,-11261.603821,-11621.233289,21614.013506
246.510063,-12563.966167,-11621.233289,20577.725188
246.510371,-10955.165621,-9622.677246,18209.066173
246.510679,-4673.182538,-6291.750507,15618.345376
246.510987,459.657299,370.102971,8512.368333
246.511295,6894.859482,3330.926739,5181.441594
246.511603,9039.926876,7772.162391,0.000000
246.511911,11261.603821,9918.759623,-2886.803174
246.512219,11184.994271,10807.006753,0.000000
246.512527,10265.679673,11399.171507,888.247130
246.512835,6052.154434,7105.977043,4515.256246
246.513143,689.485948,1110.308913,10510.924376
246.513450,-3600.648841,-3108.864956,14211.954086
246.513758,-7431.126331,-8734.430116,19319.375086
246.514066,-10955.165621,-12583.501014,22946.384202
246.514374,-12717.185267,-12805.562797,20873.807564
246.514682,-10648.727422,-11029.068536,19467.416275
246.514990,-5286.058936,-7624.121203,16432.571912
246.515298,383.047749,-592.164754,9030.512492
246.515606,6435.202183,3330.926739,5625.565159
246.515914,9729.412825,6883.915261,222.061783
246.516222,11261.603821,10436.903782,-2664.741391
246.516530,12410.747068,10436.903782,74.020594
246.516838,10878.556072,11843.295072,-666.185348
246.517146,7354.516781,8438.347739,2590.720797
246.517454,2834.553343,3034.844362,8068.244768
246.517762,-2528.115143,-1480.411884,11769.274478
246.518070,-6281.983084,-6069.688724,16950.716072
246.518378,-10572.117872,-10510.924376,21169.889941
246.518686,-11951.089769,-11621.233289,20947.828159
246.518994,-10878.556072,-8956.491898,17987.004391
246.519302,-5209.449386,-6809.894666,16876.695478
246.519610,0.000000,-148.041188,9992.780217
246.519918,5439.278036,3849.070898,5033.400406
246.520225,8733.488677,7031.956449,1702.473667
246.520533,10572.117872,10881.027347,-2220.617826
246.520841,12104.308868,11103.089130,0.000000
246.521149,10189.070123,11473.192101,1036.288319
246.521457,7124.688131,7846.182985,3775.050304
246.521765,1838.629195,2220.617826,9696.697840
246.522073,-3447.429741,-2146.597232,14137.933492
246.522381,-7201.297681,-7402.059420,19171.333898
246.522689,-11108.384721,-11917.315666,22724.322419
246.522997,-13253.452115,-12879.583391,21614.013506
246.523305,-11031.775171,-10436.903782,19615.457463
246.523613,-5898.935335,-8586.388927,17394.839637
246.523921,-536.266849,-1776.494261,10881.027347
246.524229,5822.325785,2220.617826,6291.750507
246.524537,8197.221829,6143.709319,1554.432478
246.524845,11184.994271,10510.924376,-2664.741391
246.525153,11874.480219,10955.047942,-962.267725
246.525461,11491.432470,11621.233289,-518.144159
246.525769,8733.488677,9252.574275,1702.473667
246.526077,3907.087040,4219.173869,6661.853478
246.526385,-919.314598,-814.226536,11251.130318
246.526693,-5056.230287,-4959.379811,15100.201217
246.527000,-9269.755526,-9548.656652,20207.622217
246.527308,-11414.822920,-11399.171507,20577.725188
246.527616,-10725.336972,-9400.615463,17690.922014
246.527924,-6052.154434,-7328.038826,16654.633695
246.528232,-229.828649,-1702.473667,10288.862594
246.528540,4366.744339,3108.864956,5551.544565
246.528848,8580.269578,5403.503377,2960.823768
246.529156,10265.679673,9178.553681,-1480.411884
246.529464,11261.603821,10214.842000,0.000000
246.529772,10342.289223,10807.006753,1184.329507
246.530080,7354.516781,8586.388927,3330.926739
246.530388,2374.896044,3256.906145,8734.430116
246.530696,-1991.848295,-1628.453072,12731.542202
246.531004,-6358.592633,-5847.626942,17320.819043
246.531312,-9882.631924,-11251.130318,21021.848753
246.531620,-12257.527968,-12953.603985,21095.869347
246.531928,-11414.822920,-10807.006753,19467.416275
246.532236,-7431.126331,-9030.512492,17468.860231
246.532544,-1378.971896,-2812.782580,11991.336260
246.532852,4290.134789,2072.576638,6217.729913
246.533160,7201.297681,4959.379811,2220.617826
246.533468,10878.556072,8882.471304,-888.247130
246.533776,11338.213370,10436.903782,-814.226536
246.534083,10955.165621,10288.862594,0.000000
246.534391,9116.536426,9548.656652,1036.288319
246.534699,4903.011187,4885.359217,5255.462188
246.535007,-459.657299,-296.082377,10510.924376
246.535315,-4443.353888,-3552.988522,14137.933492
246.535623,-7967.393179,-8586.388927,19245.354492
246.535931,-11491.432470,-11103.089130,20503.704593
246.536239,-11568.042020,-9696.697840,18653.189738
246.536547,-6971.469032,-7698.141797,17542.880825
246.536855,-1915.238745,-2812.782580,12509.480420
246.537163,3140.991542,2072.576638,7105.977043
246.537471,7277.907231,4737.318029,3775.050304
246.537779,9422.974625,8660.409521,-222.061783
246.538087,10801.946522,9622.677246,-518.144159
246.538395,11031.775171,10955.047942,888.247130
246.538703,8733.488677,9474.636058,2960.823768
246.539011,3753.867940,4367.215058,6957.935855
246.539319,-842.705048,-444.123565,11917.315666
246.539627,-4749.792088,-4219.173869,16136.489536
246.539935,-8656.879127,-9622.677246,20207.622217
246.540243,-11414.822920,-11917.315666,21614.013506
246.540551,-12027.699319,-10955.047942,19985.560434
246.540858,-7967.393179,-9252.574275,18431.127956
246.541166,-2451.505594,-4145.153275,13693.809927
246.541474,2604.724693,1258.350101,9030.512492
246.541782,6511.811733,3552.988522,4145.153275
246.542090,9269.755526,7994.224174,0.000000
246.542398,10955.165621,9474.636058,-592.164754
246.542706,10725.336972,10510.924376,0.000000
246.543014,9499.584175,10214.842000,1332.370696
246.543322,5439.278036,6735.874072,4737.318029
246.543630,995.924147,1332.370696,9548.656652
246.543938,-3447.429741,-2590.720797,13249.686362
246.544246,-7584.345430,-6735.874072,17838.963202
246.544554,-10495.508323,-10510.924376,20799.786970
246.544862,-10955.165621,-9548.656652,19171.333898
246.545170,-8733.488677,-7772.162391,17320.819043
246.545478,-2987.772442,-3849.070898,13841.851115
246.545786,2987.772442,888.247130,7550.100608
246.546094,6665.030833,4293.194464,3849.070898
246.546402,8963.317327,6883.915261,1628.453072
246.546710,10955.165621,9770.718434,-518.144159
246.547018,10112.460574,10658.965565,444.123565
246.547326,9576.193725,9474.636058,2664.741391
246.547634,4979.620737,6069.688724,5255.462188
246.547941,-612.876398,740.205942,10807.006753
246.548249,-3753.867940,-3404.947333,15174.221811
246.548557,-7354.516781,-7994.224174,18727.210333
246.548865,-11338.213370,-11547.212695,21836.075289
246.549173,-11644.651570,-10881.027347,19985.560434
246.549481,-9193.145976,-9548.656652,18579.169144
246.549789,-3140.991542,-5625.565159,15026.180623
246.550097,1532.190996,222.061783,8586.388927
246.550405,6281.983084,2516.700203,5107.421000
246.550713,8197.221829,5329.482782,1554.432478
246.551021,9499.584175,8364.327145,0.000000
246.551329,10572.117872,9400.615463,148.041188
246.551637,9806.022374,9770.718434,1036.288319
246.551945,5745.716235,7105.977043,3108.864956
246.552253,2068.457845,2368.659014,7550.100608
246.552561,-1762.019645,-1480.411884,11621.233289
246.552869,-6435.202183,-5181.441594,15618.345376
246.553177,-9346.365076,-9770.718434,19541.436869
246.553485,-9806.022374,-9696.697840,18875.251521
246.553793,-9193.145976,-8142.265362,17172.777854
246.554101,-4443.353888,-4959.379811,14211.954086
246.554409,1915.238745,-0.000000,9474.636058
246.554716,4979.620737,3256.906145,4589.276840
246.555024,7737.564530,6217.729913,1776.494261
246.555332,10342.289223,7994.224174,1036.288319
246.555640,9806.022374,9548.656652,296.082377
246.555948,8886.707777,8438.347739,2072.576638
246.556256,5592.497135,6661.853478,4515.256246
246.556564,842.705048,1184.329507,9400.615463
246.556872,-3140.991542,-2738.761985,13545.768739
246.557180,-6665.030833,-6143.709319,17246.798449
246.557488,-9806.022374,-10955.047942,21021.848753
246.557796,-11797.870669,-11177.109724,20133.601622
246.558104,-8810.098227,-9770.718434,18949.272115
246.558412,-4673.182538,-6513.812290,15766.386565
246.558720,383.047749,-1258.350101,10214.842000
246.559028,5439.278036,1924.535449,6217.729913
246.559336,6741.640382,5477.523971,2220.617826
246.559644,9806.022374,7402.059420,1702.473667
246.559952,10265.679673,9622.677246,370.102971
246.560260,9959.241474,10436.903782,592.164754
246.560568,6741.640382,8216.285956,3256.906145
246.560876,3370.820191,4145.153275,6143.709319
246.561183,-995.924147,-370.102971,10881.027347
246.561491,-4749.792088,-3627.009116,15174.221811
246.561799,-8350.440928,-8364.327145,18727.210333
246.562107,-9806.022374,-8956.491898,19467.416275
246.562415,-9269.755526,-8364.327145,18505.148550
246.562723,-4903.011187,-5921.647536,16358.551318
246.563031,229.828649,-1480.411884,11325.150913
246.563339,4213.525239,2294.638420,6587.832884
246.563647,6358.592633,5699.585753,2738.761985
246.563955,9806.022374,7772.162391,1628.453072
246.564263,10418.898773,10140.821405,518.144159
246.564571,9806.022374,10140.821405,1258.350101
246.564879,7431.126331,7994.224174,3923.091493
246.565187,2834.553343,3256.906145,7550.100608
246.565495,-1149.143247,-1554.432478,13101.645173
246.565802,-4673.182538,-4737.318029,15766.386565
246.566110,-8503.660028,-8660.409521,20503.704593
246.566418,-10725.336972,-10807.006753,20429.683999
246.566726,-10035.851024,-9770.718434,19097.313304
246.567034,-6435.202183,-7624.121203,17542.880825
246.567342,-459.657299,-3256.906145,12065.356855
246.567650,3064.381992,1110.308913,7179.997637
246.567958,6511.811733,4367.215058,4219.173869
246.568266,9039.926876,6291.750507,2146.597232
246.568574,9346.365076,8438.347739,888.247130
246.568882,10265.679673,9696.697840,962.267725
246.569190,8044.002729,8660.409521,2146.597232
246.569498,3907.087040,5329.482782,5107.421000
246.569806,536.266849,222.061783,9918.759623
246.570114,-3524.039291,-2886.803174,13471.748144
246.570421,-7201.297681,-7328.038826,17468.860231
246.570729,-9346.365076,-9844.739029,18801.230927
246.571037,-9652.803275,-9326.594869,17690.922014
246.571345,-6358.592633,-6809.894666,16654.633695
246.571653,-995.924147,-2368.659014,10955.047942
246.571961,3447.429741,1702.473667,6735.874072
246.572269,6435.202183,4071.132681,3256.906145
246.572577,8810.098227,7031.956449,666.185348
246.572885,9576.193725,9474.636058,444.123565
246.573193,10342.289223,9474.636058,666.185348
246.573501,7660.954980,8808.450710,1850.514855
246.573809,4060.306139,4441.235652,6291.750507
246.574117,0.000000,-148.041188,11029.068536
246.574425,-4060.306139,-3108.864956,14730.098246
246.574733,-7660.954980,-7994.224174,18949.272115
246.575040,-9652.803275,-11103.089130,20651.745782
246.575348,-11184.994271,-10288.862594,19393.395680
246.575656,-7660.954980,-8660.409521,19097.313304
246.575964,-3370.820191,-4293.194464,13175.665768
246.576272,1225.752797,-0.000000,8438.347739
246.576580,5056.230287,2146.597232,5329.482782
246.576888,7277.907231,5773.606348,2146.597232
246.577196,7890.783629,7846.182985,1850.514855
246.577504,9652.803275,9696.697840,962.267725
246.577812,8120.612279,9548.656652,1554.432478
246.578120,5056.230287,6365.771101,4589.276840
246.578428,1072.533697,1406.391290,8882.471304
246.578736,-3064.381992,-1776.494261,12879.583391
246.579044,-6435.202183,-5995.668130,17098.757260
246.579352,-9116.536426,-9030.512492,19171.333898
246.579659,-9882.631924,-8660.409521,18061.024985
246.579967,-7354.516781,-7476.080014,17764.942608
246.580275,-2451.505594,-3182.885551,12731.542202
246.580583,2221.676944,444.123565,7772.162391
246.580891,5515.887586,3478.967927,5107.421000
246.581199,8120.612279,6513.812290,2072.576638
246.581507,9652.803275,9030.512492,1036.288319
246.581815,10342.289223,10362.883188,444.123565
246.582123,9346.365076,9252.574275,2072.576638
246.582431,5056.230287,5995.668130,5403.503377
246.582739,1838.629195,222.061783,10362.883188
246.583047,-2604.724693,-2516.700203,14063.912898
246.583355,-6665.030833,-7105.977043,18727.210333
246.583663,-9346.365076,-10362.883188,21243.910535
246.583971,-10801.946522,-10214.842000,19837.519246
246.584278,-8427.050478,-9326.594869,19245.354492
246.584586,-3753.867940,-5403.503377,14508.036463
246.584894,1072.533697,-592.164754,10066.800811
246.585202,3677.258390,1184.329507,6365.771101
246.585510,7354.516781,4663.297435,3478.967927
246.585818,8273.831378,7698.141797,1776.494261
246.586126,10035.851024,8956.491898,1406.391290
246.586434,9116.536426,9474.636058,888.247130
246.586742,5822.325785,7846.182985,3034.844362
246.587050,2987.772442,2664.741391,7994.224174
246.587358,-1302.362347,-222.061783,11769.274478
246.587666,-4903.011187,-4589.276840,16210.510130
246.587974,-7277.907231,-7920.203579,18505.148550
246.588282,-9269.755526,-8438.347739,18135.045579
246.588589,-8120.612279,-7920.203579,17987.004391
246.588897,-3983.696590,-4293.194464,13619.789333
246.589205,1302.362347,-222.061783,9474.636058
246.589513,4596.572988,2590.720797,5255.462188
246.589821,7277.907231,5773.606348,2294.638420
246.590129,9193.145976,7920.203579,1406.391290
246.590437,10955.165621,9252.574275,1036.288319
246.590745,9422.974625,9770.718434,814.226536
246.591053,6281.983084,6883.915261,3923.091493
246.591361,2834.553343,1776.494261,8660.409521
246.591669,-1685.410096,-1628.453072,11917.315666
246.591977,-5515.887586,-5181.441594,17024.736666
246.592285,-7737.564530,-9770.718434,19911.539840
246.592593,-9959.241474,-10066.800811,19393.395680
246.592901,-8733.488677,-9696.697840,19467.416275
246.593208,-5209.449386,-7031.956449,15618.345376
246.593516,-689.485948,-2294.638420,10658.965565
246.593824,2987.772442,518.144159,7624.121203
246.594132,6052.154434,3108.864956,3627.009116
246.594440,7507.735880,6439.791695,2368.659014
246.594748,8580.269578,8216.285956,1850.514855
246.595056,9039.926876,9030.512492,1184.329507
246.595364,6971.469032,8364.327145,2960.823768
246.595672,3140.991542,3701.029710,6587.832884
246.595980,-612.876398,-0.000000,9918.759623
246.596288,-4826.401637,-3108.864956,14211.954086
246.596596,-7660.954980,-7328.038826,17838.963202
246.596904,-9039.926876,-8216.285956,17838.963202
246.597212,-8733.488677,-8068.244768,18061.024985
246.597520,-4979.620737,-5181.441594,14804.118840
246.597827,-842.705048,-148.041188,9326.594869
246.598135,3217.601092,2146.597232,7105.977043
246.598443,6281.983084,4959.379811,3478.967927
246.598751,7660.954980,7772.162391,1924.535449
246.599059,9193.145976,9030.512492,1702.473667
246.599367,9039.926876,9696.697840,1258.350101
246.599675,6511.811733,7476.080014,3923.091493
246.599983,3064.381992,2516.700203,8586.388927
246.600291,-689.485948,-814.226536,11843.295072
246.600599,-4749.792088,-4367.215058,15692.365970
246.600907,-7507.735880,-8808.450710,19541.436869
246.601215,-9346.365076,-9622.677246,19467.416275
246.601523,-9269.755526,-9770.718434,18949.272115
246.601831,-5745.716235,-7476.080014,17098.757260
246.602139,-1225.752797,-2590.720797,11917.315666
246.602446,1608.800546,-296.082377,8364.327145
246.602754,4443.353888,1924.535449,4663.297435
246.603062,7124.688131,5477.523971,2886.803174
246.603370,8273.831378,7846.182985,2368.659014
246.603678,9499.584175,9178.553681,962.267725
246.603986,7431.126331,9104.533087,2220.617826
246.604294,4136.915689,5107.421000,5699.585753
246.604602,689.485948,1406.391290,9474.636058
246.604910,-3294.210641,-2294.638420,13397.727550
246.605218,-6128.763984,-6513.812290,17246.798449
246.605526,-8580.269578,-8216.285956,17912.983796
246.605834,-9116.536426,-8290.306550,18135.045579
246.606142,-5745.716235,-6217.729913,15766.386565
246.606450,-1685.410096,-1924.535449,10732.986159
246.606758,2681.334243,962.267725,7994.224174
246.607065,5745.716235,4293.194464,4145.153275
246.607373,7967.393179,7105.977043,2516.700203
246.607681,9269.755526,8882.471304,1924.535449
246.607989,10112.460574,9770.718434,1036.288319
246.608297,7354.516781,8364.327145,2738.761985
246.608605,4673.182538,3849.070898,7105.977043
246.608913,1072.533697,296.082377,9918.759623
246.609221,-2987.772442,-2960.823768,14137.933492
246.609529,-6358.592633,-7254.018232,19023.292709
246.609837,-8197.221829,-9474.636058,19541.436869
246.610145,-9499.584175,-9844.739029,19393.395680
246.610453,-6511.811733,-7994.224174,17246.798449
246.610761,-2374.896044,-3997.112087,12287.418637
246.611069,1225.752797,-1036.288319,9178.553681
246.611376,4213.525239,1480.411884,5773.606348
246.611684,6894.859482,4885.359217,2960.823768
246.611992,7737.564530,7105.977043,1850.514855
246.612300,9499.584175,9030.512492,814.226536
246.612608,8273.831378,8956.491898,1924.535449
246.612916,4673.182538,5477.523971,5255.462188
246.613224,1302.362347,1554.432478,8808.450710
246.613532,-2681.334243,-1554.432478,12435.459826
246.613840,-6358.592633,-6365.771101,17098.757260
246.614148,-9039.926876,-8142.265362,18283.086767
246.614456,-9193.145976,-8290.306550,17912.983796
246.614764,-6052.154434,-6143.709319,16358.551318
246.615072,-2068.457845,-1776.494261,11029.068536
246.615380,1915.238745,962.267725,7994.224174
246.615688,4903.011187,3849.070898,5181.441594
246.615995,7354.516781,6513.812290,2220.617826
246.616303,9193.145976,8956.491898,1850.514855
246.616611,10035.851024,9400.615463,962.267725
246.616919,7890.783629,8808.450710,2590.720797
246.617227,5132.839837,4959.379811,6513.812290
246.617535,1149.143247,592.164754,9622.677246
246.617843,-2221.676944,-2220.617826,12731.542202
246.618151,-5975.544884,-7254.018232,17616.901420
246.618459,-8044.002729,-9622.677246,19615.457463
246.618767,-9346.365076,-9474.636058,18801.230927
246.619075,-7048.078582,-8512.368333,17764.942608
246.619383,-2757.943793,-4959.379811,13175.665768
246.619691,766.095498,-1258.350101,9400.615463
246.619999,3370.820191,1110.308913,7254.018232
246.620307,6128.763984,4737.318029,3775.050304
246.620614,6894.859482,6957.935855,2442.679609
246.620922,8503.660028,8512.368333,1998.556043
246.621230,7354.516781,8808.450710,2368.659014
246.621538,4979.620737,5255.462188,5551.544565
246.621846,1685.410096,1332.370696,8956.491898
246.622154,-2298.286494,-1332.370696,11843.295072
246.622462,-6358.592633,-5477.523971,16284.530724
246.622770,-8273.831378,-8216.285956,18579.169144
246.623078,-9116.536426,-7328.038826,17172.777854
246.623386,-6588.421283,-6513.812290,16358.551318
246.623694,-2451.505594,-2886.803174,11325.150913
246.624002,1762.019645,740.205942,8290.306550
246.624310,4213.525239,2738.761985,5995.668130
246.624618,7277.907231,5773.606348,3182.885551
246.624926,7737.564530,8142.265362,2442.679609
246.625233,9576.193725,9400.615463,1850.514855
246.625541,8350.440928,8808.450710,2220.617826
246.625849,5132.839837,5551.544565,5847.626942
246.626157,2451.505594,1184.329507,9474.636058
246.626465,-1838.629195,-1776.494261,11769.274478
246.626773,-3983.696590,-6365.771101,16654.633695
246.627081,-7201.297681,-9030.512492,19319.375086
246.627389,-8886.707777,-9474.636058,18209.066173
246.627697,-6665.030833,-8290.306550,17690.922014
246.628005,-2987.772442,-5033.400406,13397.727550
246.628313,1149.143247,-1332.370696,9696.697840
246.628621,3370.820191,814.226536,7328.038826
246.628929,6205.373534,4071.132681,4367.215058
246.629237,6741.640382,6809.894666,3330.926739
246.629545,8273.831378,7772.162391,2812.782580
246.629852,7584.345430,8586.388927,2442.679609
246.630160,4673.182538,6365.771101,5699.585753
246.630468,2145.067394,2368.659014,8586.388927
246.630776,-2068.457845,-444.123565,11103.089130
246.631084,-5286.058936,-4515.256246,15766.386565
246.631392,-7737.564530,-7846.182985,17838.963202
246.631700,-8810.098227,-7105.977043,17468.860231
246.632008,-6818.249932,-6883.915261,16580.613101
246.632316,-2911.162892,-2886.803174,11843.295072
246.632624,1378.971896,296.082377,8660.409521
246.632932,3983.696590,2442.679609,5995.668130
246.633240,6818.249932,5699.585753,3034.844362
246.633548,7737.564530,7920.203579,2738.761985
246.633856,9729.412825,8660.409521,1850.514855
246.634164,8427.050478,8586.388927,1776.494261
246.634471,6128.763984,5551.544565,5477.523971
246.634779,2834.553343,1776.494261,8364.327145
246.635087,-689.485948,-1480.411884,11325.150913
246.635395,-4826.401637,-5773.606348,15988.448347
246.635703,-7277.907231,-9400.615463,18801.230927
246.636011,-8810.098227,-9696.697840,17764.942608
246.636319,-7277.907231,-9178.553681,18061.024985
246.636627,-2528.115143,-6143.709319,13693.809927
246.636935,766.095498,-2072.576638,9252.574275
246.637243,3753.867940,592.164754,7402.059420
246.637551,5975.544884,3552.988522,4145.153275
246.637859,6281.983084,6291.750507,2812.782580
246.638167,7967.393179,7624.121203,2886.803174
246.638475,7737.564530,8068.244768,1924.535449
246.638782,4903.011187,6291.750507,5033.400406
246.639090,1608.800546,2368.659014,8882.471304
246.639398,-1915.238745,-888.247130,10955.047942
246.639706,-5669.106685,-4515.256246,15248.242405
246.640014,-7890.783629,-8142.265362,17838.963202
246.640322,-8886.707777,-7550.100608,16876.695478
246.640630,-7967.393179,-6735.874072,16876.695478
246.640938,-2757.943793,-3775.050304,13101.645173
246.641246,383.047749,740.205942,8216.285956
246.641554,3983.696590,2368.659014,5995.668130
246.641862,5898.935335,5329.482782,2960.823768
246.642170,7890.783629,8216.285956,2516.700203
246.642478,8427.050478,9474.636058,1924.535449
246.642786,8656.879127,9622.677246,1628.453072
246.643094,5669.106685,6809.894666,4737.318029
246.643401,2681.334243,2294.638420,8438.347739
246.643709,-536.266849,-1110.308913,11473.192101
246.644017,-4596.572988,-4663.297435,15322.262999
246.644325,-6894.859482,-9030.512492,18949.272115
246.644633,-8656.879127,-9474.636058,17838.963202
246.644941,-7814.174080,-9178.553681,17616.901420
246.645249,-3677.258390,-6439.791695,15174.221811
246.645557,459.657299,-2516.700203,9770.718434
246.645865,2987.772442,148.041188,7550.100608
246.646173,5975.544884,2738.761985,4737.318029
246.646481,7354.516781,6069.688724,2960.823768
246.646789,7354.516781,7402.059420,3404.947333
246.647097,7660.954980,8290.306550,2738.761985
246.647405,5132.839837,6883.915261,4737.318029
246.647713,2221.676944,2516.700203,8438.347739
246.648020,-1225.752797,-666.185348,10288.862594
246.648328,-4903.011187,-4145.153275,14508.036463
246.648636,-7584.345430,-7772.162391,18505.148550
246.648944,-8503.660028,-7994.224174,18135.045579
246.649252,-9039.926876,-6809.894666,16062.468941
246.649560,-3600.648841,-4515.256246,14952.160028
246.649868,459.657299,-296.082377,9474.636058
246.650176,3753.867940,2960.823768,5551.544565
246.650484,6665.030833,4219.173869,4515.256246
246.650792,8197.221829,7476.080014,1850.514855
246.651100,8656.879127,8512.368333,2516.700203
246.651408,8963.317327,9622.677246,2516.700203
246.651716,6128.763984,8142.265362,4293.194464
246.652024,3907.087040,3330.926739,8586.388927
246.652332,229.828649,148.041188,10436.903782
246.652639,-3217.601092,-3404.947333,14582.057057
246.652947,-6588.421283,-8216.285956,18505.148550
246.653255,-7967.393179,-9030.512492,18209.066173
246.653563,-8044.002729,-8586.388927,17616.901420
246.653871,-4290.134789,-7476.080014,16284.530724
246.654179,-229.828649,-2812.782580,11177.109724
246.654487,3064.381992,222.061783,7402.059420
246.654795,6128.763984,2146.597232,5773.606348
246.655103,7201.297681,5699.585753,2442.679609
246.655411,8197.221829,7994.224174,2812.782580
246.655719,8503.660028,7920.203579,2886.803174
246.656027,5975.544884,7846.182985,3182.885551
246.656335,2604.724693,3701.029710,7772.162391
246.656643,0.000000,-0.000000,10140.821405
246.656951,-4060.306139,-3182.885551,13323.706956
246.657258,-7354.516781,-7772.162391,17320.819043
246.657566,-9422.974625,-9474.636058,17838.963202
246.657874,-9499.584175,-7846.182985,16580.613101
246.658182,-5822.325785,-6661.853478,16136.489536
246.658490,-1072.533697,-1850.514855,10955.047942
246.658798,3370.820191,1924.535449,7179.997637
246.659106,5592.497135,3849.070898,4367.215058
246.659414,8044.002729,6883.915261,2072.576638
246.659722,9193.145976,9252.574275,1998.556043
246.660030,9193.145976,9474.636058,1850.514855
246.660338,7124.688131,8956.491898,3034.844362
246.660646,3907.087040,4737.318029,6513.812290
246.660954,612.876398,370.102971,10436.903782
246.661262,-2528.115143,-2220.617826,13101.645173
246.661570,-5898.935335,-6587.832884,17542.880825
246.661878,-8503.660028,-9326.594869,18579.169144
246.662186,-8963.317327,-8956.491898,17246.798449
246.662494,-6052.154434,-8438.347739,16654.633695
246.662803,-1685.410096,-5255.462188,12287.418637
246.663111,2221.676944,-814.226536,8364.327145
246.663419,5362.668486,1258.350101,5921.647536
246.663727,7584.345430,4737.318029,3330.926739
246.664035,8427.050478,7920.203579,2590.720797
246.664343,8810.098227,8586.388927,2442.679609
246.664651,7354.516781,8660.409521,2886.803174
246.664959,3294.210641,5181.441594,6143.709319
246.665267,612.876398,888.247130,10510.924376
246.665575,-3524.039291,-2368.659014,13249.686362
246.665883,-6588.421283,-6439.791695,16728.654289
246.666191,-9116.536426,-9400.615463,18727.210333
246.666499,-9576.193725,-8364.327145,17098.757260
246.666807,-7584.345430,-7402.059420,16728.654289
246.667115,-2757.943793,-3552.988522,12731.542202
246.667423,1455.581446,962.267725,8734.430116
246.667731,5056.230287,2886.803174,5477.523971
246.668039,7354.516781,6291.750507,2664.741391
246.668347,10035.851024,9252.574275,1406.391290
246.668655,9959.241474,10140.821405,1332.370696
246.668963,9193.145976,10288.862594,1776.494261
246.669271,5286.058936,7179.997637,4515.256246
246.669579,1991.848295,2220.617826,9548.656652
246.669887,-1762.019645,-1702.473667,12953.603985
246.670195,-5592.497135,-5403.503377,17246.798449
246.670504,-8197.221829,-9918.759623,19985.560434
246.670812,-9499.584175,-9918.759623,18431.127956
246.671120,-8197.221829,-9104.533087,17246.798449
246.671428,-2451.505594,-6587.832884,15766.386565
246.671736,459.657299,-814.226536,8364.327145
246.672044,5286.058936,1406.391290,6735.874072
246.672352,7507.735880,4145.153275,3627.009116
246.672660,9269.755526,8142.265362,1184.329507
246.672968,9652.803275,8734.430116,1554.432478
246.673276,9576.193725,9474.636058,1036.288319
246.673584,5822.325785,7105.977043,4145.153275
246.673892,2221.676944,3256.906145,8512.368333
246.674200,-1608.800546,-1110.308913,12213.398043
246.674508,-5209.449386,-4441.235652,15396.283594
246.674816,-8733.488677,-8734.430116,18653.189738
246.675124,-9806.022374,-9326.594869,18357.107362
246.675432,-8273.831378,-8734.430116,16654.633695
