#time,accel_x,accel_y,accel_z
201.522019,2681.334243,-370.102971,9770.718434
201.522327,2604.724693,-296.082377,9474.636058
201.522635,2757.943793,-296.082377,9474.636058
201.522943,2987.772442,-222.061783,9622.677246
201.523251,2604.724693,-222.061783,9696.697840
201.523560,2757.943793,222.061783,8956.491898
201.523868,3217.601092,444.123565,9252.574275
201.524176,4290.134789,666.185348,9918.759623
201.524484,3524.039291,814.226536,8808.450710
201.524792,3524.039291,814.226536,8586.388927
201.525100,3677.258390,962.267725,8808.450710
201.525408,2987.772442,1184.329507,9326.594869
201.525716,2681.334243,1036.288319,9696.697840
201.526025,2834.553343,666.185348,9696.697840
201.526333,2298.286494,296.082377,9992.780217
201.526641,2298.286494,-222.061783,10214.842000
201.526949,1991.848295,-592.164754,10955.047942
201.527257,1991.848295,-1184.329507,11325.150913
201.527565,1608.800546,-1850.514855,11473.192101
201.527873,1608.800546,-1554.432478,11547.212695
201.528182,2145.067394,-1480.411884,11177.109724
201.528490,2834.553343,-888.247130,9992.780217
201.528798,3677.258390,-370.102971,10214.842000
201.529106,4596.572988,-222.061783,9918.759623
201.529414,4213.525239,222.061783,9252.574275
201.529722,4519.963438,-0.000000,9326.594869
201.530030,4519.963438,148.041188,8956.491898
201.530339,4749.792088,222.061783,9178.553681
201.530647,4903.011187,296.082377,8438.347739
201.530955,4749.792088,148.041188,8734.430116
201.531263,5592.497135,-0.000000,8882.471304
201.531571,5515.887586,-0.000000,8512.368333
201.531879,5592.497135,666.185348,8364.327145
201.532187,5975.544884,592.164754,8290.306550
201.532495,5975.544884,740.205942,8586.388927
201.532804,6358.592633,888.247130,8364.327145
201.533112,6205.373534,1184.329507,8142.265362
201.533420,6435.202183,1480.411884,8512.368333
201.533728,6128.763984,1406.391290,8290.306550
201.534036,6588.421283,1406.391290,8956.491898
201.534344,5822.325785,1628.453072,8808.450710
201.534652,5439.278036,1554.432478,9178.553681
201.534961,4903.011187,1184.329507,9622.677246
201.535269,4519.963438,1184.329507,9918.759623
201.535577,4060.306139,888.247130,10214.842000
201.535885,3677.258390,444.123565,10436.903782
201.536193,3907.087040,296.082377,11029.068536
201.536501,3064.381992,148.041188,10881.027347
201.536809,2451.505594,370.102971,10881.027347
201.537117,2374.896044,296.082377,10732.986159
201.537426,2298.286494,370.102971,10658.965565
201.537734,2451.505594,444.123565,10510.924376
201.538042,2451.505594,444.123565,10362.883188
201.538350,2374.896044,-0.000000,10140.821405
201.538658,2528.115143,-0.000000,10288.862594
201.538966,2528.115143,-0.000000,10140.821405
201.539274,2604.724693,-0.000000,10362.883188
201.539583,2451.505594,-222.061783,10140.821405
201.539891,2451.505594,-666.185348,10140.821405
201.540199,2911.162892,-888.247130,10066.800811
201.540507,3064.381992,-1184.329507,9474.636058
201.540815,3140.991542,-740.205942,9474.636058
201.541123,3524.039291,-962.267725,9178.553681
201.541431,3983.696590,-296.082377,8882.471304
201.541740,4136.915689,-74.020594,8808.450710
201.542048,3830.477490,-0.000000,8216.285956
201.542356,3907.087040,222.061783,7624.121203
201.542664,3677.258390,-0.000000,8438.347739
201.542972,2987.772442,222.061783,7846.182985
201.543280,2987.772442,-0.000000,8364.327145
201.543588,2145.067394,-74.020594,9178.553681
201.543896,1991.848295,-0.000000,8734.430116
201.544205,1608.800546,370.102971,9400.615463
201.544513,1915.238745,1554.432478,8882.471304
201.544821,1991.848295,1406.391290,8956.491898
201.545129,1685.410096,1776.494261,8882.471304
201.545437,1608.800546,1776.494261,9252.574275
201.545745,842.705048,1406.391290,9844.739029
201.546053,459.657299,592.164754,9844.739029
201.546362,0.000000,-0.000000,11103.089130
201.546670,-612.876398,-888.247130,11399.171507
201.546978,-1532.190996,-1924.535449,12287.418637
201.547286,-1838.629195,-2220.617826,12509.480420
201.547594,-1915.238745,-2664.741391,12879.583391
201.547902,-1532.190996,-2590.720797,12953.603985
201.548210,0.000000,-2146.597232,12213.398043
201.548518,612.876398,-1184.329507,11251.130318
201.548827,2451.505594,-0.000000,9622.677246
201.549135,3217.601092,1258.350101,9030.512492
201.549443,3983.696590,2294.638420,7476.080014
201.549751,4443.353888,2368.659014,6957.935855
201.550059,4290.134789,2886.803174,6661.853478
201.550367,3907.087040,2664.741391,6735.874072
201.550675,2911.162892,2072.576638,7031.956449
201.550984,1302.362347,2220.617826,6883.915261
201.551292,1762.019645,1110.308913,8142.265362
201.551600,612.876398,2146.597232,8512.368333
201.551908,0.000000,1554.432478,9030.512492
201.552216,153.219100,1554.432478,9104.533087
201.552524,-306.438199,1184.329507,9844.739029
201.552832,0.000000,370.102971,10510.924376
201.553140,-1762.019645,-0.000000,9918.759623
201.553449,-1378.971896,-1184.329507,12731.542202
201.553757,-2374.896044,-2738.761985,13027.624579
201.554065,-4213.525239,-3478.967927,13249.686362
201.554373,-4136.915689,-4219.173869,14211.954086
201.554681,-4596.572988,-4885.359217,14063.912898
201.554989,-3907.087040,-4737.318029,13767.830521
201.555297,-2145.067394,-3627.009116,12509.480420
201.555605,-766.095498,-2294.638420,11695.253884
201.555913,842.705048,-370.102971,8956.491898
201.556221,3830.477490,888.247130,8290.306550
201.556529,4903.011187,2294.638420,7476.080014
201.556837,4979.620737,3330.926739,5255.462188
201.557145,5669.106685,3923.091493,4959.379811
201.557454,5515.887586,3627.009116,4959.379811
201.557762,4903.011187,3849.070898,5699.585753
201.558070,3600.648841,3108.864956,5107.421000
201.558378,2911.162892,3330.926739,6217.729913
201.558686,2145.067394,2516.700203,6957.935855
201.558994,689.485948,2960.823768,7031.956449
201.559302,842.705048,2294.638420,8882.471304
201.559610,459.657299,296.082377,10214.842000
201.559918,-689.485948,-444.123565,10510.924376
201.560226,-1762.019645,-1332.370696,10510.924376
201.560534,-1378.971896,-3330.926739,12805.562797
201.560842,-2757.943793,-3330.926739,13767.830521
201.561150,-2987.772442,-3182.885551,14359.995275
201.561458,-3064.381992,-3478.967927,14656.077652
201.561766,-2528.115143,-3775.050304,14434.015869
201.562074,-2221.676944,-3034.844362,13693.809927
201.562382,-459.657299,-2220.617826,11843.295072
201.562690,1378.971896,-1184.329507,9918.759623
201.562998,1685.410096,592.164754,8438.347739
201.563306,4060.306139,888.247130,8882.471304
201.563614,3907.087040,2220.617826,6661.853478
201.563922,4979.620737,2590.720797,5551.544565
201.564230,4903.011187,3478.967927,5181.441594
201.564538,4366.744339,4071.132681,4737.318029
201.564846,4136.915689,4367.215058,4885.359217
201.565154,3753.867940,4737.318029,5255.462188
201.565462,3447.429741,3997.112087,7031.956449
201.565770,2145.067394,2146.597232,7624.121203
201.566078,383.047749,222.061783,9918.759623
201.566386,-1685.410096,-1480.411884,11769.274478
201.566694,-2757.943793,-3404.947333,13767.830521
201.567002,-4673.182538,-4145.153275,14211.954086
201.567310,-4366.744339,-4885.359217,15100.201217
201.567618,-3753.867940,-4811.338623,15322.262999
201.567926,-3064.381992,-4071.132681,13397.727550
201.568234,-1378.971896,-2886.803174,12287.418637
201.568542,766.095498,-1332.370696,11621.233289
201.568850,2068.457845,-148.041188,10288.862594
201.569158,2911.162892,1036.288319,8808.450710
201.569466,3370.820191,2072.576638,7772.162391
201.569774,3830.477490,2516.700203,6957.935855
201.570082,4136.915689,2442.679609,7254.018232
201.570390,3753.867940,2368.659014,6587.832884
201.570698,2681.334243,2886.803174,6217.729913
201.571006,3064.381992,3404.947333,6365.771101
201.571314,3294.210641,3478.967927,7105.977043
201.571622,2451.505594,3701.029710,6365.771101
201.571930,2374.896044,3552.988522,6809.894666
201.572238,2451.505594,2516.700203,8364.327145
201.572546,766.095498,1554.432478,9030.512492
201.572854,0.000000,-0.000000,11769.274478
201.573162,-459.657299,-1628.453072,12213.398043
201.573470,-2911.162892,-2590.720797,13249.686362
201.573778,-2987.772442,-4071.132681,14878.139434
201.574086,-3524.039291,-3997.112087,14508.036463
201.574394,-2834.553343,-3775.050304,14582.057057
201.574702,-1838.629195,-3552.988522,13619.789333
201.575010,-306.438199,-2368.659014,11991.336260
201.575318,1072.533697,-1184.329507,10510.924376
201.575626,2911.162892,-74.020594,8438.347739
201.575934,3524.039291,1480.411884,7402.059420
201.576242,3983.696590,2812.782580,6143.709319
201.576550,4443.353888,3330.926739,6069.688724
201.576858,4213.525239,4515.256246,5181.441594
201.577166,3294.210641,4737.318029,4737.318029
201.577474,2757.943793,4515.256246,6069.688724
201.577782,2834.553343,3997.112087,7254.018232
201.578090,842.705048,2590.720797,7698.141797
201.578398,-689.485948,962.267725,9622.677246
201.578706,-1915.238745,-1110.308913,11547.212695
201.579014,-2757.943793,-2812.782580,12657.521608
201.579322,-3753.867940,-4071.132681,13545.768739
201.579630,-4826.401637,-4663.297435,13471.748144
201.579938,-4366.744339,-5403.503377,14359.995275
201.580246,-3983.696590,-4441.235652,13471.748144
201.580554,-2221.676944,-2664.741391,12287.418637
201.580862,-689.485948,-2072.576638,10955.047942
201.581170,612.876398,-518.144159,10140.821405
201.581478,1915.238745,888.247130,8512.368333
201.581786,2987.772442,1850.514855,7179.997637
201.582094,3294.210641,2294.638420,7105.977043
201.582402,3447.429741,2590.720797,6513.812290
201.582710,3447.429741,2294.638420,6957.935855
201.583018,2451.505594,2146.597232,6661.853478
201.583326,2221.676944,2220.617826,6883.915261
201.583634,1762.019645,2664.741391,6883.915261
201.583942,1532.190996,2960.823768,7031.956449
201.584250,1072.533697,2812.782580,7031.956449
201.584558,1149.143247,2368.659014,7846.182985
201.584866,612.876398,1480.411884,9252.574275
201.585174,-536.266849,-148.041188,9844.739029
201.585482,-1378.971896,-1480.411884,11843.295072
201.585790,-1915.238745,-2738.761985,13027.624579
201.586098,-3524.039291,-3256.906145,14285.974681
201.586406,-3600.648841,-4145.153275,14656.077652
201.586714,-2987.772442,-4071.132681,14434.015869
201.587022,-2528.115143,-3701.029710,13471.748144
201.587331,-459.657299,-2960.823768,12213.398043
201.587639,306.438199,-1702.473667,10658.965565
201.587947,1915.238745,-74.020594,8956.491898
201.588255,2451.505594,1110.308913,7328.038826
201.588563,3907.087040,1998.556043,7476.080014
201.588871,4826.401637,3330.926739,6513.812290
201.589179,4596.572988,4515.256246,4885.359217
201.589487,4519.963438,4811.338623,4737.318029
201.589795,3983.696590,4367.215058,5403.503377
201.590103,3830.477490,4737.318029,6291.750507
201.590411,2451.505594,3404.947333,6957.935855
201.590719,1685.410096,1850.514855,8734.430116
201.591027,-383.047749,296.082377,10436.903782
201.591335,-1762.019645,-1480.411884,11843.295072
201.591643,-3140.991542,-3256.906145,13545.768739
201.591951,-3983.696590,-4441.235652,14434.015869
201.592259,-4366.744339,-4663.297435,14656.077652
201.592567,-3830.477490,-4663.297435,14508.036463
201.592875,-2451.505594,-3701.029710,13471.748144
201.593183,-1455.581446,-1998.556043,11843.295072
201.593491,536.266849,-888.247130,11177.109724
201.593799,2451.505594,666.185348,9548.656652
201.594107,3447.429741,1702.473667,8142.265362
201.594415,3907.087040,2664.741391,7105.977043
201.594723,3983.696590,2812.782580,6735.874072
201.595031,4290.134789,2442.679609,7550.100608
201.595339,3370.820191,1924.535449,6957.935855
201.595647,2757.943793,1850.514855,6291.750507
201.595955,2681.334243,2072.576638,7105.977043
201.596263,2528.115143,2812.782580,6957.935855
201.596571,2604.724693,3478.967927,6661.853478
201.596879,2374.896044,3034.844362,7179.997637
201.597187,2298.286494,2368.659014,8142.265362
201.597495,1608.800546,1998.556043,9030.512492
201.597803,0.000000,296.082377,10732.986159
201.598111,-383.047749,-888.247130,12509.480420
201.598419,-1991.848295,-2442.679609,13101.645173
201.598727,-3217.601092,-3404.947333,13915.871710
201.599035,-3217.601092,-4145.153275,15026.180623
201.599343,-2604.724693,-4071.132681,14285.974681
201.599651,-2221.676944,-3256.906145,13619.789333
201.599959,-383.047749,-3256.906145,12287.418637
201.600267,612.876398,-2146.597232,10658.965565
201.600575,2221.676944,-370.102971,8882.471304
201.600883,3370.820191,1480.411884,7624.121203
201.601191,4213.525239,2442.679609,6439.791695
201.601499,4903.011187,3552.988522,5847.626942
201.601807,5132.839837,4959.379811,4737.318029
201.602115,4673.182538,5403.503377,4515.256246
201.602423,4519.963438,4663.297435,5921.647536
201.602731,2987.772442,4441.235652,5921.647536
201.603039,1685.410096,2664.741391,7624.121203
201.603347,153.219100,814.226536,9548.656652
201.603655,-1838.629195,-740.205942,10955.047942
201.603963,-2987.772442,-2738.761985,13101.645173
201.604271,-3830.477490,-4515.256246,13545.768739
201.604579,-4979.620737,-5033.400406,14063.912898
201.604887,-4903.011187,-5625.565159,15322.262999
201.605195,-3294.210641,-4515.256246,13915.871710
201.605503,-2987.772442,-2368.659014,12879.583391
201.605811,-842.705048,-1702.473667,11103.089130
201.606119,842.705048,-0.000000,10288.862594
201.606427,1532.190996,888.247130,8808.450710
201.606735,2834.553343,1850.514855,7994.224174
201.607043,3294.210641,1998.556043,7254.018232
201.607351,2757.943793,2072.576638,6957.935855
201.607659,2528.115143,1554.432478,6957.935855
201.607967,1991.848295,1776.494261,7254.018232
201.608275,1685.410096,1998.556043,7105.977043
201.608583,1455.581446,2664.741391,6513.812290
201.608891,1991.848295,3034.844362,6735.874072
201.609199,1915.238745,3256.906145,7031.956449
201.609507,1685.410096,3330.926739,7698.141797
201.609815,1608.800546,2294.638420,8364.327145
201.610123,689.485948,1184.329507,9252.574275
201.610431,-1149.143247,-148.041188,10732.986159
201.610739,-1762.019645,-1776.494261,12879.583391
201.611047,-3524.039291,-3256.906145,13767.830521
201.611355,-4443.353888,-4367.215058,14656.077652
201.611663,-4060.306139,-4737.318029,15026.180623
201.611971,-3753.867940,-4589.276840,14285.974681
201.612279,-2604.724693,-3923.091493,13175.665768
201.612587,0.000000,-2812.782580,11547.212695
201.612895,995.924147,-1258.350101,9622.677246
201.613203,2604.724693,814.226536,7624.121203
201.613511,3907.087040,2294.638420,6291.750507
201.613819,5209.449386,3330.926739,6439.791695
201.614127,5132.839837,4737.318029,4959.379811
201.614435,4903.011187,5181.441594,4145.153275
201.614743,4519.963438,4811.338623,5181.441594
201.615051,3830.477490,4367.215058,6365.771101
201.615359,1685.410096,3330.926739,6809.894666
201.615667,766.095498,1924.535449,8734.430116
201.615975,-995.924147,-296.082377,10214.842000
201.616283,-2834.553343,-2220.617826,11695.253884
201.616591,-3370.820191,-3849.070898,13767.830521
201.616899,-4366.744339,-4737.318029,14730.098246
201.617208,-4826.401637,-4959.379811,14656.077652
201.617516,-2681.334243,-5255.462188,14285.974681
201.617824,-2374.896044,-3552.988522,12953.603985
201.618132,-1149.143247,-1924.535449,11769.274478
201.618440,1149.143247,-370.102971,10732.986159
201.618748,2298.286494,814.226536,9400.615463
201.619056,3064.381992,1628.453072,8142.265362
201.619364,3677.258390,2442.679609,7550.100608
201.619672,3217.601092,2220.617826,6883.915261
201.619980,2834.553343,1850.514855,7920.203579
201.620288,2911.162892,1554.432478,7846.182985
201.620596,2374.896044,1628.453072,7031.956449
201.620904,2528.115143,1850.514855,6809.894666
201.621212,2834.553343,3034.844362,6513.812290
201.621520,3294.210641,3182.885551,6069.688724
201.621828,3370.820191,3849.070898,6661.853478
201.622136,3294.210641,3627.009116,6957.935855
201.622444,1915.238745,2664.741391,7920.203579
201.622752,919.314598,1332.370696,9400.615463
201.623060,-306.438199,-148.041188,11473.192101
201.623368,-1838.629195,-2220.617826,13323.706956
201.623676,-3983.696590,-3849.070898,14211.954086
201.623984,-3983.696590,-4737.318029,15174.221811
201.624292,-2987.772442,-5403.503377,15914.427753
201.624600,-2451.505594,-4663.297435,14211.954086
201.624908,-766.095498,-3330.926739,12805.562797
201.625216,1072.533697,-2368.659014,11029.068536
201.625524,2145.067394,-444.123565,8808.450710
201.625832,3753.867940,1480.411884,7328.038826
201.626140,4596.572988,3108.864956,6291.750507
201.626448,5362.668486,3997.112087,5773.606348
201.626756,5975.544884,4811.338623,4885.359217
201.627064,4673.182538,5625.565159,4441.235652
201.627372,4213.525239,5255.462188,6069.688724
201.627680,2911.162892,3997.112087,6735.874072
201.627988,842.705048,2886.803174,7624.121203
201.628296,0.000000,444.123565,9474.636058
201.628604,-1455.581446,-1184.329507,11251.130318
201.628912,-2451.505594,-2442.679609,12435.459826
201.629220,-3064.381992,-3775.050304,13471.748144
201.629528,-3600.648841,-4737.318029,13915.871710
201.629836,-3753.867940,-4737.318029,13841.851115
201.630144,-2911.162892,-3627.009116,13619.789333
201.630452,-2068.457845,-2590.720797,12509.480420
201.630760,-689.485948,-1036.288319,10881.027347
201.631068,766.095498,148.041188,10288.862594
201.631376,1991.848295,814.226536,9030.512492
201.631684,2604.724693,962.267725,8586.388927
201.631992,2451.505594,1480.411884,8438.347739
201.632300,2068.457845,1406.391290,7846.182985
201.632608,1608.800546,1110.308913,7846.182985
201.632916,1532.190996,1332.370696,7698.141797
201.633224,1762.019645,1998.556043,7179.997637
201.633532,2451.505594,2960.823768,6661.853478
201.633840,3064.381992,3108.864956,6143.709319
201.634148,3064.381992,4071.132681,6217.729913
201.634456,3064.381992,3775.050304,6587.832884
201.634764,2068.457845,3108.864956,7328.038826
201.635072,689.485948,1924.535449,9104.533087
201.635380,-612.876398,370.102971,10881.027347
201.635688,-1838.629195,-1776.494261,12583.501014
201.635996,-3064.381992,-3552.988522,14063.912898
201.636304,-4673.182538,-5403.503377,15248.242405
201.636612,-4213.525239,-6069.688724,16136.489536
201.636920,-3524.039291,-5699.585753,15100.201217
201.637228,-2528.115143,-4811.338623,14063.912898
201.637536,0.000000,-3256.906145,12065.356855
201.637844,1455.581446,-1036.288319,9326.594869
201.638152,3217.601092,1332.370696,7402.059420
201.638460,4673.182538,3330.926739,5773.606348
201.638768,5515.887586,4293.194464,5477.523971
201.639076,5592.497135,4959.379811,4959.379811
201.639384,5132.839837,5921.647536,4145.153275
201.639692,3830.477490,5181.441594,4515.256246
201.640000,3294.210641,3849.070898,6365.771101
201.640308,1072.533697,2886.803174,7402.059420
201.640616,229.828649,1258.350101,9104.533087
201.640924,-1072.533697,-444.123565,10510.924376
201.641232,-2681.334243,-1924.535449,11843.295072
201.641540,-2911.162892,-3404.947333,13027.624579
201.641848,-3217.601092,-4441.235652,13471.748144
201.642156,-4136.915689,-4515.256246,14211.954086
201.642464,-3140.991542,-4219.173869,13989.892304
201.642772,-2451.505594,-2738.761985,13175.665768
201.643080,-1302.362347,-1628.453072,11621.233289
201.643388,76.609550,-444.123565,10436.903782
201.643696,919.314598,888.247130,9992.780217
201.644004,2298.286494,1184.329507,9104.533087
201.644312,2221.676944,1036.288319,8808.450710
201.644620,2451.505594,1110.308913,8512.368333
201.644928,2068.457845,592.164754,7772.162391
201.645236,1991.848295,666.185348,7920.203579
201.645544,2604.724693,1184.329507,7698.141797
201.645852,2681.334243,2220.617826,6439.791695
201.646160,3140.991542,3552.988522,6069.688724
201.646468,4060.306139,3923.091493,5847.626942
201.646777,3830.477490,4663.297435,5477.523971
201.647085,2757.943793,4293.194464,6735.874072
201.647393,2374.896044,3108.864956,8216.285956
201.647701,383.047749,1480.411884,9474.636058
201.648009,-842.705048,-370.102971,11695.253884
201.648317,-2374.896044,-2664.741391,13767.830521
201.648625,-4366.744339,-4367.215058,14804.118840
201.648933,-4903.011187,-5403.503377,15840.407159
201.649241,-4060.306139,-5551.544565,16062.468941
201.649549,-2911.162892,-4663.297435,14952.160028
201.649857,-1608.800546,-3478.967927,12805.562797
201.650165,1455.581446,-1776.494261,10436.903782
201.650473,2604.724693,-0.000000,8290.306550
201.650781,4826.401637,2368.659014,6587.832884
201.651089,5286.058936,4071.132681,5847.626942
201.651397,6281.983084,4737.318029,5847.626942
201.651705,5745.716235,5181.441594,4589.276840
201.652013,4519.963438,5625.565159,4737.318029
201.652321,4213.525239,4737.318029,6439.791695
201.652629,2451.505594,3849.070898,6513.812290
201.652937,536.266849,2664.741391,7920.203579
201.653245,0.000000,962.267725,9548.656652
201.653553,-2068.457845,-814.226536,10658.965565
201.653861,-2987.772442,-2738.761985,12509.480420
201.654169,-2604.724693,-4293.194464,13471.748144
201.654477,-3983.696590,-4737.318029,13767.830521
201.654785,-4136.915689,-4663.297435,14211.954086
201.655093,-3217.601092,-4071.132681,14211.954086
201.655401,-2221.676944,-2294.638420,12731.542202
201.655709,-995.924147,-1332.370696,11695.253884
201.656017,766.095498,-74.020594,10584.944971
201.656325,1762.019645,296.082377,9548.656652
201.656633,1378.971896,592.164754,8882.471304
201.656941,2068.457845,1036.288319,8364.327145
201.657249,2145.067394,814.226536,7994.224174
201.657557,1915.238745,518.144159,7846.182985
201.657866,2145.067394,1110.308913,7254.018232
201.658174,2528.115143,2368.659014,6513.812290
201.658482,3064.381992,3182.885551,5995.668130
201.658790,3447.429741,3997.112087,5033.400406
201.659098,3830.477490,4515.256246,5773.606348
201.659406,3217.601092,4515.256246,5847.626942
201.659714,2528.115143,4071.132681,6957.935855
201.660022,1532.190996,2368.659014,9030.512492
201.660330,-153.219100,370.102971,10362.883188
201.660638,-2221.676944,-1924.535449,12731.542202
201.660946,-3600.648841,-3701.029710,14656.077652
201.661254,-5132.839837,-5033.400406,15766.386565
201.661562,-5362.668486,-5625.565159,16210.510130
201.661870,-4290.134789,-5699.585753,15692.365970
201.662178,-2604.724693,-4293.194464,13619.789333
201.662486,-536.266849,-2886.803174,11621.233289
201.662794,1838.629195,-962.267725,9326.594869
201.663103,3294.210641,888.247130,7994.224174
201.663411,4596.572988,2886.803174,5921.647536
201.663719,6128.763984,3849.070898,5773.606348
201.664027,6358.592633,4737.318029,5773.606348
201.664335,5209.449386,5699.585753,4219.173869
201.664643,4596.572988,5329.482782,5403.503377
201.664951,3524.039291,4219.173869,6291.750507
201.665259,1838.629195,3404.947333,6809.894666
201.665567,459.657299,1998.556043,8660.409521
201.665875,-536.266849,-74.020594,10362.883188
201.666183,-2451.505594,-1184.329507,11695.253884
201.666491,-3064.381992,-3108.864956,12361.439231
201.666799,-3524.039291,-4367.215058,13545.768739
201.667107,-4213.525239,-4737.318029,13767.830521
201.667415,-3753.867940,-4293.194464,14063.912898
201.667723,-2528.115143,-2886.803174,13545.768739
201.668031,-1455.581446,-1924.535449,12065.356855
201.668340,0.000000,-370.102971,10807.006753
201.668648,1302.362347,592.164754,9474.636058
201.668956,2604.724693,666.185348,8808.450710
201.669264,2757.943793,1110.308913,8586.388927
201.669572,2451.505594,962.267725,8438.347739
201.669880,1838.629195,148.041188,8068.244768
201.670188,1532.190996,-0.000000,7698.141797
201.670496,1991.848295,1110.308913,7772.162391
201.670804,1915.238745,1924.535449,7254.018232
201.671112,2757.943793,3330.926739,5625.565159
201.671420,3753.867940,4663.297435,5625.565159
201.671728,3830.477490,4811.338623,5773.606348
201.672036,3370.820191,4663.297435,5847.626942
201.672344,2451.505594,3404.947333,7624.121203
201.672652,919.314598,1702.473667,9548.656652
201.672960,-1532.190996,-222.061783,11473.192101
201.673268,-2451.505594,-2442.679609,14211.954086
201.673577,-4443.353888,-4737.318029,15618.345376
201.673885,-5592.497135,-5181.441594,15692.365970
201.674193,-5515.887586,-5847.626942,15470.304188
201.674501,-2911.162892,-5551.544565,14878.139434
201.674809,-1532.190996,-3923.091493,12361.439231
201.675117,995.924147,-2220.617826,10881.027347
201.675425,2681.334243,-444.123565,8586.388927
201.675733,4290.134789,1480.411884,7179.997637
201.676041,4903.011187,3478.967927,6513.812290
201.676349,6358.592633,4885.359217,5847.626942
201.676657,6281.983084,5403.503377,5181.441594
201.676965,5056.230287,5995.668130,4219.173869
201.677273,4519.963438,5107.421000,5403.503377
201.677581,3140.991542,4145.153275,5995.668130
201.677889,1685.410096,2664.741391,7254.018232
201.678197,0.000000,740.205942,9252.574275
201.678505,-919.314598,-962.267725,10436.903782
201.678814,-2757.943793,-2442.679609,11917.315666
201.679122,-3447.429741,-3849.070898,13323.706956
201.679430,-3753.867940,-4589.276840,13989.892304
201.679738,-4366.744339,-4737.318029,14137.933492
201.680046,-3064.381992,-4145.153275,14211.954086
201.680354,-2068.457845,-2960.823768,13101.645173
201.680662,-1685.410096,-1850.514855,11399.171507
201.680970,-383.047749,148.041188,10807.006753
201.681278,1915.238745,592.164754,9326.594869
201.681586,2298.286494,1036.288319,9548.656652
201.681894,2298.286494,962.267725,7920.203579
201.682202,2374.896044,666.185348,7920.203579
201.682510,1685.410096,148.041188,8142.265362
201.682818,1838.629195,518.144159,7624.121203
201.683126,2834.553343,1702.473667,7772.162391
201.683434,3600.648841,3256.906145,6365.771101
201.683742,3294.210641,3775.050304,5477.523971
201.684051,4290.134789,5773.606348,4885.359217
201.684359,4366.744339,5181.441594,5625.565159
201.684667,3140.991542,4219.173869,6291.750507
201.684975,2221.676944,3108.864956,7994.224174
201.685283,153.219100,962.267725,10436.903782
201.685591,-2068.457845,-1554.432478,12657.521608
201.685899,-4060.306139,-3478.967927,14804.118840
201.686207,-4903.011187,-5329.482782,15914.427753
201.686515,-5592.497135,-5847.626942,15692.365970
201.686823,-4673.182538,-5995.668130,15840.407159
201.687131,-2911.162892,-5033.400406,14878.139434
201.687439,-1149.143247,-3478.967927,12213.398043
201.687747,1838.629195,-1776.494261,9992.780217
201.688055,3064.381992,592.164754,7994.224174
201.688363,4826.401637,2146.597232,6513.812290
201.688671,5745.716235,4145.153275,5699.585753
201.688980,6511.811733,5477.523971,5551.544565
201.689288,5898.935335,5699.585753,4811.338623
201.689596,4519.963438,5625.565159,4145.153275
201.689904,3983.696590,4811.338623,5995.668130
201.690212,2145.067394,2960.823768,6883.915261
201.690520,459.657299,2146.597232,8216.285956
201.690828,-689.485948,-0.000000,9770.718434
201.691136,-2145.067394,-1776.494261,11399.171507
201.691444,-3140.991542,-3182.885551,13027.624579
201.691752,-3677.258390,-3997.112087,13693.809927
201.692060,-3907.087040,-4293.194464,13989.892304
201.692368,-3983.696590,-3849.070898,13545.768739
201.692676,-2911.162892,-3256.906145,13619.789333
201.692984,-1072.533697,-2220.617826,13027.624579
201.693292,-1149.143247,-888.247130,11843.295072
201.693600,383.047749,-148.041188,10362.883188
201.693908,1532.190996,592.164754,9474.636058
201.694217,1072.533697,370.102971,9104.533087
201.694525,1838.629195,296.082377,9252.574275
201.694833,1532.190996,666.185348,7994.224174
201.695141,1685.410096,148.041188,7920.203579
201.695449,2681.334243,962.267725,7402.059420
201.695757,3753.867940,2738.761985,6365.771101
201.696065,3983.696590,4293.194464,5255.462188
201.696373,4443.353888,4885.359217,4441.235652
201.696681,4596.572988,5329.482782,5181.441594
201.696989,3294.210641,4663.297435,6143.709319
201.697297,2298.286494,3478.967927,7550.100608
201.697605,842.705048,1998.556043,9622.677246
201.697913,-1149.143247,-518.144159,11843.295072
201.698221,-3370.820191,-3627.009116,14359.995275
201.698529,-5515.887586,-5181.441594,15618.345376
201.698837,-6052.154434,-6217.729913,16210.510130
201.699145,-4979.620737,-6883.915261,16580.613101
201.699454,-3600.648841,-5847.626942,15248.242405
201.699762,-1915.238745,-3182.885551,12509.480420
201.700070,919.314598,-2368.659014,11251.130318
201.700378,2681.334243,-0.000000,9030.512492
201.700686,4290.134789,1776.494261,6069.688724
201.700994,5056.230287,4737.318029,5255.462188
201.701302,6435.202183,4737.318029,5921.647536
201.701610,6128.763984,5477.523971,4367.215058
201.701918,4903.011187,5773.606348,3923.091493
201.702226,4366.744339,4145.153275,5921.647536
201.702534,2221.676944,2738.761985,5921.647536
201.702842,1149.143247,2368.659014,7920.203579
201.703150,536.266849,370.102971,9474.636058
201.703458,-995.924147,-444.123565,10436.903782
201.703766,-1991.848295,-1850.514855,11621.233289
201.704074,-2757.943793,-3108.864956,12509.480420
201.704382,-3217.601092,-3923.091493,13545.768739
201.704691,-3830.477490,-3701.029710,13101.645173
201.704999,-2987.772442,-3034.844362,13323.706956
201.705307,-1685.410096,-2960.823768,13471.748144
201.705615,-1378.971896,-1628.453072,12361.439231
201.705923,-612.876398,-666.185348,11473.192101
201.706231,766.095498,-296.082377,10288.862594
201.706539,1302.362347,-0.000000,9474.636058
201.706847,2145.067394,592.164754,8438.347739
201.707155,2757.943793,444.123565,7698.141797
201.707463,2451.505594,444.123565,6883.915261
201.707771,2451.505594,1184.329507,7402.059420
201.708079,3600.648841,2220.617826,6661.853478
201.708387,3140.991542,3182.885551,5181.441594
201.708695,4213.525239,4589.276840,4737.318029
201.709003,4366.744339,5403.503377,4885.359217
201.709311,3753.867940,4885.359217,5773.606348
201.709619,2451.505594,3775.050304,7328.038826
201.709928,1225.752797,2368.659014,9104.533087
201.710236,-383.047749,-0.000000,10807.006753
201.710544,-2528.115143,-2442.679609,13841.851115
201.710852,-4290.134789,-4811.338623,15396.283594
201.711160,-6205.373534,-5625.565159,15470.304188
201.711468,-5286.058936,-5921.647536,16284.530724
201.711776,-3600.648841,-6069.688724,15840.407159
201.712084,-2604.724693,-3701.029710,13249.686362
201.712392,153.219100,-2368.659014,11843.295072
201.712700,2451.505594,-222.061783,9400.615463
201.713008,3753.867940,1406.391290,7105.977043
201.713316,4673.182538,3478.967927,5847.626942
201.713624,5669.106685,4441.235652,6069.688724
201.713932,5898.935335,4589.276840,6069.688724
201.714240,4826.401637,5477.523971,4293.194464
201.714548,4060.306139,4737.318029,5477.523971
201.714856,3370.820191,3404.947333,6365.771101
201.715165,1838.629195,3182.885551,7031.956449
201.715473,536.266849,1628.453072,8512.368333
201.715781,-153.219100,296.082377,9770.718434
201.716089,-1608.800546,-962.267725,10807.006753
201.716397,-2451.505594,-2368.659014,11843.295072
201.716705,-2451.505594,-3478.967927,13101.645173
201.717013,-3753.867940,-4219.173869,12953.603985
201.717321,-3524.039291,-3627.009116,14063.912898
201.717629,-2451.505594,-3330.926739,13915.871710
201.717937,-2451.505594,-2442.679609,12583.501014
201.718245,-1455.581446,-1406.391290,11991.336260
201.718553,0.000000,-666.185348,11103.089130
201.718861,536.266849,-370.102971,10510.924376
201.719169,1455.581446,222.061783,9474.636058
201.719477,2145.067394,666.185348,7846.182985
201.719785,2374.896044,592.164754,7328.038826
201.720093,2987.772442,1110.308913,7179.997637
201.720402,3983.696590,1184.329507,6957.935855
201.720710,3447.429741,2812.782580,5403.503377
201.721018,3677.258390,4145.153275,4737.318029
201.721326,4366.744339,4885.359217,4959.379811
201.721634,3753.867940,4959.379811,5329.482782
201.721942,3217.601092,4367.215058,6069.688724
201.722250,1991.848295,2886.803174,8068.244768
201.722558,-306.438199,888.247130,9770.718434
201.722866,-1762.019645,-1480.411884,12065.356855
201.723174,-3294.210641,-3701.029710,14359.995275
201.723482,-4979.620737,-5181.441594,15248.242405
201.723790,-5592.497135,-6143.709319,15692.365970
201.724098,-4213.525239,-6143.709319,15766.386565
201.724406,-2911.162892,-4589.276840,14508.036463
201.724714,-1302.362347,-2886.803174,12509.480420
201.725022,1685.410096,-1184.329507,10362.883188
201.725331,3370.820191,-0.000000,8142.265362
201.725639,4213.525239,1998.556043,6883.915261
201.725947,4903.011187,3404.947333,5921.647536
201.726255,5822.325785,3552.988522,6661.853478
201.726563,5439.278036,4219.173869,5551.544565
201.726871,4443.353888,4367.215058,4737.318029
201.727179,4749.792088,3701.029710,6661.853478
201.727487,2604.724693,3330.926739,6217.729913
201.727795,1991.848295,2960.823768,7846.182985
201.728103,1149.143247,1998.556043,8734.430116
201.728411,-459.657299,296.082377,9770.718434
201.728719,-1762.019645,-1184.329507,11251.130318
201.729027,-2374.896044,-2516.700203,12065.356855
201.729335,-2987.772442,-3552.988522,13545.768739
201.729643,-3907.087040,-3923.091493,13767.830521
201.729951,-3294.210641,-3775.050304,14730.098246
201.730259,-1915.238745,-3552.988522,14508.036463
201.730568,-2298.286494,-2146.597232,12509.480420
201.730876,-689.485948,-370.102971,11843.295072
201.731184,995.924147,-370.102971,11103.089130
201.731492,1915.238745,444.123565,9696.697840
201.731800,2834.553343,888.247130,8216.285956
201.732108,3064.381992,1258.350101,7328.038826
201.732416,3370.820191,1258.350101,7105.977043
201.732724,3907.087040,1702.473667,7402.059420
201.733032,3217.601092,3256.906145,5995.668130
201.733340,3294.210641,3701.029710,5181.441594
201.733648,3830.477490,4515.256246,5033.400406
201.733956,3370.820191,5107.421000,5403.503377
201.734264,2987.772442,4219.173869,6365.771101
201.734572,1685.410096,2960.823768,7624.121203
201.734880,306.438199,1554.432478,9696.697840
201.735188,-766.095498,-888.247130,11325.150913
201.735496,-2681.334243,-2368.659014,13619.789333
201.735805,-3830.477490,-4663.297435,14508.036463
201.736113,-5439.278036,-5477.523971,14582.057057
201.736421,-4673.182538,-5773.606348,15470.304188
201.736729,-3294.210641,-5107.421000,14878.139434
201.737037,-2528.115143,-3997.112087,13323.706956
201.737345,229.828649,-2294.638420,11473.192101
201.737653,1762.019645,-962.267725,9178.553681
201.737961,3907.087040,370.102971,8734.430116
201.738269,4136.915689,2146.597232,5995.668130
201.738577,5286.058936,3034.844362,6513.812290
201.738885,5745.716235,3478.967927,6365.771101
201.739193,4596.572988,4367.215058,4737.318029
201.739501,4366.744339,3997.112087,5625.565159
201.739809,3294.210641,3849.070898,5477.523971
201.740117,2451.505594,2886.803174,6809.894666
201.740425,1302.362347,2664.741391,7105.977043
201.740733,383.047749,1406.391290,8660.409521
201.741042,-1149.143247,-518.144159,10362.883188
201.741350,-2451.505594,-1924.535449,11621.233289
201.741658,-2834.553343,-2738.761985,13175.665768
201.741966,-3983.696590,-4071.132681,13471.748144
201.742274,-3907.087040,-4515.256246,14359.995275
201.742582,-2757.943793,-4293.194464,14730.098246
201.742890,-2374.896044,-2886.803174,13767.830521
201.743198,-1455.581446,-1406.391290,12139.377449
201.743506,76.609550,-1036.288319,11621.233289
201.743814,1378.971896,-74.020594,10214.842000
201.744122,2068.457845,222.061783,7994.224174
201.744430,2681.334243,1184.329507,7772.162391
201.744738,2451.505594,518.144159,7476.080014
201.745046,3600.648841,1850.514855,7920.203579
201.745354,3677.258390,2664.741391,6513.812290
201.745662,3140.991542,3627.009116,5107.421000
201.745970,3294.210641,4515.256246,4811.338623
201.746279,3677.258390,5403.503377,5329.482782
201.746587,3830.477490,4737.318029,6513.812290
201.746895,1991.848295,3923.091493,7031.956449
201.747203,1225.752797,2960.823768,8512.368333
201.747511,-459.657299,518.144159,10510.924376
201.747819,-2221.676944,-1406.391290,12213.398043
201.748127,-3370.820191,-3404.947333,14508.036463
201.748435,-4519.963438,-4663.297435,14730.098246
201.748743,-4979.620737,-5255.462188,15026.180623
201.749051,-3983.696590,-5551.544565,15618.345376
201.749359,-2451.505594,-4737.318029,14285.974681
201.749667,-1532.190996,-3182.885551,11843.295072
201.749975,842.705048,-1776.494261,10066.800811
201.750283,2757.943793,222.061783,9030.512492
201.750591,4519.963438,1628.453072,7402.059420
201.750899,4673.182538,3256.906145,5921.647536
201.751207,5822.325785,3034.844362,6291.750507
201.751516,5515.887586,3404.947333,5181.441594
201.751824,4213.525239,3923.091493,5773.606348
201.752132,3524.039291,3478.967927,6291.750507
201.752440,2145.067394,3330.926739,6587.832884
201.752748,1455.581446,2812.782580,7550.100608
201.753056,383.047749,2220.617826,7920.203579
201.753364,-229.828649,740.205942,9622.677246
201.753672,-1762.019645,-962.267725,10881.027347
201.753980,-2528.115143,-2220.617826,12139.377449
201.754288,-2834.553343,-3404.947333,13101.645173
201.754596,-4136.915689,-4515.256246,13693.809927
201.754904,-3294.210641,-4145.153275,14359.995275
201.755212,-2834.553343,-3108.864956,14211.954086
201.755520,-2221.676944,-2590.720797,13619.789333
201.755828,-1302.362347,-1702.473667,11399.171507
201.756136,383.047749,-592.164754,10658.965565
201.756444,1762.019645,-444.123565,9622.677246
201.756752,1608.800546,222.061783,8290.306550
201.757060,2681.334243,370.102971,8438.347739
201.757368,2528.115143,888.247130,7179.997637
201.757676,3370.820191,2072.576638,6439.791695
201.757984,3907.087040,3330.926739,5477.523971
201.758293,4060.306139,4737.318029,4663.297435
201.758601,4290.134789,5107.421000,4737.318029
201.758909,4673.182538,5255.462188,4589.276840
201.759217,3600.648841,4663.297435,5847.626942
201.759525,1838.629195,3552.988522,7402.059420
201.759833,1225.752797,1998.556043,9030.512492
201.760141,-995.924147,-444.123565,10881.027347
201.760449,-2987.772442,-2516.700203,12731.542202
201.760757,-4060.306139,-4589.276840,15026.180623
201.761065,-4903.011187,-5551.544565,15544.324782
201.761373,-4673.182538,-5773.606348,16136.489536
201.761681,-3830.477490,-5773.606348,15470.304188
201.761989,-2145.067394,-4811.338623,13397.727550
201.762297,-153.219100,-2960.823768,11769.274478
201.762605,2221.676944,-666.185348,10288.862594
201.762913,4213.525239,1332.370696,8142.265362
201.763221,4903.011187,2738.761985,6587.832884
201.763529,5898.935335,3775.050304,5477.523971
201.763837,5592.497135,3775.050304,5773.606348
201.764145,5056.230287,4145.153275,5551.544565
201.764453,4060.306139,4071.132681,5551.544565
201.764761,3140.991542,3108.864956,6217.729913
201.765069,1685.410096,3108.864956,6661.853478
201.765377,995.924147,2516.700203,7920.203579
201.765685,153.219100,1554.432478,8956.491898
201.765993,-612.876398,518.144159,10288.862594
201.766301,-1762.019645,-1184.329507,11325.150913
201.766609,-2604.724693,-2072.576638,12805.562797
201.766917,-2911.162892,-3182.885551,13619.789333
201.767225,-3753.867940,-3404.947333,13323.706956
201.767533,-2911.162892,-3034.844362,13989.892304
201.767841,-2604.724693,-3256.906145,14137.933492
201.768149,-2221.676944,-2220.617826,12879.583391
201.768457,-995.924147,-1628.453072,11917.315666
201.768765,153.219100,-1332.370696,10955.047942
201.769073,1532.190996,-444.123565,9622.677246
201.769381,2298.286494,74.020594,8438.347739
201.769689,2987.772442,1036.288319,7994.224174
201.769997,3447.429741,1850.514855,6513.812290
201.770305,3370.820191,2738.761985,5699.585753
201.770613,4213.525239,3849.070898,5477.523971
201.770921,3907.087040,4737.318029,4737.318029
201.771229,4060.306139,5255.462188,4959.379811
201.771537,3907.087040,5033.400406,5329.482782
201.771845,2451.505594,3997.112087,6439.791695
201.772154,1762.019645,2368.659014,8142.265362
201.772462,-536.266849,666.185348,9770.718434
201.772770,-1991.848295,-1554.432478,11843.295072
201.773078,-3447.429741,-3552.988522,13841.851115
201.773386,-4366.744339,-4811.338623,14878.139434
201.773694,-4903.011187,-5403.503377,15544.324782
201.774002,-4903.011187,-5773.606348,15100.201217
201.774310,-2987.772442,-4737.318029,14582.057057
201.774618,-1378.971896,-3552.988522,12287.418637
201.774926,689.485948,-1776.494261,10881.027347
201.775234,2757.943793,-222.061783,9252.574275
201.775542,3907.087040,1480.411884,7624.121203
201.775850,4673.182538,2516.700203,6735.874072
201.776158,5209.449386,3256.906145,5921.647536
201.776466,4673.182538,3627.009116,5847.626942
201.776774,4213.525239,3256.906145,5551.544565
201.777082,3140.991542,3256.906145,5847.626942
201.777390,2681.334243,3330.926739,6365.771101
201.777698,1915.238745,2960.823768,6883.915261
201.778006,1225.752797,2590.720797,7698.141797
201.778314,306.438199,1776.494261,8438.347739
201.778622,-919.314598,296.082377,9992.780217
201.778930,-1608.800546,-1036.288319,11399.171507
201.779238,-2604.724693,-2442.679609,13101.645173
201.779546,-3294.210641,-3775.050304,13767.830521
201.779854,-4443.353888,-3552.988522,13989.892304
201.780162,-3830.477490,-3997.112087,14804.118840
201.780470,-3064.381992,-3552.988522,13989.892304
201.780778,-2451.505594,-2886.803174,12879.583391
201.781086,-842.705048,-2220.617826,12361.439231
201.781394,842.705048,-1184.329507,10288.862594
201.781702,1302.362347,296.082377,9030.512492
201.782010,3447.429741,1036.288319,7772.162391
201.782318,3830.477490,2368.659014,6587.832884
201.782626,4673.182538,2812.782580,6069.688724
201.782934,4596.572988,3849.070898,5181.441594
201.783242,3983.696590,5033.400406,4145.153275
201.783550,3983.696590,4885.359217,4959.379811
201.783858,3753.867940,4885.359217,5255.462188
201.784166,2298.286494,4515.256246,6291.750507
201.784474,2145.067394,2738.761985,8142.265362
201.784782,0.000000,1776.494261,9474.636058
201.785090,-1455.581446,-370.102971,10807.006753
201.785398,-2757.943793,-2442.679609,12879.583391
201.785706,-3600.648841,-3997.112087,14434.015869
201.786015,-4213.525239,-5329.482782,14952.160028
201.786323,-4519.963438,-5551.544565,14952.160028
201.786631,-3217.601092,-5033.400406,14434.015869
201.786939,-2221.676944,-3478.967927,13471.748144
201.787247,-612.876398,-2220.617826,11547.212695
201.787555,1608.800546,-888.247130,10288.862594
201.787863,2604.724693,370.102971,8956.491898
201.788171,2987.772442,2220.617826,7920.203579
201.788479,4519.963438,2072.576638,6735.874072
201.788787,4903.011187,2738.761985,6439.791695
201.789095,4979.620737,2590.720797,6513.812290
201.789403,4136.915689,3256.906145,5477.523971
201.789711,3370.820191,3404.947333,6513.812290
201.790019,2911.162892,3108.864956,6735.874072
201.790327,2068.457845,3404.947333,6957.935855
201.790635,1608.800546,2738.761985,7772.162391
201.790943,459.657299,1332.370696,8734.430116
201.791251,-612.876398,444.123565,10362.883188
201.791559,-1915.238745,-888.247130,11695.253884
201.791867,-2834.553343,-2442.679609,13323.706956
201.792175,-3907.087040,-3552.988522,13767.830521
201.792483,-4136.915689,-3849.070898,14285.974681
201.792791,-3524.039291,-4071.132681,14878.139434
201.793099,-2451.505594,-3478.967927,13841.851115
201.793407,-1378.971896,-2516.700203,12657.521608
201.793715,0.000000,-2220.617826,11473.192101
201.794023,1685.410096,-1184.329507,9548.656652
201.794331,2145.067394,444.123565,8882.471304
201.794639,3753.867940,1776.494261,7105.977043
201.794947,4366.744339,2812.782580,6143.709319
201.795255,4826.401637,2886.803174,5921.647536
201.795563,4519.963438,4145.153275,4737.318029
201.795871,4519.963438,4959.379811,4071.132681
201.796179,4136.915689,5107.421000,4959.379811
201.796487,3447.429741,4737.318029,5329.482782
201.796795,2528.115143,3923.091493,6661.853478
201.797103,995.924147,2368.659014,8364.327145
201.797411,-383.047749,592.164754,9844.739029
201.797719,-1915.238745,-1258.350101,11843.295072
201.798027,-2911.162892,-3330.926739,13767.830521
201.798335,-3600.648841,-4589.276840,15100.201217
201.798643,-4443.353888,-5551.544565,14730.098246
201.798951,-4136.915689,-5255.462188,14804.118840
201.799259,-2757.943793,-4145.153275,14285.974681
201.799567,-1455.581446,-2886.803174,12361.439231
201.799876,153.219100,-1480.411884,11029.068536
201.800184,2451.505594,-148.041188,9474.636058
201.800492,3140.991542,1406.391290,8364.327145
201.800800,4366.744339,1702.473667,7402.059420
201.801108,4979.620737,2590.720797,6291.750507
201.801416,4979.620737,2812.782580,6143.709319
201.801724,4366.744339,3256.906145,5551.544565
201.802032,3600.648841,3478.967927,5921.647536
201.802340,2681.334243,3478.967927,6365.771101
201.802648,2068.457845,3256.906145,6661.853478
201.802956,1072.533697,2960.823768,7476.080014
201.803264,306.438199,1702.473667,8512.368333
201.803572,-919.314598,592.164754,9770.718434
201.803880,-1225.752797,-1110.308913,11251.130318
201.804188,-2911.162892,-2368.659014,12805.562797
201.804496,-3830.477490,-3404.947333,13619.789333
201.804804,-4443.353888,-4071.132681,14359.995275
201.805112,-3983.696590,-4293.194464,15322.262999
201.805420,-3217.601092,-4145.153275,14508.036463
201.805728,-2528.115143,-2812.782580,13619.789333
201.806036,0.000000,-2220.617826,11695.253884
201.806344,1225.752797,-592.164754,10288.862594
201.806652,2374.896044,-74.020594,8512.368333
201.806960,3294.210641,1480.411884,7328.038826
201.807268,3983.696590,2368.659014,6365.771101
201.807576,4903.011187,2886.803174,6735.874072
201.807884,4443.353888,3701.029710,5107.421000
201.808192,4290.134789,4737.318029,4959.379811
201.808500,4136.915689,4737.318029,5181.441594
201.808808,3830.477490,4589.276840,5477.523971
201.809116,2681.334243,4663.297435,6513.812290
201.809424,1915.238745,3330.926739,7476.080014
201.809732,612.876398,1850.514855,8956.491898
201.810040,-766.095498,222.061783,10362.883188
201.810348,-2374.896044,-2146.597232,12435.459826
201.810656,-3447.429741,-3775.050304,14211.954086
201.810964,-4673.182538,-4737.318029,14582.057057
201.811272,-4903.011187,-5551.544565,14804.118840
201.811580,-3830.477490,-4737.318029,14878.139434
201.811888,-2528.115143,-3775.050304,13693.809927
201.812196,-1149.143247,-2442.679609,11991.336260
201.812504,1072.533697,-1406.391290,10881.027347
201.812812,2374.896044,-0.000000,9030.512492
201.813120,3753.867940,1332.370696,7994.224174
201.813428,4290.134789,2294.638420,6513.812290
201.813737,4979.620737,2960.823768,6439.791695
201.814045,5132.839837,3182.885551,6069.688724
201.814353,3983.696590,3627.009116,5181.441594
201.814661,3677.258390,3478.967927,5847.626942
201.814969,2528.115143,3404.947333,6291.750507
201.815277,1608.800546,3182.885551,6883.915261
201.815585,1302.362347,2294.638420,7994.224174
201.815893,0.000000,1332.370696,9104.533087
201.816201,-1455.581446,-0.000000,10658.965565
201.816509,-2298.286494,-1554.432478,11843.295072
201.816817,-3217.601092,-2960.823768,13471.748144
201.817125,-4443.353888,-4145.153275,13915.871710
201.817433,-4826.401637,-4663.297435,15026.180623
201.817741,-3907.087040,-4515.256246,15618.345376
201.818049,-3140.991542,-3552.988522,14211.954086
201.818357,-1762.019645,-2812.782580,12879.583391
201.818665,0.000000,-1406.391290,11103.089130
201.818973,1608.800546,-74.020594,8956.491898
201.819281,2987.772442,1036.288319,7772.162391
201.819589,3907.087040,2294.638420,6291.750507
201.819897,4826.401637,2812.782580,6365.771101
201.820205,5056.230287,2960.823768,5477.523971
201.820513,4596.572988,4293.194464,4737.318029
201.820821,4979.620737,4663.297435,5033.400406
201.821129,3983.696590,4811.338623,5329.482782
201.821437,3524.039291,4885.359217,5773.606348
201.821745,2451.505594,3775.050304,7105.977043
201.822053,1302.362347,2664.741391,8438.347739
201.822361,229.828649,1036.288319,9770.718434
201.822669,-1532.190996,-962.267725,11843.295072
201.822977,-2757.943793,-2738.761985,13323.706956
201.823285,-3600.648841,-4589.276840,14656.077652
201.823593,-4826.401637,-5033.400406,15100.201217
201.823901,-4519.963438,-4663.297435,14804.118840
201.824209,-2911.162892,-4367.215058,14285.974681
201.824517,-1991.848295,-3034.844362,12953.603985
201.824825,-153.219100,-2072.576638,11843.295072
201.825133,1378.971896,-888.247130,10214.842000
201.825441,3064.381992,592.164754,9178.553681
201.825749,3447.429741,1332.370696,7105.977043
201.826057,4903.011187,2294.638420,6661.853478
201.826365,4903.011187,2664.741391,6661.853478
201.826673,4749.792088,3478.967927,5551.544565
201.826981,3907.087040,3775.050304,5255.462188
201.827289,3677.258390,4071.132681,5773.606348
201.827597,3294.210641,3627.009116,6217.729913
201.827906,2145.067394,3478.967927,6661.853478
201.828214,1302.362347,2220.617826,7920.203579
201.828522,-306.438199,814.226536,9696.697840
201.828830,-1378.971896,-592.164754,11103.089130
201.829138,-2681.334243,-2220.617826,12731.542202
201.829446,-4060.306139,-3627.009116,14063.912898
201.829754,-4903.011187,-4071.132681,14804.118840
201.830062,-4596.572988,-4589.276840,15174.221811
201.830370,-4136.915689,-4071.132681,15026.180623
201.830678,-2681.334243,-3034.844362,13619.789333
201.830986,-1072.533697,-2146.597232,11547.212695
201.831294,612.876398,-740.205942,10066.800811
201.831602,2451.505594,148.041188,8734.430116
201.831910,3830.477490,1924.535449,7179.997637
201.832218,4826.401637,2516.700203,6217.729913
201.832526,4673.182538,3034.844362,5551.544565
201.832834,5209.449386,3256.906145,4737.318029
201.833142,4290.134789,4367.215058,4885.359217
201.833450,4213.525239,4589.276840,4737.318029
201.833758,3907.087040,4737.318029,5847.626942
201.834066,2834.553343,3923.091493,6513.812290
201.834374,1991.848295,2960.823768,7624.121203
201.834682,919.314598,1406.391290,9178.553681
201.834990,-459.657299,-74.020594,10288.862594
201.835298,-1991.848295,-1850.514855,11917.315666
201.835606,-2911.162892,-3701.029710,13619.789333
201.835914,-4290.134789,-4367.215058,14582.057057
201.836222,-4749.792088,-5107.421000,14730.098246
201.836530,-4136.915689,-4737.318029,14656.077652
201.836838,-2528.115143,-4071.132681,14063.912898
201.837146,-1225.752797,-3330.926739,12435.459826
201.837454,536.266849,-2146.597232,11251.130318
201.837762,1915.238745,-666.185348,9992.780217
201.838070,3140.991542,296.082377,7846.182985
201.838378,4213.525239,1850.514855,7179.997637
201.838686,4596.572988,2368.659014,6143.709319
201.838994,4903.011187,3108.864956,5921.647536
201.839302,4443.353888,3701.029710,5329.482782
201.839610,4060.306139,4293.194464,4811.338623
201.839918,4366.744339,4589.276840,5403.503377
201.840226,3217.601092,4145.153275,5921.647536
201.840534,2604.724693,3182.885551,7254.018232
201.840842,995.924147,2220.617826,8364.327145
201.841150,-1149.143247,370.102971,10288.862594
201.841458,-2528.115143,-1554.432478,11917.315666
201.841767,-3677.258390,-3182.885551,13767.830521
201.842075,-4903.011187,-4737.318029,15026.180623
201.842383,-5515.887586,-5181.441594,14730.098246
201.842691,-4596.572988,-4885.359217,15766.386565
201.842999,-3600.648841,-4663.297435,14656.077652
201.843307,-2681.334243,-2664.741391,12509.480420
201.843615,-383.047749,-1480.411884,11621.233289
201.843923,1378.971896,-296.082377,9474.636058
201.844231,2681.334243,1406.391290,7698.141797
201.844539,4443.353888,2664.741391,7031.956449
201.844847,4749.792088,3478.967927,6069.688724
201.845155,4903.011187,4071.132681,6217.729913
201.845463,4366.744339,3997.112087,4737.318029
201.845771,4366.744339,4293.194464,5403.503377
201.846079,3753.867940,4219.173869,5403.503377
201.846387,2987.772442,4219.173869,5921.647536
201.846695,2451.505594,3701.029710,7179.997637
201.847003,1762.019645,1998.556043,8068.244768
201.847311,0.000000,962.267725,9844.739029
201.847619,-1608.800546,-518.144159,11325.150913
201.847927,-2068.457845,-2220.617826,12879.583391
201.848235,-3524.039291,-3552.988522,14063.912898
201.848543,-4060.306139,-4293.194464,14656.077652
201.848851,-4136.915689,-4219.173869,14508.036463
201.849159,-3217.601092,-4071.132681,14582.057057
201.849467,-2068.457845,-3256.906145,13841.851115
201.849775,-766.095498,-1850.514855,12509.480420
201.850083,1072.533697,-1554.432478,11103.089130
201.850391,1608.800546,-0.000000,9252.574275
201.850699,2987.772442,814.226536,8068.244768
201.851007,3677.258390,1702.473667,7105.977043
201.851315,4366.744339,2738.761985,5995.668130
201.851623,4979.620737,3552.988522,5847.626942
201.851931,4903.011187,4367.215058,5255.462188
201.852239,4519.963438,4663.297435,4737.318029
201.852547,4519.963438,4293.194464,5329.482782
201.852855,2834.553343,4145.153275,6587.832884
201.853163,1685.410096,2516.700203,7402.059420
201.853471,76.609550,1406.391290,9252.574275
201.853779,-1302.362347,-370.102971,10881.027347
201.854087,-2987.772442,-2220.617826,12435.459826
201.854395,-3907.087040,-3701.029710,14211.954086
201.854703,-5132.839837,-4959.379811,14878.139434
201.855011,-4749.792088,-5033.400406,15470.304188
201.855319,-4136.915689,-4885.359217,15322.262999
201.855628,-3064.381992,-3627.009116,13471.748144
201.855936,-1455.581446,-2294.638420,11991.336260
201.856244,995.924147,-1036.288319,10510.924376
201.856552,2451.505594,444.123565,8660.409521
201.856860,4213.525239,1480.411884,7550.100608
201.857168,4290.134789,2738.761985,6069.688724
201.857476,5132.839837,3552.988522,5921.647536
201.857784,4979.620737,3182.885551,5625.565159
201.858092,4366.744339,4219.173869,4885.359217
201.858400,3907.087040,4145.153275,5255.462188
201.858708,3524.039291,3849.070898,5699.585753
201.859016,3294.210641,3552.988522,6883.915261
201.859324,2068.457845,3404.947333,7476.080014
201.859633,1455.581446,1628.453072,8808.450710
201.859941,0.000000,888.247130,10066.800811
201.860249,-1915.238745,-962.267725,11769.274478
201.860557,-2757.943793,-2368.659014,13249.686362
201.860865,-3447.429741,-3478.967927,14137.933492
201.861173,-4290.134789,-4441.235652,14656.077652
201.861481,-4443.353888,-4589.276840,14434.015869
201.861790,-3294.210641,-4441.235652,14285.974681
201.862098,-2145.067394,-3627.009116,13249.686362
201.862406,-842.705048,-2368.659014,12213.398043
201.862714,1072.533697,-1332.370696,10288.862594
201.863022,2451.505594,-0.000000,8586.388927
201.863330,3830.477490,1480.411884,7254.018232
201.863638,4826.401637,2664.741391,6143.709319
201.863946,5362.668486,3256.906145,5995.668130
201.864255,5362.668486,3701.029710,4885.359217
201.864563,4903.011187,4885.359217,4737.318029
201.864871,4366.744339,4737.318029,5625.565159
201.865179,3294.210641,4219.173869,5477.523971
201.865487,2145.067394,3404.947333,7254.018232
201.865795,612.876398,1850.514855,8882.471304
201.866103,-1225.752797,-0.000000,10658.965565
201.866411,-2757.943793,-1702.473667,12287.418637
201.866720,-3677.258390,-3552.988522,13841.851115
201.867028,-5132.839837,-4811.338623,14952.160028
201.867336,-5592.497135,-5033.400406,15248.242405
201.867644,-4366.744339,-4885.359217,15766.386565
201.867952,-3140.991542,-3849.070898,14137.933492
201.868260,-1685.410096,-2368.659014,11917.315666
201.868568,306.438199,-1332.370696,11251.130318
201.868876,1915.238745,222.061783,8956.491898
201.869185,3370.820191,1036.288319,7476.080014
201.869493,4213.525239,2294.638420,6217.729913
201.869801,4443.353888,3330.926739,6069.688724
201.870109,4903.011187,2960.823768,6217.729913
201.870417,4519.963438,3627.009116,4959.379811
201.870725,4136.915689,3775.050304,5625.565159
201.871033,3753.867940,3478.967927,5847.626942
201.871341,2911.162892,3627.009116,6883.915261
201.871650,2681.334243,2960.823768,6883.915261
201.871958,2451.505594,2220.617826,7772.162391
201.872266,1225.752797,1776.494261,9104.533087
201.872574,-919.314598,444.123565,10214.842000
201.872882,-1532.190996,-1332.370696,12065.356855
201.873190,-3140.991542,-2664.741391,13619.789333
201.873498,-3907.087040,-3849.070898,14582.057057
201.873806,-4673.182538,-4441.235652,14434.015869
201.874115,-4290.134789,-4145.153275,15248.242405
201.874423,-2757.943793,-4367.215058,14359.995275
201.874731,-1838.629195,-2960.823768,12509.480420
201.875039,0.000000,-2368.659014,11843.295072
201.875347,1302.362347,-592.164754,9696.697840
201.875655,3217.601092,814.226536,8290.306550
201.875963,4366.744339,2072.576638,6661.853478
201.876271,5209.449386,3256.906145,5921.647536
201.876580,6128.763984,3552.988522,4737.318029
201.876888,5209.449386,4367.215058,4145.153275
201.877196,4903.011187,5551.544565,4737.318029
201.877504,3524.039291,4515.256246,5033.400406
201.877812,2911.162892,3775.050304,6587.832884
201.878120,1455.581446,2664.741391,7624.121203
201.878428,-229.828649,962.267725,9474.636058
201.878736,-2145.067394,-962.267725,11473.192101
201.879045,-3677.258390,-2368.659014,12879.583391
201.879353,-4443.353888,-4293.194464,14508.036463
201.879661,-5286.058936,-5255.462188,15100.201217
201.879969,-5209.449386,-5181.441594,14952.160028
201.880277,-3983.696590,-4293.194464,14804.118840
201.880585,-2757.943793,-2960.823768,12953.603985
201.880893,-1149.143247,-1406.391290,11251.130318
201.881201,1149.143247,-296.082377,10066.800811
201.881510,2145.067394,444.123565,8290.306550
201.881818,3140.991542,2220.617826,7105.977043
201.882126,4596.572988,2368.659014,6069.688724
201.882434,4213.525239,2664.741391,6143.709319
201.882742,3983.696590,2516.700203,6513.812290
201.883050,3983.696590,2960.823768,6291.750507
201.883358,3294.210641,3404.947333,5773.606348
201.883666,3677.258390,3256.906145,5847.626942
201.883975,3217.601092,3849.070898,6587.832884
201.884283,2681.334243,3256.906145,7105.977043
201.884591,1991.848295,2590.720797,8142.265362
201.884899,995.924147,1406.391290,9030.512492
201.885207,-612.876398,-518.144159,10584.944971
201.885515,-2374.896044,-2368.659014,12657.521608
201.885823,-3830.477490,-3404.947333,14211.954086
201.886131,-4519.963438,-4737.318029,15026.180623
201.886440,-5056.230287,-4737.318029,15396.283594
201.886748,-4213.525239,-4219.173869,15026.180623
201.887056,-2374.896044,-3997.112087,14211.954086
201.887364,-1608.800546,-2590.720797,12509.480420
201.887672,842.705048,-1406.391290,10732.986159
201.887980,2451.505594,-0.000000,8660.409521
201.888288,4136.915689,1332.370696,7105.977043
201.888596,4903.011187,3108.864956,6069.688724
201.888905,5439.278036,3775.050304,5181.441594
201.889213,5745.716235,4219.173869,4811.338623
201.889521,5745.716235,5329.482782,4145.153275
201.889829,4366.744339,5551.544565,4737.318029
201.890137,3600.648841,4441.235652,6069.688724
201.890445,1991.848295,2960.823768,7328.038826
201.890753,459.657299,1332.370696,8882.471304
201.891061,-919.314598,-444.123565,10732.986159
201.891370,-2604.724693,-2590.720797,12583.501014
201.891678,-4519.963438,-3775.050304,13767.830521
201.891986,-5132.839837,-5107.421000,15322.262999
201.892294,-5515.887586,-5181.441594,15322.262999
201.892602,-4903.011187,-4737.318029,14656.077652
201.892910,-3677.258390,-3330.926739,14063.912898
201.893218,-2068.457845,-2072.576638,12287.418637
201.893526,-459.657299,-740.205942,10881.027347
201.893835,1915.238745,518.144159,8956.491898
201.894143,2987.772442,1258.350101,7624.121203
201.894451,4213.525239,1850.514855,6883.915261
201.894759,4213.525239,2590.720797,6439.791695
201.895067,4060.306139,2368.659014,6143.709319
201.895375,3217.601092,2294.638420,6365.771101
201.895683,3217.601092,2590.720797,6069.688724
201.895991,3370.820191,3108.864956,6069.688724
201.896300,3830.477490,3182.885551,5773.606348
201.896608,4136.915689,3627.009116,6365.771101
201.896916,2834.553343,3182.885551,6365.771101
201.897224,2374.896044,2146.597232,8216.285956
201.897532,1072.533697,814.226536,9252.574275
201.897840,-995.924147,-592.164754,11103.089130
201.898148,-2298.286494,-2516.700203,13101.645173
201.898456,-3907.087040,-4145.153275,14434.015869
201.898765,-4903.011187,-4959.379811,15618.345376
201.899073,-4673.182538,-4885.359217,15618.345376
201.899381,-3753.867940,-4589.276840,14878.139434
201.899689,-2604.724693,-3701.029710,13619.789333
201.899997,-459.657299,-2442.679609,11917.315666
201.900305,1608.800546,-1258.350101,10362.883188
201.900613,3217.601092,814.226536,7920.203579
201.900921,4136.915689,1924.535449,7328.038826
201.901230,5056.230287,3627.009116,5773.606348
201.901538,5898.935335,4737.318029,4885.359217
201.901846,5362.668486,5699.585753,4959.379811
201.902154,5515.887586,5551.544565,4071.132681
201.902462,4826.401637,5477.523971,4885.359217
201.902770,3524.039291,4293.194464,6217.729913
201.903078,2221.676944,2960.823768,7476.080014
201.903386,229.828649,888.247130,9622.677246
201.903695,-1302.362347,-1110.308913,11547.212695
201.904003,-2834.553343,-2960.823768,12509.480420
201.904311,-4366.744339,-4071.132681,14211.954086
201.904619,-4903.011187,-4959.379811,15174.221811
201.904927,-5132.839837,-4959.379811,15396.283594
201.905235,-4749.792088,-4071.132681,14804.118840
201.905543,-2987.772442,-2738.761985,13915.871710
201.905851,-1225.752797,-1406.391290,11843.295072
201.906160,689.485948,-74.020594,10584.944971
201.906468,2145.067394,1110.308913,9696.697840
201.906776,2757.943793,1850.514855,7550.100608
201.907084,3524.039291,1850.514855,7179.997637
201.907392,3677.258390,2220.617826,6587.832884
201.907700,3524.039291,1924.535449,6883.915261
201.908008,2834.553343,2146.597232,6513.812290
201.908316,2911.162892,2516.700203,6217.729913
201.908625,2834.553343,3330.926739,5329.482782
201.908933,3370.820191,3997.112087,5847.626942
201.909241,3830.477490,4071.132681,6069.688724
201.909549,2834.553343,3256.906145,6957.935855
201.909857,1762.019645,2146.597232,8068.244768
201.910165,383.047749,-0.000000,9770.718434
201.910473,-1225.752797,-2072.576638,11769.274478
201.910781,-2834.553343,-3552.988522,13471.748144
201.911090,-4213.525239,-4219.173869,15026.180623
201.911398,-5056.230287,-4737.318029,15544.324782
201.911706,-5209.449386,-4959.379811,15692.365970
201.912014,-3753.867940,-4441.235652,14730.098246
201.912322,-2145.067394,-3478.967927,12879.583391
201.912630,0.000000,-2294.638420,11177.109724
201.912938,1608.800546,-740.205942,9622.677246
201.913246,3140.991542,962.267725,8068.244768
201.913555,4903.011187,2442.679609,6439.791695
201.913863,5515.887586,4145.153275,5033.400406
201.914171,5822.325785,5107.421000,4737.318029
201.914479,5515.887586,5477.523971,4293.194464
201.914787,4826.401637,5625.565159,4589.276840
201.915095,4136.915689,4737.318029,5699.585753
201.915403,2757.943793,4219.173869,6513.812290
201.915711,1225.752797,1924.535449,8586.388927
201.916020,-383.047749,-74.020594,10658.965565
201.916328,-1685.410096,-1628.453072,11769.274478
201.916636,-3294.210641,-3256.906145,12953.603985
201.916944,-4673.182538,-4737.318029,14063.912898
201.917252,-5056.230287,-5033.400406,15100.201217
201.917560,-4826.401637,-4663.297435,14804.118840
201.917868,-3370.820191,-3701.029710,14359.995275
201.918176,-2528.115143,-2368.659014,13101.645173
201.918485,-229.828649,-1332.370696,11251.130318
201.918793,1455.581446,-222.061783,10584.944971
201.919101,1991.848295,592.164754,8882.471304
201.919409,2911.162892,1480.411884,7846.182985
201.919717,3140.991542,1702.473667,7105.977043
201.920025,3140.991542,1998.556043,6883.915261
201.920333,3064.381992,2294.638420,7105.977043
201.920641,3064.381992,2442.679609,6217.729913
201.920950,3447.429741,3256.906145,6291.750507
201.921258,4060.306139,4145.153275,5551.544565
201.921566,3983.696590,4515.256246,5329.482782
201.921874,3753.867940,4219.173869,6143.709319
201.922182,3140.991542,3108.864956,7254.018232
201.922490,1608.800546,1554.432478,8734.430116
201.922798,0.000000,-222.061783,10732.986159
201.923106,-1685.410096,-2294.638420,12213.398043
201.923415,-3217.601092,-3923.091493,14063.912898
201.923723,-4673.182538,-4959.379811,15544.324782
201.924031,-4979.620737,-5329.482782,15988.448347
201.924339,-4903.011187,-5033.400406,15544.324782
201.924647,-3524.039291,-4367.215058,14137.933492
201.924955,-1915.238745,-2960.823768,12509.480420
201.925263,536.266849,-1628.453072,11251.130318
201.925571,2374.896044,-0.000000,9178.553681
201.925880,3217.601092,1554.432478,7846.182985
201.926188,4826.401637,2960.823768,5847.626942
201.926496,5286.058936,4737.318029,4737.318029
201.926804,5669.106685,5551.544565,4885.359217
201.927112,5056.230287,5995.668130,4145.153275
201.927420,4290.134789,5403.503377,5107.421000
201.927728,3294.210641,4219.173869,6069.688724
201.928036,1532.190996,2738.761985,7846.182985
201.928345,0.000000,962.267725,9474.636058
201.928653,-1225.752797,-1406.391290,10807.006753
201.928961,-2757.943793,-2738.761985,11843.295072
201.929269,-3753.867940,-3923.091493,13175.665768
201.929577,-4366.744339,-4811.338623,14211.954086
201.929885,-4519.963438,-4663.297435,14434.015869
201.930193,-3140.991542,-4071.132681,14211.954086
201.930501,-2604.724693,-3182.885551,13397.727550
201.930810,-1225.752797,-1776.494261,11843.295072
201.931118,766.095498,-1036.288319,10584.944971
201.931426,1455.581446,592.164754,9474.636058
201.931734,2374.896044,1406.391290,8290.306550
201.932042,2604.724693,1184.329507,7624.121203
201.932350,2681.334243,1258.350101,7624.121203
201.932658,2528.115143,1036.288319,7476.080014
201.932966,1838.629195,1406.391290,7105.977043
201.933275,2834.553343,2072.576638,7105.977043
201.933583,3524.039291,3256.906145,6217.729913
201.933891,4060.306139,4589.276840,5551.544565
201.934199,4596.572988,4811.338623,5181.441594
201.934507,4213.525239,4663.297435,5625.565159
201.934815,2911.162892,3256.906145,7328.038826
201.935123,1762.019645,1628.453072,8956.491898
201.935431,0.000000,-222.061783,10881.027347
201.935740,-2068.457845,-2368.659014,12953.603985
201.936048,-3600.648841,-4367.215058,14434.015869
201.936356,-5209.449386,-5329.482782,15840.407159
201.936664,-5362.668486,-5995.668130,16284.530724
201.936972,-4673.182538,-5329.482782,15544.324782
201.937280,-2987.772442,-4219.173869,13989.892304
201.937588,-1149.143247,-3256.906145,12657.521608
201.937896,1302.362347,-1924.535449,10214.842000
201.938205,3370.820191,518.144159,8438.347739
201.938513,4673.182538,2590.720797,6587.832884
201.938821,5439.278036,4219.173869,5181.441594
201.939129,6205.373534,5329.482782,4737.318029
201.939437,5975.544884,6217.729913,4219.173869
201.939745,5056.230287,6291.750507,4293.194464
201.940053,4290.134789,5255.462188,5403.503377
201.940361,2604.724693,3627.009116,6365.771101
201.940670,1149.143247,2072.576638,7698.141797
201.940978,-842.705048,-74.020594,9992.780217
201.941286,-2221.676944,-1628.453072,11547.212695
201.941594,-3217.601092,-2812.782580,12731.542202
201.941902,-3983.696590,-3997.112087,13841.851115
201.942210,-4136.915689,-4737.318029,14211.954086
201.942518,-4213.525239,-4219.173869,13989.892304
201.942826,-3140.991542,-3182.885551,13989.892304
201.943135,-1915.238745,-2294.638420,13101.645173
201.943443,-229.828649,-1258.350101,11251.130318
201.943751,842.705048,-0.000000,10362.883188
201.944059,1762.019645,740.205942,9104.533087
201.944367,2374.896044,1036.288319,8364.327145
201.944675,2757.943793,888.247130,8216.285956
201.944983,2451.505594,888.247130,7994.224174
201.945291,1838.629195,296.082377,7105.977043
201.945600,1608.800546,1554.432478,7105.977043
201.945908,2834.553343,2442.679609,6291.750507
201.946216,3753.867940,4219.173869,5551.544565
201.946524,4826.401637,5329.482782,4737.318029
201.946832,4903.011187,5033.400406,4663.297435
201.947140,4213.525239,4441.235652,5625.565159
201.947448,2451.505594,2960.823768,7328.038826
201.947756,919.314598,962.267725,9474.636058
201.948065,-1072.533697,-1406.391290,11917.315666
201.948373,-3294.210641,-3701.029710,13841.851115
201.948681,-5132.839837,-5329.482782,15322.262999
201.948989,-5898.935335,-6365.771101,16284.530724
201.949297,-5669.106685,-6513.812290,16728.654289
201.949605,-4596.572988,-5625.565159,15322.262999
201.949913,-1991.848295,-4145.153275,13397.727550
201.950221,76.609550,-2368.659014,11029.068536
201.950530,2604.724693,-370.102971,9252.574275
201.950838,4519.963438,1924.535449,7105.977043
201.951146,5669.106685,3997.112087,5403.503377
201.951454,6358.592633,5625.565159,4441.235652
201.951762,6205.373534,6217.729913,3997.112087
201.952070,5515.887586,6587.832884,3997.112087
201.952378,4366.744339,5403.503377,4737.318029
201.952686,2681.334243,4145.153275,6365.771101
201.952995,689.485948,2220.617826,7846.182985
201.953303,-766.095498,962.267725,9622.677246
201.953611,-1915.238745,-740.205942,11029.068536
201.953919,-2911.162892,-2442.679609,12361.439231
201.954227,-3677.258390,-3404.947333,13175.665768
201.954535,-3983.696590,-4293.194464,14211.954086
201.954843,-4060.306139,-4737.318029,14211.954086
201.955151,-3524.039291,-3627.009116,13693.809927
201.955460,-2528.115143,-2812.782580,13249.686362
201.955768,-1072.533697,-1702.473667,12361.439231
201.956076,0.000000,-740.205942,10807.006753
201.956384,1072.533697,-0.000000,9918.759623
201.956692,1915.238745,666.185348,8882.471304
201.957000,2451.505594,518.144159,8290.306550
201.957308,2221.676944,592.164754,7994.224174
201.957616,2221.676944,814.226536,7846.182985
201.957925,2528.115143,1184.329507,7179.997637
201.958233,2451.505594,2072.576638,5921.647536
201.958541,3447.429741,3552.988522,5773.606348
201.958849,4366.744339,4515.256246,5181.441594
201.959152,4366.744339,5551.544565,4811.338623
201.959460,4290.134789,4663.297435,5181.441594
201.959768,2528.115143,3552.988522,6957.935855
201.960076,1685.410096,2146.597232,9252.574275
201.960384,0.000000,-148.041188,10881.027347
201.960693,-2374.896044,-2590.720797,13101.645173
201.961001,-4366.744339,-4737.318029,15174.221811
201.961309,-5209.449386,-5995.668130,15988.448347
201.961617,-5132.839837,-6513.812290,16950.716072
201.961925,-3983.696590,-5995.668130,15840.407159
201.962233,-2374.896044,-4737.318029,13989.892304
201.962541,76.609550,-3108.864956,11769.274478
201.962849,2374.896044,-962.267725,9918.759623
201.963157,4060.306139,1184.329507,7772.162391
201.963465,5669.106685,3108.864956,6143.709319
201.963773,6511.811733,4737.318029,4663.297435
201.964081,6435.202183,5921.647536,4367.215058
201.964389,6281.983084,6365.771101,4219.173869
201.964698,5209.449386,5699.585753,4737.318029
201.965006,3524.039291,4885.359217,6439.791695
201.965314,2374.896044,3478.967927,7476.080014
201.965622,383.047749,2072.576638,8586.388927
201.965930,-995.924147,-0.000000,10362.883188
201.966238,-1991.848295,-1258.350101,11547.212695
201.966546,-2987.772442,-2664.741391,12657.521608
201.966854,-3907.087040,-3849.070898,13915.871710
201.967162,-3830.477490,-4441.235652,14137.933492
201.967470,-4443.353888,-3849.070898,14508.036463
201.967778,-3370.820191,-3775.050304,13989.892304
201.968086,-2298.286494,-2812.782580,13027.624579
201.968395,-919.314598,-1480.411884,11695.253884
201.968703,306.438199,-592.164754,10658.965565
201.969011,1302.362347,-0.000000,9474.636058
201.969319,2681.334243,-0.000000,9104.533087
201.969627,2068.457845,888.247130,7994.224174
201.969935,2374.896044,666.185348,7624.121203
201.970243,2681.334243,888.247130,7179.997637
201.970551,2528.115143,1924.535449,6439.791695
201.970859,2987.772442,2960.823768,5995.668130
201.971167,3907.087040,4515.256246,5033.400406
201.971475,4443.353888,5551.544565,4293.194464
201.971783,4290.134789,5329.482782,4737.318029
201.972092,3907.087040,4663.297435,5921.647536
201.972400,2221.676944,2738.761985,7772.162391
201.972708,536.266849,592.164754,10066.800811
201.973016,-1608.800546,-1702.473667,12065.356855
201.973324,-3830.477490,-3923.091493,14285.974681
201.973632,-5209.449386,-5551.544565,15766.386565
201.973940,-6128.763984,-6587.832884,16802.674883
201.974248,-5592.497135,-6587.832884,16802.674883
201.974556,-3983.696590,-5477.523971,15174.221811
201.974864,-2068.457845,-3923.091493,12953.603985
201.975172,766.095498,-1924.535449,11473.192101
201.975480,2374.896044,-148.041188,9400.615463
201.975789,4136.915689,1924.535449,7402.059420
201.976097,5056.230287,3627.009116,5995.668130
201.976405,5822.325785,5181.441594,4663.297435
201.976713,6052.154434,6143.709319,4811.338623
201.977021,5209.449386,6069.688724,4441.235652
201.977329,4060.306139,5403.503377,4737.318029
201.977637,3600.648841,4589.276840,6365.771101
201.977945,2145.067394,3330.926739,7105.977043
201.978253,995.924147,1776.494261,8660.409521
201.978561,-689.485948,-0.000000,9918.759623
201.978869,-1225.752797,-1554.432478,11251.130318
201.979177,-2911.162892,-2368.659014,12657.521608
201.979486,-3524.039291,-3552.988522,14063.912898
201.979794,-3830.477490,-3923.091493,14656.077652
201.980102,-4060.306139,-4071.132681,14137.933492
201.980410,-3217.601092,-3108.864956,14137.933492
201.980718,-2451.505594,-2294.638420,13175.665768
201.981026,-995.924147,-1480.411884,12139.377449
201.981334,229.828649,-888.247130,11251.130318
201.981642,1455.581446,-518.144159,9992.780217
201.981950,1225.752797,370.102971,9104.533087
201.982258,1302.362347,296.082377,8586.388927
201.982566,2068.457845,222.061783,7698.141797
201.982874,2451.505594,1406.391290,6809.894666
201.983183,3217.601092,2516.700203,5921.647536
201.983491,3983.696590,4145.153275,5033.400406
201.983799,4673.182538,5329.482782,4293.194464
201.984107,5286.058936,5773.606348,4071.132681
201.984415,4903.011187,5033.400406,4737.318029
201.984723,3830.477490,3627.009116,6217.729913
201.985031,1915.238745,1998.556043,8364.327145
201.985339,-229.828649,-222.061783,10362.883188
201.985647,-2604.724693,-2590.720797,12805.562797
201.985955,-4443.353888,-4663.297435,14952.160028
201.986263,-5745.716235,-5921.647536,16284.530724
201.986571,-6358.592633,-6809.894666,16358.551318
201.986879,-5056.230287,-6217.729913,15322.262999
201.987188,-2911.162892,-4885.359217,14211.954086
201.987496,-842.705048,-3108.864956,11843.295072
201.987804,995.924147,-1258.350101,10214.842000
201.988112,3447.429741,518.144159,9178.553681
201.988420,4673.182538,2738.761985,6217.729913
201.988728,5669.106685,4589.276840,5477.523971
201.989036,6128.763984,5255.462188,4663.297435
201.989344,6052.154434,5773.606348,4367.215058
201.989652,5439.278036,5255.462188,4811.338623
201.989960,4060.306139,4515.256246,5329.482782
201.990268,2681.334243,3552.988522,6735.874072
201.990576,995.924147,2072.576638,7772.162391
201.990885,-229.828649,814.226536,9622.677246
201.991193,-995.924147,-888.247130,10881.027347
201.991501,-2374.896044,-2146.597232,11843.295072
201.991809,-3140.991542,-3478.967927,12435.459826
201.992117,-3600.648841,-3775.050304,13841.851115
201.992425,-3753.867940,-3923.091493,14211.954086
201.992733,-3600.648841,-3256.906145,13915.871710
201.993041,-2451.505594,-2738.761985,13545.768739
201.993349,-1532.190996,-2146.597232,12361.439231
201.993657,-306.438199,-1258.350101,11547.212695
201.993965,842.705048,-148.041188,10584.944971
201.994273,1378.971896,222.061783,9400.615463
201.994582,2298.286494,592.164754,8364.327145
201.994890,2068.457845,740.205942,7846.182985
201.995198,2374.896044,1184.329507,7624.121203
201.995506,2757.943793,1998.556043,6439.791695
201.995814,3447.429741,3108.864956,5699.585753
201.996122,4596.572988,4367.215058,4885.359217
201.996430,5286.058936,5107.421000,3923.091493
201.996738,4903.011187,5625.565159,4737.318029
201.997046,4213.525239,4737.318029,5477.523971
201.997354,2911.162892,2960.823768,7328.038826
201.997662,766.095498,1184.329507,9548.656652
201.997970,-1302.362347,-1406.391290,11695.253884
201.998279,-3600.648841,-3775.050304,13841.851115
201.998587,-4749.792088,-5329.482782,16062.468941
201.998895,-5975.544884,-6291.750507,16728.654289
201.999203,-5592.497135,-6809.894666,16284.530724
201.999511,-4290.134789,-5403.503377,14730.098246
201.999819,-2068.457845,-3997.112087,13175.665768
202.000127,383.047749,-2294.638420,11695.253884
202.000435,2451.505594,-74.020594,9770.718434
202.000743,4290.134789,1628.453072,7550.100608
202.001051,5132.839837,3256.906145,6069.688724
202.001359,5975.544884,4885.359217,4737.318029
202.001667,6358.592633,5329.482782,4737.318029
202.001976,5439.278036,5995.668130,4663.297435
202.002284,4519.963438,5329.482782,5181.441594
202.002592,3140.991542,4367.215058,6291.750507
202.002900,1991.848295,2886.803174,7105.977043
202.003208,612.876398,1554.432478,8734.430116
202.003516,-689.485948,-148.041188,10066.800811
202.003824,-1455.581446,-1924.535449,11621.233289
202.004132,-3294.210641,-2368.659014,12509.480420
202.004440,-3064.381992,-3256.906145,13767.830521
202.004748,-3217.601092,-3627.009116,13619.789333
202.005056,-3370.820191,-3182.885551,13767.830521
202.005364,-2987.772442,-3182.885551,13841.851115
202.005673,-2374.896044,-2590.720797,13545.768739
202.005981,-995.924147,-1702.473667,12361.439231
202.006289,-536.266849,-1480.411884,10807.006753
202.006597,995.924147,-592.164754,10584.944971
202.006905,1455.581446,-444.123565,8660.409521
202.007213,1991.848295,370.102971,8068.244768
202.007521,2221.676944,1036.288319,7772.162391
202.007829,2681.334243,1850.514855,6735.874072
202.008137,3677.258390,2664.741391,5625.565159
202.008445,4213.525239,4441.235652,4737.318029
202.008753,4903.011187,5181.441594,4441.235652
202.009061,4979.620737,6069.688724,3923.091493
202.009370,4903.011187,5477.523971,4737.318029
202.009678,3217.601092,4071.132681,6365.771101
202.009986,1608.800546,2220.617826,8438.347739
202.010294,-842.705048,-148.041188,10881.027347
202.010602,-2834.553343,-2886.803174,13397.727550
202.010910,-4519.963438,-5107.421000,15470.304188
202.011218,-6128.763984,-6365.771101,16284.530724
202.011526,-6052.154434,-6809.894666,16802.674883
202.011834,-5132.839837,-6513.812290,15692.365970
202.012142,-3140.991542,-4811.338623,14211.954086
202.012450,-689.485948,-3108.864956,12287.418637
202.012758,1762.019645,-1184.329507,10066.800811
202.013066,3294.210641,740.205942,8142.265362
202.013375,4979.620737,2886.803174,6143.709319
202.013683,5286.058936,4737.318029,4737.318029
202.013991,6052.154434,5699.585753,4663.297435
202.014299,6052.154434,5403.503377,4589.276840
202.014607,5056.230287,5107.421000,4737.318029
202.014915,3447.429741,4293.194464,5551.544565
202.015223,1991.848295,3108.864956,6809.894666
202.015531,766.095498,1850.514855,8364.327145
202.015839,0.000000,444.123565,9622.677246
202.016147,-1685.410096,-1036.288319,10584.944971
202.016455,-2374.896044,-1628.453072,11843.295072
202.016763,-2911.162892,-2516.700203,12657.521608
202.017072,-3677.258390,-3182.885551,13323.706956
202.017380,-3753.867940,-3478.967927,13767.830521
202.017688,-3677.258390,-3330.926739,13915.871710
202.017996,-2834.553343,-2886.803174,13767.830521
202.018304,-1838.629195,-2442.679609,12435.459826
202.018612,-612.876398,-1480.411884,12139.377449
202.018920,766.095498,-1110.308913,10732.986159
202.019228,995.924147,-592.164754,9252.574275
202.019536,1838.629195,-0.000000,8808.450710
202.019844,2221.676944,592.164754,7698.141797
202.020152,2987.772442,1406.391290,6809.894666
202.020460,3830.477490,2368.659014,5847.626942
202.020769,4136.915689,3775.050304,4811.338623
202.021077,4903.011187,4959.379811,4367.215058
202.021385,5209.449386,5477.523971,3701.029710
202.021693,4826.401637,6143.709319,4367.215058
202.022001,3677.258390,4811.338623,5773.606348
202.022309,2145.067394,3034.844362,7994.224174
202.022617,76.609550,962.267725,10066.800811
202.022925,-1838.629195,-2220.617826,12287.418637
202.023233,-3447.429741,-4219.173869,14508.036463
202.023541,-5362.668486,-5773.606348,16284.530724
202.023849,-5822.325785,-7105.977043,16950.716072
202.024157,-5439.278036,-6661.853478,16580.613101
202.024466,-3294.210641,-5329.482782,14656.077652
202.024774,-995.924147,-3627.009116,12731.542202
202.025082,1378.971896,-1850.514855,10732.986159
202.025390,3524.039291,296.082377,8808.450710
202.025698,4903.011187,2368.659014,7254.018232
202.026006,6128.763984,3775.050304,5403.503377
202.026314,6052.154434,4589.276840,4811.338623
202.026622,6205.373534,4885.359217,4811.338623
202.026930,4979.620737,4885.359217,5033.400406
202.027238,3907.087040,4071.132681,5995.668130
202.027546,2604.724693,3552.988522,6661.853478
202.027854,1838.629195,2294.638420,7402.059420
202.028163,1149.143247,1776.494261,8660.409521
202.028471,0.000000,814.226536,9474.636058
202.028779,-1378.971896,-148.041188,10510.924376
202.029087,-1915.238745,-1628.453072,11769.274478
202.029395,-2757.943793,-2146.597232,12583.501014
202.029703,-3600.648841,-3034.844362,13323.706956
202.030011,-3524.039291,-3478.967927,13989.892304
202.030319,-3064.381992,-3552.988522,14211.954086
202.030627,-2757.943793,-3552.988522,13841.851115
202.030935,-1991.848295,-3108.864956,12731.542202
202.031243,-842.705048,-2664.741391,11621.233289
202.031551,306.438199,-1332.370696,10436.903782
202.031860,1149.143247,-370.102971,8882.471304
202.032168,2145.067394,148.041188,7994.224174
202.032476,3064.381992,1332.370696,7179.997637
202.032784,3064.381992,2146.597232,6439.791695
202.033092,3907.087040,3330.926739,5107.421000
202.033400,4903.011187,4441.235652,4145.153275
202.033708,4903.011187,5477.523971,3923.091493
202.034016,4673.182538,6143.709319,4071.132681
202.034324,3830.477490,5107.421000,5403.503377
202.034632,2298.286494,3775.050304,7105.977043
202.034940,459.657299,1554.432478,9400.615463
202.035248,-1991.848295,-1184.329507,11251.130318
202.035556,-3600.648841,-3552.988522,14063.912898
202.035865,-4979.620737,-5477.523971,14878.139434
202.036173,-5669.106685,-6439.791695,16432.571912
202.036481,-5745.716235,-6735.874072,16432.571912
202.036789,-4213.525239,-5995.668130,15100.201217
202.037097,-2374.896044,-4219.173869,13249.686362
202.037405,153.219100,-2294.638420,11621.233289
202.037713,2221.676944,-444.123565,9548.656652
202.038021,3830.477490,1184.329507,7476.080014
202.038329,5592.497135,2590.720797,6439.791695
202.038637,5822.325785,4441.235652,5699.585753
202.038945,5822.325785,4737.318029,4959.379811
202.039253,4979.620737,4885.359217,5625.565159
202.039562,3907.087040,4071.132681,6291.750507
202.039870,2451.505594,3627.009116,7031.956449
202.040178,1532.190996,3256.906145,7328.038826
202.040486,919.314598,2516.700203,8142.265362
202.040794,306.438199,1406.391290,8734.430116
202.041102,0.000000,296.082377,10140.821405
202.041410,-1378.971896,-888.247130,11177.109724
202.041718,-2528.115143,-1998.556043,11991.336260
202.042026,-3217.601092,-2664.741391,13101.645173
202.042334,-3447.429741,-3330.926739,13915.871710
202.042642,-3370.820191,-3478.967927,14211.954086
202.042950,-3370.820191,-3256.906145,14359.995275
202.043259,-1915.238745,-3108.864956,13323.706956
202.043567,-995.924147,-2590.720797,12361.439231
202.043875,229.828649,-1702.473667,11103.089130
202.044183,1455.581446,-666.185348,9548.656652
202.044491,2068.457845,-74.020594,8660.409521
202.044799,2604.724693,592.164754,7772.162391
202.045107,3370.820191,1850.514855,7254.018232
202.045415,3447.429741,2294.638420,5107.421000
202.045723,4979.620737,4293.194464,4737.318029
202.046031,4979.620737,5921.647536,4145.153275
202.046339,5209.449386,6439.791695,3775.050304
202.046647,4749.792088,6291.750507,4589.276840
202.046956,3370.820191,4663.297435,5625.565159
202.047264,1915.238745,2812.782580,7698.141797
202.047572,0.000000,-444.123565,10140.821405
202.047880,-2528.115143,-2516.700203,12287.418637
202.048188,-4290.134789,-4885.359217,14137.933492
202.048496,-5362.668486,-6291.750507,15840.407159
202.048804,-5975.544884,-6957.935855,16506.592507
202.049112,-5515.887586,-6587.832884,15988.448347
202.049420,-3370.820191,-5181.441594,14730.098246
202.049728,-766.095498,-3478.967927,12583.501014
202.050036,1149.143247,-1554.432478,10732.986159
202.050344,2911.162892,-0.000000,8956.491898
202.050653,4290.134789,2294.638420,7550.100608
202.050961,5132.839837,3478.967927,5847.626942
202.051269,5745.716235,4737.318029,5329.482782
202.051577,5209.449386,4959.379811,5329.482782
202.051885,4596.572988,4737.318029,5477.523971
202.052193,3677.258390,4219.173869,6217.729913
202.052501,2681.334243,3404.947333,6735.874072
202.052809,1991.848295,3256.906145,7031.956449
202.053117,1072.533697,2368.659014,7772.162391
202.053425,229.828649,962.267725,8882.471304
202.053733,-612.876398,-0.000000,10066.800811
202.054041,-1455.581446,-1258.350101,11769.274478
202.054350,-2451.505594,-2294.638420,12287.418637
202.054658,-3370.820191,-3330.926739,13249.686362
202.054966,-3217.601092,-3775.050304,14508.036463
202.055274,-3600.648841,-3997.112087,14508.036463
202.055582,-3064.381992,-3552.988522,13989.892304
202.055890,-1991.848295,-3108.864956,13175.665768
202.056198,-842.705048,-2368.659014,11843.295072
202.056506,612.876398,-1406.391290,10732.986159
202.056814,1149.143247,-814.226536,9474.636058
202.057122,1838.629195,-0.000000,8586.388927
202.057430,2604.724693,1258.350101,7772.162391
202.057738,2911.162892,1998.556043,6587.832884
202.058046,3217.601092,3034.844362,5773.606348
202.058354,4519.963438,5107.421000,4811.338623
202.058662,5056.230287,6291.750507,3849.070898
202.058970,5362.668486,6883.915261,3775.050304
202.059278,4749.792088,5921.647536,4589.276840
202.059586,3753.867940,4293.194464,5921.647536
202.059894,1532.190996,2072.576638,8734.430116
202.060203,-612.876398,-666.185348,10510.924376
202.060511,-2757.943793,-3182.885551,12953.603985
202.060819,-4673.182538,-4737.318029,14508.036463
202.061127,-5669.106685,-6365.771101,16062.468941
202.061435,-5745.716235,-6587.832884,16432.571912
202.061743,-4596.572988,-5699.585753,15618.345376
202.062051,-2757.943793,-4515.256246,14211.954086
202.062359,-459.657299,-2960.823768,12065.356855
202.062667,1532.190996,-1332.370696,10140.821405
202.062975,3370.820191,740.205942,8734.430116
202.063283,4443.353888,2442.679609,7105.977043
202.063591,4979.620737,3849.070898,6365.771101
202.063899,5056.230287,4441.235652,5551.544565
202.064207,4749.792088,4663.297435,5847.626942
202.064515,4366.744339,4441.235652,6439.791695
202.064823,3064.381992,3478.967927,6587.832884
202.065131,1915.238745,3404.947333,6883.915261
202.065439,1991.848295,2886.803174,7624.121203
202.065747,995.924147,2146.597232,8142.265362
202.066055,76.609550,1036.288319,9104.533087
202.066363,-612.876398,-74.020594,10732.986159
202.066671,-1838.629195,-1480.411884,11251.130318
202.066979,-2757.943793,-2368.659014,12879.583391
202.067287,-3600.648841,-3108.864956,13841.851115
202.067595,-3600.648841,-3701.029710,14952.160028
202.067903,-3370.820191,-3775.050304,14434.015869
202.068211,-2834.553343,-3330.926739,13915.871710
202.068519,-1455.581446,-2812.782580,13175.665768
202.068827,-459.657299,-1998.556043,11325.150913
202.069135,383.047749,-1258.350101,10140.821405
202.069443,1685.410096,-592.164754,8882.471304
202.069751,2451.505594,666.185348,8290.306550
202.070059,3217.601092,1406.391290,7328.038826
202.070367,3217.601092,2516.700203,5773.606348
202.070675,3830.477490,3849.070898,5181.441594
202.070983,4596.572988,5403.503377,4663.297435
202.071291,5132.839837,6143.709319,4219.173869
202.071599,4366.744339,5995.668130,4219.173869
202.071907,3830.477490,4959.379811,5625.565159
202.072215,2911.162892,2738.761985,7698.141797
202.072523,76.609550,1332.370696,8216.285956
202.072831,-842.705048,-1998.556043,12139.377449
202.073139,-3447.429741,-3404.947333,13175.665768
202.073447,-5209.449386,-5033.400406,14804.118840
202.073755,-5209.449386,-6513.812290,16062.468941
202.074063,-5056.230287,-5847.626942,15100.201217
202.074371,-3294.210641,-5181.441594,15174.221811
202.074679,-2145.067394,-3849.070898,13027.624579
202.074987,995.924147,-1628.453072,11991.336260
202.075295,1455.581446,-74.020594,9622.677246
202.075603,3907.087040,1480.411884,8290.306550
202.075912,4519.963438,2738.761985,7031.956449
202.076220,4290.134789,3849.070898,5773.606348
202.076528,4903.011187,3701.029710,6513.812290
202.076836,3907.087040,3997.112087,5995.668130
202.077144,3753.867940,3256.906145,6809.894666
202.077452,2911.162892,3330.926739,6365.771101
202.077760,2298.286494,3330.926739,7105.977043
202.078068,1532.190996,2738.761985,7254.018232
202.078376,1302.362347,2072.576638,8142.265362
202.078684,306.438199,888.247130,9400.615463
202.078992,-612.876398,-370.102971,10510.924376
202.079300,-1685.410096,-1332.370696,11843.295072
202.079608,-2374.896044,-2738.761985,12879.583391
202.079916,-2987.772442,-3627.009116,14285.974681
202.080224,-4290.134789,-4219.173869,14285.974681
202.080532,-3370.820191,-3552.988522,14359.995275
202.080840,-2451.505594,-3552.988522,13693.809927
202.081148,-1685.410096,-2516.700203,12361.439231
202.081456,0.000000,-1702.473667,11251.130318
202.081764,766.095498,-740.205942,10362.883188
202.082072,1455.581446,-0.000000,8438.347739
202.082380,2757.943793,962.267725,7179.997637
202.082688,3370.820191,2368.659014,6809.894666
202.082996,3983.696590,3404.947333,5551.544565
202.083304,4673.182538,4885.359217,4737.318029
202.083612,5056.230287,5699.585753,4663.297435
202.083920,4366.744339,5847.626942,4071.132681
202.084228,4136.915689,4811.338623,4885.359217
202.084536,2681.334243,3552.988522,7402.059420
202.084844,1302.362347,1702.473667,8660.409521
202.085152,-1225.752797,-518.144159,10881.027347
202.085460,-2681.334243,-2442.679609,12435.459826
202.085768,-3983.696590,-4071.132681,13989.892304
202.086076,-4903.011187,-5033.400406,15174.221811
202.086384,-4749.792088,-5329.482782,15322.262999
202.086692,-3370.820191,-4959.379811,14804.118840
202.087000,-2451.505594,-4071.132681,13397.727550
202.087308,-153.219100,-2516.700203,11991.336260
202.087616,1455.581446,-1110.308913,10140.821405
202.087924,2834.553343,518.144159,8956.491898
202.088232,3983.696590,2146.597232,7994.224174
202.088540,4519.963438,2738.761985,6513.812290
202.088848,4136.915689,3627.009116,5995.668130
202.089156,4673.182538,3627.009116,6365.771101
202.089464,3907.087040,3330.926739,6439.791695
202.089772,2298.286494,3775.050304,6735.874072
202.090080,2451.505594,3108.864956,7328.038826
202.090388,1991.848295,3627.009116,6883.915261
202.090696,1608.800546,2590.720797,7476.080014
202.091004,842.705048,1776.494261,8364.327145
202.091313,-383.047749,740.205942,10066.800811
202.091621,-1532.190996,-962.267725,11251.130318
202.091929,-2068.457845,-1850.514855,12213.398043
202.092237,-3140.991542,-2960.823768,13693.809927
202.092545,-3753.867940,-4219.173869,14285.974681
202.092853,-3983.696590,-4441.235652,14804.118840
202.093161,-3677.258390,-4145.153275,14285.974681
202.093469,-2451.505594,-3775.050304,13397.727550
202.093777,-919.314598,-2368.659014,11621.233289
202.094085,1072.533697,-1258.350101,10362.883188
202.094393,2145.067394,-222.061783,9252.574275
202.094701,2681.334243,518.144159,7550.100608
202.095009,3983.696590,2146.597232,6661.853478
202.095317,4060.306139,3256.906145,5107.421000
202.095625,4596.572988,4589.276840,4663.297435
202.095933,4903.011187,5625.565159,4589.276840
202.096241,4673.182538,5847.626942,4589.276840
202.096549,4290.134789,5403.503377,4737.318029
202.096857,3064.381992,4145.153275,6143.709319
202.097165,1838.629195,2368.659014,7624.121203
202.097473,-153.219100,518.144159,9918.759623
202.097781,-1915.238745,-1850.514855,11991.336260
202.098089,-3677.258390,-3404.947333,13101.645173
202.098397,-4596.572988,-4737.318029,14656.077652
202.098705,-3753.867940,-5773.606348,15544.324782
202.099013,-4290.134789,-5477.523971,15396.283594
202.099321,-2911.162892,-4219.173869,14582.057057
202.099629,-1149.143247,-3404.947333,12509.480420
202.099937,612.876398,-1406.391290,11473.192101
202.100245,2068.457845,-74.020594,9844.739029
202.100553,3447.429741,1480.411884,8216.285956
202.100861,3983.696590,2442.679609,7179.997637
202.101169,4903.011187,2886.803174,6661.853478
202.101477,4519.963438,3256.906145,6883.915261
202.101785,4290.134789,3182.885551,6587.832884
202.102093,2911.162892,3034.844362,6513.812290
202.102401,2604.724693,3034.844362,6661.853478
202.102709,2374.896044,3627.009116,7031.956449
202.103017,2298.286494,3182.885551,7105.977043
202.103325,1532.190996,2590.720797,7624.121203
202.103633,306.438199,1184.329507,8956.491898
202.103941,0.000000,-296.082377,10436.903782
202.104249,-1685.410096,-1628.453072,11547.212695
202.104557,-3140.991542,-3330.926739,12953.603985
202.104865,-3983.696590,-4145.153275,14359.995275
202.105173,-4290.134789,-4811.338623,15100.201217
202.105481,-4213.525239,-4663.297435,15026.180623
202.105789,-3217.601092,-4219.173869,14211.954086
202.106097,-766.095498,-3108.864956,12361.439231
202.106405,459.657299,-1924.535449,11399.171507
202.106714,1225.752797,-666.185348,9178.553681
202.107022,2604.724693,666.185348,7920.203579
202.107330,3753.867940,1850.514855,6809.894666
202.107638,4136.915689,2886.803174,5699.585753
202.107946,4366.744339,3923.091493,4811.338623
202.108254,4596.572988,4959.379811,4589.276840
202.108562,4443.353888,5181.441594,4293.194464
202.108870,3677.258390,5255.462188,4441.235652
202.109178,3370.820191,4959.379811,6291.750507
202.109486,1991.848295,3330.926739,7105.977043
202.109794,536.266849,1628.453072,8734.430116
202.110102,-842.705048,-518.144159,10658.965565
202.110410,-2221.676944,-2294.638420,12213.398043
202.110718,-3677.258390,-3923.091493,13471.748144
202.111026,-4366.744339,-4885.359217,14285.974681
202.111334,-4366.744339,-5625.565159,15322.262999
202.111642,-4060.306139,-5255.462188,15100.201217
202.111950,-2681.334243,-4293.194464,13841.851115
202.112258,-995.924147,-2368.659014,12213.398043
202.112566,766.095498,-1332.370696,10732.986159
202.112874,2374.896044,296.082377,9474.636058
202.113182,3370.820191,1332.370696,7920.203579
202.113490,3983.696590,2664.741391,7550.100608
202.113798,4060.306139,2738.761985,6513.812290
202.114106,3983.696590,2886.803174,6513.812290
202.114414,3217.601092,2960.823768,6143.709319
202.114722,3294.210641,3701.029710,6439.791695
202.115030,3140.991542,4293.194464,5921.647536
202.115338,2528.115143,4441.235652,6291.750507
202.115646,2528.115143,3404.947333,6735.874072
202.115954,919.314598,2294.638420,8216.285956
202.116262,459.657299,444.123565,10140.821405
202.116570,-1532.190996,-1036.288319,10584.944971
202.116878,-2757.943793,-2368.659014,12287.418637
202.117186,-3677.258390,-3923.091493,14137.933492
202.117494,-4443.353888,-4663.297435,15100.201217
202.117802,-4596.572988,-4811.338623,15618.345376
202.118110,-3830.477490,-4663.297435,14508.036463
202.118418,-2451.505594,-3849.070898,13249.686362
202.118726,-383.047749,-2886.803174,11843.295072
202.119034,842.705048,-1554.432478,10436.903782
202.119342,2221.676944,-74.020594,8586.388927
202.119650,3217.601092,1258.350101,7772.162391
202.119958,3983.696590,2368.659014,6365.771101
202.120266,4136.915689,3478.967927,5329.482782
202.120574,4903.011187,4293.194464,5033.400406
202.120882,4826.401637,5255.462188,4737.318029
202.121190,4290.134789,5921.647536,4663.297435
202.121498,3907.087040,5551.544565,4737.318029
202.121806,3294.210641,4811.338623,6217.729913
202.122114,2221.676944,2886.803174,7179.997637
202.122423,383.047749,962.267725,9178.553681
202.122731,-1225.752797,-1036.288319,11177.109724
202.123039,-2911.162892,-2960.823768,12731.542202
202.123347,-3983.696590,-4219.173869,13989.892304
202.123655,-4596.572988,-5181.441594,15026.180623
202.123963,-5056.230287,-5255.462188,15322.262999
202.124271,-3524.039291,-4367.215058,14952.160028
202.124579,-2068.457845,-3478.967927,13693.809927
202.124887,-383.047749,-1850.514855,12139.377449
202.125195,1455.581446,-740.205942,10658.965565
202.125503,2145.067394,592.164754,9326.594869
202.125811,3677.258390,1554.432478,8068.244768
202.126119,3753.867940,2516.700203,7772.162391
202.126427,3677.258390,3034.844362,7105.977043
202.126735,3677.258390,2738.761985,6513.812290
202.127043,3677.258390,3627.009116,5995.668130
202.127351,3524.039291,4145.153275,5921.647536
202.127659,3370.820191,4515.256246,5773.606348
202.127967,3447.429741,4219.173869,6143.709319
202.128275,2298.286494,3182.885551,7031.956449
202.128583,1532.190996,1480.411884,8882.471304
202.128891,0.000000,-296.082377,10510.924376
202.129199,-1838.629195,-1554.432478,11399.171507
202.129507,-3370.820191,-2886.803174,13249.686362
202.129815,-4443.353888,-4219.173869,14582.057057
202.130123,-4903.011187,-4811.338623,15396.283594
202.130431,-4366.744339,-4959.379811,15100.201217
202.130739,-2834.553343,-4293.194464,14137.933492
202.131047,-1838.629195,-2886.803174,12583.501014
202.131355,-536.266849,-2368.659014,10955.047942
202.131663,1149.143247,-592.164754,9696.697840
202.131971,2681.334243,592.164754,8216.285956
202.132279,3524.039291,1924.535449,6809.894666
202.132587,3983.696590,2960.823768,5921.647536
202.132895,4826.401637,3849.070898,4885.359217
202.133203,4826.401637,4811.338623,4663.297435
202.133511,4673.182538,5181.441594,4589.276840
202.133819,4903.011187,5329.482782,4737.318029
202.134127,3983.696590,4737.318029,5033.400406
202.134435,2911.162892,3552.988522,6513.812290
202.134743,1302.362347,1628.453072,8290.306550
202.135051,-383.047749,-74.020594,10288.862594
202.135359,-1378.971896,-2294.638420,11991.336260
202.135667,-3447.429741,-3552.988522,13175.665768
202.135975,-4060.306139,-5033.400406,14285.974681
202.136283,-4060.306139,-5625.565159,15248.242405
202.136591,-4136.915689,-4737.318029,15174.221811
202.136899,-3140.991542,-4145.153275,13915.871710
202.137207,-919.314598,-2886.803174,12879.583391
202.137515,383.047749,-1776.494261,11399.171507
202.137824,1762.019645,-296.082377,10140.821405
202.138132,2374.896044,1036.288319,8512.368333
202.138440,3600.648841,1850.514855,7920.203579
202.138748,3524.039291,2220.617826,7031.956449
202.139056,3677.258390,3034.844362,6291.750507
202.139364,3370.820191,3256.906145,6291.750507
202.139672,3753.867940,4145.153275,5847.626942
202.139980,3524.039291,4515.256246,5551.544565
202.140288,3983.696590,4367.215058,5773.606348
202.140596,2757.943793,4071.132681,6587.832884
202.140904,2298.286494,2590.720797,7920.203579
202.141212,689.485948,1110.308913,9770.718434
202.141520,-995.924147,-740.205942,11029.068536
202.141828,-2451.505594,-2294.638420,12879.583391
202.142136,-3677.258390,-3923.091493,14211.954086
202.142444,-4519.963438,-4663.297435,15174.221811
202.142752,-5056.230287,-4959.379811,15692.365970
202.143060,-4596.572988,-4959.379811,14804.118840
202.143368,-2681.334243,-3849.070898,13619.789333
202.143676,-1991.848295,-2442.679609,12953.603985
202.143984,383.047749,-1184.329507,10881.027347
202.144292,1455.581446,222.061783,8882.471304
202.144600,3370.820191,1184.329507,7994.224174
202.144908,3830.477490,2664.741391,6291.750507
202.145216,3983.696590,3404.947333,5107.421000
202.145524,4443.353888,4219.173869,6069.688724
202.145832,4749.792088,5181.441594,5403.503377
202.146140,3524.039291,5181.441594,4885.359217
202.146448,3830.477490,5403.503377,4737.318029
202.146756,3830.477490,4367.215058,5847.626942
202.147064,1915.238745,3330.926739,6735.874072
202.147372,919.314598,1628.453072,9030.512492
202.147680,0.000000,-518.144159,10732.986159
202.147988,-2145.067394,-2368.659014,11843.295072
202.148296,-2757.943793,-3627.009116,14063.912898
202.148604,-3983.696590,-4737.318029,14434.015869
202.148912,-3677.258390,-4885.359217,15248.242405
202.149220,-3600.648841,-4663.297435,14656.077652
202.149528,-2374.896044,-3775.050304,13841.851115
202.149836,-689.485948,-2886.803174,12657.521608
202.150144,612.876398,-1850.514855,11251.130318
202.150452,1762.019645,-148.041188,9696.697840
202.150760,2911.162892,444.123565,8956.491898
202.151068,2987.772442,1036.288319,7846.182985
202.151376,3370.820191,2294.638420,6661.853478
202.151684,3600.648841,2960.823768,6587.832884
202.151992,3753.867940,3627.009116,6143.709319
202.152300,3983.696590,4515.256246,5773.606348
202.152608,4213.525239,5033.400406,5625.565159
202.152916,3677.258390,4589.276840,5477.523971
202.153224,3294.210641,3849.070898,6365.771101
202.153533,1838.629195,2294.638420,7698.141797
202.153841,536.266849,592.164754,9474.636058
202.154149,-1225.752797,-1258.350101,11251.130318
202.154457,-2757.943793,-2886.803174,12435.459826
202.154765,-4213.525239,-4145.153275,13989.892304
202.155073,-4366.744339,-4959.379811,15026.180623
202.155381,-4596.572988,-5107.421000,15248.242405
202.155689,-3447.429741,-4885.359217,14063.912898
202.155997,-2298.286494,-3552.988522,13249.686362
202.156305,-689.485948,-2442.679609,11621.233289
202.156613,1149.143247,-1110.308913,10066.800811
202.156921,2374.896044,666.185348,8586.388927
202.157229,3140.991542,1776.494261,7105.977043
202.157537,4519.963438,2368.659014,6513.812290
202.157845,4519.963438,3627.009116,5625.565159
202.158153,4366.744339,3923.091493,4959.379811
202.158461,3983.696590,4663.297435,5255.462188
202.158769,3600.648841,4885.359217,5329.482782
202.159077,3294.210641,4663.297435,5773.606348
202.159385,2451.505594,3923.091493,6291.750507
202.159693,1762.019645,2738.761985,7254.018232
202.160001,612.876398,666.185348,9696.697840
202.160309,0.000000,-148.041188,10881.027347
202.160617,-1915.238745,-2146.597232,11843.295072
202.160925,-2911.162892,-3997.112087,13323.706956
202.161233,-3600.648841,-4515.256246,14434.015869
202.161541,-3830.477490,-4811.338623,14878.139434
202.161849,-3447.429741,-4145.153275,14656.077652
202.162158,-1762.019645,-3775.050304,13175.665768
202.162466,-766.095498,-2664.741391,11991.336260
202.162774,-76.609550,-1258.350101,10732.986159
202.163082,2374.896044,-74.020594,9104.533087
202.163390,2834.553343,888.247130,8364.327145
202.163698,3370.820191,2072.576638,7328.038826
202.164006,3677.258390,2960.823768,6587.832884
202.164314,3983.696590,3701.029710,5995.668130
202.164622,3907.087040,4515.256246,5699.585753
202.164930,3753.867940,4367.215058,5625.565159
202.165238,3600.648841,4441.235652,5847.626942
202.165546,2528.115143,3997.112087,7031.956449
202.165854,1378.971896,2368.659014,7624.121203
202.166162,306.438199,1110.308913,9474.636058
202.166470,-1225.752797,-370.102971,11325.150913
202.166779,-2528.115143,-2442.679609,12657.521608
202.167087,-3677.258390,-3775.050304,14211.954086
202.167395,-4673.182538,-4811.338623,14952.160028
202.167703,-4519.963438,-5181.441594,15544.324782
202.168011,-3983.696590,-4737.318029,14804.118840
202.168319,-2604.724693,-3256.906145,13989.892304
202.168627,-1225.752797,-2516.700203,12213.398043
202.168935,919.314598,-1184.329507,10510.924376
202.169243,2451.505594,592.164754,8734.430116
202.169551,3524.039291,1776.494261,7476.080014
202.169859,4213.525239,2812.782580,7105.977043
202.170167,4213.525239,3849.070898,6439.791695
202.170475,4290.134789,4145.153275,5995.668130
202.170783,3294.210641,4219.173869,5625.565159
202.171091,3753.867940,4515.256246,5847.626942
202.171400,3370.820191,4737.318029,5551.544565
202.171708,2834.553343,4441.235652,6069.688724
202.172016,2221.676944,3182.885551,7254.018232
202.172324,689.485948,1850.514855,9030.512492
202.172632,383.047749,296.082377,10066.800811
202.172940,-995.924147,-1554.432478,11621.233289
202.173248,-2374.896044,-3330.926739,12583.501014
202.173556,-3447.429741,-4441.235652,14063.912898
202.173864,-3983.696590,-4663.297435,14730.098246
202.174172,-3524.039291,-4811.338623,14656.077652
202.174480,-2681.334243,-4293.194464,13471.748144
202.174788,-1685.410096,-2812.782580,13027.624579
202.175096,459.657299,-2072.576638,11177.109724
202.175404,1762.019645,-814.226536,9474.636058
202.175712,2451.505594,740.205942,8586.388927
202.176021,3217.601092,1332.370696,7328.038826
202.176329,3753.867940,2368.659014,6957.935855
202.176637,3830.477490,3552.988522,6143.709319
202.176945,4290.134789,3997.112087,5847.626942
202.177253,4213.525239,4293.194464,5329.482782
202.177561,3753.867940,4441.235652,5255.462188
202.177869,3677.258390,4219.173869,5773.606348
202.178177,2451.505594,3478.967927,6587.832884
202.178485,1378.971896,1998.556043,8068.244768
202.178793,0.000000,222.061783,9844.739029
202.179101,-1685.410096,-1924.535449,11621.233289
202.179409,-3217.601092,-3849.070898,12805.562797
202.179717,-4443.353888,-4811.338623,14211.954086
202.180025,-5209.449386,-5921.647536,15100.201217
202.180333,-4136.915689,-5847.626942,15026.180623
202.180642,-3370.820191,-5107.421000,14211.954086
202.180950,-1685.410096,-3552.988522,12583.501014
202.181258,306.438199,-1776.494261,10584.944971
202.181566,1915.238745,-148.041188,8660.409521
202.181874,3753.867940,1258.350101,7846.182985
202.182182,4213.525239,2368.659014,6957.935855
202.182490,4749.792088,3182.885551,5921.647536
202.182798,3983.696590,3923.091493,5921.647536
202.183106,3830.477490,4441.235652,5329.482782
202.183414,3294.210641,4737.318029,5921.647536
202.183722,2834.553343,4589.276840,6217.729913
202.184030,2451.505594,4219.173869,6661.853478
202.184338,2145.067394,3627.009116,7624.121203
202.184646,1378.971896,2368.659014,8808.450710
202.184954,-153.219100,888.247130,10140.821405
202.185263,-1072.533697,-148.041188,11843.295072
202.185571,-2221.676944,-1850.514855,13323.706956
202.185879,-3294.210641,-2886.803174,13619.789333
202.186187,-3907.087040,-3775.050304,15026.180623
202.186495,-3830.477490,-4145.153275,15470.304188
202.186803,-3677.258390,-3775.050304,14804.118840
202.187111,-1991.848295,-3256.906145,13693.809927
202.187419,0.000000,-1702.473667,12139.377449
202.187727,1378.971896,-740.205942,10362.883188
202.188035,2068.457845,962.267725,8808.450710
202.188343,3600.648841,2072.576638,7846.182985
202.188651,4519.963438,3034.844362,6735.874072
202.188959,4596.572988,3775.050304,5773.606348
202.189267,5056.230287,4663.297435,5699.585753
202.189575,4596.572988,4959.379811,4885.359217
202.189884,3600.648841,4885.359217,5477.523971
202.190192,3600.648841,4293.194464,6217.729913
202.190500,2528.115143,3478.967927,6809.894666
202.190808,1072.533697,1776.494261,8216.285956
202.191116,0.000000,-0.000000,9918.759623
202.191424,-1991.848295,-1998.556043,11769.274478
202.191732,-3830.477490,-4515.256246,13471.748144
202.192040,-4749.792088,-5847.626942,14508.036463
202.192348,-5132.839837,-6143.709319,15396.283594
202.192656,-5132.839837,-6513.812290,15026.180623
202.192964,-3600.648841,-5403.503377,14211.954086
202.193272,-2145.067394,-4071.132681,12657.521608
202.193580,0.000000,-2738.761985,11251.130318
202.193888,1685.410096,-1184.329507,9030.512492
202.194196,3524.039291,666.185348,7994.224174
202.194505,4673.182538,1480.411884,6735.874072
202.194813,5209.449386,2738.761985,5477.523971
202.195121,4903.011187,3108.864956,4737.318029
202.195429,4596.572988,3701.029710,5181.441594
202.195737,4213.525239,3627.009116,4959.379811
202.196045,3370.820191,3701.029710,4811.338623
202.196353,2834.553343,3923.091493,5847.626942
202.196661,2528.115143,3108.864956,6587.832884
202.196969,1532.190996,2442.679609,7772.162391
202.197277,919.314598,1628.453072,8882.471304
202.197585,-153.219100,370.102971,9548.656652
202.197893,-1915.238745,-1184.329507,11325.150913
202.198201,-3064.381992,-2442.679609,12657.521608
202.198509,-3524.039291,-3627.009116,14063.912898
202.198817,-4060.306139,-4293.194464,14508.036463
202.199126,-3447.429741,-5181.441594,14730.098246
202.199434,-2757.943793,-4293.194464,14211.954086
202.199742,-1532.190996,-3108.864956,13249.686362
202.200050,0.000000,-1776.494261,11991.336260
202.200358,1608.800546,-296.082377,9696.697840
202.200666,3064.381992,1332.370696,8068.244768
202.200974,4290.134789,2146.597232,7105.977043
202.201282,4903.011187,3256.906145,5921.647536
202.201590,5286.058936,4219.173869,5477.523971
202.201898,4903.011187,4589.276840,5329.482782
202.202206,4673.182538,5033.400406,5403.503377
202.202514,3524.039291,5107.421000,5699.585753
202.202822,2451.505594,4441.235652,6957.935855
202.203130,1072.533697,2960.823768,8290.306550
202.203438,-153.219100,1258.350101,9622.677246
202.203747,-1915.238745,-518.144159,11399.171507
202.204055,-2757.943793,-2442.679609,13101.645173
202.204363,-3983.696590,-3701.029710,14582.057057
202.204671,-4979.620737,-4885.359217,15766.386565
202.204979,-5592.497135,-5551.544565,15544.324782
202.205287,-4826.401637,-4959.379811,15396.283594
202.205595,-3447.429741,-3627.009116,14285.974681
202.205903,-1532.190996,-2442.679609,12509.480420
202.206211,76.609550,-1036.288319,10955.047942
202.206519,1991.848295,444.123565,9474.636058
202.206827,3294.210641,2368.659014,8216.285956
202.207135,4136.915689,2590.720797,6957.935855
202.207443,4213.525239,3404.947333,6143.709319
202.207751,4903.011187,3849.070898,5403.503377
202.208059,4443.353888,4145.153275,5255.462188
202.208368,4213.525239,4441.235652,5329.482782
202.208676,3524.039291,4589.276840,5329.482782
202.208984,2834.553343,4515.256246,5773.606348
202.209292,2451.505594,3330.926739,6957.935855
202.209600,1378.971896,2368.659014,7402.059420
202.209908,536.266849,814.226536,8586.388927
202.210216,-766.095498,-444.123565,10510.924376
202.210524,-2221.676944,-2368.659014,12139.377449
202.210832,-3064.381992,-3552.988522,13767.830521
202.211140,-3907.087040,-4885.359217,14434.015869
202.211448,-4136.915689,-5403.503377,14878.139434
202.211756,-3524.039291,-5403.503377,14582.057057
202.212064,-2451.505594,-4811.338623,14359.995275
202.212372,-1455.581446,-3552.988522,12435.459826
202.212680,536.266849,-2220.617826,10584.944971
202.212989,2145.067394,-370.102971,8586.388927
202.213297,3370.820191,1036.288319,7402.059420
202.213605,4673.182538,2442.679609,6217.729913
202.213913,5209.449386,3627.009116,4885.359217
202.214221,4903.011187,4737.318029,4589.276840
202.214529,4903.011187,5181.441594,4663.297435
202.214837,4519.963438,5107.421000,4663.297435
202.215145,3370.820191,4737.318029,5181.441594
202.215453,2451.505594,3701.029710,6587.832884
202.215761,995.924147,1998.556043,8142.265362
202.216069,-842.705048,-148.041188,9474.636058
202.216377,-2145.067394,-1480.411884,11547.212695
202.216685,-3217.601092,-3552.988522,12953.603985
202.216993,-4749.792088,-4515.256246,14285.974681
202.217301,-5056.230287,-5255.462188,14804.118840
202.217610,-4903.011187,-5107.421000,14878.139434
202.217918,-4060.306139,-4515.256246,14285.974681
202.218226,-2681.334243,-3256.906145,13101.645173
202.218534,0.000000,-1998.556043,11843.295072
202.218842,536.266849,-222.061783,9400.615463
202.219150,3370.820191,444.123565,9178.553681
202.219458,3983.696590,1998.556043,7624.121203
202.219766,3983.696590,2812.782580,6587.832884
202.220074,4213.525239,2812.782580,6513.812290
202.220382,3907.087040,3404.947333,5477.523971
202.220690,3447.429741,3256.906145,6143.709319
202.220998,2834.553343,4071.132681,5255.462188
202.221306,3370.820191,3627.009116,6513.812290
202.221614,2757.943793,3404.947333,6587.832884
202.221922,1915.238745,3182.885551,7179.997637
202.222231,1302.362347,2516.700203,8438.347739
202.222539,306.438199,1110.308913,9770.718434
202.222847,-1072.533697,-296.082377,11325.150913
202.223155,-2068.457845,-2220.617826,12731.542202
202.223463,-3217.601092,-3552.988522,14434.015869
202.223771,-4136.915689,-4515.256246,14952.160028
202.224079,-3600.648841,-4663.297435,15618.345376
202.224387,-3753.867940,-4515.256246,14878.139434
202.224695,-1991.848295,-3552.988522,13767.830521
202.225003,-536.266849,-2442.679609,12287.418637
202.225311,995.924147,-1110.308913,9918.759623
202.225619,2298.286494,592.164754,8734.430116
202.225927,3830.477490,2368.659014,7772.162391
202.226235,4749.792088,2886.803174,6513.812290
202.226543,5286.058936,4441.235652,4663.297435
202.226852,5669.106685,5477.523971,4737.318029
202.227160,4903.011187,5625.565159,4663.297435
202.227468,4290.134789,5625.565159,5181.441594
202.227776,2834.553343,4441.235652,6217.729913
202.228084,1685.410096,3034.844362,7698.141797
202.228392,-612.876398,592.164754,9474.636058
202.228700,-1991.848295,-814.226536,10881.027347
202.229008,-3370.820191,-2812.782580,13249.686362
202.229316,-4290.134789,-4293.194464,13471.748144
202.229624,-4979.620737,-4885.359217,14952.160028
202.229932,-4979.620737,-5551.544565,15322.262999
202.230240,-4366.744339,-5033.400406,14508.036463
202.230548,-2604.724693,-3997.112087,13767.830521
202.230856,-995.924147,-2738.761985,12065.356855
202.231164,1149.143247,-1184.329507,10510.924376
202.231473,2604.724693,296.082377,8660.409521
202.231781,3370.820191,1554.432478,7328.038826
202.232089,4596.572988,2368.659014,6439.791695
202.232397,4060.306139,2516.700203,6069.688724
202.232705,4213.525239,2664.741391,6513.812290
202.233013,3370.820191,2664.741391,5995.668130
202.233321,3600.648841,2590.720797,5995.668130
202.233629,3064.381992,3182.885551,5477.523971
202.233937,2681.334243,3182.885551,6291.750507
202.234245,2604.724693,3330.926739,6143.709319
202.234553,2374.896044,2738.761985,7031.956449
202.234861,1532.190996,2294.638420,8142.265362
202.235169,689.485948,518.144159,9770.718434
202.235477,-459.657299,-888.247130,11103.089130
202.235785,-2528.115143,-2368.659014,12953.603985
202.236094,-3370.820191,-4441.235652,14211.954086
202.236402,-4136.915689,-5181.441594,14656.077652
202.236710,-4213.525239,-4885.359217,15544.324782
202.237018,-3370.820191,-4811.338623,14434.015869
202.237326,-2068.457845,-3478.967927,13175.665768
202.237634,0.000000,-2294.638420,11547.212695
202.237942,1455.581446,-592.164754,10066.800811
202.238250,3447.429741,814.226536,8216.285956
202.238558,4060.306139,2516.700203,6809.894666
202.238866,5056.230287,3997.112087,5403.503377
202.239174,6128.763984,4811.338623,4663.297435
202.239482,5515.887586,5921.647536,4515.256246
202.239790,5056.230287,5995.668130,4737.318029
202.240098,3830.477490,5551.544565,5181.441594
202.240406,2298.286494,4293.194464,6439.791695
202.240715,919.314598,2368.659014,7994.224174
202.241023,-995.924147,-74.020594,10214.842000
202.241331,-2298.286494,-1776.494261,11991.336260
202.241639,-3524.039291,-3034.844362,13249.686362
202.241947,-4596.572988,-4367.215058,14285.974681
202.242255,-4826.401637,-4737.318029,14878.139434
202.242563,-4366.744339,-5033.400406,15100.201217
202.242871,-3370.820191,-4367.215058,13915.871710
202.243179,-2068.457845,-3552.988522,13397.727550
202.243487,-612.876398,-2146.597232,11991.336260
202.243795,1149.143247,-592.164754,10584.944971
202.244103,1915.238745,370.102971,9474.636058
202.244411,3217.601092,1850.514855,7328.038826
202.244719,3524.039291,2146.597232,7105.977043
202.245027,3677.258390,2368.659014,6587.832884
202.245336,3217.601092,2590.720797,6217.729913
202.245644,3217.601092,2590.720797,6217.729913
202.245952,2834.553343,3182.885551,5995.668130
202.246260,2681.334243,3478.967927,6217.729913
202.246568,3140.991542,3997.112087,5773.606348
202.246876,2451.505594,4219.173869,6365.771101
202.247184,2528.115143,3404.947333,7105.977043
202.247492,1378.971896,2294.638420,8216.285956
202.247800,0.000000,370.102971,10214.842000
202.248108,-1455.581446,-2072.576638,11473.192101
202.248416,-2911.162892,-3182.885551,13915.871710
202.248724,-4136.915689,-5255.462188,14804.118840
202.249032,-5209.449386,-5921.647536,15470.304188
202.249340,-4673.182538,-5625.565159,15618.345376
202.249648,-3677.258390,-4885.359217,14508.036463
202.249957,-1455.581446,-3478.967927,12731.542202
202.250265,153.219100,-1554.432478,10584.944971
202.250573,2451.505594,222.061783,9400.615463
202.250881,4136.915689,1332.370696,7328.038826
202.251189,5056.230287,3552.988522,5995.668130
202.251497,5439.278036,4663.297435,4737.318029
202.251805,5745.716235,5477.523971,4441.235652
202.252113,5286.058936,5921.647536,4515.256246
202.252421,4290.134789,5403.503377,5033.400406
202.252729,2451.505594,4515.256246,6069.688724
202.253037,1378.971896,3034.844362,7772.162391
202.253345,0.000000,1036.288319,9474.636058
202.253653,-1838.629195,-740.205942,10732.986159
202.253961,-2528.115143,-2220.617826,12287.418637
202.254269,-3830.477490,-3627.009116,13471.748144
202.254578,-3983.696590,-4441.235652,14211.954086
202.254886,-3907.087040,-4663.297435,14211.954086
202.255194,-3370.820191,-4515.256246,14137.933492
202.255502,-1991.848295,-4071.132681,13323.706956
202.255810,-995.924147,-2738.761985,12139.377449
202.256118,306.438199,-1554.432478,11103.089130
202.256426,1991.848295,-444.123565,9548.656652
202.256734,2528.115143,592.164754,8290.306550
202.257042,2987.772442,1258.350101,8142.265362
202.257350,3217.601092,1628.453072,7476.080014
202.257658,2834.553343,1924.535449,7105.977043
202.257966,2757.943793,2220.617826,6883.915261
202.258274,3217.601092,2960.823768,6217.729913
202.258582,3140.991542,3849.070898,6513.812290
202.258890,3753.867940,4811.338623,5625.565159
202.259199,3524.039291,4885.359217,5551.544565
202.259507,3064.381992,4589.276840,6365.771101
202.259815,2298.286494,3404.947333,7550.100608
202.260123,689.485948,1776.494261,9548.656652
202.260431,-1072.533697,-518.144159,11325.150913
202.260739,-2528.115143,-2368.659014,13545.768739
202.261047,-3907.087040,-4441.235652,15100.201217
202.261355,-4443.353888,-5699.585753,15914.427753
202.261663,-4596.572988,-5921.647536,15766.386565
202.261971,-3677.258390,-5181.441594,15322.262999
202.262279,-1915.238745,-3997.112087,13767.830521
202.262587,306.438199,-2072.576638,11547.212695
202.262895,2451.505594,-370.102971,9622.677246
202.263203,4673.182538,1332.370696,7402.059420
202.263511,5975.544884,3701.029710,6217.729913
202.263819,6511.811733,4441.235652,4663.297435
202.264127,6358.592633,5921.647536,4219.173869
202.264435,5822.325785,5995.668130,4663.297435
202.264743,4443.353888,5625.565159,4811.338623
202.265051,2911.162892,4441.235652,5995.668130
202.265359,1378.971896,2812.782580,7476.080014
202.265667,0.000000,1110.308913,9178.553681
202.265975,-1532.190996,-444.123565,11177.109724
202.266283,-2834.553343,-2146.597232,11695.253884
202.266592,-3524.039291,-3330.926739,12731.542202
202.266900,-4136.915689,-4219.173869,13545.768739
202.267208,-3907.087040,-4367.215058,14211.954086
202.267516,-3447.429741,-4293.194464,13693.809927
202.267824,-2757.943793,-3627.009116,13471.748144
202.268132,-1532.190996,-2960.823768,12657.521608
202.268440,459.657299,-2072.576638,11769.274478
202.268748,536.266849,-888.247130,10214.842000
202.269056,1608.800546,296.082377,8956.491898
202.269364,2681.334243,518.144159,7994.224174
202.269672,2451.505594,888.247130,7402.059420
202.269980,3140.991542,1110.308913,7254.018232
202.270288,3217.601092,2072.576638,7031.956449
202.270596,3140.991542,2442.679609,6291.750507
202.270904,2834.553343,3108.864956,5699.585753
202.271212,3140.991542,4071.132681,5255.462188
202.271520,3294.210641,4885.359217,5329.482782
202.271828,3064.381992,4737.318029,5403.503377
202.272136,2528.115143,4145.153275,6661.853478
202.272444,995.924147,2368.659014,8512.368333
202.272752,-612.876398,-0.000000,10362.883188
202.273060,-1915.238745,-1480.411884,12805.562797
202.273368,-3140.991542,-4071.132681,14508.036463
202.273676,-5056.230287,-5773.606348,15766.386565
202.273984,-5056.230287,-6143.709319,16506.592507
202.274292,-4749.792088,-5995.668130,15840.407159
202.274600,-3294.210641,-4663.297435,14582.057057
202.274908,-612.876398,-2886.803174,12435.459826
202.275217,1608.800546,-1258.350101,10584.944971
202.275525,2987.772442,592.164754,8882.471304
202.275833,4903.011187,2590.720797,7105.977043
202.276141,6358.592633,4663.297435,5477.523971
202.276449,6511.811733,5477.523971,4293.194464
202.276757,6435.202183,6069.688724,4293.194464
202.277065,5669.106685,6217.729913,4737.318029
202.277373,3830.477490,5403.503377,5699.585753
202.277681,2757.943793,3997.112087,6661.853478
202.277989,1378.971896,2664.741391,8142.265362
202.278297,-536.266849,888.247130,9770.718434
202.278605,-2145.067394,-814.226536,10955.047942
202.278913,-3217.601092,-1924.535449,12287.418637
202.279221,-3830.477490,-3330.926739,13397.727550
202.279529,-4443.353888,-4145.153275,14211.954086
202.279837,-4366.744339,-4293.194464,14508.036463
202.280145,-3907.087040,-4441.235652,14359.995275
202.280453,-2757.943793,-3552.988522,14137.933492
202.280761,-1532.190996,-2590.720797,12509.480420
202.281069,76.609550,-1332.370696,11843.295072
202.281377,1225.752797,-592.164754,10288.862594
202.281685,2221.676944,518.144159,8734.430116
202.281993,2834.553343,888.247130,7994.224174
202.282301,3370.820191,1480.411884,7179.997637
202.282609,3600.648841,1628.453072,6513.812290
202.282917,3294.210641,2590.720797,6365.771101
202.283225,3677.258390,3108.864956,5773.606348
202.283533,3524.039291,4219.173869,5329.482782
202.283841,3370.820191,4663.297435,5329.482782
202.284150,3600.648841,5033.400406,5181.441594
202.284458,2911.162892,4663.297435,5551.544565
202.284766,1991.848295,3034.844362,7550.100608
202.285074,689.485948,1480.411884,9474.636058
202.285382,-689.485948,-740.205942,11325.150913
202.285690,-2987.772442,-3108.864956,13027.624579
202.285998,-4366.744339,-4885.359217,14878.139434
202.286306,-4903.011187,-5995.668130,15988.448347
202.286614,-5056.230287,-6513.812290,16284.530724
202.286922,-4060.306139,-5995.668130,15100.201217
202.287230,-1915.238745,-4885.359217,13397.727550
202.287538,153.219100,-3034.844362,11547.212695
202.287846,2298.286494,-962.267725,9400.615463
202.288154,4290.134789,740.205942,7402.059420
202.288462,5592.497135,3182.885551,6291.750507
202.288770,6281.983084,4811.338623,4737.318029
202.289078,6358.592633,5847.626942,4219.173869
202.289386,5898.935335,5995.668130,4219.173869
202.289694,5362.668486,5847.626942,4589.276840
202.290002,3064.381992,4737.318029,5773.606348
202.290310,1685.410096,3108.864956,7031.956449
202.290618,-153.219100,1850.514855,9104.533087
202.290926,-1225.752797,-148.041188,10436.903782
202.291234,-2757.943793,-1184.329507,11695.253884
202.291542,-3907.087040,-2516.700203,12657.521608
202.291850,-4443.353888,-3849.070898,14137.933492
202.292158,-4749.792088,-4367.215058,14211.954086
202.292466,-3907.087040,-4367.215058,14804.118840
202.292775,-2911.162892,-3701.029710,13915.871710
202.293083,-2068.457845,-2738.761985,13027.624579
202.293391,76.609550,-1850.514855,11695.253884
