#time,accel_x,accel_y,accel_z
637.022757,-440.279358,-401.994197,-10011.569758
637.025448,-19.142581,650.847747,-9877.571693
637.028138,-172.283227,3905.086483,-9686.145885
637.030828,19.142581,5264.209720,-9322.436850
637.033519,-133.998066,5666.203917,-10700.702667
637.036209,267.996131,3483.949706,-7982.456194
637.038899,-593.420005,2258.824534,-11236.694930
637.041590,459.421939,-4460.221326,-7867.600709
637.044280,-574.277424,-8863.014910,-8461.020714
637.046971,593.420005,-11964.113000,-11983.255581
637.049661,861.416136,-4709.074877,-9915.856854
637.052351,-2794.816797,2967.100024,-7905.885870
637.055042,1761.117434,-2622.533570,-10164.710405
637.057732,-669.990328,-306.281293,-10911.271056
637.060423,287.138712,-1895.115499,-6948.756830
637.063113,-153.140646,-3388.236802,-11255.837510
637.065741,-421.136778,-5206.781978,-9513.862658
637.068369,-0.000000,-6297.909083,-8288.737486
637.070997,-38.285162,-6910.471669,-10088.140082
637.073625,-784.845813,-3560.520029,-11447.263318
637.076254,401.994197,-669.990328,-7427.321350
637.078882,-478.564520,3771.088418,-11064.411702
637.081510,421.136778,5111.069074,-9877.571693
637.084138,-287.138712,2986.242605,-7523.034254
637.086766,306.281293,-1378.265818,-11542.976222
637.089394,-95.712904,-4211.367776,-7714.460062
637.092022,-363.709035,-4268.795518,-10241.280728
637.094650,114.855485,-5608.776174,-10356.136213
637.097278,-631.705166,-2699.103893,-9456.434915
637.099906,363.709035,-497.707101,-10030.712339
637.102534,-153.140646,2392.822600,-9686.145885
637.105163,19.142581,3292.523898,-9399.007173
637.107791,172.283227,1148.554848,-8671.589102
637.110419,-267.996131,-229.710970,-11160.124606
637.113047,-19.142581,-2182.254211,-8537.591037
637.115675,-440.279358,-2737.389054,-10049.854920
637.118303,325.423874,-3675.375514,-10222.138147
637.120931,-784.845813,-2928.814862,-8729.016845
637.123559,-57.427742,-1225.125171,-11485.548480
637.126187,-114.855485,555.134843,-8173.882002
637.128815,-133.998066,2507.678085,-9705.288466
637.131444,76.570323,382.851616,-9494.720077
637.134072,-191.425808,-689.132909,-9954.142016
637.136700,-57.427742,-2411.965181,-9111.868461
637.139328,-344.566454,-2545.963246,-10164.710405
637.141956,-38.285162,-2067.398726,-9494.720077
637.144584,-38.285162,-2928.814862,-9131.011042
637.147212,-325.423874,-1359.123237,-11351.550414
637.149840,-57.427742,-57.427742,-8269.594906
637.152468,-0.000000,1665.404530,-9743.573627
637.155096,-38.285162,1569.691626,-10145.567824
637.157725,-153.140646,-459.421939,-8441.878133
637.160353,-19.142581,-1799.402595,-10183.852986
637.162981,-95.712904,-2813.959378,-9781.858789
637.165609,-114.855485,-1359.123237,-9647.860723
637.168237,133.998066,-2641.676150,-9188.438784
637.170827,-287.138712,-1071.984525,-11026.126541
637.173418,-38.285162,153.140646,-8863.014910
637.176008,-57.427742,1282.552914,-9609.575562
637.178599,-19.142581,1397.408398,-9609.575562
637.181189,-76.570323,-1110.269686,-8786.444587
637.183780,-0.000000,-2277.967115,-10470.991698
637.186370,-57.427742,-3369.094221,-9207.581365
637.188961,-440.279358,-2354.537438,-10183.852986
637.191551,191.425808,-2737.389054,-9360.722011
637.194141,-306.281293,-1091.127106,-9571.290400
637.196732,-114.855485,937.986459,-10451.849117
637.199322,-133.998066,1952.543242,-8939.585234
637.201913,-153.140646,1837.687757,-9877.571693
637.204503,38.285162,-1454.836141,-8843.872330
637.207094,-114.855485,-2316.252277,-10413.563955
637.209684,-57.427742,-3101.098090,-9379.864592
637.212275,-421.136778,-2258.824534,-9820.143950
637.214865,287.138712,-2201.396792,-9456.434915
637.217456,-325.423874,-1569.691626,-9341.579430
637.220046,-19.142581,306.281293,-11045.269122
637.222636,-133.998066,1588.834206,-8403.592971
637.225227,57.427742,1359.123237,-9839.286531
637.227817,-57.427742,-344.566454,-9437.292334
637.230408,-95.712904,-2143.969050,-9705.288466
637.232998,-153.140646,-3139.383251,-9896.714274
637.235589,-172.283227,-3139.383251,-9456.434915
637.238179,95.712904,-1129.412267,-10030.712339
637.240770,-153.140646,-842.273555,-8824.729749
637.243360,-95.712904,516.849682,-10968.698798
637.245951,-114.855485,574.277424,-8269.594906
637.248541,38.285162,708.275490,-9877.571693
637.251131,-114.855485,-267.996131,-9743.573627
637.253722,-95.712904,-2354.537438,-9169.296203
637.256312,-76.570323,-3024.527766,-10222.138147
637.258903,-210.568389,-2928.814862,-9475.577496
637.261493,363.709035,-1339.980656,-9973.284597
637.264084,-19.142581,-1014.556782,-8767.302006
637.266674,-612.562586,306.281293,-10643.274925
637.269265,-0.000000,1205.982590,-9609.575562
637.271855,-478.564520,1837.687757,-8614.161360
637.274186,114.855485,133.998066,-10719.845248
637.276517,19.142581,-2603.390989,-8652.446522
637.278848,-535.992262,-2488.535504,-9992.427178
637.281179,-172.283227,-3081.955509,-10490.134278
637.283510,-306.281293,-363.709035,-9379.864592
637.285841,861.416136,-306.281293,-8154.739421
637.288172,-229.710970,363.709035,-10279.565890
637.290503,-267.996131,535.992262,-10528.419440
637.292834,57.427742,-325.423874,-8193.024582
637.295165,-363.709035,-306.281293,-10432.706536
637.297496,421.136778,-2718.246474,-9360.722011
637.299827,-497.707101,-1952.543242,-9609.575562
637.302158,-38.285162,-1933.400661,-10432.706536
637.304489,-229.710970,-382.851616,-9341.579430
637.306820,287.138712,421.136778,-9265.009107
637.309151,-153.140646,-612.562586,-9686.145885
637.311482,-421.136778,-440.279358,-10643.274925
637.313813,95.712904,-1990.828403,-8403.592971
637.316144,-344.566454,-899.701298,-10413.563955
637.318475,153.140646,-1627.119368,-9054.440718
637.320806,-76.570323,-1263.410333,-9934.999435
637.323137,-172.283227,-612.562586,-10336.993632
637.325468,-172.283227,-133.998066,-8805.587168
637.327799,133.998066,133.998066,-9820.143950
637.330130,-191.425808,-1416.550979,-9379.864592
637.332461,-114.855485,-1550.549045,-9954.142016
637.334792,172.283227,-1933.400661,-9016.155557
637.337123,-516.849682,-650.847747,-10145.567824
637.339454,19.142581,-574.277424,-9399.007173
637.341785,-172.283227,-1129.412267,-9265.009107
637.344116,-133.998066,-172.283227,-10777.272990
637.346447,-153.140646,-363.709035,-8633.303941
637.348778,-57.427742,-95.712904,-10872.985894
637.351109,-210.568389,-1780.260014,-8193.024582
637.353440,-38.285162,-2488.535504,-10126.425243
637.355771,-57.427742,-1818.545176,-10183.852986
637.358102,-421.136778,-229.710970,-9016.155557
637.360433,38.285162,172.283227,-9934.999435
637.362764,-114.855485,-708.275490,-9245.866526
637.365095,-76.570323,-440.279358,-10700.702667
637.367521,-114.855485,-631.705166,-9035.298138
637.369947,-344.566454,-708.275490,-9743.573627
637.372373,267.996131,-1627.119368,-9226.723946
637.374799,-229.710970,-1895.115499,-9418.149754
637.377224,-95.712904,-1282.552914,-11121.839445
637.379650,-38.285162,-937.986459,-8135.596840
637.382076,-76.570323,401.994197,-10068.997501
637.384502,-57.427742,-287.138712,-9207.581365
637.386927,-19.142581,-1263.410333,-10241.280728
637.389353,-76.570323,-1741.974853,-9571.290400
637.391779,-76.570323,-1416.550979,-9245.866526
637.394205,267.996131,-631.705166,-9628.718142
637.396630,-650.847747,-555.134843,-9973.284597
637.399056,76.570323,-287.138712,-10202.995566
637.401482,-440.279358,-172.283227,-8480.163294
637.403908,57.427742,-267.996131,-10681.560086
637.406334,-133.998066,-746.560651,-9628.718142
637.408759,-76.570323,-2105.683888,-8901.300072
637.411185,-38.285162,-1837.687757,-10509.276859
637.413611,-133.998066,-1263.410333,-9207.581365
637.416037,-19.142581,-133.998066,-9781.858789
637.418462,-38.285162,-1052.841944,-9245.866526
637.420888,-38.285162,-612.562586,-10145.567824
637.423314,38.285162,-823.130974,-9169.296203
637.425740,-516.849682,-57.427742,-10126.425243
637.428166,-38.285162,-746.560651,-9360.722011
637.430591,-38.285162,-2277.967115,-9035.298138
637.433017,-267.996131,-1205.982590,-10758.130410
637.435443,191.425808,-957.129040,-9131.011042
637.437869,-19.142581,19.142581,-9399.007173
637.440294,-172.283227,-210.568389,-9801.001370
637.442720,-133.998066,-899.701298,-9533.005238
637.445146,38.285162,-1416.550979,-9686.145885
637.447572,-76.570323,-1435.693560,-9877.571693
637.449998,-172.283227,-727.418070,-9686.145885
637.452423,95.712904,-1895.115499,-8614.161360
637.454849,-172.283227,-957.129040,-11102.696864
637.457275,-114.855485,-191.425808,-8595.018779
637.459701,76.570323,287.138712,-9858.429112
637.462126,-344.566454,-133.998066,-9667.003304
637.464605,133.998066,-1875.972918,-9437.292334
637.467083,-172.283227,-1569.691626,-9992.427178
637.469561,-153.140646,-1703.689691,-9322.436850
637.472039,191.425808,-823.130974,-9686.145885
637.474518,-95.712904,-708.275490,-9303.294269
637.476996,-38.285162,-593.420005,-10336.993632
637.479474,-325.423874,-133.998066,-9265.009107
637.481952,172.283227,-478.564520,-9743.573627
637.484430,-133.998066,38.285162,-9820.143950
637.486909,-38.285162,-1741.974853,-8824.729749
637.489387,-210.568389,-1627.119368,-10738.987829
637.491865,-210.568389,-1818.545176,-9207.581365
637.494343,-95.712904,-708.275490,-10260.423309
637.496822,325.423874,-459.421939,-9533.005238
637.499300,-363.709035,-344.566454,-9667.003304
637.501778,-153.140646,-153.140646,-9896.714274
637.504256,344.566454,-708.275490,-9475.577496
637.506734,-421.136778,57.427742,-9781.858789
637.509213,95.712904,-2009.970984,-8843.872330
637.511691,-172.283227,-1971.685822,-10681.560086
637.514169,-344.566454,-1512.263883,-8997.012976
637.516647,-0.000000,-957.129040,-9801.001370
637.519126,-248.853550,-631.705166,-9877.571693
637.521604,-19.142581,-1761.117434,-8595.018779
637.524082,229.710970,-880.558717,-10872.985894
637.526560,-57.427742,133.998066,-9609.575562
637.529038,-823.130974,1397.408398,-9265.009107
637.531517,612.562586,-689.132909,-8920.442653
637.533995,-937.986459,-784.845813,-9973.284597
637.536473,440.279358,-1971.685822,-10011.569758
637.538951,344.566454,-2277.967115,-8709.874264
637.541430,-937.986459,-746.560651,-10413.563955
637.543795,669.990328,-2297.109696,-9054.440718
637.546160,-459.421939,-440.279358,-9954.142016
637.548525,-248.853550,38.285162,-9781.858789
637.550890,363.709035,-76.570323,-9437.292334
637.553255,-344.566454,57.427742,-8920.442653
637.555620,-57.427742,-1933.400661,-9877.571693
637.557985,-172.283227,-1627.119368,-10509.276859
637.560350,-421.136778,-1454.836141,-8212.167163
637.562715,-401.994197,-38.285162,-11274.980091
637.565080,191.425808,-210.568389,-7695.317482
637.567445,-401.994197,-535.992262,-10068.997501
637.569810,172.283227,-1780.260014,-10968.698798
637.572175,-57.427742,-1531.406464,-8231.309744
637.574541,-57.427742,-612.562586,-9954.142016
637.576906,-57.427742,-1569.691626,-9896.714274
637.579271,-133.998066,-612.562586,-9667.003304
637.581636,363.709035,-1320.838075,-9111.868461
637.584001,-803.988394,114.855485,-10815.558152
637.586366,248.853550,-593.420005,-9169.296203
637.588731,-210.568389,-1550.549045,-8671.589102
637.591096,-114.855485,-1186.840010,-11198.409768
637.593461,-38.285162,-976.271621,-8729.016845
637.595826,-172.283227,267.996131,-9628.718142
637.598191,-191.425808,-593.420005,-9896.714274
637.600556,172.283227,-899.701298,-9858.429112
637.602921,-133.998066,-765.703232,-9647.860723
637.605286,-401.994197,-114.855485,-10107.282662
637.607652,497.707101,-842.273555,-9265.009107
637.610017,-210.568389,-2316.252277,-8709.874264
637.612382,-459.421939,-1703.689691,-11332.407834
637.614747,38.285162,-1550.549045,-8729.016845
637.617112,76.570323,-191.425808,-9379.864592
637.619477,-267.996131,-229.710970,-9820.143950
637.621842,210.568389,-803.988394,-9667.003304
637.624207,-38.285162,-535.992262,-9801.001370
637.626572,-401.994197,-1129.412267,-9245.866526
637.628937,-0.000000,-803.988394,-10585.847182
637.631302,172.283227,-1244.267752,-8461.020714
637.633667,-401.994197,-1129.412267,-10317.851051
637.636032,38.285162,-1339.980656,-9399.007173
637.638470,-631.705166,-325.423874,-8384.450390
637.640907,95.712904,-842.273555,-10279.565890
637.643344,-248.853550,-1205.982590,-9667.003304
637.645781,-95.712904,-746.560651,-9743.573627
637.648219,114.855485,-1799.402595,-9992.427178
637.650656,-746.560651,-133.998066,-10470.991698
637.653093,172.283227,-842.273555,-8633.303941
637.655531,114.855485,-937.986459,-10662.417506
637.657968,-401.994197,803.988394,-10260.423309
637.660405,995.414202,57.427742,-6680.760699
637.662842,-497.707101,421.136778,-10432.706536
637.665280,-516.849682,-2258.824534,-10509.276859
637.667717,172.283227,-3675.375514,-9073.583299
637.670154,-38.285162,-3369.094221,-9073.583299
637.672592,-478.564520,-1531.406464,-11772.687192
637.675029,497.707101,325.423874,-7867.600709
637.677466,-172.283227,593.420005,-8499.305875
637.679903,-191.425808,995.414202,-12270.394293
637.682341,-114.855485,612.562586,-8020.741355
637.684778,267.996131,-172.283227,-8824.729749
637.687215,-229.710970,-2545.963246,-10164.710405
637.689653,-172.283227,-3617.947771,-10547.562021
637.692090,-287.138712,-2277.967115,-8824.729749
637.694527,-325.423874,-842.273555,-10222.138147
637.696964,593.420005,421.136778,-10317.851051
637.699402,-516.849682,459.421939,-7082.754896
637.701839,-248.853550,57.427742,-12308.679454
637.704276,459.421939,-1550.549045,-9552.147819
637.706714,-516.849682,-1205.982590,-8173.882002
637.709151,-57.427742,-2105.683888,-10432.706536
637.711588,-172.283227,-2182.254211,-9724.431046
637.714025,-401.994197,-957.129040,-9667.003304
637.716463,784.845813,-823.130974,-9533.005238
637.718900,-325.423874,1263.410333,-10126.425243
637.721337,-38.285162,306.281293,-8154.739421
637.723775,382.851616,-1091.127106,-10528.419440
637.726212,-708.275490,-1684.547110,-10222.138147
637.728649,-57.427742,-2048.256146,-8690.731683
637.731086,95.712904,-1282.552914,-9839.286531
637.733524,-248.853550,-1875.972918,-9092.725880
637.736010,-267.996131,-784.845813,-11217.552349
637.738495,287.138712,-631.705166,-8403.592971
637.740980,114.855485,76.570323,-9992.427178
637.743465,669.990328,267.996131,-10624.132344
637.745950,-784.845813,650.847747,-8231.309744
637.748435,-306.281293,-593.420005,-9494.720077
637.750920,325.423874,-2220.539373,-10738.987829
637.753405,-593.420005,-1110.269686,-9284.151688
637.755889,114.855485,-3866.801322,-8231.309744
637.758374,287.138712,-3885.943902,-11408.978157
637.760859,-229.710970,-937.986459,-6987.041992
637.763344,-727.418070,516.849682,-11121.839445
637.765829,248.853550,1550.549045,-11408.978157
637.768314,-248.853550,1397.408398,-5800.201982
637.770799,-382.851616,708.275490,-12806.386555
637.773284,325.423874,-1646.261949,-9858.429112
637.775769,-421.136778,-1646.261949,-7197.610381
637.778254,-19.142581,-2928.814862,-11562.118803
637.780739,-248.853550,-3445.664544,-9934.999435
637.783224,-0.000000,-1473.978722,-8690.731683
637.785709,-172.283227,-459.421939,-11102.696864
637.788194,-287.138712,1359.123237,-9245.866526
637.790679,669.990328,38.285162,-7408.178770
637.793163,-650.847747,765.703232,-12519.247843
637.795648,-19.142581,-746.560651,-8652.446522
637.798133,-76.570323,-784.845813,-8671.589102
637.800618,-325.423874,-1378.265818,-11160.124606
637.803103,421.136778,-3330.809059,-8422.735552
637.805588,-1033.699363,-1397.408398,-10260.423309
637.808073,574.277424,-2584.248408,-10049.854920
637.810558,-229.710970,133.998066,-9054.440718
637.813043,-95.712904,459.421939,-9437.292334
637.815528,76.570323,-401.994197,-10375.278794
637.818013,-210.568389,-114.855485,-8231.309744
637.820498,-0.000000,-593.420005,-9801.001370
637.822983,-172.283227,-401.994197,-10566.704602
637.825468,-57.427742,-2450.250342,-7963.313613
637.827953,19.142581,-2392.822600,-11083.554283
637.830438,-478.564520,-1933.400661,-9437.292334
637.832922,210.568389,-593.420005,-8690.731683
637.835439,-248.853550,650.847747,-10719.845248
637.837955,-478.564520,363.709035,-9379.864592
637.840471,459.421939,-191.425808,-9054.440718
637.842988,-248.853550,-1263.410333,-9705.288466
637.845504,-344.566454,-1071.984525,-10892.128475
637.848020,267.996131,-2852.244539,-7523.034254
637.850537,-631.705166,-2699.103893,-11083.554283
637.853053,287.138712,-2124.826469,-10834.700733
637.855569,-38.285162,593.420005,-8097.311678
637.858086,38.285162,1091.127106,-10930.413637
637.860602,-478.564520,459.421939,-8920.442653
637.863118,210.568389,114.855485,-9533.005238
637.865635,38.285162,-1186.840010,-9839.286531
637.868151,-574.277424,-976.271621,-10068.997501
637.870667,478.564520,-2909.672282,-8461.020714
637.873184,-535.992262,-3062.812928,-10183.852986
637.875700,-95.712904,-1818.545176,-11102.696864
637.878216,38.285162,-689.132909,-7637.889739
637.880733,-19.142581,1014.556782,-10796.415571
637.883249,-555.134843,957.129040,-9418.149754
637.885765,1033.699363,-191.425808,-9667.003304
637.888282,-478.564520,-287.138712,-9647.860723
637.890798,-593.420005,-631.705166,-9705.288466
637.893314,267.996131,-1531.406464,-9092.725880
637.895831,-306.281293,-3043.670347,-9456.434915
637.898347,-210.568389,-2163.111630,-11351.550414
637.900863,-0.000000,-1895.115499,-7197.610381
637.903380,-153.140646,574.277424,-10700.702667
637.905896,-133.998066,1110.269686,-9762.716208
637.908412,-210.568389,153.140646,-9035.298138
637.910929,95.712904,-1167.697429,-10222.138147
637.913445,-421.136778,-1359.123237,-9590.432981
637.915961,-19.142581,-995.414202,-9743.573627
637.918478,229.710970,-2909.672282,-8901.300072
637.920994,-535.992262,-1473.978722,-11083.554283
637.923510,-19.142581,-1416.550979,-8977.870395
637.926027,-38.285162,-612.562586,-9418.149754
637.928543,-229.710970,76.570323,-10317.851051
637.931059,344.566454,-880.558717,-8824.729749
637.933576,-95.712904,-267.996131,-10490.134278
637.936092,210.568389,-440.279358,-9322.436850
637.938608,-1014.556782,1397.408398,-9954.142016
637.941125,1014.556782,-1588.834206,-8709.874264
637.943641,-1301.695494,-1014.556782,-10528.419440
637.946157,612.562586,-2526.820666,-9590.432981
637.948674,-287.138712,-2469.392923,-9245.866526
637.951190,-440.279358,-1014.556782,-10490.134278
637.953706,401.994197,-1933.400661,-8269.594906
637.956146,-401.994197,325.423874,-10604.989763
637.958586,-95.712904,612.562586,-9533.005238
637.961026,-57.427742,1110.269686,-9341.579430
637.963466,-57.427742,248.853550,-9686.145885
637.965906,-19.142581,-2220.539373,-9571.290400
637.968346,-114.855485,-2545.963246,-10088.140082
637.970786,-0.000000,-2737.389054,-9054.440718
637.973226,-516.849682,-133.998066,-10643.274925
637.975666,-0.000000,-440.279358,-7982.456194
637.978106,114.855485,-306.281293,-11160.124606
637.980546,-421.136778,-267.996131,-9494.720077
637.982986,19.142581,-631.705166,-8748.159426
637.985426,95.712904,-937.986459,-10662.417506
637.987866,-172.283227,-2335.394858,-8499.305875
637.990306,-172.283227,-1550.549045,-10375.278794
637.992746,-114.855485,-1129.412267,-9284.151688
637.995186,-172.283227,267.996131,-9877.571693
637.997626,306.281293,267.996131,-9207.581365
638.000066,-191.425808,-593.420005,-9456.434915
638.002506,-133.998066,-593.420005,-9858.429112
638.004946,-229.710970,-1454.836141,-9016.155557
638.007386,-153.140646,-957.129040,-10317.851051
638.009826,19.142581,-2469.392923,-8863.014910
638.012266,191.425808,-1244.267752,-11083.554283
638.014706,-497.707101,-344.566454,-8767.302006
638.017146,191.425808,-38.285162,-9743.573627
638.019586,-172.283227,95.712904,-10413.563955
638.022026,-114.855485,-1531.406464,-8078.169098
638.024466,133.998066,-1512.263883,-11064.411702
638.026906,-229.710970,-1856.830338,-8652.446522
638.029345,-172.283227,-306.281293,-9839.286531
638.031785,-38.285162,-880.558717,-9743.573627
638.034268,-153.140646,-1607.976787,-9762.716208
638.036751,-153.140646,-803.988394,-10164.710405
638.039234,19.142581,-669.990328,-9265.009107
638.041717,-363.709035,555.134843,-10068.997501
638.044200,325.423874,-1607.976787,-8556.733618
638.046683,-478.564520,-842.273555,-10930.413637
638.049166,172.283227,-1895.115499,-9245.866526
638.051649,-574.277424,-574.277424,-9379.864592
638.054132,612.562586,-1148.554848,-9934.999435
638.056615,-574.277424,-1167.697429,-9169.296203
638.059097,-19.142581,-421.136778,-11006.983960
638.061580,-57.427742,-823.130974,-8001.598774
638.064063,-382.851616,114.855485,-10624.132344
638.066546,229.710970,-1129.412267,-9399.007173
638.069029,-267.996131,-1780.260014,-9379.864592
638.071512,-95.712904,-1320.838075,-10375.278794
638.073995,57.427742,-1320.838075,-8671.589102
638.076478,-114.855485,-267.996131,-10700.702667
638.078961,325.423874,-1990.828403,-8786.444587
638.081444,-708.275490,-133.998066,-10643.274925
638.083926,535.992262,-1473.978722,-8748.159426
638.086409,-574.277424,478.564520,-10260.423309
638.088892,191.425808,-133.998066,-9284.151688
638.091375,-57.427742,-1818.545176,-9054.440718
638.093858,-267.996131,-1148.554848,-10700.702667
638.096341,19.142581,-1646.261949,-8786.444587
638.098824,-306.281293,-57.427742,-10413.563955
638.101307,248.853550,-1588.834206,-8958.727814
638.103790,-401.994197,-1091.127106,-10107.282662
638.106273,229.710970,-1320.838075,-9858.429112
638.108756,-440.279358,-57.427742,-9265.009107
638.111238,-95.712904,746.560651,-10030.712339
638.113721,-95.712904,-861.416136,-8824.729749
638.116204,-248.853550,-229.710970,-10356.136213
638.118687,248.853550,-1722.832272,-8977.870395
638.121170,-516.849682,-976.271621,-10126.425243
638.123653,421.136778,-2641.676150,-9073.583299
638.126136,-382.851616,-2603.390989,-9705.288466
638.128619,-95.712904,-1607.976787,-10375.278794
638.131102,-191.425808,-516.849682,-8805.587168
638.133616,-38.285162,1148.554848,-10490.134278
638.136129,-19.142581,76.570323,-8499.305875
638.138643,-363.709035,363.709035,-10604.989763
638.141157,229.710970,-1033.699363,-9571.290400
638.143671,-153.140646,-1282.552914,-9322.436850
638.146185,-19.142581,-1971.685822,-10432.706536
638.148699,-114.855485,-3349.951640,-8748.159426
638.151213,535.992262,-1665.404530,-10490.134278
638.153727,-765.703232,172.283227,-8633.303941
638.156240,210.568389,1741.974853,-10643.274925
638.158754,-210.568389,1703.689691,-8671.589102
638.161268,-114.855485,421.136778,-10088.140082
638.163782,57.427742,-1646.261949,-9954.142016
638.166296,-325.423874,-2756.531635,-8537.591037
638.168810,-38.285162,-2526.820666,-10911.271056
638.171324,-153.140646,-3905.086483,-8556.733618
638.173837,-191.425808,-2488.535504,-10394.421374
638.176351,191.425808,-1110.269686,-9169.296203
638.178865,-382.851616,1646.261949,-10183.852986
638.181379,-57.427742,2622.533570,-10030.712339
638.183893,95.712904,650.847747,-8116.454259
638.186407,-267.996131,229.710970,-10815.558152
638.188921,-153.140646,-2316.252277,-8977.870395
638.191435,-401.994197,-2182.254211,-10068.997501
638.193948,325.423874,-4211.367776,-9360.722011
638.196462,-650.847747,-2565.105827,-10279.565890
638.198976,287.138712,-1588.834206,-9533.005238
638.201490,-248.853550,957.129040,-9839.286531
638.204004,57.427742,2277.967115,-9915.856854
638.206518,133.998066,861.416136,-8173.882002
638.209032,-287.138712,535.992262,-11179.267187
638.211545,172.283227,-1741.974853,-8824.729749
638.214059,-497.707101,-2086.541307,-9590.432981
638.216573,229.710970,-2833.101958,-10011.569758
638.219087,-267.996131,-3503.092286,-8843.872330
638.221601,-76.570323,-1761.117434,-10834.700733
638.224115,38.285162,-631.705166,-8997.012976
638.226629,-153.140646,1933.400661,-9973.284597
638.229143,114.855485,861.416136,-8480.163294
638.231656,-133.998066,421.136778,-10911.271056
638.234191,-133.998066,-976.271621,-8920.442653
638.236726,-153.140646,-2105.683888,-9647.860723
638.239261,-38.285162,-2029.113565,-10011.569758
638.241796,-0.000000,-3311.666478,-8824.729749
638.244331,-555.134843,-1722.832272,-11447.263318
638.246866,-57.427742,-842.273555,-8575.876198
638.249401,-76.570323,1761.117434,-9628.718142
638.251936,-95.712904,1741.974853,-9724.431046
638.254471,19.142581,-1052.841944,-9437.292334
638.257005,-267.996131,-1665.404530,-9954.142016
638.259540,-19.142581,-3273.381317,-9188.438784
638.262075,-325.423874,-2086.541307,-10279.565890
638.264610,-210.568389,-3024.527766,-7982.456194
638.267145,-133.998066,-918.843878,-11964.113000
638.269680,-38.285162,267.996131,-9092.725880
638.272215,153.140646,2239.681954,-8882.157491
638.274750,-95.712904,2258.824534,-10432.706536
638.277285,38.285162,-478.564520,-8518.448456
638.279820,-95.712904,-1301.695494,-9781.858789
638.282354,-38.285162,-3139.383251,-9973.284597
638.284889,-363.709035,-2584.248408,-9705.288466
638.287424,325.423874,-3330.809059,-8748.159426
638.289959,-133.998066,-2507.678085,-10451.849117
638.292494,-210.568389,-210.568389,-10202.995566
638.295029,38.285162,1550.549045,-9724.431046
638.297564,-363.709035,3349.951640,-9360.722011
638.300099,-95.712904,1205.982590,-8901.300072
638.302634,-287.138712,-1148.554848,-11274.980091
638.305169,-95.712904,-3005.385186,-8154.739421
638.307704,-267.996131,-3579.662610,-10700.702667
638.310238,-95.712904,-2928.814862,-9552.147819
638.312773,-19.142581,-2871.387120,-8020.741355
638.315308,-210.568389,-401.994197,-11849.257515
638.317843,-114.855485,267.996131,-9035.298138
638.320378,-38.285162,2067.398726,-8767.302006
638.322913,210.568389,1033.699363,-10298.708470
638.325448,-459.421939,382.851616,-9743.573627
638.327983,229.710970,-1531.406464,-8805.587168
638.330518,-325.423874,-2679.961312,-10241.280728
638.333053,-38.285162,-1741.974853,-9973.284597
638.335603,38.285162,-3483.949706,-8288.737486
638.338154,-172.283227,-1952.543242,-11638.689126
638.340705,76.570323,-918.843878,-7637.889739
638.343256,-267.996131,1282.552914,-10432.706536
638.345807,306.281293,1378.265818,-10107.282662
638.348357,-535.992262,803.988394,-8173.882002
638.350908,516.849682,-957.129040,-10738.987829
638.353459,-650.847747,-1550.549045,-9437.292334
638.356010,306.281293,-1799.402595,-9571.290400
638.358561,-191.425808,-3292.523898,-9418.149754
638.361112,-535.992262,-2756.531635,-10241.280728
638.363662,535.992262,-2143.969050,-9533.005238
638.366213,-612.562586,880.558717,-9533.005238
638.368764,287.138712,1378.265818,-10145.567824
638.371315,-19.142581,440.279358,-7963.313613
638.373866,-287.138712,1014.556782,-11332.407834
638.376417,-191.425808,-1205.982590,-8767.302006
638.378967,-133.998066,-1359.123237,-9896.714274
638.381518,19.142581,-2545.963246,-9590.432981
638.384069,-574.277424,-2163.111630,-9552.147819
638.386620,19.142581,-1799.402595,-9954.142016
638.389171,-555.134843,-1531.406464,-8958.727814
638.391721,172.283227,-631.705166,-10738.987829
638.394272,19.142581,-1205.982590,-8575.876198
638.396823,-306.281293,-76.570323,-11064.411702
638.399374,-0.000000,-76.570323,-8977.870395
638.401925,153.140646,401.994197,-8939.585234
638.404476,-191.425808,401.994197,-10068.997501
638.407026,19.142581,-1646.261949,-9111.868461
638.409577,-229.710970,-1531.406464,-10336.993632
638.412128,76.570323,-2488.535504,-9150.153622
638.414679,-401.994197,248.853550,-10356.136213
638.417230,-114.855485,1282.552914,-9245.866526
638.419780,95.712904,2316.252277,-9590.432981
638.422331,-363.709035,4230.510357,-10470.991698
638.424882,19.142581,3656.232933,-8920.442653
638.427433,497.707101,-1301.695494,-9628.718142
638.429984,-382.851616,-803.988394,-11313.265253
638.432535,-516.849682,-382.851616,-8212.167163
638.435085,-0.000000,-95.712904,-10758.130410
638.437646,-19.142581,1837.687757,-10068.997501
638.440206,267.996131,4460.221326,-8001.598774
638.442767,57.427742,5111.069074,-9954.142016
638.445327,-344.566454,5723.631659,-12059.825904
638.447888,516.849682,650.847747,-5091.926493
638.450448,-325.423874,-3656.232933,-11925.827838
638.453008,-95.712904,-7944.171032,-9418.149754
638.455569,-114.855485,-7044.469734,-7925.028451
638.458129,-421.136778,-3407.379382,-11983.255581
638.460690,-95.712904,535.992262,-9131.011042
638.463250,191.425808,3847.658741,-8173.882002
638.465811,-57.427742,3675.375514,-11064.411702
638.468371,19.142581,4153.940034,-9992.427178
638.470931,516.849682,1033.699363,-7733.602643
638.473492,-1014.556782,-1856.830338,-10317.851051
638.476052,-57.427742,-6527.620053,-9743.573627
638.478613,-287.138712,-7178.467800,-9552.147819
638.481173,-325.423874,-3981.656806,-10700.702667
638.483734,38.285162,-937.986459,-8518.448456
638.486294,-57.427742,2584.248408,-10375.278794
638.488854,38.285162,3215.953574,-9399.007173
638.491415,-0.000000,3081.955509,-9724.431046
638.493975,-0.000000,1301.695494,-9054.440718
638.496536,-114.855485,-2450.250342,-8977.870395
638.499096,76.570323,-5513.063270,-10681.560086
638.501656,-478.564520,-5685.346498,-9226.723946
638.504217,57.427742,-3598.805190,-10585.847182
638.506777,-325.423874,-765.703232,-9207.581365
638.509338,76.570323,1837.687757,-9954.142016
638.511898,-0.000000,2737.389054,-9475.577496
638.514459,-172.283227,2029.113565,-9303.294269
638.517019,38.285162,1799.402595,-10241.280728
638.519579,19.142581,-1512.263883,-7963.313613
638.522140,-325.423874,-3560.520029,-10432.706536
638.524700,-57.427742,-5283.352301,-10049.854920
638.527261,-401.994197,-3694.518094,-9111.868461
638.529821,19.142581,-1339.980656,-9877.571693
638.532382,-172.283227,1205.982590,-9552.147819
638.534942,191.425808,2067.398726,-9437.292334
638.537502,-210.568389,1416.550979,-9533.005238
638.540001,-57.427742,1531.406464,-10164.710405
638.542499,-57.427742,-842.273555,-8269.594906
638.544997,-267.996131,-2545.963246,-10738.987829
638.547495,-0.000000,-4479.363907,-9954.142016
638.549993,-153.140646,-3866.801322,-8595.018779
638.552491,-114.855485,-1799.402595,-10853.843314
638.554989,-114.855485,-287.138712,-9169.296203
638.557487,-0.000000,1607.976787,-9399.007173
638.559986,-516.849682,1091.127106,-9494.720077
638.562484,344.566454,248.853550,-10049.854920
638.564982,-555.134843,172.283227,-8059.026517
638.567480,1052.841944,-2928.814862,-11179.267187
638.569978,-1014.556782,-1780.260014,-9341.579430
638.572476,880.558717,-2871.387120,-8939.585234
638.574974,-861.416136,-363.709035,-11408.978157
638.577472,363.709035,-401.994197,-7905.885870
638.579970,-172.283227,574.277424,-10528.419440
638.582469,-95.712904,-210.568389,-9265.009107
638.584967,-57.427742,-516.849682,-9533.005238
638.587465,-38.285162,114.855485,-9686.145885
638.589963,-38.285162,-1646.261949,-8920.442653
638.592461,-363.709035,-2048.256146,-10700.702667
638.594959,76.570323,-3215.953574,-9188.438784
638.597457,-191.425808,-1397.408398,-10164.710405
638.599955,133.998066,-631.705166,-9188.438784
638.602453,-229.710970,976.271621,-10088.140082
638.604952,229.710970,401.994197,-9341.579430
638.607450,-191.425808,401.994197,-9399.007173
638.609948,172.283227,0.000000,-10126.425243
638.612446,-440.279358,-2354.537438,-8173.882002
638.614944,-57.427742,-3732.803256,-11428.120738
638.617442,-248.853550,-3560.520029,-9437.292334
638.619940,-76.570323,-1646.261949,-9035.298138
638.622438,-57.427742,382.851616,-10777.272990
638.624936,-440.279358,1320.838075,-8614.161360
638.627435,325.423874,1148.554848,-9801.001370
638.629933,-191.425808,19.142581,-9724.431046
638.632431,-229.710970,76.570323,-10126.425243
638.634929,38.285162,-1627.119368,-8518.448456
638.637427,-210.568389,-2660.818731,-10126.425243
638.639947,-38.285162,-3426.521963,-9494.720077
638.642468,-210.568389,-1856.830338,-9513.862658
638.644988,76.570323,-95.712904,-10279.565890
638.647508,-287.138712,612.562586,-8824.729749
638.650028,-38.285162,937.986459,-9839.286531
638.652548,76.570323,-421.136778,-9667.003304
638.655069,-478.564520,-133.998066,-9934.999435
638.657589,363.709035,-1473.978722,-8843.872330
638.660109,-382.851616,-1933.400661,-9743.573627
638.662629,-95.712904,-2220.539373,-10336.993632
638.665150,-172.283227,-2526.820666,-8805.587168
638.667670,-95.712904,-803.988394,-10604.989763
638.670190,19.142581,-325.423874,-8939.585234
638.672710,-344.566454,669.990328,-9896.714274
638.675231,153.140646,-191.425808,-9571.290400
638.677751,-478.564520,-440.279358,-9973.284597
638.680271,133.998066,-382.851616,-9877.571693
638.682791,-210.568389,-1473.978722,-8977.870395
638.685311,-57.427742,-1895.115499,-10585.847182
638.687832,-0.000000,-2718.246474,-8671.589102
638.690352,-153.140646,-1129.412267,-10279.565890
638.692872,-172.283227,-114.855485,-9418.149754
638.695392,-497.707101,95.712904,-9265.009107
638.697913,440.279358,-689.132909,-9915.856854
638.700433,-803.988394,-1071.984525,-9533.005238
638.702953,823.130974,-1225.125171,-10662.417506
638.705473,-306.281293,-880.558717,-8154.739421
638.707993,-19.142581,-401.994197,-10700.702667
638.710514,325.423874,-1071.984525,-9456.434915
638.713034,-574.277424,-95.712904,-9131.011042
638.715554,114.855485,-727.418070,-10260.423309
638.718074,-516.849682,-957.129040,-8633.303941
638.720595,382.851616,-2392.822600,-10030.712339
638.723115,-497.707101,-1971.685822,-9801.001370
638.725635,57.427742,-497.707101,-9915.856854
638.728155,38.285162,-229.710970,-8595.018779
638.730676,-114.855485,-133.998066,-10260.423309
638.733196,-172.283227,-612.562586,-9934.999435
638.735716,-95.712904,-899.701298,-8882.157491
638.738236,-191.425808,-133.998066,-10700.702667
638.740773,-76.570323,-1052.841944,-8288.737486
638.743309,153.140646,-1378.265818,-9896.714274
638.745846,-210.568389,-1856.830338,-9647.860723
638.748382,-153.140646,-1607.976787,-9877.571693
638.750918,-19.142581,-382.851616,-9418.149754
638.753454,-229.710970,-650.847747,-10432.706536
638.755991,-95.712904,-401.994197,-10030.712339
638.758527,-133.998066,-995.414202,-8824.729749
638.761063,-38.285162,-153.140646,-10719.845248
638.763600,-38.285162,-746.560651,-8633.303941
638.766136,-172.283227,-784.845813,-9762.716208
638.768672,19.142581,-1971.685822,-10088.140082
638.771208,-363.709035,-1741.974853,-9399.007173
638.773745,191.425808,-76.570323,-9743.573627
638.776281,-325.423874,-133.998066,-9418.149754
638.778817,-76.570323,-95.712904,-9992.427178
638.781353,191.425808,-1703.689691,-8901.300072
638.783890,-421.136778,-995.414202,-10030.712339
638.786426,133.998066,-1110.269686,-10126.425243
638.788962,-344.566454,-1148.554848,-8537.591037
638.791499,172.283227,-1665.404530,-9877.571693
638.794035,-574.277424,-1282.552914,-9571.290400
638.796571,133.998066,229.710970,-10222.138147
638.799107,-19.142581,-19.142581,-8633.303941
638.801644,-114.855485,-95.712904,-10068.997501
638.804180,-19.142581,-1397.408398,-9341.579430
638.806716,-210.568389,-1454.836141,-9590.432981
638.809253,-114.855485,-1263.410333,-10183.852986
638.811789,-0.000000,-1665.404530,-8977.870395
638.814325,-133.998066,-1071.984525,-10126.425243
638.816861,38.285162,-1397.408398,-9322.436850
638.819398,-344.566454,0.000000,-10604.989763
638.821934,-57.427742,669.990328,-8882.157491
638.824470,191.425808,-172.283227,-9207.581365
638.827007,-593.420005,-421.136778,-10470.991698
638.829543,306.281293,-1646.261949,-9207.581365
638.832079,-803.988394,-363.709035,-10107.282662
638.834615,363.709035,-2258.824534,-9207.581365
638.837152,-210.568389,-1665.404530,-9743.573627
638.839688,-287.138712,-1646.261949,-9552.147819
638.842237,210.568389,-803.988394,-10183.852986
638.844786,-593.420005,1378.265818,-8595.018779
638.847335,287.138712,401.994197,-9762.716208
638.849884,-421.136778,-306.281293,-9647.860723
638.852433,248.853550,-3139.383251,-9054.440718
638.854982,306.281293,-3177.668413,-11294.122672
638.857531,-689.132909,-1397.408398,-8269.594906
638.860080,382.851616,-1052.841944,-9820.143950
638.862629,-248.853550,-325.423874,-10470.991698
638.865178,-267.996131,363.709035,-8786.444587
638.867727,229.710970,1110.269686,-10470.991698
638.870276,-440.279358,38.285162,-8997.012976
638.872825,57.427742,-1646.261949,-9705.288466
638.875374,-0.000000,-3541.377448,-9284.151688
638.877924,-497.707101,-2182.254211,-10643.274925
638.880473,-95.712904,-1148.554848,-9035.298138
638.883022,-153.140646,-229.710970,-9437.292334
638.885571,-57.427742,459.421939,-10011.569758
638.888120,267.996131,-153.140646,-9054.440718
638.890669,-248.853550,325.423874,-10681.560086
638.893218,-191.425808,-1244.267752,-8154.739421
638.895767,-133.998066,-2450.250342,-10088.140082
638.898316,-57.427742,-2947.957443,-10815.558152
638.900865,-287.138712,-1856.830338,-8671.589102
638.903414,76.570323,-344.566454,-10356.136213
638.905963,-191.425808,287.138712,-9379.864592
638.908512,-0.000000,574.277424,-9552.147819
638.911061,-57.427742,-727.418070,-9265.009107
638.913610,-229.710970,-535.992262,-10777.272990
638.916159,-248.853550,-708.275490,-8059.026517
638.918708,210.568389,-1780.260014,-9954.142016
638.921257,-229.710970,-1933.400661,-10758.130410
638.923806,-38.285162,-2067.398726,-8595.018779
638.926355,-172.283227,-363.709035,-10470.991698
638.928904,-555.134843,-325.423874,-8920.442653
638.931453,401.994197,-440.279358,-9839.286531
638.934002,-861.416136,-631.705166,-9399.007173
638.936551,287.138712,-1473.978722,-10451.849117
638.939100,95.712904,-19.142581,-8997.012976
638.941650,-497.707101,-803.988394,-8614.161360
638.944207,306.281293,-1512.263883,-11102.696864
638.946764,-363.709035,-1320.838075,-7733.602643
638.949321,-38.285162,-574.277424,-11064.411702
638.951878,-133.998066,-535.992262,-9265.009107
638.954435,153.140646,-861.416136,-8958.727814
638.956992,-133.998066,-1052.841944,-10126.425243
638.959549,-172.283227,-995.414202,-10049.854920
638.962106,-344.566454,478.564520,-9896.714274
638.964663,-0.000000,-727.418070,-8690.731683
638.967220,-38.285162,-1473.978722,-10604.989763
638.969777,-344.566454,-2163.111630,-9073.583299
638.972334,-19.142581,-1722.832272,-9475.577496
638.974891,-191.425808,-133.998066,-10260.423309
638.977449,-153.140646,-421.136778,-8690.731683
638.980006,19.142581,-708.275490,-9437.292334
638.982563,229.710970,-1895.115499,-10068.997501
638.985120,-133.998066,-172.283227,-10681.560086
638.987677,-363.709035,-95.712904,-7484.749093
638.990234,440.279358,-918.843878,-10853.843314
638.992791,-669.990328,-976.271621,-9992.427178
638.995348,191.425808,-1627.119368,-8652.446522
638.997905,38.285162,-937.986459,-10796.415571
639.000462,-631.705166,-918.843878,-9150.153622
639.003019,440.279358,-976.271621,-9513.862658
639.005576,-497.707101,-1033.699363,-9609.575562
639.008133,-0.000000,-516.849682,-10604.989763
639.010691,-19.142581,57.427742,-8748.159426
639.013248,-95.712904,-478.564520,-8767.302006
639.015805,497.707101,-1856.830338,-10949.556218
639.018362,-803.988394,-1875.972918,-9131.011042
639.020919,191.425808,-784.845813,-10164.710405
639.023476,-57.427742,-535.992262,-8690.731683
639.026033,-95.712904,57.427742,-9896.714274
639.028590,19.142581,-1091.127106,-9667.003304
639.031147,-612.562586,-995.414202,-9705.288466
639.033704,306.281293,-1167.697429,-9513.862658
639.036261,-344.566454,-1569.691626,-9705.288466
639.038818,-57.427742,-1454.836141,-10011.569758
639.041375,76.570323,-1895.115499,-8977.870395
639.043932,-516.849682,-57.427742,-10356.136213
639.046496,382.851616,76.570323,-9513.862658
639.049059,-210.568389,172.283227,-8958.727814
639.051622,-57.427742,-842.273555,-10298.708470
639.054186,-57.427742,-1780.260014,-9475.577496
639.056749,-401.994197,-363.709035,-9973.284597
639.059312,191.425808,-1263.410333,-8824.729749
639.061876,-153.140646,-1454.836141,-10432.706536
639.064439,-191.425808,-1799.402595,-9360.722011
639.067002,-76.570323,-1493.121302,-9705.288466
639.069566,191.425808,-899.701298,-9896.714274
639.072129,-669.990328,-382.851616,-8977.870395
639.074692,325.423874,-593.420005,-10815.558152
639.077256,-210.568389,-306.281293,-8307.880067
639.079819,-38.285162,344.566454,-10509.276859
639.082382,133.998066,0.000000,-9150.153622
639.084946,-210.568389,-669.990328,-8843.872330
639.087509,172.283227,-2143.969050,-10624.132344
639.090072,-401.994197,-2603.390989,-9590.432981
639.092636,-38.285162,-1607.976787,-9743.573627
639.095199,-229.710970,-1129.412267,-9590.432981
639.097762,-325.423874,593.420005,-10356.136213
639.100326,38.285162,440.279358,-8977.870395
639.102889,-593.420005,937.986459,-10777.272990
639.105452,19.142581,-95.712904,-9054.440718
639.108016,-478.564520,-957.129040,-8652.446522
639.110579,-133.998066,-2852.244539,-11236.694930
639.113142,440.279358,-3847.658741,-7733.602643
639.115706,-650.847747,-1627.119368,-9418.149754
639.118269,172.283227,-861.416136,-10834.700733
639.120833,-191.425808,401.994197,-8441.878133
639.123396,-95.712904,-248.853550,-8671.589102
639.125959,1052.841944,-1550.549045,-12327.822035
639.128523,-1205.982590,1110.269686,-9896.714274
639.131086,153.140646,-287.138712,-5972.485210
639.133649,114.855485,-1837.687757,-12653.245909
639.136213,-842.273555,-1875.972918,-9399.007173
639.138776,363.709035,-1895.115499,-8250.452325
639.141339,57.427742,-1378.265818,-10643.274925
639.143903,-574.277424,-325.423874,-10432.706536
639.146466,344.566454,-823.130974,-7944.171032
639.149033,19.142581,-516.849682,-10164.710405
639.151600,-650.847747,1129.412267,-11810.972354
639.154167,1493.121302,-1665.404530,-6259.623922
639.156734,-1225.125171,-1263.410333,-9839.286531
639.159301,-612.562586,-2143.969050,-12921.242040
639.161868,823.130974,-2067.398726,-7963.313613
639.164435,-555.134843,631.705166,-8269.594906
639.167002,-76.570323,76.570323,-11504.691061
639.169569,401.994197,-76.570323,-9992.427178
639.172136,-363.709035,-842.273555,-7714.460062
639.174703,-76.570323,-1110.269686,-13074.382686
639.177270,-363.709035,-1684.547110,-8059.026517
639.179837,-95.712904,-2335.394858,-8078.169098
639.182404,-0.000000,-2373.680019,-12117.253646
639.184971,-440.279358,-631.705166,-9858.429112
639.187538,210.568389,727.418070,-8097.311678
639.190105,-19.142581,191.425808,-9475.577496
639.192672,-363.709035,172.283227,-11179.267187
639.195239,1761.117434,-3081.955509,-5551.348432
639.197806,-2009.970984,-1435.693560,-11504.691061
639.200373,287.138712,-1799.402595,-12480.962682
639.202940,555.134843,-1435.693560,-5627.918755
639.205507,-1454.836141,1186.840010,-11504.691061
639.208074,363.709035,-976.271621,-11370.692995
639.210641,153.140646,-76.570323,-8135.596840
639.213208,-344.566454,-1339.980656,-11619.546546
639.215775,-19.142581,-1091.127106,-9322.436850
639.218342,-57.427742,-1397.408398,-7140.182638
639.220909,-114.855485,-1416.550979,-11810.972354
639.223476,-650.847747,1263.410333,-9877.571693
639.226043,746.560651,-497.707101,-6106.483275
639.228610,-861.416136,-535.992262,-12902.099459
639.231177,287.138712,-2411.965181,-9265.009107
639.233744,38.285162,-1875.972918,-7580.461997
639.236311,-612.562586,-1110.269686,-12212.966550
639.238878,172.283227,-1550.549045,-8690.731683
639.241445,-153.140646,-612.562586,-8365.307810
639.244012,-153.140646,-1071.984525,-11351.550414
639.246579,-172.283227,574.277424,-10260.423309
639.249147,-19.142581,57.427742,-7389.036189
639.251715,-153.140646,-574.277424,-12021.540742
639.254283,-95.712904,-1895.115499,-9016.155557
639.256851,-0.000000,-2201.396792,-8671.589102
639.259420,-172.283227,-1780.260014,-11715.259450
639.261988,-153.140646,-1627.119368,-8154.739421
639.264556,-0.000000,-650.847747,-9667.003304
639.267124,-191.425808,-555.134843,-10490.134278
639.269693,-76.570323,440.279358,-9437.292334
639.272261,172.283227,516.849682,-8748.159426
639.274829,-440.279358,-114.855485,-10298.708470
639.277397,248.853550,-1722.832272,-9628.718142
639.279966,-229.710970,-2584.248408,-8652.446522
639.282534,-172.283227,-2086.541307,-11466.405899
639.285102,76.570323,-1741.974853,-8288.737486
639.287670,-248.853550,-57.427742,-10394.421374
639.290239,-19.142581,-210.568389,-10164.710405
639.292807,-133.998066,133.998066,-9016.155557
639.295375,-38.285162,650.847747,-9954.142016
639.297943,95.712904,-937.986459,-9226.723946
639.300512,-459.421939,-1875.972918,-9973.284597
639.303080,114.855485,-3273.381317,-9073.583299
639.305648,-210.568389,-1454.836141,-10547.562021
639.308216,114.855485,-440.279358,-8977.870395
639.310785,229.710970,19.142581,-9609.575562
639.313353,-95.712904,306.281293,-10030.712339
639.315921,114.855485,-650.847747,-9131.011042
639.318489,-535.992262,-172.283227,-10164.710405
639.321058,-95.712904,-2679.961312,-8748.159426
639.323626,-459.421939,-2813.959378,-11140.982026
639.326194,19.142581,-2469.392923,-8097.311678
639.328762,-19.142581,-880.558717,-9877.571693
639.331331,-325.423874,497.707101,-10432.706536
639.333899,114.855485,650.847747,-8690.731683
639.336467,-19.142581,842.273555,-9858.429112
639.339035,-363.709035,-440.279358,-9801.001370
639.341604,-133.998066,-325.423874,-10317.851051
639.344172,-153.140646,-2143.969050,-8097.311678
639.346740,-153.140646,-3196.810994,-10681.560086
639.349308,-95.712904,-2928.814862,-10490.134278
639.351877,172.283227,-1397.408398,-8212.167163
639.354446,-382.851616,1167.697429,-10834.700733
639.357016,133.998066,1244.267752,-8901.300072
639.359586,-114.855485,1914.258080,-9762.716208
639.362156,-38.285162,-172.283227,-8843.872330
639.364726,-421.136778,-1607.976787,-10451.849117
639.367296,57.427742,-2565.105827,-9054.440718
639.369865,38.285162,-3120.240670,-9245.866526
639.372435,-555.134843,-2220.539373,-10796.415571
639.375005,267.996131,-1684.547110,-8901.300072
639.377575,-593.420005,880.558717,-10451.849117
639.380145,535.992262,38.285162,-8901.300072
639.382714,-191.425808,937.986459,-9609.575562
639.385284,-95.712904,-363.709035,-9418.149754
639.387854,-133.998066,-1722.832272,-9743.573627
639.390424,-114.855485,-1320.838075,-9839.286531
639.392994,19.142581,-2277.967115,-8786.444587
639.395564,-172.283227,-1684.547110,-11083.554283
639.398133,-0.000000,-2067.398726,-8843.872330
639.400703,-210.568389,-153.140646,-10164.710405
639.403273,19.142581,574.277424,-9245.866526
639.405843,-114.855485,401.994197,-9226.723946
639.408413,-133.998066,-861.416136,-9896.714274
639.410983,-19.142581,-1971.685822,-9667.003304
639.413552,-344.566454,-880.558717,-10298.708470
639.416122,38.285162,-2182.254211,-8250.452325
639.418692,-229.710970,-1703.689691,-11006.983960
639.421262,-0.000000,-1531.406464,-9513.862658
639.423832,-153.140646,-210.568389,-9284.151688
639.426401,-57.427742,784.845813,-10604.989763
639.428971,-57.427742,0.000000,-8384.450390
639.431541,-114.855485,-267.996131,-10183.852986
639.434111,-19.142581,-2220.539373,-9475.577496
639.436681,-440.279358,-1646.261949,-9973.284597
639.439251,325.423874,-1282.552914,-8863.014910
639.441820,-191.425808,-689.132909,-10011.569758
639.444390,-210.568389,-631.705166,-9915.856854
639.446960,-76.570323,-765.703232,-9188.438784
639.449530,-38.285162,0.000000,-10604.989763
639.452100,-57.427742,-937.986459,-8461.020714
639.454669,-133.998066,-803.988394,-10528.419440
639.457239,38.285162,-1837.687757,-9322.436850
639.459809,-344.566454,-1091.127106,-9896.714274
639.462379,-57.427742,-57.427742,-9705.288466
639.464948,-76.570323,-497.707101,-8901.300072
639.467518,-57.427742,-497.707101,-10738.987829
639.470088,-95.712904,-1990.828403,-8843.872330
639.472658,-248.853550,-1148.554848,-10241.280728
639.475227,95.712904,-937.986459,-9035.298138
639.477797,-153.140646,-861.416136,-10317.851051
639.480367,38.285162,-1531.406464,-9456.434915
639.482936,-191.425808,-957.129040,-9571.290400
639.485506,-0.000000,880.558717,-10241.280728
639.488076,-57.427742,-191.425808,-8633.303941
639.490646,-76.570323,-957.129040,-10662.417506
639.493215,-382.851616,-2718.246474,-8748.159426
639.495785,287.138712,-2431.107762,-10279.565890
639.498355,-727.418070,-823.130974,-9781.858789
639.500924,382.851616,-1091.127106,-9188.438784
639.503494,-153.140646,-153.140646,-9628.718142
639.506064,-76.570323,-459.421939,-9724.431046
639.508634,-38.285162,823.130974,-10815.558152
639.511203,516.849682,-344.566454,-7159.325219
639.513773,-344.566454,-976.271621,-10528.419440
639.516343,114.855485,-2277.967115,-9437.292334
639.518912,-306.281293,-2048.256146,-8901.300072
639.521482,114.855485,-918.843878,-10930.413637
639.524052,-287.138712,-344.566454,-9016.155557
639.526622,95.712904,440.279358,-9934.999435
639.529191,-248.853550,-535.992262,-9265.009107
639.531761,-267.996131,-19.142581,-10643.274925
639.534331,114.855485,-421.136778,-8288.737486
639.536900,-382.851616,-1071.984525,-9934.999435
639.539470,114.855485,-2220.539373,-10490.134278
639.542040,-248.853550,-2469.392923,-8231.309744
639.544610,-114.855485,-880.558717,-11140.982026
639.547179,-133.998066,-535.992262,-8652.446522
639.549749,-133.998066,210.568389,-9858.429112
639.552319,-57.427742,-267.996131,-9724.431046
639.554889,-248.853550,-459.421939,-9915.856854
639.557458,-76.570323,-172.283227,-9245.866526
639.560027,-133.998066,-1722.832272,-9150.153622
639.562595,-38.285162,-2105.683888,-10758.130410
639.565163,-210.568389,-2622.533570,-8384.450390
639.567732,-172.283227,-1110.269686,-11006.983960
639.570300,210.568389,-229.710970,-8786.444587
639.572868,-344.566454,574.277424,-9475.577496
639.575437,153.140646,-210.568389,-10394.421374
639.578005,-248.853550,-957.129040,-8805.587168
639.580573,-0.000000,0.000000,-10509.276859
639.583142,-172.283227,-1225.125171,-8633.303941
639.585710,-114.855485,-1359.123237,-10183.852986
639.588278,-57.427742,-2679.961312,-9284.151688
639.590847,-248.853550,-1741.974853,-9915.856854
639.593415,-133.998066,-880.558717,-9399.007173
639.595983,19.142581,-555.134843,-9418.149754
639.598552,-267.996131,344.566454,-10068.997501
639.601120,19.142581,-516.849682,-8709.874264
639.603688,-287.138712,555.134843,-11217.552349
639.606257,344.566454,-765.703232,-8001.598774
639.608825,-459.421939,-976.271621,-9609.575562
639.611393,229.710970,-2641.676150,-10834.700733
639.613962,-325.423874,-2373.680019,-8729.016845
639.616530,-133.998066,-976.271621,-10336.993632
639.619098,-114.855485,-1014.556782,-8997.012976
639.621667,172.283227,-76.570323,-10164.710405
639.624235,-153.140646,-153.140646,-8843.872330
639.626804,-114.855485,-57.427742,-10451.849117
639.629372,-0.000000,363.709035,-9418.149754
639.631940,-421.136778,-1359.123237,-9456.434915
639.634509,133.998066,-2871.387120,-11332.407834
639.637077,-306.281293,-2928.814862,-8384.450390
639.639645,382.851616,-1091.127106,-10681.560086
639.642214,-574.277424,267.996131,-8786.444587
639.644782,267.996131,823.130974,-9801.001370
639.647350,19.142581,478.564520,-9513.862658
639.649919,-344.566454,-229.710970,-9647.860723
639.652487,-19.142581,-133.998066,-9954.142016
639.655055,-363.709035,-1875.972918,-8403.592971
639.657624,-57.427742,-2718.246474,-10968.698798
639.660192,-210.568389,-3694.518094,-8863.014910
639.662760,-153.140646,-1665.404530,-9992.427178
639.665327,-38.285162,-57.427742,-9992.427178
639.667895,-153.140646,382.851616,-8767.302006
639.670463,19.142581,516.849682,-9667.003304
639.673031,-95.712904,-133.998066,-9475.577496
639.675598,-172.283227,593.420005,-10183.852986
639.678166,-95.712904,-1550.549045,-8327.022648
639.680734,-38.285162,-2813.959378,-10585.847182
639.683301,38.285162,-3732.803256,-9341.579430
639.685869,-344.566454,-1990.828403,-9839.286531
639.688437,-114.855485,-133.998066,-9973.284597
639.691005,-114.855485,478.564520,-9111.868461
639.693572,-76.570323,1550.549045,-10088.140082
639.696140,114.855485,-229.710970,-9169.296203
639.698708,-325.423874,-76.570323,-10356.136213
639.701275,57.427742,-1320.838075,-8556.733618
639.703843,-153.140646,-2450.250342,-9781.858789
639.706411,19.142581,-2909.672282,-9858.429112
639.708979,-133.998066,-1856.830338,-8920.442653
639.711546,-57.427742,440.279358,-11026.126541
639.714114,76.570323,535.992262,-8154.739421
639.716682,-172.283227,995.414202,-10490.134278
639.719250,-76.570323,-995.414202,-8997.012976
639.721817,-191.425808,-1818.545176,-9992.427178
639.724385,-38.285162,-1684.547110,-10068.997501
639.726953,-0.000000,-1856.830338,-8135.596840
639.729520,-267.996131,-1033.699363,-11389.835576
639.732088,-0.000000,-1339.980656,-8958.727814
639.734656,-229.710970,287.138712,-10049.854920
639.737224,-19.142581,-76.570323,-9552.147819
639.739791,-19.142581,-516.849682,-9475.577496
639.742359,19.142581,-1397.408398,-9399.007173
