#time,accel_x,accel_y,accel_z
891.715424,-57.427742,-937.986459,-9628.718142
891.718121,-57.427742,-880.558717,-9686.145885
891.720817,-133.998066,-880.558717,-9628.718142
891.723514,-76.570323,-880.558717,-9628.718142
891.726211,-114.855485,-880.558717,-9667.003304
891.728907,-76.570323,-937.986459,-9667.003304
891.731604,-114.855485,-880.558717,-9667.003304
891.734300,-38.285162,-957.129040,-9743.573627
891.736997,-76.570323,-823.130974,-9647.860723
891.739694,-76.570323,-880.558717,-9628.718142
891.742390,-114.855485,-899.701298,-9686.145885
891.745087,-133.998066,-899.701298,-9743.573627
891.747783,-114.855485,-899.701298,-9628.718142
891.750480,-133.998066,-861.416136,-9513.862658
891.753177,-76.570323,-899.701298,-9686.145885
891.755873,-38.285162,-918.843878,-9571.290400
891.758570,76.570323,-1205.982590,-9245.866526
891.761266,95.712904,-1454.836141,-9437.292334
891.763963,19.142581,-1588.834206,-9571.290400
891.766660,-19.142581,-3120.240670,-8958.727814
891.769356,-535.992262,-5321.637462,-10088.140082
891.772053,631.705166,-10470.991698,-8537.591037
891.774750,-650.847747,-9513.862658,-10834.700733
891.777446,-823.130974,-7867.600709,-9226.723946
891.780143,1263.410333,-6355.336826,-8135.596840
891.782839,-1359.123237,1856.830338,-12078.968485
891.785536,-19.142581,2086.541307,-8193.024582
891.788233,-38.285162,-191.425808,-9016.155557
891.790872,-114.855485,-3311.666478,-9609.575562
891.793511,-535.992262,-3732.803256,-10585.847182
891.796150,-114.855485,-9781.858789,-8863.014910
891.798790,-1148.554848,-8652.446522,-7848.458128
891.801429,2469.392923,-7771.887805,-5819.344563
891.804068,-2163.111630,-172.283227,-16788.043362
891.806708,-784.845813,-153.140646,-7944.171032
891.809347,1473.978722,-2086.541307,-5225.924558
891.811986,-842.273555,1378.265818,-13974.083984
891.814626,440.279358,-2603.390989,-9494.720077
891.817265,3751.945837,-8480.163294,-7101.897477
891.819904,-3541.377448,-5723.631659,-11255.837510
891.822543,-899.701298,-4747.360038,-8575.876198
891.825183,1722.832272,-7274.180704,-11313.265253
891.827822,-4555.934230,-19.142581,-9379.864592
891.830461,3981.656806,-440.279358,-9762.716208
891.833101,-3292.523898,5838.487144,-7446.463931
891.835740,4153.940034,248.853550,-11849.257515
891.838379,-2105.683888,3617.947771,2545.963246
891.841019,-650.847747,-1129.412267,-16232.908518
891.843658,3828.516160,-6489.334891,-12538.390424
891.846297,-6604.190376,382.851616,19.142581
891.848936,5532.205851,-8997.012976,-17362.320786
891.851576,-1531.406464,363.709035,-14797.214958
891.854215,-2584.248408,3101.098090,287.138712
891.856854,6412.764568,-3024.527766,-14739.787216
891.859494,-7503.891674,6680.760699,-9131.011042
891.862133,4364.508422,-1780.260014,-6010.770371
891.864772,-803.988394,-1435.693560,-14471.791085
891.867412,-1014.556782,-2967.100024,-6278.766502
891.870051,172.283227,-3292.523898,-6967.899411
891.872690,-5474.778109,2163.111630,-16386.049165
891.875330,5206.781978,-7561.319416,-5225.924558
891.877969,-6833.901346,3962.514226,-10815.558152
891.880608,4307.080680,-3598.805190,-14720.644635
891.883247,-976.271621,1033.699363,-3579.662610
891.885887,-1627.119368,918.843878,-13055.240106
891.888526,1933.400661,-2335.394858,-9188.438784
891.891165,-708.275490,-1435.693560,-7101.897477
891.893805,-708.275490,-1033.699363,-10336.993632
891.896405,4747.360038,-6719.045861,-11983.255581
891.899004,-9111.868461,6144.768437,-6183.053598
891.901604,3062.812928,-2584.248408,-12480.962682
891.904204,3522.234867,-4326.223261,-9801.001370
891.906804,-7025.327154,5685.346498,-6546.762634
891.909404,5972.485210,-4498.506488,-17151.752397
891.912004,-2545.963246,1320.838075,1684.547110
891.914604,-440.279358,-1167.697429,-19372.291770
891.917204,440.279358,-1895.115499,-7025.327154
891.919804,-2813.959378,363.709035,-5321.637462
891.922403,2488.535504,-3005.385186,-17840.885306
891.925003,-95.712904,-842.273555,-3771.088418
891.927603,1071.984525,-1225.125171,-9035.298138
891.930203,-1473.978722,1244.267752,-15696.916256
891.932803,-1895.115499,937.986459,-937.986459
891.935403,3215.953574,-3694.518094,-13954.941403
891.938003,-4115.654872,631.705166,-15122.638832
891.940603,2488.535504,-2316.252277,1665.404530
891.943203,-784.845813,-1856.830338,-15773.486579
891.945802,-344.566454,-803.988394,-12346.964616
891.948402,2928.814862,-1282.552914,-1856.830338
891.951002,-5206.781978,3617.947771,-15869.199483
891.953602,7082.754896,-3254.238736,-6317.051664
891.956202,-4019.941968,1741.974853,-6049.055533
891.958802,689.132909,-1646.261949,-16941.184008
891.961402,4058.227130,-5091.926493,-5072.783912
891.964002,-6451.049730,3215.953574,-8805.587168
891.966602,4785.645200,-5723.631659,-17075.182074
891.969201,-191.425808,401.994197,-5417.350366
891.971801,-2392.822600,2641.676150,-6087.340694
891.974401,1052.841944,-325.423874,-19774.285966
891.977001,-478.564520,1282.552914,-1646.261949
891.979601,1665.404530,-2258.824534,-9724.431046
891.982201,-1952.543242,-1627.119368,-18338.592406
891.984801,1071.984525,-3024.527766,-1914.258080
891.987401,976.271621,-4957.928427,-9379.864592
891.990001,-3445.664544,746.560651,-18472.590472
891.992600,3196.810994,-727.418070,-631.705166
891.995200,-210.568389,1033.699363,-9647.860723
891.997800,1148.554848,2163.111630,-18472.590472
892.000372,-1952.543242,2986.242605,2488.535504
892.002944,1799.402595,-2431.107762,-13189.238171
892.005515,-2411.965181,-3445.664544,-21841.684693
892.008087,133.998066,-3943.371645,11887.542677
892.010659,1091.127106,-4862.215523,-20176.280163
892.013231,2737.389054,-3981.656806,-18013.168533
892.015802,-3694.518094,4153.940034,5608.776174
892.018374,3905.086483,-19.142581,-15256.636898
892.020946,-2411.965181,3101.098090,-15026.925928
892.023518,-631.705166,4498.506488,1282.552914
892.026089,2143.969050,-3560.520029,-13284.951075
892.028661,-2201.396792,-2871.387120,-14758.929797
892.031233,325.423874,-4479.363907,1091.127106
892.033804,-746.560651,-4326.223261,-21497.118238
892.036376,1741.974853,-3273.381317,-6719.045861
892.038948,-2584.248408,4651.647134,-2335.394858
892.041520,210.568389,2584.248408,-18912.869830
892.044091,1339.980656,2622.533570,-8173.882002
892.046663,248.853550,2660.818731,-2890.529701
892.049235,-899.701298,-3120.240670,-18989.440154
892.051807,-918.843878,-3981.656806,-4287.938099
892.054378,-1091.127106,-5149.354235,-6948.756830
892.056950,1454.836141,-4919.643266,-18491.733053
892.059522,-918.843878,-574.277424,-5072.783912
892.062094,2967.100024,-2756.531635,-6029.912952
892.064665,-3675.375514,5264.209720,-21765.114370
892.067237,421.136778,3809.373579,-172.283227
892.069809,803.988394,-823.130974,-17381.463366
892.072380,-4919.643266,2737.389054,-12729.816232
892.074952,6374.479406,-8307.880067,1071.984525
892.077524,-5436.492947,-2852.244539,-20922.840814
892.080096,478.564520,-5398.207786,-6010.770371
892.082646,3962.514226,-5283.352301,-4479.363907
892.085196,-2699.103893,3292.523898,-12614.960747
892.087747,478.564520,2986.242605,-10624.132344
892.090297,-2373.680019,6125.625856,-6546.762634
892.092848,2967.100024,-248.853550,-11294.122672
892.095398,-2488.535504,95.712904,-11925.827838
892.097949,2373.680019,-3924.229064,-6125.625856
892.100499,-5340.780043,-2641.676150,-8537.591037
892.103049,1129.412267,-7714.460062,-9934.999435
892.105600,5819.344563,-6987.041992,-10987.841379
892.108150,-4881.358104,5685.346498,-995.414202
892.110701,5359.922624,-1071.984525,-18089.738856
892.113251,-3694.518094,6355.336826,-10490.134278
892.115801,287.138712,3962.514226,421.136778
892.118352,3024.527766,-4249.652938,-21382.262754
892.120902,-4843.072942,76.570323,-5302.494882
892.123453,19.142581,-5168.496816,-6029.912952
892.126003,4153.940034,-7695.317482,-16309.478842
892.128554,-2603.390989,-2143.969050,-7006.184573
892.131104,-478.564520,191.425808,-5053.641331
892.133654,2163.111630,1129.412267,-17458.033690
892.136205,-1167.697429,3101.098090,-1588.834206
892.138755,-1531.406464,3598.805190,-12825.529136
892.141306,2009.970984,-1148.554848,-12021.540742
892.143856,-1473.978722,-1875.972918,-3713.660675
892.146407,267.996131,-4000.799387,-14261.222696
892.148957,516.849682,-4115.654872,-10911.271056
892.151507,-1033.699363,-1914.258080,-6814.758765
892.154058,-1014.556782,516.849682,-11810.972354
892.156608,1550.549045,-803.988394,-9341.579430
892.159159,2813.959378,-555.134843,-6106.483275
892.161709,-5130.211654,4153.940034,-14356.935600
892.164259,1780.260014,-1052.841944,-8920.442653
892.166810,1875.972918,-2086.541307,-7427.321350
892.169360,-4153.940034,-19.142581,-9131.011042
892.171911,3062.812928,-5417.350366,-17190.037558
892.174461,-535.992262,-1148.554848,-2967.100024
892.177012,-1110.269686,-1339.980656,-11849.257515
892.179562,689.132909,-842.273555,-12729.816232
892.182112,-708.275490,1301.695494,-3388.236802
892.184653,3177.668413,-2526.820666,-12672.388490
892.187194,-5666.203917,4192.225195,-13055.240106
892.189735,2928.814862,-1244.267752,-4039.084549
892.192275,325.423874,-2163.111630,-12710.673651
892.194816,-842.273555,-1320.838075,-7331.608446
892.197357,-210.568389,-3847.658741,-9877.571693
892.199897,-95.712904,-1607.976787,-10183.852986
892.202438,-3062.812928,-689.132909,-10088.140082
892.204979,5953.342629,-3637.090352,-10968.698798
892.207520,478.564520,995.414202,-3426.521963
892.210060,-3617.947771,2909.672282,-13438.091722
892.212601,-631.705166,899.701298,-16673.187877
892.215142,976.271621,574.277424,-2431.107762
892.217682,957.129040,-2067.398726,-5398.207786
892.220223,-899.701298,-3464.807125,-16692.330458
892.222764,6795.616184,-4919.643266,-5245.067139
892.225305,-12251.251712,7140.182638,1378.265818
892.227845,4670.789715,-6202.196179,-33480.373819
892.230386,899.701298,-1416.550979,3043.670347
892.232927,2813.959378,-2335.394858,2354.537438
892.235467,-4460.221326,1627.119368,-37289.747398
892.238008,-1914.258080,3273.381317,-1359.123237
892.240549,3120.240670,-459.421939,344.566454
892.243090,-3254.238736,0.000000,-28139.593776
892.245630,1225.125171,-2526.820666,-5627.918755
892.248171,-823.130974,-1359.123237,3637.090352
892.250712,3101.098090,-6259.623922,-29383.861528
892.253252,-5819.344563,2775.674216,-937.986459
892.255793,3158.525832,-3503.092286,-5781.059402
892.258334,-3062.812928,-114.855485,-15390.634963
892.260875,-421.136778,2622.533570,1454.836141
892.263415,2660.818731,-2105.683888,-14988.640766
892.265956,-4613.361973,3292.523898,-13189.238171
892.268497,6393.621987,-4421.936165,535.992262
892.271037,-5034.498750,-497.707101,-13744.373014
892.273578,2029.113565,-2794.816797,-14912.070443
892.276119,-1167.697429,-1588.834206,1607.976787
892.278660,-918.843878,-114.855485,-14242.080115
892.281200,1646.261949,287.138712,-16079.767872
892.283741,-2373.680019,5876.772306,3330.809059
892.286273,2431.107762,2890.529701,-19066.010477
892.288805,-2833.101958,7523.034254,-11447.263318
892.291337,1148.554848,4651.647134,1627.119368
892.293869,1167.697429,-1320.838075,-14414.363342
892.296401,-708.275490,-1684.547110,-5685.346498
892.298933,3847.658741,-3905.086483,-2411.965181
892.301465,-6565.905214,4249.652938,-23794.227934
892.303997,4823.930362,1339.980656,-5474.778109
892.306529,-2009.970984,4785.645200,-3483.949706
892.309061,-1186.840010,5130.211654,-12557.533005
892.311593,1205.982590,5761.916821,-14644.074312
892.314125,-1684.547110,3713.660675,-1091.127106
892.316657,1320.838075,-1741.974853,-15792.629160
892.319189,-1416.550979,574.277424,-9533.005238
892.321721,535.992262,746.560651,-5608.776174
892.324253,57.427742,-593.420005,-15677.773675
892.326785,-1052.841944,2488.535504,-8863.014910
892.329318,842.273555,2431.107762,-6508.477472
892.331850,-784.845813,4843.072942,-14452.648504
892.334382,363.709035,4307.080680,-5264.209720
892.336914,-0.000000,2411.965181,-10260.423309
892.339446,-325.423874,-842.273555,-12825.529136
892.341978,-95.712904,-918.843878,-6144.768437
892.344510,-38.285162,-1186.840010,-10088.140082
892.347042,-114.855485,-1033.699363,-13533.804626
892.349574,-306.281293,401.994197,-5685.346498
892.352106,-287.138712,-191.425808,-10700.702667
892.354638,133.998066,1933.400661,-13170.095590
892.357170,210.568389,5876.772306,-5264.209720
892.359702,-114.855485,10949.556218,-12404.392358
892.362234,535.992262,9035.298138,-9513.862658
892.364766,-267.996131,7101.897477,-6163.911018
892.367298,-95.712904,2756.531635,-13093.525267
892.369830,-727.418070,-4766.502619,-9035.298138
892.372362,-306.281293,-7580.461997,-6049.055533
892.374894,708.275490,-3885.943902,-15543.775610
892.377426,-363.709035,2048.256146,-6719.045861
892.379958,995.414202,7140.182638,-6297.909083
892.382490,248.853550,8250.452325,-15716.058837
892.385022,-497.707101,6106.483275,-7580.461997
892.387547,267.996131,5647.061336,-3369.094221
892.390072,746.560651,669.990328,-18013.168533
892.392597,-1110.269686,-1588.834206,-7044.469734
892.395122,631.705166,-4977.071008,-5206.781978
892.397647,-1148.554848,-2105.683888,-17362.320786
892.400172,95.712904,976.271621,-9016.155557
892.402697,-497.707101,4632.504554,-2737.389054
892.405222,421.136778,6010.770371,-15984.054968
892.407747,1722.832272,6795.616184,-12251.251712
892.410272,-306.281293,3943.371645,-440.279358
892.412797,880.558717,-3215.953574,-16864.613685
892.415322,-1435.693560,-6891.329088,-10068.997501
892.417848,3005.385186,-8556.733618,-2813.959378
892.420373,-4575.076811,-4536.791650,-15850.056902
892.422898,1607.976787,-4919.643266,-12040.683323
892.425423,1033.699363,2431.107762,-2775.674216
892.427948,-1397.408398,5742.774240,-14816.357539
892.430473,1129.412267,4785.645200,-12768.101394
892.432998,-3369.094221,5570.491013,-2641.676150
892.435523,2833.101958,-2048.256146,-8633.303941
892.438048,2182.254211,-6833.901346,-18530.018214
892.440573,-4536.791650,-4689.932296,-5149.354235
892.443098,6374.479406,-10643.274925,-7618.747158
892.445623,-6202.196179,382.851616,-14490.933666
892.448148,4575.076811,-1416.550979,-7771.887805
892.450673,-1741.974853,5340.780043,-5149.354235
892.453198,-899.701298,4881.358104,-14873.785282
892.455723,3445.664544,-287.138712,-8097.311678
892.458248,-4307.080680,3407.379382,-9590.432981
892.460773,-4632.504554,114.855485,-15237.494317
892.463298,13189.238171,-14414.363342,6776.473603
892.465823,-2947.957443,-5742.774240,-15792.629160
892.468348,-9035.298138,1033.699363,-17553.746594
892.470873,8422.735552,-5647.061336,-4134.797453
892.473398,-1875.972918,3790.230998,401.994197
892.475923,-6355.336826,6795.616184,-20539.989198
892.478448,7178.467800,-95.712904,-11638.689126
892.480973,2239.681954,-248.853550,5647.061336
892.483498,-4594.219392,-19.142581,-25880.769242
892.486023,3885.943902,-6068.198114,-12078.968485
892.488547,-210.568389,-5091.926493,2794.816797
892.491070,-2239.681954,-3273.381317,-15735.201418
892.493593,1761.117434,-5034.498750,-20827.127910
892.496116,-3292.523898,3081.955509,6508.477472
892.498639,2086.541307,1550.549045,-8575.876198
892.501162,-1186.840010,2009.970984,-17860.027886
892.503685,2124.826469,1837.687757,-5206.781978
892.506208,57.427742,172.283227,574.277424
892.508732,5589.633594,-9111.868461,-11217.552349
892.511255,-9513.862658,1033.699363,-32925.238976
892.513778,1646.261949,-1473.978722,14299.507858
892.516301,7025.327154,-6948.756830,-13131.810429
892.518824,-9360.722011,6585.047795,-21688.544046
892.521347,7676.174901,-2890.529701,5704.489078
892.523870,-4938.785846,3330.809059,-9590.432981
892.526394,1665.404530,-2258.824534,-27029.324090
892.528917,995.414202,-842.273555,8537.591037
892.531440,1225.125171,-2986.242605,-9609.575562
892.533963,-382.851616,-6010.770371,-24674.786651
892.536486,-2794.816797,746.560651,1071.984525
892.539009,5647.061336,-3062.812928,-7465.606512
892.541532,-4996.213589,976.271621,-21611.973723
892.544055,1205.982590,2679.961312,191.425808
892.546579,478.564520,-976.271621,-8307.880067
892.549102,-363.709035,-1129.412267,-21363.120173
892.551625,765.703232,-133.998066,1301.695494
892.554148,363.709035,-2277.967115,-9571.290400
892.556671,574.277424,-3751.945837,-17917.455629
892.559194,-76.570323,210.568389,-382.851616
892.561717,-57.427742,-2124.826469,-14299.507858
892.564241,-669.990328,-172.283227,-14395.220762
892.566764,-287.138712,612.562586,2679.961312
892.569287,-727.418070,-880.558717,-16883.756266
892.571810,1091.127106,-1569.691626,-17649.459498
892.574333,612.562586,-1014.556782,7771.887805
892.576856,-1167.697429,-172.283227,-18683.158861
892.579379,-191.425808,-708.275490,-13342.378818
892.581902,-133.998066,-229.710970,4287.938099
892.584426,1607.976787,-2029.113565,-17017.754331
892.586949,-3617.947771,-76.570323,-18089.738856
892.589468,4345.365842,-3694.518094,6202.196179
892.591988,-3637.090352,1473.978722,-14222.937534
892.594508,765.703232,-1665.404530,-10126.425243
892.597028,3196.810994,-2354.537438,1378.265818
892.599547,-4249.652938,3101.098090,-14261.222696
892.602067,2143.969050,-2258.824534,-16175.480776
892.604587,-1550.549045,2967.100024,2813.959378
892.607107,3062.812928,-3885.943902,-14797.214958
892.609626,-784.845813,-2641.676150,-16692.330458
892.612146,-2833.101958,918.843878,2718.246474
892.614666,2660.818731,-4364.508422,-15141.781413
892.617186,-3809.373579,-76.570323,-17190.037558
892.619705,2258.824534,-1512.263883,363.709035
892.622225,1052.841944,-1359.123237,-9418.149754
892.624745,-4134.797453,3349.951640,-21343.977592
892.627265,3943.371645,-497.707101,1473.978722
892.629784,-3675.375514,3177.668413,-8059.026517
892.632304,3254.238736,-4268.795518,-22071.395662
892.634824,-2603.390989,-1531.406464,650.847747
892.637344,1741.974853,-3885.943902,-9073.583299
892.639863,-1339.980656,-1627.119368,-18855.442088
892.642383,-2239.681954,-95.712904,-1033.699363
892.644903,2584.248408,38.285162,-11581.261384
892.647423,-1607.976787,2086.541307,-12691.531070
892.649942,574.277424,1454.836141,-6853.043926
892.652462,-1110.269686,1875.972918,-7580.461997
892.654982,3560.520029,-5245.067139,-10317.851051
892.657502,-3464.807125,-899.701298,-12442.677520
892.660021,1741.974853,-5053.641331,-8461.020714
892.662541,-746.560651,-3196.810994,-5723.631659
892.665061,-765.703232,-612.562586,-15333.207221
892.667581,727.418070,-1359.123237,-4900.500685
892.670100,-899.701298,3177.668413,-7255.038123
892.672620,459.421939,1512.263883,-15007.783347
892.675140,-784.845813,1014.556782,-6642.475538
892.677660,57.427742,1397.408398,-8365.307810
892.680179,1684.547110,-4517.649069,-8901.300072
892.682699,5379.065205,-11313.265253,-6412.764568
892.685219,-4575.076811,-2679.961312,-25670.200853
892.687739,-2124.826469,-267.996131,-38.285162
892.690256,823.130974,-727.418070,-3139.383251
892.692773,-593.420005,2718.246474,-23985.653742
892.695290,669.990328,4689.932296,172.283227
892.697807,1110.269686,2890.529701,-10853.843314
892.700324,-3503.092286,1397.408398,-17668.602078
892.702841,4307.080680,-4747.360038,842.273555
892.705358,-3311.666478,-3751.945837,-11887.542677
892.707875,2947.957443,-9188.438784,-11925.827838
892.710393,382.851616,-3407.379382,2603.390989
892.712910,-1837.687757,1722.832272,-18912.869830
892.715427,784.845813,1282.552914,-11734.402030
892.717944,1607.976787,6833.901346,880.558717
892.720461,248.853550,2009.970984,-16730.615619
892.722978,-5972.485210,5264.209720,-13246.665914
892.725495,3273.381317,-1971.685822,5130.211654
892.728012,382.851616,-8097.311678,-17687.744659
892.730529,-4096.512291,-4230.510357,-13323.236237
892.733047,4804.787781,-8461.020714,2928.814862
892.735564,-4517.649069,-459.421939,-16749.758200
892.738081,2182.254211,-459.421939,-17343.178205
892.740598,-1856.830338,5761.916821,5245.067139
892.743115,1875.972918,4938.785846,-19142.580800
892.745632,-3062.812928,4517.649069,-14605.789150
892.748149,-689.132909,-784.845813,3771.088418
892.750666,5895.914886,-8346.165229,-18032.311114
892.753183,-8422.735552,-976.271621,-9207.581365
892.755701,5895.914886,-10279.565890,-4307.080680
892.758218,-1875.972918,-2067.398726,-15696.916256
892.760735,-1110.269686,2431.107762,-10528.419440
892.763252,2852.244539,2067.398726,-3503.092286
892.765769,-2201.396792,4785.645200,-15065.211090
892.768286,1761.117434,1014.556782,-9973.284597
892.770803,-2431.107762,3254.238736,-7810.172966
892.773320,2488.535504,-6240.481341,-9418.149754
892.775837,2239.681954,-8173.882002,-9647.860723
892.778354,-5838.487144,-1167.697429,-11944.970419
892.780872,5608.776174,-7197.610381,-9533.005238
892.783389,-5225.924558,3522.234867,-8422.735552
892.785906,1952.543242,1416.550979,-11332.407834
892.788423,727.418070,2450.250342,-9475.577496
892.790940,-2488.535504,5034.498750,-7925.028451
892.793458,2967.100024,-3847.658741,-9743.573627
892.795975,-1665.404530,-2852.244539,-11428.120738
892.798493,2967.100024,-4785.645200,-10624.132344
892.801010,-4058.227130,-1588.834206,-6431.907149
892.803528,-516.849682,-2258.824534,-13725.230434
892.806045,-421.136778,-1952.543242,-6987.041992
892.808563,1914.258080,-708.275490,-12825.529136
892.811080,-4919.643266,6374.479406,-3656.232933
892.813597,5972.485210,-2986.242605,-16194.623357
892.816115,-4747.360038,3579.662610,-7752.745224
892.818632,1607.976787,-1454.836141,-4709.074877
892.821150,-957.129040,-2852.244539,-16520.047230
892.823667,899.701298,-3579.662610,-2124.826469
892.826185,-3101.098090,-880.558717,-12155.538808
892.828702,3062.812928,-4881.358104,-13514.662045
892.831220,-4326.223261,3024.527766,-5436.492947
892.833737,3158.525832,-689.132909,-9111.868461
892.836255,2909.672282,-1473.978722,-10604.989763
892.838772,-5934.200048,5264.209720,-8307.880067
892.841289,9073.583299,-6317.051664,-7657.032320
892.843807,-4421.936165,574.277424,-17706.887240
892.846324,-5091.926493,191.425808,-4402.793584
892.848842,6470.192310,-7561.319416,-4594.219392
892.851359,-5895.914886,2067.398726,-19314.864027
892.853877,5245.067139,-8250.452325,-6049.055533
892.856394,-7255.038123,344.566454,-8173.882002
892.858912,5742.774240,-9992.427178,-15371.492382
892.861429,-6699.903280,1148.554848,-3158.525832
892.863947,4211.367776,-5895.914886,-14031.511726
892.866464,-2316.252277,-1339.980656,-10911.271056
892.868981,-803.988394,-1722.832272,-4460.221326
892.871499,1339.980656,-4211.367776,-17228.322720
892.874016,-1225.125171,-3254.238736,-1914.258080
892.876534,535.992262,-7982.456194,-10202.995566
892.879051,1416.550979,-5302.494882,-14720.644635
892.881569,-1703.689691,-3273.381317,-4881.358104
892.884086,459.421939,-6451.049730,-10872.985894
892.886604,38.285162,-2469.392923,-13304.093656
892.889121,-803.988394,497.707101,-3541.377448
892.891638,918.843878,-2813.959378,-12653.245909
892.894155,-1110.269686,-4019.941968,-7542.176835
892.896672,1110.269686,-8556.733618,-4287.938099
892.899188,-612.562586,-5321.637462,-17764.314982
892.901705,191.425808,-4938.785846,-5685.346498
892.904222,-57.427742,-4268.795518,-6393.621987
892.906739,-229.710970,-2947.957443,-15199.209155
892.909256,516.849682,-1416.550979,-5493.920690
892.911772,-631.705166,-1473.978722,-9552.147819
892.914289,229.710970,-3388.236802,-13265.808494
892.916806,497.707101,-1435.693560,-5532.205851
892.919323,-325.423874,-880.558717,-10643.274925
892.921840,401.994197,-2431.107762,-11274.980091
892.924356,-746.560651,-2124.826469,-6546.762634
892.926873,-133.998066,-6431.907149,-9992.427178
892.929390,287.138712,-11887.542677,-11485.548480
892.931907,440.279358,-11849.257515,-6967.899411
892.934424,-689.132909,-4651.647134,-13935.798822
892.936940,-1033.699363,-191.425808,-8633.303941
892.939457,995.414202,248.853550,-6776.473603
892.941974,593.420005,689.132909,-12021.540742
892.944491,-1071.984525,1148.554848,-10107.282662
892.947008,-401.994197,-3943.371645,-7369.893608
892.949524,1799.402595,-10202.995566,-8805.587168
892.952041,-2660.818731,-4728.217458,-11983.255581
892.954558,1761.117434,-8690.731683,-8920.442653
892.957075,-382.851616,-9647.860723,-7159.325219
892.959592,76.570323,-3177.668413,-12251.251712
892.962108,880.558717,1550.549045,-9150.153622
892.964625,-1454.836141,2009.970984,-10279.565890
892.967142,401.994197,-2373.680019,-7580.461997
892.969659,1473.978722,-4115.654872,-8556.733618
892.972176,-1110.269686,-5934.200048,-9858.429112
892.974692,-3043.670347,-4823.930362,-11791.829773
892.977209,3866.801322,-10202.995566,-8403.592971
892.979726,-4900.500685,287.138712,-8709.874264
892.982243,-861.416136,861.416136,-7197.610381
892.984760,-899.701298,976.271621,-19295.721446
892.987276,3866.801322,1971.685822,-2584.248408
892.989793,-3062.812928,7006.184573,650.847747
892.992311,1531.406464,95.712904,-20750.557587
892.994829,4230.510357,-6144.768437,-6699.903280
892.997347,-6508.477472,-1091.127106,-3177.668413
892.999865,2354.537438,-5838.487144,-20539.989198
893.002382,1359.123237,-4594.219392,-7274.180704
893.004900,-4747.360038,2431.107762,133.998066
893.007418,4364.508422,-1359.123237,-21650.258885
893.009936,-1818.545176,5130.211654,-2258.824534
893.012454,-1244.267752,2354.537438,-3962.514226
893.014972,3235.096155,-2411.965181,-21382.262754
893.017490,-4173.082614,1071.984525,-4077.369710
893.020007,2813.959378,-5302.494882,-5991.627790
893.022525,4441.078746,-8231.309744,-12174.681389
893.025043,-12270.394293,6049.055533,-14318.650438
893.027561,4019.941968,-2833.101958,-3924.229064
893.030079,10968.698798,-8748.159426,-11236.694930
893.032597,-13878.371080,9858.429112,-9035.298138
893.035114,3847.658741,-842.273555,-12519.247843
893.037632,7121.040058,-4479.363907,-4019.941968
893.040150,-9092.725880,5589.633594,-11294.122672
893.042668,2794.816797,-3560.520029,-15333.207221
893.045186,-76.570323,-2813.959378,-1703.689691
893.047704,-3905.086483,229.710970,-14988.640766
893.050222,8997.012976,-7006.184573,-17190.037558
893.052739,-7676.174901,6776.473603,5761.916821
893.055257,2124.826469,-650.847747,-15065.211090
893.057775,631.705166,-4249.652938,-26799.613120
893.060293,-3254.238736,2507.678085,10700.702667
893.062811,4575.076811,-3235.096155,-13150.953010
893.065329,-2756.531635,-803.988394,-22090.538243
893.067847,765.703232,-1359.123237,6259.623922
893.070364,899.701298,-2488.535504,-15964.912387
893.072882,-1531.406464,784.845813,-15696.916256
893.075400,287.138712,1205.982590,210.568389
893.077918,1167.697429,-2201.396792,-12136.396227
893.080436,-2488.535504,-76.570323,-14644.074312
893.082954,1378.265818,-1914.258080,-5647.061336
893.085471,1416.550979,-3445.664544,-12212.966550
893.087989,650.847747,-1148.554848,-8020.741355
893.090507,-2201.396792,823.130974,-10662.417506
893.093025,1933.400661,-1339.980656,-10183.852986
893.095543,-1512.263883,1263.410333,-8843.872330
893.098061,-535.992262,-191.425808,-8958.727814
893.100579,803.988394,-1493.121302,-13380.663979
893.103097,555.134843,-2392.822600,-4000.799387
893.105615,-1837.687757,-1818.545176,-12021.540742
893.108133,593.420005,-2813.959378,-13974.083984
893.110650,2565.105827,-3273.381317,-4536.791650
893.113168,-2756.531635,2258.824534,-10107.282662
893.115686,-459.421939,1416.550979,-16156.338195
893.118204,650.847747,-1186.840010,-2813.959378
893.120722,-1129.412267,1780.260014,-12500.105262
893.123240,-421.136778,-784.845813,-14165.509792
893.125758,3694.518094,-4517.649069,-861.416136
893.128276,-7235.895542,114.855485,-9839.286531
893.130794,4651.647134,-7542.176835,-17362.320786
893.133312,-478.564520,-1282.552914,-5264.209720
893.135830,-344.566454,612.562586,-3426.521963
893.138348,306.281293,-880.558717,-23832.513096
893.140865,-1799.402595,4766.502619,3598.805190
893.143383,1282.552914,-306.281293,-12959.527202
893.145901,-3541.377448,2526.820666,-13744.373014
893.148419,2967.100024,-3349.951640,-2488.535504
893.150937,-516.849682,-4402.793584,-10183.852986
893.153455,-2718.246474,-2067.398726,-17170.894978
893.155973,1454.836141,-2373.680019,-1569.691626
893.158491,-3809.373579,574.277424,-13208.380752
893.161009,2986.242605,-1990.828403,-14586.646570
893.163527,-3885.943902,4555.934230,-1684.547110
893.166045,2986.242605,-784.845813,-12863.814298
893.168562,-1722.832272,535.992262,-13859.228499
893.171080,-3005.385186,478.564520,574.277424
893.173598,5321.637462,-5781.059402,-17745.172402
893.176116,-2067.398726,-1244.267752,-7676.174901
893.178634,-1454.836141,-133.998066,-2947.957443
893.181152,2124.826469,-3081.955509,-18434.305310
893.183670,-1837.687757,-401.994197,-7025.327154
893.186188,1186.840010,-153.140646,-5206.781978
893.188706,-2813.959378,2852.244539,-16098.910453
893.191224,2833.101958,-1933.400661,-7561.319416
893.193741,-1416.550979,-114.855485,-12078.968485
893.196259,2201.396792,-2756.531635,-14299.507858
893.198777,-2220.539373,-516.849682,-899.701298
893.201294,-38.285162,-2354.537438,-14605.789150
893.203812,440.279358,-2545.963246,-10719.845248
893.206329,-612.562586,229.710970,-5398.207786
893.208847,2565.105827,-2029.113565,-10662.417506
893.211365,-4211.367776,2431.107762,-13744.373014
893.213882,1627.119368,133.998066,-1320.838075
893.216400,-1875.972918,650.847747,-21669.401466
893.218918,1895.115499,-2277.967115,-4977.071008
893.221435,1091.127106,-2813.959378,-4383.651003
893.223953,-3273.381317,-1091.127106,-16194.623357
893.226470,1167.697429,-1244.267752,-10796.415571
893.228988,1225.125171,-803.988394,-1569.691626
893.231506,535.992262,-2124.826469,-18434.305310
893.234023,-2603.390989,2316.252277,-7216.752962
893.236541,-1435.693560,516.849682,-8039.883936
893.239059,6125.625856,-4862.215523,-16175.480776
893.241576,-4000.799387,2048.256146,-1741.974853
893.244094,-2871.387120,861.416136,-11045.269122
893.246611,6278.766502,-5895.914886,-16271.193680
893.249129,-4058.227130,1167.697429,-937.986459
893.251647,172.283227,-2718.246474,-11121.839445
893.254164,1895.115499,-2718.246474,-16041.482710
893.256682,-2411.965181,861.416136,2354.537438
893.259200,-3292.523898,-440.279358,-22760.528571
893.261717,9054.440718,-5225.924558,-12768.101394
893.264235,-937.986459,1933.400661,9265.009107
893.266752,-4345.365842,3905.086483,-16768.900781
893.269270,3598.805190,-3235.096155,-10624.132344
893.271788,-823.130974,-1473.978722,8135.596840
893.274305,-2679.961312,-842.273555,-23296.520834
893.276823,2986.242605,-4709.074877,-17170.894978
893.279341,191.425808,-937.986459,8384.450390
893.281858,-842.273555,1473.978722,-6221.338760
893.284376,-1397.408398,-1722.832272,-29498.717013
893.286893,287.138712,1703.689691,2488.535504
893.289411,3885.943902,-784.845813,-4077.369710
893.291929,-4900.500685,1588.834206,-23430.518899
893.294449,2411.965181,-2737.389054,-6604.190376
893.296968,3330.809059,-4153.940034,1837.687757
893.299487,1129.412267,-1607.976787,-27737.599579
893.302006,-2335.394858,842.273555,2488.535504
893.304525,-1416.550979,-1990.828403,-1416.550979
893.307045,-3273.381317,-535.992262,-24311.077616
893.309564,-267.996131,937.986459,3464.807125
893.312083,4517.649069,-2163.111630,-2890.529701
893.314602,-3962.514226,803.988394,-28656.443458
893.317122,172.283227,574.277424,-38.285162
893.319641,3905.086483,-2890.529701,-4977.071008
893.322160,-5379.065205,1914.258080,-23851.655677
893.324679,1684.547110,-2411.965181,-2794.816797
893.327198,4536.791650,-3828.516160,-3713.660675
893.329718,-3330.809059,-76.570323,-19257.436285
893.332237,-4498.506488,3081.955509,-8365.307810
893.334756,6833.901346,-4000.799387,-3024.527766
893.337275,-6412.764568,1952.543242,-20903.698234
893.339795,4441.078746,-2775.674216,-114.855485
893.342314,-3464.807125,-210.568389,-10030.712339
893.344833,1761.117434,-4402.793584,-13648.660110
893.347352,133.998066,306.281293,-4881.358104
893.349871,2679.961312,-2086.541307,-15275.779478
893.352391,2411.965181,-3062.812928,-1493.121302
893.354910,-7657.032320,5053.641331,-14835.500120
893.357429,2163.111630,-861.416136,-11600.403965
893.359948,3215.953574,-2641.676150,-5072.783912
893.362468,-7331.608446,3962.514226,-11542.976222
893.364987,7618.747158,-7867.600709,-12576.675586
893.367506,-6202.196179,1225.125171,-2775.674216
893.370025,1607.976787,-2813.959378,-13361.521398
893.372544,3215.953574,-3043.670347,-11849.257515
893.375064,-2488.535504,2909.672282,-1971.685822
893.377583,1512.263883,-1761.117434,-12270.394293
893.380102,-2258.824534,1837.687757,-10528.419440
893.382621,3139.383251,-1933.400661,-5953.342629
893.385141,-4536.791650,325.423874,-13572.089787
893.387660,4230.510357,-3924.229064,-8135.596840
893.390179,-1301.695494,-2603.390989,-8480.163294
893.392698,-1129.412267,-1244.267752,-13954.941403
893.395218,1244.267752,-1301.695494,-4900.500685
893.397738,-1493.121302,497.707101,-9858.429112
893.400258,1493.121302,-267.996131,-15467.205286
893.402778,-1569.691626,1607.976787,-5436.492947
893.405298,440.279358,-267.996131,-8288.737486
893.407818,-765.703232,-516.849682,-16692.330458
893.410338,842.273555,-2756.531635,-440.279358
893.412858,421.136778,-1990.828403,-12059.825904
893.415378,-1588.834206,-2297.109696,-13801.800757
893.417898,2182.254211,-4421.936165,-4307.080680
893.420418,-3847.658741,3962.514226,-14816.357539
893.422938,2009.970984,1531.406464,-11026.126541
893.425458,1493.121302,3579.662610,-1665.404530
893.427977,-3062.812928,6795.616184,-12825.529136
893.430497,2124.826469,3139.383251,-13552.947206
893.433017,-2048.256146,5245.067139,-842.273555
893.435537,708.275490,631.705166,-16845.471104
893.438057,-153.140646,-593.420005,-10298.708470
893.440577,-1225.125171,803.988394,-5398.207786
893.443097,899.701298,-1627.119368,-11485.548480
893.445617,-937.986459,1359.123237,-12021.540742
893.448137,1148.554848,3905.086483,-3713.660675
893.450657,-842.273555,5781.059402,-15562.918190
893.453177,421.136778,1914.258080,-7829.315547
893.455697,-937.986459,1033.699363,-7427.321350
893.458217,267.996131,2699.103893,-12174.681389
893.460737,612.562586,2086.541307,-9092.725880
893.463257,-1186.840010,1493.121302,-9341.579430
893.465777,363.709035,497.707101,-11830.114934
893.468297,-459.421939,1052.841944,-5915.057467
893.470817,-19.142581,1167.697429,-12672.388490
893.473336,-38.285162,3273.381317,-9820.143950
893.475856,-0.000000,4268.795518,-7465.606512
893.478376,-153.140646,2890.529701,-10911.271056
893.480896,-172.283227,2105.683888,-10451.849117
893.483416,-172.283227,-114.855485,-7733.602643
893.485936,-153.140646,-1244.267752,-11657.831707
893.488456,-210.568389,-1148.554848,-10279.565890
893.490976,-555.134843,229.710970,-7427.321350
893.493496,-421.136778,-459.421939,-12155.538808
893.496016,-0.000000,1512.263883,-9207.581365
893.498536,612.562586,4919.643266,-8097.311678
893.501055,-440.279358,9150.153622,-12021.540742
893.503575,401.994197,10241.280728,-7848.458128
893.506095,-344.566454,9456.434915,-9647.860723
893.508615,-574.277424,3101.098090,-12251.251712
893.511135,957.129040,-5168.496816,-7484.749093
893.513655,-1550.549045,-4211.367776,-9820.143950
893.516174,1473.978722,-7178.467800,-14816.357539
893.518694,-1435.693560,-57.427742,-5111.069074
893.521214,497.707101,5168.496816,-9016.155557
893.523734,-0.000000,8173.882002,-12902.099459
893.526254,-459.421939,10834.700733,-7274.180704
893.528774,535.992262,7274.180704,-9801.001370
893.531293,-918.843878,1129.412267,-9360.722011
893.533813,1091.127106,-4058.227130,-7121.040058
893.536333,-1895.115499,-3158.525832,-10145.567824
893.538853,-421.136778,-2756.531635,-12997.812363
893.541373,918.843878,-1091.127106,-6259.623922
893.543893,-2718.246474,6987.041992,-10356.136213
893.546412,1205.982590,8212.167163,-11715.259450
893.548932,995.414202,6431.907149,-5761.916821
893.551452,459.421939,3483.949706,-11370.692995
893.553972,-2316.252277,287.138712,-7446.463931
893.556492,1627.119368,-5072.783912,-11638.689126
893.559011,-210.568389,-8269.594906,-8863.014910
893.561531,114.855485,-8384.450390,-6833.901346
893.564051,-1454.836141,-2699.103893,-16194.623357
893.566571,191.425808,535.992262,-9150.153622
893.569091,-1186.840010,5072.783912,-3292.523898
893.571611,2699.103893,2737.389054,-14586.646570
893.574130,-2794.816797,4345.365842,-9073.583299
893.576650,2756.531635,-1263.410333,-4441.078746
893.579170,-2297.109696,-3694.518094,-13897.513661
893.581690,-76.570323,-5915.057467,-7676.174901
893.584210,3483.949706,-6317.051664,-9781.858789
893.586730,-5781.059402,191.425808,-7695.317482
893.589249,3292.523898,-3101.098090,-16252.051099
893.591769,-1033.699363,2603.390989,-2813.959378
893.594289,-1588.834206,3196.810994,-13284.951075
893.596810,2699.103893,1186.840010,-10183.852986
893.599332,-1761.117434,2009.970984,-3120.240670
893.601853,1933.400661,-3828.516160,-13361.521398
893.604374,-2603.390989,-2450.250342,-10049.854920
893.606896,2124.826469,-5455.635528,-8039.883936
893.609417,-95.712904,-3081.955509,-10107.282662
893.611938,-6451.049730,2737.389054,-11121.839445
893.614459,9494.720077,-4747.360038,-13591.232368
893.616981,-4766.502619,9245.866526,-1684.547110
893.619502,-1971.685822,6029.912952,-11447.263318
893.622023,7925.028451,-4804.787781,-10566.704602
893.624545,-8958.727814,3675.375514,-8575.876198
893.627066,5417.350366,-9494.720077,-8039.883936
893.629587,-1014.556782,-5570.491013,-13801.800757
893.632109,-2737.389054,-1684.547110,-5704.489078
893.634630,5666.203917,-5570.491013,-10853.843314
893.637151,-7140.182638,5685.346498,-11964.113000
893.639673,2947.957443,1914.258080,-10068.997501
893.642194,-1512.263883,4479.363907,-3349.951640
893.644715,5340.780043,-2794.816797,-11332.407834
893.647237,3254.238736,-7427.321350,-8729.016845
893.649758,-7905.885870,1033.699363,-24406.790520
893.652279,3043.670347,-4364.508422,1186.840010
893.654800,1569.691626,-4536.791650,-4421.936165
893.657322,-4996.213589,2622.533570,-26187.050534
893.659843,4823.930362,-784.845813,-1684.547110
893.662364,-1837.687757,2488.535504,-5225.924558
893.664886,-2086.541307,1282.552914,-19812.571128
893.667407,2909.672282,-1722.832272,-7848.458128
893.669928,-2029.113565,2679.961312,3962.514226
893.672450,7886.743290,-11102.696864,-26589.044731
893.674971,-9590.432981,2163.111630,-7982.456194
893.677492,7637.889739,-4613.361973,-3943.371645
893.680014,-6814.758765,2431.107762,-22358.534374
893.682535,38.285162,1071.984525,-3656.232933
893.685056,4613.361973,-918.843878,-1684.547110
893.687578,-6431.907149,1569.691626,-22990.239541
893.690099,3885.943902,-1435.693560,-11045.269122
893.692620,-1512.263883,-459.421939,6451.049730
893.695141,-880.558717,-2239.681954,-21784.256950
893.697663,880.558717,-2813.959378,-12040.683323
893.700185,287.138712,-1033.699363,4766.502619
893.702707,210.568389,-2737.389054,-21439.690496
893.705228,-4823.930362,2718.246474,-13074.382686
893.707750,4517.649069,-2105.683888,5857.629725
893.710272,-3273.381317,1971.685822,-19046.867896
893.712794,555.134843,-1129.412267,-15409.777544
893.715315,3560.520029,-2335.394858,5742.774240
893.717837,-2545.963246,363.709035,-26991.038928
893.720359,2297.109696,-3675.375514,-6757.331022
893.722881,-746.560651,-440.279358,2526.820666
893.725402,2565.105827,-2431.107762,-22052.253082
893.727924,-4823.930362,1071.984525,-9169.296203
893.730446,4134.797453,-1990.828403,1052.841944
893.732968,-1225.125171,-918.843878,-19085.153058
893.735489,-2545.963246,344.566454,-11485.548480
893.738011,5685.346498,-4728.217458,-5379.065205
893.740533,-5647.061336,2469.392923,-13208.380752
893.743055,2794.816797,-976.271621,-12825.529136
893.745576,-95.712904,-95.712904,-1339.980656
893.748098,-669.990328,-899.701298,-18128.024018
893.750620,-76.570323,-746.560651,-12193.823970
893.753142,918.843878,-1473.978722,-1339.980656
893.755663,-1454.836141,-3101.098090,-18415.162730
893.758185,-1071.984525,-1799.402595,-10241.280728
893.760707,3043.670347,-2086.541307,-1531.406464
893.763229,-1646.261949,287.138712,-17381.463366
893.765750,-478.564520,842.273555,-9686.145885
893.768272,2163.111630,-1263.410333,-1588.834206
893.770794,-2297.109696,1282.552914,-19850.856290
893.773316,478.564520,-1167.697429,-6948.756830
893.775838,-689.132909,-803.988394,-3215.953574
893.778359,2316.252277,-4575.076811,-12059.825904
893.780881,-1646.261949,-4268.795518,-14318.650438
893.783403,19.142581,-1531.406464,-2909.672282
893.785925,1607.976787,-1914.258080,-15160.923994
893.788446,-2526.820666,3560.520029,-7599.604578
893.790968,1493.121302,3579.662610,-6948.756830
893.793490,363.709035,1167.697429,-12997.812363
893.796012,-3215.953574,1627.119368,-6527.620053
893.798533,746.560651,-2239.681954,-13706.087853
893.801055,2622.533570,-7580.461997,-4307.080680
893.803577,-2392.822600,-2986.242605,-14012.369146
893.806099,784.845813,-3158.525832,-10260.423309
893.808620,-1952.543242,574.277424,-5321.637462
893.811142,1818.545176,1205.982590,-16041.482710
893.813664,459.421939,2909.672282,-4383.651003
893.816186,-1282.552914,4249.652938,-11121.839445
893.818707,3215.953574,-3235.096155,-8441.878133
893.821229,-5493.920690,-229.710970,-8939.585234
893.823751,2947.957443,-5168.496816,-14280.365277
893.826273,-133.998066,-6068.198114,-9743.573627
893.828795,-2258.824534,-2660.818731,-12710.673651
893.831316,2813.959378,-1837.687757,-7618.747158
893.833838,-1818.545176,4345.365842,-7599.604578
893.836360,8633.303941,-2947.957443,-3254.238736
893.838882,-5857.629725,3828.516160,-20291.135648
893.841403,267.996131,1320.838075,-7293.323285
893.843925,19.142581,95.712904,-976.271621
893.846447,-2794.816797,-2009.970984,-21841.684693
893.848969,1837.687757,-6776.473603,-3656.232933
893.851491,363.709035,-3579.662610,-4689.932296
893.854012,-1607.976787,-2526.820666,-24368.505358
893.856534,-1071.984525,1703.689691,-2239.681954
893.859056,6719.045861,-1990.828403,-1263.410333
893.861578,-4421.936165,5072.783912,-22454.247278
893.864099,3349.951640,2431.107762,-842.273555
893.866621,-1263.410333,-708.275490,-5627.918755
893.869143,-861.416136,-4249.652938,-19716.858224
893.871665,2488.535504,-4326.223261,-1607.976787
893.874186,-3637.090352,-2411.965181,-8671.589102
893.876708,1933.400661,-5340.780043,-20310.278229
893.879230,-4345.365842,2852.244539,2220.539373
893.881752,4996.213589,-842.273555,-15333.207221
893.884274,631.705166,1952.543242,-14720.644635
893.886795,-2545.963246,3330.809059,-1818.545176
893.889317,3751.945837,-2660.818731,-11715.259450
893.891839,-1205.982590,-2373.680019,-12576.675586
893.894361,-593.420005,-3771.088418,-5130.211654
893.896882,-1320.838075,-1761.117434,-11830.114934
893.899405,133.998066,-2277.967115,-12174.681389
893.901928,-114.855485,-612.562586,-5340.780043
893.904451,-2009.970984,2986.242605,-13859.228499
893.906974,1875.972918,-248.853550,-4364.508422
893.909497,-535.992262,803.988394,-10317.851051
893.912020,-1244.267752,229.710970,-12059.825904
893.914543,2622.533570,-4747.360038,-6183.053598
893.917066,-2718.246474,-995.414202,-13170.095590
893.919589,3426.521963,-5455.635528,-8595.018779
893.922112,-4039.084549,267.996131,-5915.057467
893.924635,1531.406464,-2890.529701,-16654.045296
893.927158,-497.707101,-497.707101,-7791.030386
893.929681,-1263.410333,4019.941968,-8748.159426
893.932204,2890.529701,-401.994197,-7101.897477
893.934727,-1033.699363,0.000000,-14624.931731
893.937250,-382.851616,-669.990328,-7561.319416
893.939773,555.134843,-4881.358104,-10088.140082
893.942296,-4651.647134,-114.855485,-13840.085918
893.944819,-0.000000,-1301.695494,-1225.125171
893.947342,2545.963246,-1531.406464,-17821.742725
893.949865,-3579.662610,5532.205851,-4402.793584
893.952388,1990.828403,976.271621,-12098.111066
893.954911,746.560651,-1493.121302,-7216.752962
893.957434,-401.994197,-1722.832272,-13801.800757
893.959957,-727.418070,-2718.246474,-8441.878133
893.962480,1263.410333,-4479.363907,-6508.477472
893.965003,-784.845813,-2009.970984,-15945.769806
893.967526,2852.244539,-1512.263883,-6585.047795
893.970048,-3483.949706,3292.523898,-8384.450390
893.972571,-2009.970984,1263.410333,-15926.627226
893.975094,4594.219392,-2967.100024,-7121.040058
893.977617,-3981.656806,2813.959378,-4173.082614
893.980140,765.703232,-2756.531635,-18951.154992
893.982663,746.560651,-2488.535504,-1014.556782
893.985186,-1205.982590,-555.134843,-12653.245909
893.987709,-19.142581,-2813.959378,-13801.800757
893.990232,76.570323,76.570323,-6872.186507
893.992755,-1588.834206,1129.412267,-7944.171032
893.995278,4287.938099,-6489.334891,-9399.007173
893.997801,-4843.072942,-3273.381317,-13763.515595
894.000324,3445.664544,-8690.731683,-6221.338760
894.002848,421.136778,-6317.051664,-11140.982026
894.005371,-1895.115499,-3637.090352,-9724.431046
894.007894,4345.365842,-6374.479406,-6355.336826
894.010417,-4747.360038,-421.136778,-10068.997501
894.012940,4479.363907,-6967.899411,-9245.866526
894.015463,-2986.242605,-1186.840010,-4517.649069
894.017987,1091.127106,-3292.523898,-12174.681389
894.020510,-248.853550,-3120.240670,-13055.240106
894.023033,-708.275490,-5991.627790,-2756.531635
