#time,accel_x,accel_y,accel_z
612.630599,-76.570323,-918.843878,-9571.290400
612.633347,-325.423874,-478.564520,-9973.284597
612.636096,-0.000000,287.138712,-9858.429112
612.638844,-133.998066,3464.807125,-9820.143950
612.641592,-19.142581,5091.926493,-9379.864592
612.644341,-133.998066,5111.069074,-9667.003304
612.647089,-19.142581,5283.352301,-10030.712339
612.649838,-306.281293,1282.552914,-8461.020714
612.652586,267.996131,-2603.390989,-9801.001370
612.655334,-325.423874,-7580.461997,-8786.444587
612.657997,-248.853550,-11045.269122,-11121.839445
612.660660,746.560651,-8135.596840,-7963.313613
612.663323,-2373.680019,1971.685822,-9743.573627
612.665985,1282.552914,-2067.398726,-8939.585234
612.668648,-765.703232,-57.427742,-11332.407834
612.671311,172.283227,-1588.834206,-7331.608446
612.673974,191.425808,-2143.969050,-10911.271056
612.676636,-210.568389,-2545.963246,-9513.862658
612.679299,-306.281293,-3426.521963,-8748.159426
612.681962,-38.285162,-4173.082614,-10528.419440
612.684625,-172.283227,-3388.236802,-9877.571693
612.687287,-19.142581,-2565.105827,-8441.878133
612.689950,-76.570323,-95.712904,-11753.544611
612.692613,-153.140646,1990.828403,-8173.882002
612.695276,-76.570323,1761.117434,-9245.866526
612.697938,-172.283227,727.418070,-10987.841379
612.700601,-0.000000,-976.271621,-8307.880067
612.703264,-133.998066,-2756.531635,-9896.714274
612.705927,-114.855485,-4134.797453,-10394.421374
612.708589,-95.712904,-2794.816797,-9035.298138
612.711252,-191.425808,-784.845813,-9954.142016
612.713915,-95.712904,478.564520,-9934.999435
612.716578,-133.998066,1493.121302,-8939.585234
612.719240,38.285162,1033.699363,-10241.280728
612.721903,-133.998066,344.566454,-9379.864592
612.724566,19.142581,-2105.683888,-8824.729749
612.727229,-325.423874,-3062.812928,-10662.417506
612.729891,-133.998066,-3062.812928,-9571.290400
612.732554,-57.427742,-2431.107762,-8997.012976
612.735217,-229.710970,-1052.841944,-11006.983960
612.737880,-38.285162,574.277424,-9169.296203
612.740542,-19.142581,1454.836141,-9609.575562
612.743205,-153.140646,191.425808,-10145.567824
612.745868,-95.712904,-1148.554848,-8863.014910
612.748531,-38.285162,-2239.681954,-9915.856854
612.751193,-38.285162,-2507.678085,-9724.431046
612.753856,-114.855485,-1971.685822,-9303.294269
612.756519,-133.998066,-995.414202,-10336.993632
612.759182,191.425808,-57.427742,-9322.436850
612.761844,-153.140646,497.707101,-9150.153622
612.764448,-287.138712,0.000000,-10643.274925
612.767063,-0.000000,-382.851616,-9054.440718
612.769677,-38.285162,-765.703232,-8997.012976
612.772292,-325.423874,-1531.406464,-10547.562021
612.774906,-38.285162,-1569.691626,-9169.296203
612.777521,-153.140646,-1473.978722,-9877.571693
612.780135,-153.140646,-1454.836141,-10030.712339
612.782750,-57.427742,-1722.832272,-9226.723946
612.785365,-76.570323,-631.705166,-10279.565890
612.787979,-95.712904,497.707101,-9418.149754
612.790594,-172.283227,344.566454,-9092.725880
612.793208,-95.712904,38.285162,-10183.852986
612.795823,38.285162,-593.420005,-9437.292334
612.798438,-19.142581,-1722.832272,-9169.296203
612.801052,-153.140646,-3349.951640,-10356.136213
612.803667,-57.427742,-2871.387120,-9724.431046
612.806281,-38.285162,-1282.552914,-9284.151688
612.808896,-153.140646,-172.283227,-10126.425243
612.811511,-76.570323,976.271621,-9590.432981
612.814125,-19.142581,1416.550979,-9169.296203
612.816740,-57.427742,0.000000,-9801.001370
612.819354,-153.140646,-2163.111630,-9131.011042
612.821969,-172.283227,-2890.529701,-10107.282662
612.824584,-114.855485,-2469.392923,-9667.003304
612.827198,-133.998066,-1895.115499,-9379.864592
612.829813,-19.142581,-267.996131,-10241.280728
612.832427,-172.283227,1071.984525,-9341.579430
612.835042,-19.142581,459.421939,-9073.583299
612.837657,-153.140646,-1033.699363,-10049.854920
612.840271,-133.998066,-1933.400661,-9437.292334
612.842886,-57.427742,-1665.404530,-9686.145885
612.845500,-172.283227,-1205.982590,-9762.716208
612.848115,-95.712904,-861.416136,-9571.290400
612.850730,-38.285162,-363.709035,-9533.005238
612.853344,-133.998066,76.570323,-9590.432981
612.855959,-95.712904,-1359.123237,-9743.573627
612.858573,-210.568389,-1646.261949,-9915.856854
612.861188,-19.142581,-1588.834206,-9169.296203
612.863803,19.142581,-1263.410333,-9705.288466
612.866417,-153.140646,-1052.841944,-10202.995566
612.869004,-133.998066,-593.420005,-9456.434915
612.871590,-114.855485,-19.142581,-9399.007173
612.874177,-19.142581,-650.847747,-9762.716208
612.876763,-363.709035,-861.416136,-9973.284597
612.879350,-0.000000,-918.843878,-9628.718142
612.881937,38.285162,-727.418070,-8863.014910
612.884523,-76.570323,-899.701298,-9743.573627
612.887110,-229.710970,-421.136778,-10011.569758
612.889696,-38.285162,-325.423874,-9207.581365
612.892283,-76.570323,-1167.697429,-10068.997501
612.894870,-114.855485,-2009.970984,-9858.429112
612.897456,-57.427742,-1359.123237,-9456.434915
612.900043,-172.283227,-727.418070,-9858.429112
612.902629,-153.140646,-957.129040,-9762.716208
612.905216,-0.000000,-382.851616,-9437.292334
612.907803,-153.140646,0.000000,-9552.147819
612.910389,-19.142581,-708.275490,-9724.431046
612.912976,-0.000000,-1799.402595,-9667.003304
612.915562,-133.998066,-1588.834206,-9762.716208
612.918149,19.142581,-784.845813,-9590.432981
612.920735,-153.140646,-612.562586,-9590.432981
612.923322,-172.283227,-19.142581,-10241.280728
612.925909,-57.427742,-57.427742,-8939.585234
612.928495,-114.855485,-823.130974,-9418.149754
612.931082,-76.570323,-2067.398726,-9858.429112
612.933668,-248.853550,-1799.402595,-9724.431046
612.936255,-19.142581,-1110.269686,-9552.147819
612.938842,-344.566454,-842.273555,-9552.147819
612.941428,133.998066,-287.138712,-9839.286531
612.944015,-210.568389,574.277424,-9801.001370
612.946601,-95.712904,95.712904,-9265.009107
612.949188,19.142581,-1703.689691,-9571.290400
612.951774,-172.283227,-1933.400661,-9954.142016
612.954361,-19.142581,-1569.691626,-9552.147819
612.956948,-153.140646,-1301.695494,-9456.434915
612.959534,-95.712904,-880.558717,-10164.710405
612.962121,-0.000000,-306.281293,-9284.151688
612.964707,-95.712904,57.427742,-9456.434915
612.967294,-38.285162,-823.130974,-10049.854920
612.969881,-191.425808,-1627.119368,-9360.722011
612.972444,-0.000000,-1607.976787,-9552.147819
612.975008,-19.142581,-1397.408398,-9667.003304
612.977572,-0.000000,-574.277424,-9934.999435
612.980135,-325.423874,574.277424,-9705.288466
612.982699,-38.285162,344.566454,-9341.579430
612.985263,57.427742,-937.986459,-9552.147819
612.987827,-382.851616,-1646.261949,-10049.854920
612.990390,-133.998066,-1914.258080,-9724.431046
612.992954,-19.142581,-1722.832272,-8729.016845
612.995518,-344.566454,-1301.695494,-10451.849117
612.998082,133.998066,-823.130974,-9456.434915
613.000645,-248.853550,114.855485,-9188.438784
613.003209,-38.285162,-153.140646,-10202.995566
613.005773,-133.998066,-1033.699363,-9590.432981
613.008337,-38.285162,-861.416136,-9858.429112
613.010900,-133.998066,-976.271621,-9456.434915
613.013464,-19.142581,-1435.693560,-9705.288466
613.016028,-153.140646,-861.416136,-9877.571693
613.018592,-19.142581,-631.705166,-9226.723946
613.021155,-76.570323,-1033.699363,-9418.149754
613.023719,-172.283227,-1722.832272,-9992.427178
613.026283,-0.000000,-1263.410333,-9762.716208
613.028847,-133.998066,-516.849682,-9111.868461
613.031410,-153.140646,-382.851616,-9973.284597
613.033974,-172.283227,57.427742,-9877.571693
613.036538,-38.285162,-153.140646,-9207.581365
613.039101,-19.142581,-1014.556782,-9533.005238
613.041665,-172.283227,-2239.681954,-9858.429112
613.044229,-172.283227,-1837.687757,-9686.145885
613.046793,-172.283227,-1110.269686,-9360.722011
613.049356,-344.566454,-803.988394,-9399.007173
613.051920,-76.570323,-401.994197,-9973.284597
613.054484,38.285162,-38.285162,-9590.432981
613.057048,-210.568389,-57.427742,-9265.009107
613.059611,-153.140646,-1550.549045,-9762.716208
613.062175,-172.283227,-1703.689691,-9724.431046
613.064739,-153.140646,-957.129040,-9513.862658
613.067303,306.281293,-1071.984525,-10164.710405
613.069866,-306.281293,-497.707101,-10222.138147
613.072430,-114.855485,-210.568389,-8863.014910
613.074976,267.996131,-593.420005,-9896.714274
613.077522,-306.281293,-1071.984525,-10049.854920
613.080068,-172.283227,-1186.840010,-9686.145885
613.082614,-19.142581,-669.990328,-9877.571693
613.085160,-57.427742,-210.568389,-9169.296203
613.087706,325.423874,-631.705166,-9743.573627
613.090252,248.853550,-899.701298,-8882.157491
613.092797,-650.847747,-823.130974,-9667.003304
613.095343,-38.285162,-2277.967115,-10049.854920
613.097889,76.570323,-2354.537438,-9609.575562
613.100435,-172.283227,-1129.412267,-10030.712339
613.102981,-172.283227,-459.421939,-9111.868461
613.105527,210.568389,-153.140646,-9609.575562
613.108073,-172.283227,516.849682,-9705.288466
613.110619,-153.140646,459.421939,-9628.718142
613.113165,95.712904,-995.414202,-9111.868461
613.115711,-172.283227,-2450.250342,-9762.716208
613.118257,-267.996131,-2316.252277,-10490.134278
613.120803,19.142581,-1722.832272,-8882.157491
613.123348,-95.712904,-937.986459,-10164.710405
613.125894,-153.140646,191.425808,-10202.995566
613.128440,-153.140646,765.703232,-8575.876198
613.130986,267.996131,-248.853550,-9207.581365
613.133532,-248.853550,-1397.408398,-10796.415571
613.136078,-344.566454,-1741.974853,-9494.720077
613.138624,210.568389,-1780.260014,-8748.159426
613.141170,-191.425808,-1493.121302,-10394.421374
613.143716,-306.281293,-363.709035,-10451.849117
613.146262,-38.285162,0.000000,-8709.874264
613.148808,76.570323,-229.710970,-9169.296203
613.151354,-153.140646,-1301.695494,-10700.702667
613.153900,-95.712904,-1320.838075,-9571.290400
613.156445,-95.712904,-1186.840010,-8652.446522
613.158991,-172.283227,-1378.265818,-10241.280728
613.161537,-114.855485,-708.275490,-9877.571693
613.164083,-76.570323,19.142581,-9054.440718
613.166629,-38.285162,-363.709035,-9628.718142
613.169175,-114.855485,-1646.261949,-10088.140082
613.171721,-114.855485,-1569.691626,-9743.573627
613.174267,-57.427742,-976.271621,-9418.149754
613.176804,-95.712904,-784.845813,-9494.720077
613.179341,-133.998066,-421.136778,-9973.284597
613.181878,-19.142581,-191.425808,-9284.151688
613.184415,-172.283227,-267.996131,-9322.436850
613.186952,-57.427742,-1741.974853,-9877.571693
613.189488,-76.570323,-2335.394858,-10011.569758
613.192025,-57.427742,-1837.687757,-9456.434915
613.194562,-0.000000,-957.129040,-9245.866526
613.197099,-0.000000,-38.285162,-10624.132344
613.199636,-516.849682,1033.699363,-9341.579430
613.202173,-0.000000,267.996131,-8748.159426
613.204710,57.427742,-1225.125171,-9877.571693
613.207247,-555.134843,-1627.119368,-10624.132344
613.209784,-76.570323,-2048.256146,-9303.294269
613.212321,172.283227,-2086.541307,-8977.870395
613.214858,-421.136778,-1493.121302,-10566.704602
613.217394,-95.712904,-363.709035,-9934.999435
613.219931,191.425808,344.566454,-8767.302006
613.222468,-114.855485,0.000000,-9513.862658
613.225005,-95.712904,-1014.556782,-10432.706536
613.227542,-153.140646,-1071.984525,-9513.862658
613.230079,-76.570323,-1014.556782,-8997.012976
613.232616,-38.285162,-1454.836141,-10145.567824
613.235153,-153.140646,-842.273555,-9379.864592
613.237690,-19.142581,-516.849682,-9150.153622
613.240227,-57.427742,-1014.556782,-9647.860723
613.242764,-191.425808,-1569.691626,-10107.282662
613.245301,-133.998066,-1091.127106,-9667.003304
613.247837,-0.000000,-497.707101,-8997.012976
613.250374,-114.855485,-631.705166,-9762.716208
613.252911,-172.283227,-287.138712,-10068.997501
613.255448,-57.427742,-421.136778,-9456.434915
613.257985,38.285162,-1148.554848,-8939.585234
613.260522,-114.855485,-2105.683888,-10279.565890
613.263059,-287.138712,-1493.121302,-10260.423309
613.265596,19.142581,-1186.840010,-8709.874264
613.268133,-76.570323,-727.418070,-9590.432981
613.270670,-114.855485,-19.142581,-10490.134278
613.273207,-19.142581,267.996131,-9111.868461
613.275743,-76.570323,-421.136778,-9092.725880
613.278271,-133.998066,-2182.254211,-10394.421374
613.280799,-133.998066,-2297.109696,-9858.429112
613.283327,-95.712904,-1684.547110,-9265.009107
613.285855,-172.283227,-1205.982590,-9896.714274
613.288383,-229.710970,153.140646,-10336.993632
613.290911,229.710970,440.279358,-8537.591037
613.293438,-38.285162,440.279358,-9399.007173
613.295966,-38.285162,-995.414202,-10413.563955
613.298494,-306.281293,-1914.258080,-9379.864592
613.301022,-57.427742,-2163.111630,-9762.716208
613.303550,-57.427742,-1799.402595,-9609.575562
613.306078,-478.564520,-1071.984525,-9896.714274
613.308605,-38.285162,-76.570323,-9973.284597
613.311133,172.283227,401.994197,-8843.872330
613.313661,172.283227,-803.988394,-9552.147819
613.316189,-497.707101,-1186.840010,-10126.425243
613.318717,-76.570323,-1359.123237,-9973.284597
613.321245,76.570323,-1588.834206,-8480.163294
613.323773,-229.710970,-1454.836141,-10164.710405
613.326300,-76.570323,-784.845813,-10509.276859
613.328828,76.570323,229.710970,-8537.591037
613.331356,-172.283227,-133.998066,-9265.009107
613.333884,-172.283227,-1359.123237,-10796.415571
613.336412,-38.285162,-1282.552914,-9590.432981
613.338940,-57.427742,-880.558717,-8499.305875
613.341467,-133.998066,-1167.697429,-10260.423309
613.343995,-363.709035,-765.703232,-10279.565890
613.346523,153.140646,-593.420005,-8193.024582
613.349051,-57.427742,-1263.410333,-10068.997501
613.351579,-555.134843,-1339.980656,-10853.843314
613.354107,76.570323,-1225.125171,-9035.298138
613.356635,95.712904,-593.420005,-8729.016845
613.359162,-153.140646,-153.140646,-10585.847182
613.361690,-229.710970,306.281293,-9743.573627
613.364218,-0.000000,-95.712904,-8939.585234
613.366746,19.142581,-976.271621,-9609.575562
613.369274,-153.140646,-1799.402595,-10298.708470
613.371802,-95.712904,-1646.261949,-9571.290400
613.374329,-153.140646,-1320.838075,-9284.151688
613.376857,-153.140646,-1531.406464,-9743.573627
613.379378,-95.712904,-995.414202,-10202.995566
613.381899,-191.425808,-133.998066,-9418.149754
613.384419,172.283227,-459.421939,-9303.294269
613.386940,-210.568389,-1110.269686,-9781.858789
613.389461,-306.281293,-1052.841944,-10107.282662
613.391982,114.855485,-823.130974,-9169.296203
613.394502,38.285162,-861.416136,-9418.149754
613.397023,-248.853550,-555.134843,-10700.702667
613.399544,-95.712904,-478.564520,-9092.725880
613.402064,133.998066,-650.847747,-9016.155557
613.404585,-76.570323,-1473.978722,-10030.712339
613.407106,-153.140646,-1569.691626,-10241.280728
613.409627,-57.427742,-1225.125171,-8977.870395
613.412147,57.427742,-669.990328,-9533.005238
613.414668,-497.707101,95.712904,-10585.847182
613.417189,-76.570323,76.570323,-9533.005238
613.419709,421.136778,-478.564520,-8499.305875
613.422230,-574.277424,-1493.121302,-10126.425243
613.424751,-325.423874,-2163.111630,-10413.563955
613.427272,172.283227,-2105.683888,-9265.009107
613.429792,-555.134843,-746.560651,-9131.011042
613.432313,-153.140646,-38.285162,-10949.556218
613.434834,344.566454,248.853550,-8556.733618
613.437354,-191.425808,574.277424,-8901.300072
613.439875,-114.855485,-976.271621,-10451.849117
613.442396,-0.000000,-2488.535504,-9820.143950
613.444916,-114.855485,-2277.967115,-9303.294269
613.447437,-38.285162,-1761.117434,-9762.716208
613.449958,-172.283227,-1167.697429,-10049.854920
613.452479,-76.570323,0.000000,-9456.434915
613.454999,38.285162,823.130974,-9437.292334
613.457520,-19.142581,172.283227,-9341.579430
613.460041,-95.712904,-1454.836141,-9992.427178
613.462561,-210.568389,-1837.687757,-9820.143950
613.465082,-38.285162,-1780.260014,-8882.157491
613.467603,-57.427742,-1741.974853,-9992.427178
613.470124,-191.425808,-535.992262,-10413.563955
613.472644,-19.142581,95.712904,-9035.298138
613.475165,133.998066,-497.707101,-9035.298138
613.477686,-191.425808,-1091.127106,-10547.562021
613.480204,-114.855485,-746.560651,-10202.995566
613.482722,38.285162,-746.560651,-8403.592971
613.485240,-153.140646,-1014.556782,-9781.858789
613.487757,-287.138712,-842.273555,-10681.560086
613.490275,38.285162,-650.847747,-8977.870395
613.492793,-57.427742,-957.129040,-9035.298138
613.495311,-114.855485,-1914.258080,-10413.563955
613.497829,-133.998066,-1301.695494,-9513.862658
613.500347,-0.000000,-440.279358,-9322.436850
613.502865,-0.000000,-555.134843,-9743.573627
613.505383,-344.566454,-57.427742,-10183.852986
613.507901,38.285162,-153.140646,-9092.725880
613.510419,57.427742,-516.849682,-9150.153622
613.512937,-153.140646,-1703.689691,-10107.282662
613.515455,-153.140646,-2105.683888,-10049.854920
613.517973,-133.998066,-1780.260014,-9360.722011
613.520491,-153.140646,-1167.697429,-9284.151688
613.523009,-363.709035,-497.707101,-10451.849117
613.525527,-76.570323,382.851616,-9705.288466
613.528045,38.285162,516.849682,-8595.018779
613.530562,210.568389,-574.277424,-9590.432981
613.533080,-248.853550,-1607.976787,-10470.991698
613.535598,-95.712904,-1799.402595,-9609.575562
613.538116,76.570323,-2067.398726,-8786.444587
613.540634,-459.421939,-1263.410333,-10566.704602
613.543152,229.710970,-555.134843,-9839.286531
613.545670,-95.712904,689.132909,-8595.018779
613.548188,-287.138712,38.285162,-9590.432981
613.550706,-38.285162,-1378.265818,-10604.989763
613.553224,-57.427742,-1454.836141,-9111.868461
613.555742,-57.427742,-1339.980656,-8997.012976
613.558260,-153.140646,-1761.117434,-10643.274925
613.560778,-210.568389,-765.703232,-9781.858789
613.563296,-0.000000,-95.712904,-8690.731683
613.565814,-0.000000,-574.277424,-9724.431046
613.568332,-210.568389,-1263.410333,-10470.991698
613.570849,-57.427742,-1339.980656,-9111.868461
613.573367,-133.998066,-957.129040,-9131.011042
613.575885,-38.285162,-957.129040,-10356.136213
613.578403,-325.423874,-57.427742,-9437.292334
613.580819,-19.142581,-363.709035,-9169.296203
613.583234,38.285162,-1301.695494,-9877.571693
613.585650,-382.851616,-1646.261949,-9724.431046
613.588065,-76.570323,-1244.267752,-10164.710405
613.590481,38.285162,-823.130974,-9188.438784
613.592896,-287.138712,-631.705166,-9360.722011
613.595312,-0.000000,-363.709035,-10317.851051
613.597727,-38.285162,-76.570323,-9322.436850
613.600143,-76.570323,-555.134843,-8882.157491
613.602558,57.427742,-2029.113565,-10068.997501
613.604974,-287.138712,-1780.260014,-10413.563955
613.607389,-19.142581,-1205.982590,-9169.296203
613.609805,19.142581,-1148.554848,-9284.151688
613.612220,-229.710970,-267.996131,-10911.271056
613.614636,-19.142581,-19.142581,-8920.442653
613.617051,19.142581,-57.427742,-8499.305875
613.619467,-38.285162,-1244.267752,-10509.276859
613.621882,-172.283227,-1646.261949,-10336.993632
613.624298,19.142581,-1569.691626,-8614.161360
613.626713,-19.142581,-1052.841944,-9456.434915
613.629128,-593.420005,-555.134843,-11064.411702
613.631544,-38.285162,-248.853550,-9399.007173
613.633959,287.138712,-114.855485,-8403.592971
613.636375,-612.562586,-535.992262,-9896.714274
613.638790,-421.136778,-1282.552914,-10987.841379
613.641206,133.998066,-1416.550979,-9379.864592
613.643621,-153.140646,-1110.269686,-8977.870395
613.646037,-191.425808,-1129.412267,-10911.271056
613.648452,-76.570323,-574.277424,-9379.864592
613.650868,133.998066,-248.853550,-8441.878133
613.653283,-95.712904,-1454.836141,-10470.991698
613.655699,-248.853550,-2239.681954,-10681.560086
613.658114,-95.712904,-1741.974853,-9016.155557
613.660530,229.710970,-899.701298,-9150.153622
613.662945,-172.283227,-248.853550,-10604.989763
613.665361,-363.709035,861.416136,-9590.432981
613.667776,440.279358,574.277424,-8575.876198
613.670192,-38.285162,-478.564520,-9858.429112
613.672607,-344.566454,-2220.539373,-10509.276859
613.675023,-57.427742,-2775.674216,-9533.005238
613.677470,-38.285162,-2086.541307,-8997.012976
613.679917,-76.570323,-1397.408398,-10528.419440
613.682364,-133.998066,248.853550,-9762.716208
613.684811,-0.000000,918.843878,-8767.302006
613.687259,38.285162,114.855485,-9628.718142
613.689706,-287.138712,-918.843878,-10011.569758
613.692153,-95.712904,-1569.691626,-9877.571693
613.694600,38.285162,-1875.972918,-9111.868461
613.697047,-191.425808,-1856.830338,-9724.431046
613.699495,-153.140646,-1148.554848,-10298.708470
613.701942,172.283227,-497.707101,-9284.151688
613.704389,-153.140646,38.285162,-8863.014910
613.706836,-38.285162,-1091.127106,-10298.708470
613.709283,-114.855485,-1014.556782,-10107.282662
613.711731,-172.283227,-631.705166,-8958.727814
613.714178,-0.000000,-1320.838075,-9284.151688
613.716625,-267.996131,-746.560651,-10470.991698
613.719072,-172.283227,-191.425808,-8939.585234
613.721519,248.853550,-650.847747,-9035.298138
613.723967,-153.140646,-1684.547110,-10509.276859
613.726414,-401.994197,-1339.980656,-9781.858789
613.728861,191.425808,-1263.410333,-9092.725880
613.731308,-0.000000,-880.558717,-9341.579430
613.733755,-440.279358,-76.570323,-10624.132344
613.736203,153.140646,19.142581,-9035.298138
613.738650,76.570323,-459.421939,-8729.016845
613.741097,-325.423874,-1741.974853,-10336.993632
613.743544,-57.427742,-2297.109696,-10298.708470
613.745991,-38.285162,-1646.261949,-9303.294269
613.748439,-172.283227,-1186.840010,-8901.300072
613.750886,-0.000000,-899.701298,-10624.132344
613.753333,-172.283227,287.138712,-8958.727814
613.755780,-38.285162,382.851616,-8977.870395
613.758227,-19.142581,-803.988394,-10413.563955
613.760675,-210.568389,-1780.260014,-9724.431046
613.763122,-38.285162,-1856.830338,-9379.864592
613.765569,-19.142581,-1435.693560,-9724.431046
613.768016,-229.710970,-1091.127106,-10126.425243
613.770463,-95.712904,-248.853550,-9609.575562
613.772911,76.570323,248.853550,-9169.296203
613.775381,-133.998066,-421.136778,-9533.005238
613.777851,-229.710970,-1531.406464,-10547.562021
613.780321,-76.570323,-1741.974853,-9513.862658
613.782791,-38.285162,-1531.406464,-8997.012976
613.785260,-19.142581,-1129.412267,-10145.567824
613.787730,-191.425808,-19.142581,-9934.999435
613.790200,-0.000000,478.564520,-8901.300072
613.792670,19.142581,-784.845813,-9418.149754
613.795140,-459.421939,-1607.976787,-10030.712339
613.797610,-38.285162,-1531.406464,-10088.140082
613.800080,-19.142581,-1320.838075,-9016.155557
613.802549,-363.709035,-1397.408398,-9571.290400
613.805019,-76.570323,-650.847747,-10528.419440
613.807489,-38.285162,0.000000,-9131.011042
613.809959,-57.427742,-95.712904,-8882.157491
613.812429,-76.570323,-1454.836141,-10336.993632
613.814899,-382.851616,-1339.980656,-9877.571693
613.817369,19.142581,-1339.980656,-8958.727814
613.819838,38.285162,-1454.836141,-9724.431046
613.822308,-95.712904,-803.988394,-10528.419440
613.824778,57.427742,689.132909,-8997.012976
613.827248,-535.992262,918.843878,-8537.591037
613.829718,401.994197,-1588.834206,-10738.987829
613.832188,-555.134843,-1780.260014,-9571.290400
613.834658,-57.427742,-2354.537438,-9035.298138
613.837127,191.425808,-2737.389054,-9839.286531
613.839597,-248.853550,-1780.260014,-9934.999435
613.842067,-478.564520,-478.564520,-9896.714274
613.844537,133.998066,0.000000,-9150.153622
613.847007,210.568389,248.853550,-8671.589102
613.849477,-803.988394,1052.841944,-10107.282662
613.851946,-76.570323,38.285162,-10681.560086
613.854416,153.140646,-1301.695494,-7963.313613
613.856886,-306.281293,-2603.390989,-10202.995566
613.859356,-57.427742,-1895.115499,-10547.562021
613.861826,-38.285162,-401.994197,-8403.592971
613.864296,-114.855485,-1225.125171,-10643.274925
613.866766,-248.853550,-1416.550979,-10432.706536
613.869235,-0.000000,-746.560651,-8652.446522
613.871705,-172.283227,-191.425808,-9896.714274
613.874112,-114.855485,-593.420005,-10490.134278
613.876518,114.855485,-440.279358,-8537.591037
613.878924,-114.855485,-325.423874,-9934.999435
613.881331,-76.570323,-1263.410333,-9839.286531
613.883737,-172.283227,-2201.396792,-9418.149754
613.886143,-172.283227,-1780.260014,-10183.852986
613.888550,-0.000000,-1263.410333,-9245.866526
613.890956,-153.140646,-957.129040,-9399.007173
613.893363,-172.283227,363.709035,-10643.274925
613.895769,-38.285162,899.701298,-9131.011042
613.898175,-0.000000,-229.710970,-9705.288466
613.900582,-248.853550,-1914.258080,-10413.563955
613.902988,-57.427742,-2105.683888,-9207.581365
613.905394,-57.427742,-1703.689691,-9686.145885
613.907801,-133.998066,-1990.828403,-10164.710405
613.910207,-133.998066,-708.275490,-9131.011042
613.912613,38.285162,172.283227,-9858.429112
613.915020,-95.712904,95.712904,-9609.575562
613.917426,-0.000000,-1473.978722,-9207.581365
613.919833,-133.998066,-1359.123237,-10241.280728
613.922239,-172.283227,-823.130974,-9494.720077
613.924645,-38.285162,-1167.697429,-9207.581365
613.927052,-153.140646,-937.986459,-10432.706536
613.929458,-76.570323,-382.851616,-9245.866526
613.931864,-0.000000,-95.712904,-9207.581365
613.934271,-114.855485,-1416.550979,-10068.997501
613.936677,-114.855485,-1244.267752,-9552.147819
613.939083,-0.000000,-899.701298,-9399.007173
613.941490,-76.570323,-995.414202,-9628.718142
613.943896,-95.712904,-803.988394,-9877.571693
613.946303,-172.283227,-114.855485,-9418.149754
613.948709,-95.712904,-191.425808,-9399.007173
613.951115,-0.000000,-1799.402595,-9628.718142
613.953522,-325.423874,-1741.974853,-10088.140082
613.955928,19.142581,-1435.693560,-9647.860723
613.958334,-153.140646,-899.701298,-8843.872330
613.960741,-19.142581,-1071.984525,-10279.565890
613.963147,-172.283227,-57.427742,-9571.290400
613.965553,-38.285162,76.570323,-9054.440718
613.967960,-0.000000,-976.271621,-9915.856854
613.970403,-153.140646,-1627.119368,-9590.432981
613.972846,-19.142581,-1339.980656,-9647.860723
613.975289,-76.570323,-918.843878,-9571.290400
613.977731,-172.283227,-976.271621,-9820.143950
613.980174,-95.712904,-459.421939,-9724.431046
613.982617,-172.283227,-133.998066,-9513.862658
613.985060,38.285162,-1091.127106,-9379.864592
613.987503,-210.568389,-1741.974853,-10222.138147
613.989946,-76.570323,-1454.836141,-9437.292334
613.992389,-0.000000,-880.558717,-9035.298138
613.994832,-38.285162,-803.988394,-10049.854920
613.997275,-133.998066,0.000000,-9686.145885
613.999717,-0.000000,516.849682,-9169.296203
614.002160,-57.427742,-516.849682,-9628.718142
614.004603,-76.570323,-2086.541307,-9781.858789
614.007046,-153.140646,-2048.256146,-9705.288466
614.009489,-133.998066,-1531.406464,-9647.860723
614.011932,-114.855485,-1339.980656,-9667.003304
614.014375,-133.998066,-38.285162,-10049.854920
614.016818,-19.142581,803.988394,-9303.294269
614.019261,-38.285162,76.570323,-9303.294269
614.021704,-0.000000,-1895.115499,-9934.999435
614.024146,-172.283227,-1588.834206,-9954.142016
614.026589,-172.283227,-823.130974,-9245.866526
614.029032,19.142581,-1416.550979,-9609.575562
614.031475,-363.709035,-631.705166,-10164.710405
614.033918,19.142581,-248.853550,-9092.725880
614.036361,-153.140646,-153.140646,-9667.003304
614.038804,-95.712904,-1397.408398,-9686.145885
614.041247,-133.998066,-1990.828403,-9686.145885
614.043690,-38.285162,-1148.554848,-9475.577496
614.046133,-95.712904,-976.271621,-9245.866526
614.048575,-38.285162,-555.134843,-9896.714274
614.051018,-153.140646,344.566454,-9705.288466
614.053461,-0.000000,-38.285162,-9322.436850
614.055904,-172.283227,-1627.119368,-9743.573627
614.058347,-172.283227,-2392.822600,-10088.140082
614.060790,-95.712904,-1875.972918,-9399.007173
614.063233,-57.427742,-1129.412267,-9341.579430
614.065676,-38.285162,-459.421939,-10356.136213
614.068146,-210.568389,497.707101,-9111.868461
614.070615,-57.427742,765.703232,-9456.434915
614.073085,-19.142581,-555.134843,-9839.286531
614.075555,-191.425808,-1856.830338,-9686.145885
614.078025,-38.285162,-1780.260014,-9762.716208
614.080495,-153.140646,-1588.834206,-9284.151688
614.082964,-38.285162,-1703.689691,-9992.427178
614.085434,-114.855485,-516.849682,-9686.145885
614.087904,-57.427742,440.279358,-9188.438784
614.090374,-19.142581,-267.996131,-9743.573627
614.092844,-153.140646,-765.703232,-10202.995566
614.095314,76.570323,-784.845813,-9418.149754
614.097783,-267.996131,-363.709035,-9131.011042
614.100253,-57.427742,-1397.408398,-10145.567824
614.102723,-191.425808,-937.986459,-9399.007173
614.105193,-133.998066,-727.418070,-9513.862658
614.107663,-19.142581,-1320.838075,-9667.003304
614.110132,-153.140646,-2201.396792,-9686.145885
614.112602,-0.000000,-1703.689691,-10011.569758
614.115072,-210.568389,-669.990328,-9322.436850
614.117542,-57.427742,-823.130974,-9724.431046
614.120012,-57.427742,-287.138712,-9877.571693
614.122482,-19.142581,325.423874,-9418.149754
614.124951,-133.998066,-133.998066,-9437.292334
614.127421,-133.998066,-1569.691626,-10164.710405
614.129891,-57.427742,-1665.404530,-9418.149754
614.132361,-114.855485,-1052.841944,-9494.720077
614.134831,-57.427742,-1607.976787,-9724.431046
614.137301,-191.425808,-957.129040,-10011.569758
614.139770,-0.000000,-382.851616,-9341.579430
614.142240,-38.285162,-114.855485,-9437.292334
614.144710,-57.427742,-937.986459,-9992.427178
614.147180,-153.140646,-1301.695494,-9743.573627
614.149650,-95.712904,-1607.976787,-9245.866526
614.152119,-19.142581,-1397.408398,-9628.718142
614.154589,-248.853550,-57.427742,-10088.140082
614.157059,-229.710970,459.421939,-9743.573627
614.159529,191.425808,-191.425808,-8977.870395
614.161999,-229.710970,-1454.836141,-9973.284597
614.164469,-248.853550,-1473.978722,-10011.569758
614.166960,-0.000000,-1493.121302,-9341.579430
614.169451,-57.427742,-1397.408398,-9513.862658
614.171943,-172.283227,-918.843878,-10413.563955
614.174434,-0.000000,-401.994197,-8901.300072
614.176926,-76.570323,325.423874,-9743.573627
614.179417,-95.712904,-421.136778,-9934.999435
614.181908,-114.855485,-1301.695494,-9284.151688
614.184400,-0.000000,-1397.408398,-10049.854920
614.186891,-38.285162,-1167.697429,-9245.866526
614.189383,-38.285162,-1454.836141,-10279.565890
614.191874,-210.568389,-478.564520,-9915.856854
614.194366,-19.142581,-133.998066,-8633.303941
614.196857,-57.427742,-899.701298,-10068.997501
614.199348,-172.283227,-1378.265818,-10336.993632
614.201840,19.142581,-1359.123237,-8882.157491
614.204331,-57.427742,-823.130974,-9303.294269
614.206823,-114.855485,-995.414202,-10413.563955
614.209314,-172.283227,-574.277424,-9150.153622
614.211805,153.140646,-382.851616,-9628.718142
614.214297,-153.140646,-478.564520,-9724.431046
614.216788,-95.712904,-1397.408398,-9494.720077
614.219280,-38.285162,-1129.412267,-10260.423309
614.221771,-114.855485,-842.273555,-9035.298138
614.224263,-19.142581,-1205.982590,-9667.003304
614.226754,-153.140646,-440.279358,-9934.999435
614.229245,-0.000000,-172.283227,-8997.012976
614.231737,-0.000000,-1033.699363,-9781.858789
614.234228,-172.283227,-2124.826469,-9973.284597
614.236720,-114.855485,-1914.258080,-9341.579430
614.239211,-172.283227,-918.843878,-9647.860723
614.241703,-0.000000,-803.988394,-9705.288466
614.244194,-133.998066,0.000000,-9820.143950
614.246685,-0.000000,229.710970,-9437.292334
614.249177,-0.000000,-114.855485,-9437.292334
614.251668,-133.998066,-995.414202,-9839.286531
614.254160,-172.283227,-1339.980656,-9667.003304
614.256651,-95.712904,-1550.549045,-9437.292334
614.259142,-57.427742,-1512.263883,-9379.864592
614.261634,-133.998066,-1033.699363,-10279.565890
614.264125,-38.285162,-153.140646,-9399.007173
614.266632,-19.142581,-535.992262,-9322.436850
614.269139,-95.712904,-1837.687757,-9839.286531
614.271646,-153.140646,-1588.834206,-9762.716208
614.274153,-38.285162,-1014.556782,-9054.440718
614.276660,-133.998066,-842.273555,-9590.432981
614.279167,-38.285162,-631.705166,-10509.276859
614.281674,-133.998066,-95.712904,-9073.583299
614.284181,-38.285162,0.000000,-9743.573627
614.286688,-57.427742,-957.129040,-9992.427178
614.289195,-95.712904,-1569.691626,-9456.434915
614.291702,-38.285162,-1416.550979,-9896.714274
614.294209,-114.855485,-1091.127106,-9265.009107
614.296716,19.142581,-1167.697429,-9724.431046
614.299223,-153.140646,-76.570323,-9973.284597
614.301730,38.285162,0.000000,-8997.012976
614.304237,-95.712904,-1512.263883,-9896.714274
614.306743,-38.285162,-2335.394858,-10260.423309
614.309250,-133.998066,-1607.976787,-9284.151688
614.311757,-133.998066,-957.129040,-9188.438784
614.314264,-95.712904,-803.988394,-10375.278794
614.316771,-114.855485,172.283227,-9437.292334
614.319278,-19.142581,478.564520,-9628.718142
614.321785,-114.855485,-133.998066,-9724.431046
614.324292,-133.998066,-1225.125171,-9437.292334
614.326799,-38.285162,-1282.552914,-10107.282662
614.329306,-172.283227,-1129.412267,-9245.866526
614.331813,-114.855485,-1971.685822,-9552.147819
614.334320,-133.998066,-1799.402595,-10126.425243
614.336827,76.570323,-669.990328,-9590.432981
614.339334,-19.142581,-210.568389,-9494.720077
614.341841,-133.998066,-1167.697429,-10298.708470
614.344348,-114.855485,-1416.550979,-9322.436850
614.346855,-19.142581,-1091.127106,-9284.151688
614.349362,-153.140646,-1473.978722,-10107.282662
614.351869,-172.283227,-555.134843,-9801.001370
614.354376,-19.142581,-114.855485,-9399.007173
614.356883,-38.285162,-229.710970,-9533.005238
614.359390,-133.998066,0.000000,-10088.140082
614.361896,-0.000000,1378.265818,-10011.569758
614.364403,-172.283227,2622.533570,-9111.868461
614.366859,-191.425808,2469.392923,-9609.575562
614.369315,191.425808,-976.271621,-9724.431046
614.371771,-382.851616,-153.140646,-10509.276859
614.374227,-76.570323,-784.845813,-8537.591037
614.376683,-172.283227,-57.427742,-11140.982026
614.379139,-38.285162,1378.265818,-9092.725880
614.381595,19.142581,2699.103893,-9360.722011
614.384051,-38.285162,1952.543242,-9992.427178
614.386507,-57.427742,689.132909,-10011.569758
614.388963,-19.142581,382.851616,-9035.298138
614.391419,-153.140646,-1378.265818,-9628.718142
614.393875,-95.712904,-3139.383251,-9437.292334
614.396331,-153.140646,-3598.805190,-9992.427178
614.398787,-114.855485,-2947.957443,-9628.718142
614.401243,-133.998066,-1914.258080,-9513.862658
614.403699,-153.140646,-478.564520,-9896.714274
614.406155,-95.712904,995.414202,-9839.286531
614.408611,172.283227,1684.547110,-9092.725880
614.411067,-133.998066,880.558717,-9571.290400
614.413523,-344.566454,-1033.699363,-9973.284597
614.415979,57.427742,-3024.527766,-8863.014910
614.418435,-401.994197,-4211.367776,-10451.849117
614.420891,-38.285162,-3235.096155,-9973.284597
614.423347,-172.283227,-459.421939,-9111.868461
614.425803,-57.427742,1761.117434,-10088.140082
614.428259,133.998066,1971.685822,-9169.296203
614.430715,-133.998066,1167.697429,-9533.005238
614.433171,-172.283227,-287.138712,-9992.427178
614.435627,-19.142581,-2794.816797,-8997.012976
614.438083,-133.998066,-3866.801322,-9877.571693
614.440539,-210.568389,-3081.955509,-10470.991698
614.442995,-57.427742,-1301.695494,-9092.725880
614.445451,-133.998066,-133.998066,-9494.720077
614.447907,-0.000000,191.425808,-10298.708470
614.450363,-19.142581,1148.554848,-8882.157491
614.452819,-57.427742,267.996131,-9494.720077
614.455275,-153.140646,-1186.840010,-10356.136213
614.457731,-153.140646,-1761.117434,-9360.722011
614.460187,-95.712904,-1301.695494,-9494.720077
614.462642,-0.000000,-1588.834206,-9839.286531
614.465124,-325.423874,-1761.117434,-9628.718142
614.467606,-38.285162,-1569.691626,-9820.143950
614.470089,-172.283227,-459.421939,-9418.149754
614.472571,-57.427742,-421.136778,-9571.290400
614.475053,-133.998066,-248.853550,-10107.282662
614.477535,-95.712904,478.564520,-9111.868461
614.480017,-19.142581,95.712904,-9341.579430
614.482499,-114.855485,-1416.550979,-10107.282662
614.484981,-191.425808,-2201.396792,-9533.005238
614.487463,-38.285162,-2335.394858,-9379.864592
614.489945,-114.855485,-2297.109696,-10183.852986
614.492427,-38.285162,-1129.412267,-9705.288466
614.494909,-133.998066,899.701298,-9552.147819
614.497391,38.285162,1703.689691,-9475.577496
614.499873,-76.570323,765.703232,-9265.009107
614.502355,-114.855485,-574.277424,-10107.282662
614.504837,-38.285162,-1875.972918,-9590.432981
614.507319,-172.283227,-3196.810994,-9188.438784
614.509801,-114.855485,-3407.379382,-10336.993632
614.512283,-172.283227,-1473.978722,-9494.720077
614.514765,-57.427742,210.568389,-9245.866526
614.517247,-57.427742,612.562586,-9877.571693
614.519729,-172.283227,440.279358,-9762.716208
614.522211,57.427742,-38.285162,-9111.868461
614.524693,-153.140646,-1512.263883,-9954.142016
614.527175,-114.855485,-2450.250342,-10107.282662
614.529657,-19.142581,-1971.685822,-9475.577496
614.532139,-153.140646,-497.707101,-9609.575562
614.534621,-133.998066,-172.283227,-9762.716208
614.537103,-19.142581,-325.423874,-9839.286531
614.539585,-76.570323,-267.996131,-9609.575562
614.542067,-38.285162,-1148.554848,-9303.294269
614.544549,-172.283227,-1818.545176,-9781.858789
614.547031,-133.998066,-1359.123237,-9934.999435
614.549513,-38.285162,-497.707101,-9131.011042
614.551995,-153.140646,-612.562586,-9858.429112
614.554477,-0.000000,-1225.125171,-9915.856854
614.556959,-306.281293,-574.277424,-9609.575562
614.559441,-19.142581,-1205.982590,-9437.292334
614.561923,-153.140646,-1244.267752,-10011.569758
614.564425,38.285162,-1052.841944,-9552.147819
614.566927,-133.998066,0.000000,-9322.436850
614.569428,-19.142581,-114.855485,-9667.003304
614.571930,-401.994197,-708.275490,-9781.858789
614.574432,-0.000000,-1512.263883,-9667.003304
614.576934,-38.285162,-2143.969050,-9552.147819
614.579436,-133.998066,-2335.394858,-9686.145885
614.581938,-153.140646,-1607.976787,-10394.421374
614.584440,-19.142581,153.140646,-9035.298138
614.586942,-19.142581,937.986459,-9552.147819
614.589444,-0.000000,38.285162,-9877.571693
614.591946,-19.142581,-325.423874,-9743.573627
614.594448,-57.427742,-669.990328,-9111.868461
614.596950,-229.710970,-1607.976787,-10011.569758
614.599451,-172.283227,-2201.396792,-9590.432981
614.601953,-38.285162,-1244.267752,-9418.149754
614.604455,-95.712904,-382.851616,-9743.573627
614.606957,-19.142581,-593.420005,-9494.720077
614.609459,-114.855485,-516.849682,-9896.714274
614.611961,-19.142581,-497.707101,-9341.579430
614.614463,-191.425808,-1014.556782,-9399.007173
614.616965,-0.000000,-1971.685822,-10068.997501
614.619467,-229.710970,-1205.982590,-9647.860723
614.621969,76.570323,-516.849682,-9284.151688
614.624471,-248.853550,-325.423874,-9858.429112
614.626972,-0.000000,-708.275490,-9743.573627
614.629474,-133.998066,-421.136778,-9379.864592
614.631976,210.568389,-1416.550979,-9552.147819
614.634478,-153.140646,-1569.691626,-10011.569758
614.636980,-19.142581,-746.560651,-9533.005238
614.639482,-114.855485,-133.998066,-9303.294269
614.641984,-0.000000,-823.130974,-9475.577496
614.644486,-229.710970,-1378.265818,-10088.140082
614.646988,-114.855485,-1435.693560,-9647.860723
614.649490,-19.142581,-1703.689691,-9284.151688
614.651992,-133.998066,-1320.838075,-9724.431046
614.654494,-76.570323,-363.709035,-10260.423309
614.656995,-57.427742,497.707101,-8958.727814
614.659497,76.570323,-95.712904,-9360.722011
614.661999,-344.566454,-631.705166,-10126.425243
614.664516,19.142581,-1091.127106,-9494.720077
614.667033,-153.140646,-1684.547110,-9111.868461
614.669550,-95.712904,-2086.541307,-10241.280728
614.672067,-153.140646,-1129.412267,-9111.868461
614.674583,-57.427742,191.425808,-9418.149754
614.677100,19.142581,344.566454,-9839.286531
614.679617,-153.140646,-421.136778,-9628.718142
614.682134,-114.855485,-1148.554848,-9724.431046
614.684651,-153.140646,-1531.406464,-9456.434915
614.687167,-172.283227,-1799.402595,-9686.145885
614.689684,-114.855485,-1473.978722,-10260.423309
614.692201,-57.427742,-555.134843,-9265.009107
614.694718,-133.998066,-172.283227,-9418.149754
614.697235,-95.712904,-765.703232,-10011.569758
614.699751,-95.712904,-899.701298,-9456.434915
614.702268,-172.283227,-861.416136,-9322.436850
614.704785,-38.285162,-1378.265818,-9743.573627
614.707302,-114.855485,-1263.410333,-9781.858789
614.709819,-153.140646,-38.285162,-9379.864592
614.712335,-19.142581,19.142581,-9418.149754
614.714852,-133.998066,-995.414202,-9724.431046
614.717369,-76.570323,-1780.260014,-9762.716208
614.719886,-57.427742,-1971.685822,-9533.005238
614.722403,57.427742,-2086.541307,-9686.145885
614.724920,-344.566454,-1225.125171,-9896.714274
614.727436,38.285162,-76.570323,-9437.292334
614.729953,-133.998066,1033.699363,-9513.862658
614.732470,-38.285162,191.425808,-9513.862658
614.734987,-95.712904,-803.988394,-9954.142016
614.737504,-38.285162,-1531.406464,-9322.436850
614.740020,-133.998066,-2641.676150,-9724.431046
614.742537,-133.998066,-2431.107762,-10183.852986
614.745054,-76.570323,-1033.699363,-9418.149754
614.747571,-0.000000,689.132909,-9590.432981
614.750088,-191.425808,478.564520,-9724.431046
614.752604,-19.142581,-650.847747,-9705.288466
614.755121,-153.140646,-957.129040,-9667.003304
614.757638,-95.712904,-1837.687757,-9207.581365
614.760155,-172.283227,-2373.680019,-9915.856854
614.762672,-114.855485,-1531.406464,-9877.571693
614.765202,-0.000000,-210.568389,-9111.868461
614.767731,-114.855485,-133.998066,-9552.147819
614.770261,-172.283227,-382.851616,-10241.280728
614.772790,-133.998066,-153.140646,-9284.151688
614.775320,-19.142581,-1091.127106,-9226.723946
614.777849,-133.998066,-1473.978722,-10126.425243
614.780378,-153.140646,-1531.406464,-9667.003304
614.782908,-172.283227,-574.277424,-9131.011042
614.785437,-76.570323,-918.843878,-9781.858789
614.787966,-19.142581,-1282.552914,-9934.999435
614.790496,-114.855485,-976.271621,-9724.431046
614.793025,-172.283227,-1263.410333,-9341.579430
614.795554,191.425808,-1397.408398,-9762.716208
614.798084,-210.568389,-516.849682,-10126.425243
614.800613,-38.285162,478.564520,-9341.579430
614.803143,-0.000000,114.855485,-9226.723946
614.805672,-38.285162,-631.705166,-9934.999435
614.808201,-57.427742,-937.986459,-10107.282662
614.810731,-172.283227,-1703.689691,-8690.731683
614.813260,-114.855485,-2469.392923,-10394.421374
614.815789,-133.998066,-2009.970984,-10030.712339
614.818319,-95.712904,-344.566454,-9073.583299
614.820848,-0.000000,727.418070,-10068.997501
614.823377,-57.427742,133.998066,-9456.434915
614.825907,-133.998066,-306.281293,-9571.290400
614.828436,-95.712904,-1225.125171,-9705.288466
614.830966,-57.427742,-2526.820666,-9571.290400
614.833495,-172.283227,-2354.537438,-10126.425243
614.836024,-0.000000,-1569.691626,-9667.003304
614.838554,-57.427742,-248.853550,-9226.723946
614.841083,-0.000000,-153.140646,-9820.143950
614.843612,-133.998066,-38.285162,-9992.427178
614.846142,-19.142581,-133.998066,-8997.012976
614.848671,-76.570323,-1320.838075,-9762.716208
614.851200,-172.283227,-1875.972918,-10126.425243
614.853730,-172.283227,-1569.691626,-9437.292334
614.856259,-133.998066,-1225.125171,-9341.579430
614.858789,-38.285162,-1416.550979,-9571.290400
614.861318,-57.427742,-746.560651,-9801.001370
614.863847,-153.140646,-38.285162,-9762.716208
614.866386,-38.285162,-669.990328,-9456.434915
614.868924,-0.000000,-1148.554848,-9628.718142
614.871462,-287.138712,-535.992262,-9934.999435
614.874000,172.283227,-497.707101,-9303.294269
614.876539,-172.283227,-1129.412267,-9265.009107
614.879077,-153.140646,-1569.691626,-10356.136213
614.881615,-172.283227,-1186.840010,-9609.575562
614.884154,-133.998066,-1416.550979,-9035.298138
614.886692,-114.855485,-1033.699363,-10298.708470
614.889230,-172.283227,-57.427742,-9781.858789
614.891768,-38.285162,976.271621,-9379.864592
614.894307,-38.285162,-19.142581,-9533.005238
614.896845,-114.855485,-1818.545176,-9954.142016
614.899383,-191.425808,-2048.256146,-9360.722011
614.901922,-95.712904,-2584.248408,-9781.858789
614.904460,-57.427742,-2201.396792,-9762.716208
614.906998,-114.855485,-880.558717,-9456.434915
614.909537,-210.568389,803.988394,-9628.718142
614.912075,57.427742,1167.697429,-9092.725880
614.914613,-172.283227,535.992262,-9150.153622
614.917151,-401.994197,-133.998066,-10030.712339
614.919690,-0.000000,-2086.541307,-8863.014910
614.922228,-19.142581,-3464.807125,-9590.432981
614.924766,-172.283227,-4000.799387,-10949.556218
614.927305,-38.285162,-2450.250342,-9858.429112
614.929843,287.138712,-229.710970,-8882.157491
614.932381,-0.000000,1244.267752,-9552.147819
614.934919,-153.140646,1722.832272,-9686.145885
614.937458,363.709035,746.560651,-8709.874264
614.939996,-382.851616,-708.275490,-9533.005238
614.942534,-172.283227,-2392.822600,-10758.130410
614.945073,-0.000000,-2718.246474,-9169.296203
614.947616,-210.568389,-2143.969050,-8977.870395
614.950160,-76.570323,-2105.683888,-10509.276859
614.952704,-153.140646,-1014.556782,-10336.993632
614.955248,-95.712904,344.566454,-8461.020714
614.957792,38.285162,210.568389,-9513.862658
614.960336,-229.710970,38.285162,-10528.419440
614.962880,-95.712904,-76.570323,-9533.005238
614.965423,38.285162,-516.849682,-8748.159426
614.967967,-133.998066,-1722.832272,-10011.569758
614.970511,-210.568389,-2239.681954,-10509.276859
614.973055,-38.285162,-2143.969050,-9245.866526
614.975599,-19.142581,-1990.828403,-9762.716208
614.978143,-153.140646,-918.843878,-10126.425243
614.980687,-114.855485,555.134843,-9418.149754
614.983230,95.712904,1416.550979,-9360.722011
614.985774,-38.285162,478.564520,-9092.725880
614.988318,-306.281293,-995.414202,-10049.854920
614.990862,-95.712904,-2029.113565,-9877.571693
614.993406,210.568389,-2928.814862,-8786.444587
614.995950,-421.136778,-2316.252277,-10394.421374
614.998493,-153.140646,-1378.265818,-10317.851051
615.001037,57.427742,114.855485,-8805.587168
615.003581,-133.998066,1052.841944,-9188.438784
615.006125,-0.000000,363.709035,-10356.136213
615.008669,-153.140646,-229.710970,-9494.720077
615.011213,153.140646,-1971.685822,-8729.016845
615.013757,-153.140646,-2756.531635,-10681.560086
615.016300,-421.136778,-1990.828403,-10432.706536
615.018844,57.427742,-1071.984525,-8422.735552
615.021388,-19.142581,-421.136778,-9647.860723
615.023932,-478.564520,-19.142581,-10490.134278
615.026476,-19.142581,19.142581,-9533.005238
615.029020,191.425808,-440.279358,-8671.589102
615.031564,-248.853550,-1167.697429,-10107.282662
615.034107,-153.140646,-1665.404530,-10317.851051
615.036651,19.142581,-1052.841944,-9092.725880
615.039195,-76.570323,-784.845813,-9265.009107
615.041739,-133.998066,-1110.269686,-9973.284597
615.044283,-0.000000,-957.129040,-10049.854920
615.046827,-153.140646,-497.707101,-9092.725880
615.049376,-38.285162,-1186.840010,-9762.716208
615.051925,-344.566454,-1091.127106,-10394.421374
615.054474,-57.427742,-440.279358,-9073.583299
615.057023,172.283227,-363.709035,-8958.727814
615.059572,-248.853550,-727.418070,-10107.282662
615.062121,-133.998066,-1167.697429,-10356.136213
615.064670,-57.427742,-1091.127106,-8786.444587
615.067219,-133.998066,-1320.838075,-9743.573627
615.069768,-172.283227,-1722.832272,-10375.278794
615.072318,-248.853550,-631.705166,-9418.149754
615.074867,-19.142581,287.138712,-9016.155557
615.077416,-19.142581,-76.570323,-9686.145885
615.079965,-153.140646,-861.416136,-9992.427178
615.082514,-19.142581,-1205.982590,-9399.007173
615.085063,-95.712904,-1837.687757,-9226.723946
615.087612,-153.140646,-1837.687757,-10566.704602
615.090161,-153.140646,-976.271621,-9552.147819
615.092710,-19.142581,-19.142581,-8901.300072
615.095259,-38.285162,-133.998066,-9475.577496
615.097809,-172.283227,-248.853550,-10298.708470
615.100358,-19.142581,-555.134843,-9073.583299
615.102907,-57.427742,-1397.408398,-9092.725880
615.105456,-172.283227,-1703.689691,-10202.995566
615.108005,-57.427742,-1320.838075,-10336.993632
615.110554,-95.712904,-287.138712,-8441.878133
615.113103,-57.427742,-191.425808,-9686.145885
615.115652,-133.998066,-880.558717,-10260.423309
615.118201,-382.851616,-1301.695494,-9494.720077
615.120750,-114.855485,-1875.972918,-9437.292334
615.123299,38.285162,-1990.828403,-10126.425243
615.125849,-363.709035,-631.705166,-10145.567824
615.128398,-19.142581,401.994197,-9169.296203
615.130947,-210.568389,287.138712,-8824.729749
615.133496,38.285162,-631.705166,-10317.851051
615.136045,-95.712904,-842.273555,-10298.708470
615.138594,-478.564520,-1263.410333,-8269.594906
615.141143,191.425808,-2316.252277,-10336.993632
615.143692,-0.000000,-1895.115499,-10432.706536
615.146241,-516.849682,-76.570323,-8843.872330
615.148790,363.709035,95.712904,-9245.866526
615.151342,-95.712904,-114.855485,-9877.571693
615.153894,-363.709035,-382.851616,-9934.999435
615.156446,19.142581,-1052.841944,-8882.157491
615.158998,-114.855485,-1971.685822,-9590.432981
615.161550,-248.853550,-2354.537438,-10643.274925
615.164102,-76.570323,-1033.699363,-9150.153622
615.166654,-19.142581,-114.855485,-8767.302006
615.169206,-76.570323,-172.283227,-9992.427178
615.171758,-229.710970,-76.570323,-10432.706536
615.174310,-19.142581,-459.421939,-8422.735552
615.176862,57.427742,-1550.549045,-9341.579430
615.179414,-497.707101,-1703.689691,-11102.696864
615.181966,-76.570323,-976.271621,-9647.860723
615.184518,95.712904,-421.136778,-8307.880067
615.187070,-0.000000,-689.132909,-9858.429112
615.189622,-229.710970,-918.843878,-10777.272990
615.192173,-76.570323,-899.701298,-8824.729749
615.194725,287.138712,-1703.689691,-9035.298138
615.197277,-440.279358,-1588.834206,-10719.845248
615.199829,-95.712904,-765.703232,-9590.432981
615.202381,19.142581,344.566454,-8614.161360
615.204933,-57.427742,-19.142581,-9724.431046
615.207485,-153.140646,-957.129040,-10547.562021
615.210037,-172.283227,-1014.556782,-9169.296203
615.212589,267.996131,-1856.830338,-9379.864592
615.215141,-401.994197,-1780.260014,-10202.995566
615.217693,-172.283227,-1244.267752,-10030.712339
615.220245,191.425808,-133.998066,-8863.014910
615.222797,38.285162,-57.427742,-9475.577496
615.225349,-287.138712,-631.705166,-10279.565890
615.227901,-57.427742,-1186.840010,-9609.575562
615.230453,478.564520,-1971.685822,-8671.589102
615.233005,-612.562586,-1665.404530,-10241.280728
615.235556,-133.998066,-1301.695494,-10872.985894
615.238108,-0.000000,-57.427742,-8212.167163
615.240660,-153.140646,38.285162,-9513.862658
615.243212,-38.285162,-574.277424,-10853.843314
615.245764,-172.283227,-459.421939,-8958.727814
615.248316,-114.855485,-1378.265818,-8786.444587
615.250868,-38.285162,-2239.681954,-10853.843314
615.253422,-363.709035,-1837.687757,-9973.284597
615.255975,-76.570323,-535.992262,-8518.448456
615.258529,76.570323,-76.570323,-10030.712339
615.261083,-306.281293,-38.285162,-9667.003304
615.263636,-95.712904,-440.279358,-9418.149754
615.266190,38.285162,-1186.840010,-9667.003304
615.268743,-287.138712,-1990.828403,-9628.718142
615.271297,-114.855485,-2182.254211,-10030.712339
615.273851,-95.712904,-1071.984525,-9686.145885
615.276404,38.285162,-153.140646,-9265.009107
615.278958,19.142581,-267.996131,-9801.001370
615.281511,-363.709035,-76.570323,-10088.140082
615.284065,-19.142581,-593.420005,-9092.725880
615.286619,19.142581,-1684.547110,-9399.007173
615.289172,-191.425808,-1799.402595,-10719.845248
615.291726,-172.283227,-899.701298,-9647.860723
615.294279,19.142581,-114.855485,-8537.591037
615.296833,-114.855485,-287.138712,-9992.427178
615.299387,-38.285162,-803.988394,-10317.851051
615.301940,-172.283227,-823.130974,-8882.157491
615.304494,-76.570323,-1588.834206,-9265.009107
615.307047,-210.568389,-1895.115499,-10662.417506
615.309601,-38.285162,-1244.267752,-9820.143950
615.312155,19.142581,-57.427742,-8767.302006
615.314708,-133.998066,-95.712904,-9973.284597
615.317262,-114.855485,-421.136778,-10145.567824
615.319815,38.285162,-803.988394,-8997.012976
615.322369,-0.000000,-1588.834206,-9475.577496
615.324923,-153.140646,-1722.832272,-10279.565890
615.327476,-172.283227,-1014.556782,-9877.571693
615.330030,-19.142581,-191.425808,-8595.018779
615.332583,-57.427742,-516.849682,-9418.149754
615.335137,-191.425808,-1148.554848,-10509.276859
615.337691,-363.709035,-1378.265818,-9820.143950
615.340244,-0.000000,-1588.834206,-9322.436850
615.342798,-344.566454,-1416.550979,-9609.575562
615.345352,-133.998066,-1033.699363,-10815.558152
615.347905,-57.427742,210.568389,-9303.294269
615.350459,-19.142581,95.712904,-8403.592971
615.353012,-172.283227,-784.845813,-11045.269122
615.355568,-95.712904,-727.418070,-9858.429112
615.358123,-0.000000,-1607.976787,-7752.745224
615.360679,-19.142581,-2029.113565,-10528.419440
615.363234,-191.425808,-1416.550979,-11255.837510
615.365790,-95.712904,-57.427742,-7982.456194
615.368345,267.996131,-19.142581,-9150.153622
615.370901,-153.140646,-478.564520,-10949.556218
615.373456,-172.283227,-880.558717,-9341.579430
615.376012,-57.427742,-1397.408398,-8652.446522
615.378567,-172.283227,-2029.113565,-10222.138147
615.381123,-172.283227,-1741.974853,-10758.130410
615.383678,-57.427742,-535.992262,-8422.735552
615.386234,-0.000000,-38.285162,-9399.007173
615.388789,-76.570323,-229.710970,-10145.567824
615.391345,-153.140646,-153.140646,-9552.147819
615.393900,-0.000000,-899.701298,-9131.011042
615.396456,19.142581,-2316.252277,-9743.573627
615.399011,-172.283227,-2258.824534,-10490.134278
615.401567,-210.568389,-765.703232,-9475.577496
615.404122,267.996131,-76.570323,-8882.157491
615.406678,-76.570323,-114.855485,-9724.431046
615.409233,-440.279358,-114.855485,-10356.136213
615.411789,38.285162,-440.279358,-9245.866526
615.414344,38.285162,-1646.261949,-9054.440718
615.416900,-382.851616,-2086.541307,-10413.563955
615.419455,-19.142581,-1684.547110,-10394.421374
615.422011,-19.142581,-401.994197,-8365.307810
615.424566,-172.283227,-421.136778,-9341.579430
615.427122,-133.998066,-612.562586,-10968.698798
615.429677,-76.570323,-325.423874,-8499.305875
615.432233,76.570323,-1091.127106,-8958.727814
615.434788,-210.568389,-1531.406464,-11045.269122
615.437344,-153.140646,-1033.699363,-9743.573627
615.439899,172.283227,-267.996131,-8365.307810
615.442455,-114.855485,-516.849682,-9571.290400
615.445010,-172.283227,-1148.554848,-10872.985894
615.447566,-19.142581,-1244.267752,-9016.155557
615.450121,306.281293,-1990.828403,-8977.870395
615.452677,-210.568389,-1818.545176,-10394.421374
615.455232,-478.564520,-708.275490,-10202.995566
615.457788,344.566454,210.568389,-8958.727814
615.460344,-76.570323,344.566454,-9035.298138
615.462900,-344.566454,114.855485,-10356.136213
615.465456,191.425808,-401.994197,-9801.001370
615.468011,-153.140646,-1856.830338,-8595.018779
615.470567,-153.140646,-2699.103893,-11121.839445
615.473123,-133.998066,-2354.537438,-10183.852986
615.475679,-114.855485,-516.849682,-8346.165229
615.478235,-0.000000,172.283227,-9934.999435
615.480791,-210.568389,114.855485,-10030.712339
615.483347,-133.998066,-38.285162,-9092.725880
615.485902,38.285162,-803.988394,-9092.725880
615.488458,-172.283227,-1856.830338,-10336.993632
615.491014,-344.566454,-2201.396792,-10011.569758
615.493570,708.275490,-2182.254211,-8537.591037
615.496126,-76.570323,-1263.410333,-9207.581365
615.498682,-574.277424,-631.705166,-10815.558152
615.501238,325.423874,-1033.699363,-9667.003304
615.503794,-153.140646,210.568389,-8461.020714
615.506349,-57.427742,-516.849682,-10490.134278
615.508905,-57.427742,-823.130974,-9609.575562
615.511461,-153.140646,38.285162,-9379.864592
615.514017,-19.142581,172.283227,-9973.284597
615.516573,-153.140646,-727.418070,-9169.296203
615.519129,382.851616,-1990.828403,-10930.413637
615.521685,-363.709035,-2373.680019,-10202.995566
615.524240,-478.564520,-2545.963246,-8250.452325
615.526796,210.568389,-2565.105827,-10356.136213
615.529352,-421.136778,133.998066,-10451.849117
615.531908,229.710970,1397.408398,-8250.452325
615.534464,-114.855485,976.271621,-9896.714274
615.537020,-325.423874,210.568389,-10298.708470
615.539576,19.142581,-593.420005,-8499.305875
615.542132,-172.283227,-2354.537438,-10107.282662
615.544687,-401.994197,-3139.383251,-10413.563955
615.547243,-19.142581,-1952.543242,-8786.444587
615.549799,-57.427742,-210.568389,-10030.712339
615.552355,-76.570323,382.851616,-9647.860723
615.554911,-344.566454,248.853550,-9265.009107
615.557467,95.712904,-478.564520,-10260.423309
615.559978,-57.427742,-1244.267752,-9131.011042
615.562489,-267.996131,-2373.680019,-9533.005238
615.565000,267.996131,-2335.394858,-10911.271056
615.567510,-363.709035,-114.855485,-8614.161360
615.570021,229.710970,-114.855485,-9303.294269
615.572532,-248.853550,-114.855485,-10853.843314
615.575043,-95.712904,95.712904,-9111.868461
615.577554,229.710970,-708.275490,-9035.298138
615.580065,-535.992262,-1263.410333,-10375.278794
615.582576,191.425808,-2048.256146,-9322.436850
615.585087,-172.283227,-765.703232,-9475.577496
615.587598,-114.855485,-555.134843,-9858.429112
615.590109,-57.427742,-1071.984525,-9494.720077
615.592620,-153.140646,-708.275490,-9896.714274
615.595131,153.140646,-899.701298,-9437.292334
615.597642,-229.710970,-1339.980656,-9360.722011
615.600153,-133.998066,-1512.263883,-10298.708470
615.602664,-95.712904,-612.562586,-9284.151688
615.605175,-114.855485,-133.998066,-9188.438784
615.607686,-0.000000,-765.703232,-10183.852986
615.610197,-191.425808,-669.990328,-9724.431046
615.612707,-57.427742,-593.420005,-9073.583299
615.615218,38.285162,-1588.834206,-9820.143950
615.617729,-363.709035,-1818.545176,-9743.573627
615.620240,-38.285162,-727.418070,-9456.434915
615.622751,-19.142581,-19.142581,-9418.149754
615.625262,-76.570323,-535.992262,-9379.864592
615.627773,-114.855485,-957.129040,-10068.997501
615.630284,-57.427742,-995.414202,-9322.436850
615.632795,19.142581,-1703.689691,-9303.294269
615.635306,-363.709035,-1627.119368,-10413.563955
615.637817,-0.000000,-937.986459,-9360.722011
615.640328,-19.142581,19.142581,-9284.151688
615.642839,-172.283227,-382.851616,-9762.716208
615.645350,-38.285162,-995.414202,-9973.284597
615.647861,-153.140646,-555.134843,-9073.583299
615.650372,76.570323,-1416.550979,-9647.860723
615.652883,-191.425808,-1607.976787,-9954.142016
615.655394,-38.285162,-1110.269686,-9533.005238
615.657904,-19.142581,191.425808,-9399.007173
615.660425,-133.998066,-114.855485,-9379.864592
615.662946,-0.000000,-976.271621,-9992.427178
615.665467,-133.998066,-1148.554848,-9686.145885
615.667988,-95.712904,-1684.547110,-9169.296203
615.670509,-19.142581,-2488.535504,-9762.716208
615.673030,-363.709035,-1569.691626,-10260.423309
615.675550,-38.285162,-76.570323,-9054.440718
615.678071,-114.855485,440.279358,-9437.292334
615.680592,-172.283227,0.000000,-10260.423309
615.683113,38.285162,-153.140646,-9667.003304
615.685634,-172.283227,-937.986459,-8939.585234
615.688155,-133.998066,-2258.824534,-10451.849117
615.690675,-287.138712,-2163.111630,-9686.145885
615.693196,-38.285162,-574.277424,-9265.009107
615.695717,-172.283227,-133.998066,-9801.001370
615.698238,-19.142581,-689.132909,-9743.573627
615.700759,133.998066,-1091.127106,-9494.720077
615.703280,-133.998066,-1071.984525,-9628.718142
615.705800,-172.283227,-1607.976787,-9667.003304
615.708321,-0.000000,-1531.406464,-9934.999435
615.710842,-172.283227,-133.998066,-9494.720077
615.713363,-0.000000,114.855485,-9303.294269
615.715884,-114.855485,-76.570323,-9877.571693
615.718405,-114.855485,-363.709035,-10011.569758
615.720925,229.710970,-1167.697429,-9188.438784
615.723446,-248.853550,-2201.396792,-9590.432981
615.725967,-114.855485,-2316.252277,-10088.140082
615.728488,-191.425808,-708.275490,-9475.577496
615.731009,-19.142581,497.707101,-9341.579430
615.733530,-172.283227,57.427742,-9418.149754
615.736050,-95.712904,-593.420005,-9877.571693
615.738571,-19.142581,-1071.984525,-9533.005238
615.741092,-210.568389,-2067.398726,-9341.579430
615.743613,-114.855485,-2450.250342,-10183.852986
615.746134,-172.283227,-1052.841944,-9667.003304
615.748655,-0.000000,0.000000,-9092.725880
615.751175,-172.283227,-133.998066,-9896.714274
615.753696,-133.998066,-421.136778,-10011.569758
615.756217,-38.285162,-344.566454,-9169.296203
615.758738,-0.000000,-1454.836141,-9418.149754
615.761266,-191.425808,-1856.830338,-10107.282662
615.763795,-172.283227,-1512.263883,-9781.858789
615.766324,-19.142581,-325.423874,-9284.151688
615.768852,-172.283227,-287.138712,-9628.718142
615.771381,-114.855485,-631.705166,-9954.142016
615.773909,-172.283227,-861.416136,-9609.575562
615.776438,-114.855485,-1607.976787,-9035.298138
615.778966,-95.712904,-2182.254211,-10164.710405
615.781495,-267.996131,-1110.269686,-9820.143950
615.784023,-76.570323,-76.570323,-9111.868461
615.786552,19.142581,-248.853550,-9724.431046
615.789080,-153.140646,-363.709035,-9858.429112
615.791609,-19.142581,-133.998066,-9590.432981
615.794137,19.142581,-957.129040,-9169.296203
615.796666,-153.140646,-1875.972918,-9992.427178
615.799194,-133.998066,-2009.970984,-9801.001370
615.801723,-114.855485,-440.279358,-9341.579430
615.804251,-95.712904,-153.140646,-9781.858789
615.806780,-114.855485,-631.705166,-9743.573627
615.809308,-133.998066,-669.990328,-9781.858789
615.811837,-19.142581,-957.129040,-9188.438784
615.814366,-325.423874,-1971.685822,-9839.286531
615.816894,-76.570323,-2163.111630,-10145.567824
615.819423,-153.140646,-516.849682,-9131.011042
615.821951,19.142581,-133.998066,-9647.860723
615.824480,-210.568389,-153.140646,-9915.856854
615.827008,-0.000000,-401.994197,-9552.147819
615.829537,-19.142581,-669.990328,-9399.007173
615.832065,-210.568389,-1512.263883,-9954.142016
615.834594,-153.140646,-1856.830338,-9915.856854
615.837122,-114.855485,-727.418070,-9513.862658
615.839651,-172.283227,172.283227,-9284.151688
615.842179,-76.570323,-516.849682,-9781.858789
615.844708,-76.570323,-937.986459,-9877.571693
615.847236,-38.285162,-1186.840010,-9111.868461
615.849765,-95.712904,-1933.400661,-9705.288466
615.852293,-38.285162,-1971.685822,-10260.423309
615.854822,-133.998066,-631.705166,-9111.868461
615.857351,-38.285162,38.285162,-9686.145885
615.859879,-76.570323,-191.425808,-9724.431046
615.862415,-153.140646,-497.707101,-9705.288466
615.864950,-38.285162,-784.845813,-9533.005238
615.867486,-95.712904,-1684.547110,-9820.143950
615.870022,-76.570323,-2048.256146,-9724.431046
615.872557,-172.283227,-1033.699363,-9801.001370
615.875093,-114.855485,229.710970,-9322.436850
615.877629,-114.855485,-76.570323,-9341.579430
615.880164,-172.283227,-765.703232,-10241.280728
615.882700,-0.000000,-1225.125171,-9284.151688
615.885236,-19.142581,-2029.113565,-9456.434915
615.887771,-210.568389,-2220.539373,-10126.425243
615.890307,-38.285162,-1148.554848,-9724.431046
615.892843,-57.427742,363.709035,-9379.864592
615.895378,-57.427742,191.425808,-9590.432981
615.897914,38.285162,-612.562586,-9628.718142
615.900450,-114.855485,-708.275490,-9667.003304
615.902985,-0.000000,-1818.545176,-9552.147819
615.905521,-401.994197,-2048.256146,-9686.145885
615.908057,-57.427742,-1914.258080,-10011.569758
615.910592,-153.140646,-325.423874,-9533.005238
615.913128,-38.285162,267.996131,-9513.862658
615.915664,-95.712904,-229.710970,-9762.716208
615.918199,-153.140646,-287.138712,-9628.718142
615.920735,38.285162,-861.416136,-8901.300072
615.923271,-382.851616,-1875.972918,-10049.854920
615.925806,-0.000000,-2086.541307,-10126.425243
615.928342,-382.851616,-612.562586,-8824.729749
615.930878,114.855485,-650.847747,-10049.854920
615.933413,-172.283227,-497.707101,-9820.143950
615.935949,-172.283227,-19.142581,-9341.579430
615.938485,-0.000000,-172.283227,-9628.718142
615.941020,-153.140646,-1225.125171,-9552.147819
615.943556,-76.570323,-2067.398726,-9820.143950
615.946092,-95.712904,-937.986459,-9820.143950
615.948627,-133.998066,-114.855485,-9092.725880
615.951163,-19.142581,-708.275490,-9360.722011
615.953699,-191.425808,-899.701298,-10509.276859
615.956234,133.998066,-1148.554848,-8920.442653
615.958770,-306.281293,-1627.119368,-9820.143950
615.961306,-133.998066,-1799.402595,-10279.565890
615.963846,-38.285162,-497.707101,-9035.298138
615.966387,-38.285162,248.853550,-9571.290400
615.968928,-172.283227,-478.564520,-9839.286531
615.971469,-38.285162,-899.701298,-9475.577496
615.974010,-95.712904,-727.418070,-9552.147819
615.976550,-172.283227,-1531.406464,-9667.003304
615.979091,-95.712904,-2048.256146,-9973.284597
615.981632,-153.140646,-1129.412267,-9801.001370
615.984173,-172.283227,153.140646,-9226.723946
615.986714,-38.285162,-382.851616,-9456.434915
615.989255,-95.712904,-1225.125171,-10260.423309
615.991795,-229.710970,-995.414202,-9207.581365
615.994336,57.427742,-1952.543242,-9781.858789
615.996877,-172.283227,-1895.115499,-9915.856854
615.999418,-76.570323,-746.560651,-9628.718142
616.001959,-38.285162,899.701298,-9590.432981
616.004500,-114.855485,612.562586,-9399.007173
616.007040,-0.000000,-650.847747,-9781.858789
616.009581,-191.425808,-746.560651,-9705.288466
616.012122,-19.142581,-1933.400661,-8652.446522
616.014663,-114.855485,-2679.961312,-10260.423309
616.017204,-172.283227,-2124.826469,-9896.714274
616.019744,-57.427742,-229.710970,-9188.438784
616.022285,-19.142581,363.709035,-9781.858789
616.024826,-153.140646,-19.142581,-9801.001370
616.027367,-57.427742,-382.851616,-9877.571693
616.029908,-133.998066,-899.701298,-9284.151688
616.032449,-153.140646,-2641.676150,-9628.718142
616.034989,-153.140646,-2258.824534,-10241.280728
616.037530,-0.000000,-650.847747,-9150.153622
616.040071,-153.140646,0.000000,-9533.005238
616.042612,-114.855485,-57.427742,-10088.140082
616.045153,-172.283227,191.425808,-9762.716208
616.047693,-76.570323,-382.851616,-9092.725880
616.050234,-114.855485,-1761.117434,-10107.282662
616.052775,-76.570323,-2239.681954,-9571.290400
616.055316,-172.283227,-1033.699363,-9437.292334
616.057857,-38.285162,-382.851616,-9781.858789
616.060398,-38.285162,-765.703232,-9245.866526
