#time,accel_x,accel_y,accel_z
788.972878,-76.570323,-880.558717,-9667.003304
788.975537,-38.285162,-861.416136,-9743.573627
788.978197,-38.285162,-899.701298,-9571.290400
788.980856,-133.998066,-880.558717,-9667.003304
788.983515,-38.285162,-957.129040,-9571.290400
788.986174,-114.855485,-880.558717,-9686.145885
788.988833,-114.855485,-899.701298,-9647.860723
788.991493,-114.855485,-880.558717,-9571.290400
788.994152,-0.000000,-861.416136,-9705.288466
788.996811,-114.855485,-937.986459,-9743.573627
788.999470,-57.427742,-880.558717,-9571.290400
789.002129,-57.427742,-899.701298,-9628.718142
789.004789,-95.712904,-918.843878,-9743.573627
789.007448,-76.570323,-937.986459,-9628.718142
789.010107,-95.712904,-880.558717,-9571.290400
789.012766,-95.712904,-899.701298,-9686.145885
789.015425,-76.570323,-1014.556782,-9533.005238
789.018085,-114.855485,-899.701298,-9513.862658
789.020744,325.423874,-1684.547110,-9322.436850
789.023403,-76.570323,-2718.246474,-8786.444587
789.026062,-555.134843,-4689.932296,-10088.140082
789.028721,114.855485,-9265.009107,-8882.157491
789.031381,-133.998066,-10547.562021,-9973.284597
789.034040,-459.421939,-9954.142016,-9437.292334
789.036699,612.562586,-4594.219392,-9494.720077
789.039358,-1722.832272,2354.537438,-12289.536874
789.042017,957.129040,1454.836141,-6412.764568
789.044677,-76.570323,-918.843878,-8633.303941
789.046912,267.996131,-2852.244539,-12327.822035
789.049148,-937.986459,-4039.084549,-8958.727814
789.051384,133.998066,-10260.423309,-6853.043926
789.053620,-19.142581,-7446.463931,-13112.667848
789.055856,-765.703232,-3464.807125,-10604.989763
789.058091,133.998066,-5091.926493,-5417.350366
789.060327,38.285162,-861.416136,-7408.178770
789.062563,1186.840010,1914.258080,-7982.456194
789.064799,-421.136778,4843.072942,-12346.964616
789.067034,-229.710970,2373.680019,-9341.579430
789.069270,-38.285162,-2373.680019,-7542.176835
789.071506,1531.406464,-6393.621987,-10815.558152
789.073742,-4077.369710,-2928.814862,-11562.118803
789.075978,1780.260014,-3273.381317,-6987.041992
789.078213,995.414202,-1703.689691,-9513.862658
789.080449,-2124.826469,3177.668413,-12997.812363
789.082685,1205.982590,1703.689691,-7925.028451
789.084921,-516.849682,937.986459,-9131.011042
789.087157,-669.990328,-689.132909,-10643.274925
789.089392,1780.260014,-3043.670347,-7905.885870
789.091628,-2029.113565,-1244.267752,-10241.280728
789.093864,2373.680019,-3464.807125,-9054.440718
789.096100,-3120.240670,325.423874,-8173.882002
789.098335,1110.269686,-1320.838075,-14088.939469
789.100571,1761.117434,-1473.978722,-4460.221326
789.102807,-593.420005,1531.406464,-8997.012976
789.105043,-2048.256146,2277.967115,-14835.500120
789.107279,1990.828403,-267.996131,-2469.392923
789.109514,-803.988394,-497.707101,-13265.808494
789.111750,-803.988394,-3503.092286,-12959.527202
789.113986,899.701298,-4938.785846,-2852.244539
789.116222,382.851616,-3215.953574,-13189.238171
789.118458,-1129.412267,918.843878,-10911.271056
789.120693,421.136778,1493.121302,-7044.469734
789.122929,19.142581,995.414202,-10336.993632
789.125165,-1071.984525,1435.693560,-11006.983960
789.127401,803.988394,-1607.976787,-6795.616184
789.129636,-1473.978722,-2009.970984,-10298.708470
789.131872,2239.681954,-4479.363907,-11294.122672
789.134108,2201.396792,-2354.537438,-3828.516160
789.136516,-6049.055533,5819.344563,-20807.985330
789.138931,172.283227,612.562586,-6546.762634
789.141347,5627.918755,-5302.494882,-5359.922624
789.143762,-3866.801322,114.855485,-8843.872330
789.146178,-1493.121302,-1282.552914,-18319.449826
789.148593,3847.658741,-4096.512291,-880.558717
789.151009,-1837.687757,-267.996131,-9628.718142
789.153424,-1818.545176,-76.570323,-18625.731118
789.155840,1071.984525,-1435.693560,-3311.666478
789.158255,1071.984525,-803.988394,-6317.051664
789.160670,-1167.697429,899.701298,-16328.621422
789.163086,1627.119368,-765.703232,-8805.587168
789.165501,2201.396792,-976.271621,-3292.523898
789.167917,-4977.071008,1818.545176,-13954.941403
789.170332,1741.974853,-4517.649069,-14222.937534
789.172748,-3694.518094,76.570323,-5474.778109
789.175163,2622.533570,-5264.209720,-6489.334891
789.177579,1148.554848,-4613.361973,-17285.750462
789.179994,-2316.252277,2029.113565,-7293.323285
789.182410,3311.666478,-38.285162,-6240.481341
789.184825,-2220.539373,3311.666478,-12844.671717
789.187241,-325.423874,1110.269686,-10700.702667
789.189656,1703.689691,-1359.123237,-3579.662610
789.192072,-1186.840010,-459.421939,-14969.498186
789.194487,-918.843878,-1588.834206,-9743.573627
789.196903,287.138712,-4115.654872,-7657.032320
789.199318,-1071.984525,-2105.683888,-15352.349802
789.201734,861.416136,-1627.119368,-5091.926493
789.204149,-1205.982590,976.271621,-8767.302006
789.206565,-918.843878,1435.693560,-14682.359474
789.208980,2507.678085,-1282.552914,-2699.103893
789.211396,-2316.252277,650.847747,-13380.663979
789.213811,344.566454,-2354.537438,-10872.985894
789.216226,306.281293,-2718.246474,-6125.625856
789.218642,-325.423874,-2584.248408,-9724.431046
789.221057,133.998066,-899.701298,-12806.386555
789.223473,-363.709035,76.570323,-5608.776174
789.225888,2220.539373,-1473.978722,-10566.704602
789.228304,-4613.361973,3215.953574,-16022.340130
789.230719,3407.379382,-1990.828403,-842.273555
789.233222,-1971.685822,-746.560651,-13629.517530
789.235725,-497.707101,-1990.828403,-11657.831707
789.238227,937.986459,-1359.123237,-4307.080680
789.240730,-2009.970984,133.998066,-14931.213024
789.243233,2584.248408,-4153.940034,-9150.153622
789.245735,-1071.984525,-842.273555,-7848.458128
789.248238,325.423874,-1225.125171,-11619.546546
789.250740,-1818.545176,1512.263883,-6393.621987
789.253243,1110.269686,-631.705166,-10815.558152
789.255746,-172.283227,287.138712,-16462.619488
789.258248,133.998066,-191.425808,-612.562586
789.260751,-95.712904,-3924.229064,-13706.087853
789.263254,861.416136,-3369.094221,-12212.966550
789.265756,-2545.963246,1167.697429,-4307.080680
789.268259,2316.252277,-1741.974853,-12576.675586
789.270762,-2450.250342,842.273555,-6297.909083
789.273264,1148.554848,-95.712904,-9418.149754
789.275767,-2009.970984,1703.689691,-12787.243974
789.278269,1378.265818,-2201.396792,-7580.461997
789.280772,1952.543242,-3388.236802,-8614.161360
789.283275,-3330.809059,995.414202,-10681.560086
789.285777,2584.248408,-2182.254211,-10643.274925
789.288280,-3579.662610,1205.982590,-8671.589102
789.290783,2105.683888,-3503.092286,-12480.962682
789.293285,-267.996131,-1588.834206,-7389.036189
789.295788,-401.994197,-727.418070,-9207.581365
789.298291,899.701298,-1512.263883,-11083.554283
789.300793,765.703232,-880.558717,-6297.909083
789.303296,-2220.539373,1282.552914,-14873.785282
789.305798,937.986459,-995.414202,-8173.882002
789.308301,-1052.841944,-325.423874,-7523.034254
789.310804,-1148.554848,-95.712904,-14950.355605
789.313306,1741.974853,-3483.949706,-5876.772306
789.315809,153.140646,-2335.394858,-8212.167163
789.318312,-784.845813,-1014.556782,-15850.056902
789.320814,-555.134843,-899.701298,-4843.072942
789.323317,2220.539373,-1952.543242,-9322.436850
789.325820,-1895.115499,325.423874,-15773.486579
789.328322,899.701298,114.855485,-899.701298
789.330825,-38.285162,-133.998066,-14318.650438
789.333368,-1914.258080,1493.121302,-11274.980091
789.335912,2794.816797,-3866.801322,-4613.361973
789.338455,-2852.244539,-1512.263883,-11504.691061
789.340999,153.140646,-2009.970984,-12940.384621
789.343542,2124.826469,-2048.256146,-3751.945837
789.346086,-3905.086483,3215.953574,-12844.671717
789.348629,4249.652938,-2545.963246,-8001.598774
789.351173,-3254.238736,1339.980656,-6202.196179
789.353716,669.990328,-2909.672282,-19314.864027
789.356260,1512.263883,-3254.238736,-2833.101958
789.358803,-708.275490,-382.851616,-5991.627790
789.361347,2086.541307,-1875.972918,-20903.698234
789.363891,-3101.098090,3177.668413,-995.414202
789.366434,1837.687757,-1091.127106,-8671.589102
789.368978,-880.558717,-2373.680019,-21018.553718
789.371521,-267.996131,-1837.687757,-382.851616
789.374065,2392.822600,-3349.951640,-7580.461997
789.376608,-5264.209720,2718.246474,-21516.260819
789.379152,4153.940034,-1110.269686,593.420005
789.381695,-3924.229064,2699.103893,-12193.823970
789.384239,3024.527766,-3215.953574,-12270.394293
789.386782,-689.132909,-1799.402595,-1722.832272
789.389326,229.710970,-2316.252277,-14376.078181
789.391869,574.277424,-1263.410333,-10949.556218
789.394413,-421.136778,1339.980656,-4632.504554
789.396956,38.285162,0.000000,-13495.519464
789.399500,-382.851616,-478.564520,-10547.562021
789.402043,306.281293,-1454.836141,-5589.633594
789.404587,421.136778,-2833.101958,-12155.538808
789.407130,-516.849682,-1722.832272,-10298.708470
789.409674,1071.984525,-1033.699363,-4211.367776
789.412217,-3139.383251,1780.260014,-17056.039493
789.414779,1397.408398,-803.988394,-6202.196179
789.417340,-1588.834206,229.710970,-6680.760699
789.419901,1493.121302,-2392.822600,-15735.201418
789.422463,-267.996131,-1052.841944,-2411.965181
789.425024,-440.279358,-574.277424,-9628.718142
789.427585,95.712904,-1397.408398,-16060.625291
789.430147,-842.273555,-76.570323,-3311.666478
789.432708,1071.984525,-2201.396792,-11294.122672
789.435269,-861.416136,-1454.836141,-13380.663979
789.437830,229.710970,-363.709035,-3177.668413
789.440392,880.558717,-1110.269686,-12729.816232
789.442953,-1952.543242,784.845813,-12557.533005
789.445514,2392.822600,-2009.970984,-2909.672282
789.448076,-4823.930362,210.568389,-14108.082050
789.450637,-746.560651,-2029.113565,-6278.766502
789.453198,1033.699363,-3311.666478,-18242.879502
789.455759,2143.969050,516.849682,-2871.387120
789.458321,-823.130974,3215.953574,-7829.315547
789.460882,937.986459,-172.283227,-24119.651808
789.463443,-803.988394,842.273555,-1205.982590
789.466005,172.283227,-2737.389054,-5130.211654
789.468566,784.845813,-4613.361973,-18147.166598
789.471127,-995.414202,-1320.838075,-8250.452325
789.473689,95.712904,-631.705166,-2469.392923
789.476250,516.849682,-1780.260014,-19314.864027
789.478811,-1818.545176,363.709035,-8537.591037
789.481372,2565.105827,-1780.260014,-593.420005
789.483934,-1990.828403,401.994197,-18300.307245
789.486495,-1359.123237,1550.549045,-8384.450390
789.489056,2431.107762,-1359.123237,-5493.920690
789.491618,-440.279358,-861.416136,-12251.251712
789.494179,-4479.363907,-995.414202,-14490.933666
789.496740,6144.768437,-6929.614250,976.271621
789.499302,-3445.664544,-689.132909,-14701.502054
789.501863,-1531.406464,746.560651,-13859.228499
789.504424,4019.941968,-784.845813,-1416.550979
789.506985,-2009.970984,2718.246474,-11485.548480
789.509547,-1741.974853,1091.127106,-15639.488514
789.512108,2469.392923,-3292.523898,-4766.502619
789.514669,-1244.267752,-2699.103893,-5608.776174
789.517241,727.418070,-3617.947771,-16366.906584
789.519812,-650.847747,-899.701298,-9399.007173
789.522384,-1244.267752,1110.269686,-6355.336826
789.524956,1818.545176,-1684.547110,-15160.923994
789.527527,-2048.256146,1071.984525,-6125.625856
789.530099,-995.414202,535.992262,-8997.012976
789.532670,4670.789715,-3120.240670,-8633.303941
789.535242,-2009.970984,306.281293,-9762.716208
789.537813,-516.849682,-784.845813,-7618.747158
789.540385,2718.246474,-3713.660675,-13763.515595
789.542956,-3235.096155,765.703232,-8212.167163
789.545528,3905.086483,-3139.383251,-7867.600709
789.548100,1205.982590,-172.283227,-13935.798822
789.550671,-6221.338760,5895.914886,3637.090352
789.553243,5953.342629,-6412.764568,-21975.682758
789.555814,-4804.787781,689.132909,-10777.272990
789.558386,-2067.398726,-1435.693560,-976.271621
789.560957,5111.069074,-5838.487144,-13399.806560
789.563529,-4153.940034,1244.267752,-13993.226565
789.566100,1607.976787,191.425808,-689.132909
789.568672,995.414202,-306.281293,-13820.943338
789.571244,-2852.244539,1627.119368,-13342.378818
789.573815,1818.545176,-2297.109696,-4594.219392
789.576387,-1301.695494,-1167.697429,-12806.386555
789.578958,248.853550,-2756.531635,-10547.562021
789.581530,2526.820666,-1856.830338,-6278.766502
789.584101,-3254.238736,1378.265818,-10049.854920
789.586673,1416.550979,-1531.406464,-10853.843314
789.589244,-1148.554848,-1531.406464,-10107.282662
789.591816,3292.523898,-3751.945837,-5915.057467
789.594387,-5225.924558,2469.392923,-16902.898846
789.596959,2641.676150,-516.849682,-1722.832272
789.599531,593.420005,-516.849682,-14452.648504
789.602102,-3273.381317,1990.828403,-10068.997501
789.604674,3407.379382,-4249.652938,-8786.444587
789.607245,-2373.680019,-1378.265818,-8231.309744
789.609817,899.701298,-2297.109696,-11753.544611
789.612388,-995.414202,-1110.269686,-9054.440718
789.614960,-650.847747,-57.427742,-9513.862658
789.617531,2143.969050,-1665.404530,-12212.966550
789.620105,-153.140646,1454.836141,-5685.346498
789.622678,-1301.695494,382.851616,-12040.683323
789.625251,1167.697429,-2545.963246,-8709.874264
789.627824,4709.074877,-4919.643266,-6508.477472
789.630397,-7063.612315,3311.666478,-19755.143386
789.632970,-1588.834206,3235.096155,-4383.651003
789.635543,4364.508422,-2909.672282,-10643.274925
789.638116,-957.129040,-1761.117434,-5168.496816
789.640689,-1359.123237,-1875.972918,-17802.600144
789.643262,2890.529701,-3081.955509,19.142581
789.645835,-3235.096155,306.281293,-15065.211090
789.648408,612.562586,-1493.121302,-10202.995566
789.650981,765.703232,-325.423874,-5800.201982
789.653554,-1914.258080,1531.406464,-15180.066574
789.656127,1895.115499,-1339.980656,-6967.899411
789.658700,-1473.978722,631.705166,-9131.011042
789.661273,153.140646,-38.285162,-8748.159426
789.663846,1091.127106,-1952.543242,-12404.392358
789.666419,-2431.107762,-344.566454,-7121.040058
789.668992,650.847747,-3388.236802,-10987.841379
789.671565,-191.425808,-1952.543242,-11562.118803
789.674138,2048.256146,-3062.812928,-3847.658741
789.676711,-2545.963246,861.416136,-15926.627226
789.679284,631.705166,650.847747,-6106.483275
789.681857,-19.142581,-57.427742,-10432.706536
789.684431,306.281293,-248.853550,-13323.236237
789.687004,95.712904,-861.416136,-2928.814862
789.689577,191.425808,-2603.390989,-16960.326589
789.692150,-344.566454,-1665.404530,-8039.883936
789.694723,689.132909,-1531.406464,-5838.487144
789.697296,-976.271621,-516.849682,-15888.342064
789.699869,-267.996131,-631.705166,-6604.190376
789.702442,1263.410333,-1033.699363,-8575.876198
789.705015,-2833.101958,2297.109696,-11485.548480
789.707588,3349.951640,-2699.103893,-7503.891674
789.710161,-2622.533570,95.712904,-10222.138147
789.712734,95.712904,-3139.383251,-9992.427178
789.715307,325.423874,-3292.523898,-12404.392358
789.717880,-191.425808,-1512.263883,-5283.352301
789.720453,976.271621,-631.705166,-11734.402030
789.723024,-1148.554848,2048.256146,-8901.300072
789.725595,918.843878,-478.564520,-6317.051664
789.728166,-2105.683888,1741.974853,-11619.546546
789.730737,-612.562586,669.990328,-11408.978157
789.733308,1703.689691,-2660.818731,-6087.340694
789.735879,-1856.830338,-1569.691626,-10413.563955
789.738450,1263.410333,-3158.525832,-12327.822035
789.741020,-1052.841944,-535.992262,-4134.797453
789.743591,-2163.111630,535.992262,-14605.789150
789.746162,1914.258080,-1780.260014,-8001.598774
789.748733,574.277424,-1607.976787,-9265.009107
789.751304,-1091.127106,0.000000,-9169.296203
789.753875,1014.556782,-823.130974,-10145.567824
789.756446,-478.564520,497.707101,-9571.290400
789.759017,-172.283227,-57.427742,-10528.419440
789.761588,-325.423874,-363.709035,-9743.573627
789.764159,229.710970,-784.845813,-6163.911018
789.766730,-2201.396792,4077.369710,-13265.808494
789.769301,2622.533570,3905.086483,-7235.895542
789.771872,-2431.107762,7446.463931,-10470.991698
789.774442,1244.267752,401.994197,-9552.147819
789.777013,-497.707101,2009.970984,-8384.450390
789.779584,-210.568389,1205.982590,-10604.989763
789.782155,-57.427742,-497.707101,-10662.417506
789.784726,-555.134843,382.851616,-8441.878133
789.787297,-631.705166,2048.256146,-8480.163294
789.789868,574.277424,2163.111630,-14644.074312
789.792439,-267.996131,5015.356170,-5723.631659
789.795010,153.140646,4287.938099,-10336.993632
789.797581,57.427742,1895.115499,-12174.681389
789.800152,-363.709035,1282.552914,-6355.336826
789.802723,57.427742,-210.568389,-12825.529136
789.805294,-0.000000,-1091.127106,-10451.849117
789.807865,-516.849682,-38.285162,-7771.887805
789.810435,38.285162,-555.134843,-10930.413637
789.813006,-535.992262,-248.853550,-11083.554283
789.815577,421.136778,1837.687757,-8441.878133
789.818148,267.996131,5340.780043,-9743.573627
789.820719,-38.285162,9475.577496,-11274.980091
789.823290,784.845813,9647.860723,-6470.192310
789.825860,-593.420005,7408.178770,-11887.542677
789.828430,-708.275490,2086.541307,-14069.796888
789.831000,440.279358,-4651.647134,-3101.098090
789.833570,-899.701298,-3101.098090,-13514.662045
789.836140,95.712904,-3483.949706,-12021.540742
789.838710,-1378.265818,57.427742,-4307.080680
789.841280,1359.123237,4460.221326,-14931.213024
789.843851,-1244.267752,8403.592971,-5627.918755
789.846421,650.847747,7293.323285,-7121.040058
789.848991,-19.142581,6585.047795,-15601.203352
789.851561,-1148.554848,899.701298,-6412.764568
789.854131,880.558717,-7733.602643,-8422.735552
789.856701,-976.271621,-9647.860723,-12806.386555
789.859271,918.843878,-9092.725880,-7886.743290
789.861841,-248.853550,-4536.791650,-8997.012976
789.864411,344.566454,1990.828403,-13055.240106
789.866981,-1454.836141,7752.745224,-7810.172966
789.869551,1129.412267,4460.221326,-9360.722011
789.872121,-76.570323,3694.518094,-9341.579430
789.874691,-210.568389,1148.554848,-9265.009107
789.877261,784.845813,-5091.926493,-9418.149754
789.879831,-516.849682,-8288.737486,-9992.427178
789.882401,363.709035,-6853.043926,-7235.895542
789.884972,-1091.127106,-1397.408398,-13476.376883
789.887542,363.709035,325.423874,-10413.563955
789.890112,172.283227,3235.096155,-3694.518094
789.892682,669.990328,4977.071008,-13208.380752
789.895252,-1435.693560,5819.344563,-10911.271056
789.897822,1761.117434,-1225.125171,-6412.764568
789.900392,-1225.125171,-3885.943902,-11313.265253
789.902962,995.414202,-5340.780043,-13016.954944
789.905532,-3292.523898,-4019.941968,-2813.959378
789.908102,3598.805190,-8097.311678,-12021.540742
789.910672,-1512.263883,191.425808,-13610.374949
789.913242,-1033.699363,4192.225195,-6431.907149
789.915812,3177.668413,1071.984525,-10298.708470
789.918382,-2756.531635,3962.514226,-8078.169098
789.920952,1722.832272,-689.132909,-8250.452325
789.923522,823.130974,-3196.810994,-8748.159426
789.926093,-1914.258080,-3962.514226,-11734.402030
789.928659,1129.412267,-5723.631659,-9590.432981
789.931225,-1320.838075,-3235.096155,-9494.720077
789.933792,-0.000000,-1301.695494,-12710.673651
789.936358,-191.425808,-535.992262,-6202.196179
789.938925,-880.558717,2143.969050,-9284.151688
789.941491,2775.674216,2622.533570,-13667.802691
789.944058,-3751.945837,5666.203917,-3503.092286
789.946624,3483.949706,-3005.385186,-15180.066574
789.949191,-3694.518094,-287.138712,-9552.147819
789.951757,957.129040,-3924.229064,-2220.539373
789.954324,2641.676150,-8269.594906,-16481.762069
789.956890,-2143.969050,-2354.537438,-6661.618118
789.959457,3273.381317,-1550.549045,-7235.895542
789.962023,-2124.826469,3541.377448,-13859.228499
789.964590,-689.132909,3273.381317,-9743.573627
789.967156,2603.390989,19.142581,-4632.504554
789.969723,-1799.402595,1014.556782,-10949.556218
789.972289,2277.967115,-3388.236802,-13744.373014
789.974856,976.271621,-3005.385186,-4173.082614
789.977422,-5589.633594,421.136778,-9437.292334
789.979989,497.707101,-5187.639397,-23296.520834
789.982555,3273.381317,-5321.637462,-2660.818731
789.985122,-1761.117434,861.416136,-3407.379382
789.987688,4211.367776,133.998066,-13859.228499
789.990255,-899.701298,3694.518094,-9111.868461
789.992821,-2201.396792,1569.691626,-10662.417506
789.995388,363.709035,325.423874,-2756.531635
789.997954,1550.549045,-4058.227130,-16520.047230
790.000521,-2431.107762,-2756.531635,-7599.604578
790.003087,1818.545176,-5570.491013,-5876.772306
790.005654,-516.849682,-2603.390989,-13840.085918
790.008220,-1493.121302,2067.398726,-9245.866526
790.010787,1684.547110,-172.283227,-8882.157491
790.013353,-1665.404530,2143.969050,-9724.431046
790.015920,-1033.699363,-114.855485,-10011.569758
790.018486,3139.383251,-2622.533570,-10738.987829
790.021053,-1703.689691,344.566454,-10011.569758
790.023619,-1875.972918,-172.283227,-10183.852986
790.026186,1990.828403,-2660.818731,-6776.473603
790.028752,-784.845813,-2909.672282,-11791.829773
790.031316,631.705166,-2469.392923,-9973.284597
790.033879,-421.136778,-1071.984525,-4287.938099
790.036443,918.843878,-459.421939,-13074.382686
790.039006,-1741.974853,2909.672282,-10241.280728
790.041570,995.414202,325.423874,-7427.321350
790.044134,-306.281293,-535.992262,-10834.700733
790.046697,-287.138712,-2813.959378,-10853.843314
790.049261,1990.828403,-4613.361973,-3866.801322
790.051824,-3120.240670,-2373.680019,-12748.958813
790.054388,1244.267752,-2048.256146,-16118.053034
790.056951,-1550.549045,4019.941968,1875.972918
790.059515,-650.847747,1493.121302,-18855.442088
790.062078,-555.134843,1895.115499,-8288.737486
790.064642,3120.240670,-2469.392923,-344.566454
790.067205,-727.418070,-3235.096155,-19755.143386
790.069769,-440.279358,-535.992262,-4039.084549
790.072332,2335.394858,-4230.510357,-4268.795518
790.074896,-4211.367776,1569.691626,-22301.106632
790.077459,3924.229064,-2201.396792,-3349.951640
790.080023,-2890.529701,2354.537438,-1952.543242
790.082586,440.279358,899.701298,-23219.950510
790.085150,1320.838075,57.427742,-5551.348432
790.087713,-3330.809059,784.845813,-2450.250342
790.090277,3215.953574,-6278.766502,-22626.530506
790.092840,-2660.818731,-153.140646,-2699.103893
790.095404,1397.408398,-3005.385186,-4326.223261
790.097968,-133.998066,-1895.115499,-18683.158861
790.100531,-1722.832272,3522.234867,-6087.340694
790.103095,1741.974853,-191.425808,-4804.787781
790.105658,-765.703232,-708.275490,-19487.147254
790.108222,-555.134843,-1722.832272,-3196.810994
790.110785,-899.701298,-1607.976787,-12940.384621
790.113349,1282.552914,-1588.834206,-10949.556218
790.115912,-1320.838075,248.853550,-3924.229064
790.118476,-363.709035,-248.853550,-16118.053034
790.121039,133.998066,-1263.410333,-7867.600709
790.123603,-593.420005,-593.420005,-6527.620053
790.126166,-1167.697429,-2086.541307,-13706.087853
790.128730,2335.394858,-3081.955509,-10930.413637
790.131293,-995.414202,1856.830338,-2086.541307
790.133854,-593.420005,172.283227,-16596.617554
790.136414,95.712904,-344.566454,-9896.714274
790.138974,-918.843878,-382.851616,-4000.799387
790.141534,1588.834206,-3962.514226,-13954.941403
790.144094,-1818.545176,-727.418070,-11274.980091
790.146655,2182.254211,-3139.383251,-7331.608446
790.149215,-765.703232,555.134843,-16615.760134
790.151775,-1110.269686,1110.269686,-4211.367776
790.154335,535.992262,-1263.410333,-10566.704602
790.156895,-574.277424,-1722.832272,-15314.064640
790.159455,325.423874,-1473.978722,-2048.256146
790.162015,-1512.263883,-708.275490,-12212.966550
790.164575,1741.974853,-1741.974853,-15352.349802
790.167135,-1378.265818,1741.974853,555.134843
790.169696,1033.699363,-2335.394858,-14108.082050
790.172256,-957.129040,-1244.267752,-15314.064640
790.174816,-363.709035,478.564520,-1186.840010
790.177376,191.425808,-401.994197,-8843.872330
790.179936,-612.562586,-1359.123237,-22396.819536
790.182496,-363.709035,-306.281293,689.132909
790.185056,1225.125171,-2297.109696,-16156.338195
790.187616,-899.701298,-689.132909,-12787.243974
790.190176,-708.275490,-248.853550,2373.680019
790.192737,1301.695494,-2584.248408,-19334.006608
790.195297,-1569.691626,689.132909,-8824.729749
790.197857,-574.277424,76.570323,-3120.240670
790.200417,1588.834206,-2890.529701,-19104.295638
790.202977,-2220.539373,1665.404530,-3235.096155
790.205537,2565.105827,-2813.959378,-8327.022648
790.208097,-2124.826469,210.568389,-16232.908518
790.210657,1014.556782,38.285162,-6623.332957
790.213217,-1091.127106,-210.568389,-3254.238736
790.215778,803.988394,-3675.375514,-22549.960182
790.218338,-478.564520,-2718.246474,-4364.508422
790.220898,1110.269686,-2067.398726,-8595.018779
790.223458,-38.285162,-1416.550979,-16098.910453
790.226018,-669.990328,2048.256146,-2718.246474
790.228578,95.712904,1397.408398,-10872.985894
790.231138,-631.705166,-1033.699363,-14892.927862
790.233698,-1167.697429,-1339.980656,-4000.799387
790.236255,3388.236802,-5225.924558,-11255.837510
790.238812,-3847.658741,382.851616,-10853.843314
790.241368,2182.254211,-1091.127106,-6929.614250
790.243925,-1646.261949,1703.689691,-11351.550414
790.246482,-899.701298,1665.404530,-12614.960747
790.249039,918.843878,-1952.543242,-1722.832272
790.251595,880.558717,-3617.947771,-15333.207221
790.254152,-2143.969050,-899.701298,-11255.837510
790.256709,2143.969050,-2163.111630,-1933.400661
790.259265,-2048.256146,-114.855485,-16654.045296
790.261822,689.132909,306.281293,-8193.024582
790.264379,-957.129040,1148.554848,-6068.198114
790.266935,574.277424,-2277.967115,-16807.185942
790.269492,-2086.541307,-210.568389,-5704.489078
790.272049,2852.244539,-2201.396792,-9131.011042
790.274606,-1818.545176,191.425808,-10796.415571
790.277162,-976.271621,306.281293,-10528.419440
790.279719,1550.549045,-2277.967115,-8595.018779
790.282276,-3483.949706,1186.840010,-14069.796888
790.284832,842.273555,-899.701298,-1780.260014
790.287389,4632.504554,-4747.360038,-7676.174901
790.289946,-976.271621,-2067.398726,-21688.544046
790.292502,-1703.689691,-1014.556782,-210.568389
790.295059,1741.974853,-3215.953574,-17936.598210
790.297616,-1569.691626,2201.396792,-4823.930362
790.300172,363.709035,1320.838075,-708.275490
790.302729,-76.570323,-459.421939,-19927.426613
790.305286,57.427742,401.994197,-7905.885870
790.307843,-918.843878,-248.853550,-2565.105827
790.310399,-57.427742,-3349.951640,-20444.276294
790.312956,1263.410333,-3656.232933,-5627.918755
790.315513,-2086.541307,-631.705166,-3503.092286
790.318069,2871.387120,-3445.664544,-18664.016280
790.320626,-2239.681954,3043.670347,-7101.897477
790.323183,287.138712,1473.978722,-3330.809059
790.325739,593.420005,-1646.261949,-21899.112435
790.328296,-1722.832272,-746.560651,-3809.373579
790.330853,3196.810994,-4230.510357,-4785.645200
790.333410,-1703.689691,-1416.550979,-15007.783347
790.335966,-593.420005,-899.701298,-1780.260014
790.338520,574.277424,-823.130974,-12136.396227
790.341074,-727.418070,-38.285162,-13935.798822
790.343628,-1799.402595,1263.410333,-5206.781978
790.346182,3311.666478,-3235.096155,-11045.269122
790.348736,-2163.111630,1014.556782,-10700.702667
790.351290,210.568389,57.427742,-5876.772306
790.353844,727.418070,-1531.406464,-12806.386555
790.356398,-1569.691626,-612.562586,-12078.968485
790.358952,2431.107762,-3924.229064,-3751.945837
790.361506,-957.129040,-3503.092286,-13246.665914
790.364060,-1646.261949,-1186.840010,-15046.068509
790.366614,1378.265818,1014.556782,-1091.127106
790.369168,-842.273555,3464.807125,-12748.958813
790.371722,-1071.984525,2392.822600,-6987.041992
790.374276,-708.275490,191.425808,-3522.234867
790.376830,1205.982590,-4862.215523,-18338.592406
790.379384,-2009.970984,-2201.396792,-5838.487144
790.381938,2143.969050,-4728.217458,-5436.492947
790.384492,-1875.972918,-746.560651,-17017.754331
790.387046,57.427742,1780.260014,-6910.471669
790.389600,478.564520,401.994197,-7121.040058
790.392154,-689.132909,555.134843,-16041.482710
790.394709,708.275490,-325.423874,-4766.502619
790.397263,612.562586,-1875.972918,-7618.747158
790.399817,-1225.125171,-1703.689691,-18549.160795
790.402371,57.427742,-1952.543242,-3483.949706
790.404925,19.142581,-1531.406464,-8461.020714
790.407479,38.285162,-899.701298,-17687.744659
790.410033,-2603.390989,1665.404530,1741.974853
790.412587,3981.656806,-4479.363907,-17151.752397
790.415141,-4211.367776,1301.695494,-11121.839445
790.417695,3177.668413,-1244.267752,-3254.238736
790.420249,-1741.974853,-535.992262,-12882.956878
790.422803,-669.990328,-1148.554848,-13189.238171
790.425357,1569.691626,-2813.959378,-3445.664544
790.427911,-1129.412267,-1186.840010,-12308.679454
790.430465,172.283227,-650.847747,-13016.954944
790.433019,133.998066,957.129040,-3675.375514
790.435573,-3866.801322,631.705166,-13514.662045
790.438127,5379.065205,-5379.065205,-13629.517530
790.440605,-3139.383251,2316.252277,2679.961312
790.443084,2718.246474,-957.129040,-21075.981461
790.445563,-4766.502619,2220.539373,306.281293
790.448042,4249.652938,-4862.215523,-13935.798822
790.450521,-3196.810994,-1071.984525,-12289.536874
790.453000,976.271621,-1359.123237,-6317.051664
790.455478,1129.412267,-2947.957443,-7695.317482
790.457957,-2048.256146,-76.570323,-16098.910453
790.460436,1990.828403,440.279358,-4747.360038
790.462915,-1148.554848,3656.232933,-8346.165229
790.465394,-995.414202,631.705166,-17860.027886
790.467872,325.423874,-1588.834206,-2737.389054
790.470351,535.992262,-3598.805190,-9705.288466
790.472830,-1071.984525,-3503.092286,-14988.640766
790.475309,689.132909,-2373.680019,-5379.065205
790.477788,1952.543242,478.564520,-9609.575562
790.480266,-5436.492947,2124.826469,-9609.575562
790.482745,6967.899411,-4766.502619,-17706.887240
790.485224,-2775.674216,2794.816797,3637.090352
790.487703,-76.570323,-1033.699363,-18989.440154
790.490182,1971.685822,-1875.972918,-8633.303941
790.492660,-2909.672282,2239.681954,-4670.789715
790.495139,1761.117434,-2660.818731,-13916.656242
790.497618,-1416.550979,-1320.838075,-11715.259450
790.500097,363.709035,-1627.119368,-4000.799387
790.502576,555.134843,-3388.236802,-13342.378818
790.505055,-1244.267752,-287.138712,-9973.284597
790.507533,899.701298,1493.121302,-4977.071008
790.510012,-1473.978722,1646.261949,-16156.338195
790.512491,-248.853550,421.136778,-7274.180704
790.514970,-650.847747,-2852.244539,-4977.071008
790.517449,3369.094221,-6163.911018,-18989.440154
790.519927,-2411.965181,95.712904,4115.654872
790.522406,2029.113565,-3139.383251,-15773.486579
790.524885,-1052.841944,1148.554848,-13246.665914
790.527364,-631.705166,1990.828403,-2297.109696
790.529843,650.847747,-727.418070,-13993.226565
790.532321,-76.570323,-2297.109696,-11734.402030
790.534800,-459.421939,-1186.840010,-3081.955509
790.537279,689.132909,-1665.404530,-12653.245909
790.539776,-1052.841944,-574.277424,-13036.097525
790.542273,-76.570323,248.853550,-4268.795518
790.544770,803.988394,-2009.970984,-11925.827838
790.547267,-1933.400661,-172.283227,-12863.814298
790.549765,1129.412267,-746.560651,-1722.832272
790.552262,-899.701298,-957.129040,-12691.531070
790.554759,995.414202,-1627.119368,-17840.885306
790.557256,-1550.549045,2029.113565,2239.681954
790.559753,210.568389,-957.129040,-18817.156926
790.562250,382.851616,-1971.685822,-11332.407834
790.564747,-784.845813,-1282.552914,574.277424
790.567244,1071.984525,-4192.225195,-16003.197549
790.569741,-918.843878,-3751.945837,-12461.820101
790.572238,727.418070,-4153.940034,-2392.822600
790.574736,-0.000000,-9915.856854,-10815.558152
790.577233,-1359.123237,-5647.061336,-15256.636898
790.579730,1512.263883,-2469.392923,-3483.949706
790.582227,-2488.535504,478.564520,-10815.558152
790.584724,784.845813,-2909.672282,-11198.409768
790.587221,-76.570323,-1244.267752,-7178.467800
