#time,accel_x,accel_y,accel_z
392.075773,612.876398,296.082377,9548.656652
392.076081,842.705048,222.061783,9548.656652
392.076389,766.095498,296.082377,9844.739029
392.076697,919.314598,592.164754,9844.739029
392.077005,842.705048,-148.041188,9548.656652
392.077313,766.095498,370.102971,9844.739029
392.077621,459.657299,296.082377,9622.677246
392.077929,306.438199,148.041188,9696.697840
392.078237,536.266849,296.082377,9474.636058
392.078545,612.876398,370.102971,9770.718434
392.078853,536.266849,370.102971,9992.780217
392.079160,919.314598,-0.000000,9474.636058
392.079468,536.266849,296.082377,9770.718434
392.079776,612.876398,444.123565,9622.677246
392.080084,383.047749,222.061783,9622.677246
392.080392,459.657299,148.041188,9548.656652
392.080700,536.266849,222.061783,9770.718434
392.081008,459.657299,296.082377,9622.677246
392.081316,612.876398,-0.000000,9696.697840
392.081624,0.000000,-0.000000,9696.697840
392.081932,-153.219100,-0.000000,9548.656652
392.082239,689.485948,-0.000000,9474.636058
392.082547,536.266849,222.061783,9696.697840
392.082855,766.095498,222.061783,9622.677246
392.083163,766.095498,296.082377,9474.636058
392.083471,766.095498,296.082377,9622.677246
392.083779,766.095498,-0.000000,9548.656652
392.084087,1149.143247,222.061783,9696.697840
392.084395,842.705048,-0.000000,9178.553681
392.084703,536.266849,74.020594,9474.636058
392.085011,536.266849,296.082377,9474.636058
392.085318,612.876398,296.082377,9474.636058
392.085626,612.876398,296.082377,9474.636058
392.085934,306.438199,370.102971,9770.718434
392.086242,689.485948,-0.000000,9844.739029
392.086550,919.314598,-0.000000,10066.800811
392.086858,995.924147,-148.041188,10140.821405
392.087166,995.924147,-592.164754,9992.780217
392.087474,459.657299,-296.082377,10066.800811
392.087782,842.705048,-518.144159,9992.780217
392.088090,919.314598,-518.144159,10288.862594
392.088398,1225.752797,-148.041188,9696.697840
392.088705,1302.362347,-0.000000,9474.636058
392.089013,1685.410096,518.144159,8882.471304
392.089321,2221.676944,666.185348,8808.450710
392.089629,2145.067394,666.185348,8808.450710
392.089937,1991.848295,444.123565,9326.594869
392.090245,1762.019645,370.102971,9326.594869
392.090553,1532.190996,222.061783,9400.615463
392.090861,1302.362347,-0.000000,9992.780217
392.091169,1762.019645,-444.123565,10066.800811
392.091477,1838.629195,-74.020594,9918.759623
392.091784,1685.410096,-74.020594,9992.780217
392.092092,1991.848295,-0.000000,9992.780217
392.092400,1991.848295,-222.061783,10066.800811
392.092708,2451.505594,-0.000000,9770.718434
392.093016,2451.505594,370.102971,9400.615463
392.093324,2757.943793,222.061783,9326.594869
392.093632,2987.772442,-0.000000,9474.636058
392.093940,2374.896044,222.061783,9474.636058
392.094248,2528.115143,148.041188,9474.636058
392.094556,2528.115143,222.061783,9548.656652
392.094864,2528.115143,-0.000000,9770.718434
392.095171,2451.505594,148.041188,9992.780217
392.095479,2681.334243,148.041188,9844.739029
392.095787,2911.162892,-222.061783,9992.780217
392.096095,2757.943793,-222.061783,10214.842000
392.096403,3217.601092,-740.205942,10288.862594
392.096711,2987.772442,-518.144159,10436.903782
392.097019,3217.601092,-74.020594,9918.759623
392.097327,3294.210641,-0.000000,9770.718434
392.097635,3600.648841,-0.000000,9696.697840
392.097943,3830.477490,-0.000000,9474.636058
392.098250,3830.477490,444.123565,8660.409521
392.098558,3983.696590,518.144159,9030.512492
392.098866,4596.572988,444.123565,9400.615463
392.099174,4366.744339,666.185348,9400.615463
392.099482,4366.744339,444.123565,9400.615463
392.099790,4519.963438,444.123565,9400.615463
392.100098,4519.963438,148.041188,9178.553681
392.100406,4213.525239,-0.000000,9474.636058
392.100714,4519.963438,296.082377,9326.594869
392.101022,4213.525239,148.041188,9474.636058
392.101329,4673.182538,222.061783,9326.594869
392.101637,4979.620737,814.226536,9104.533087
392.101945,4749.792088,888.247130,8956.491898
392.102253,4826.401637,1258.350101,8882.471304
392.102561,4596.572988,1406.391290,9104.533087
392.102869,4213.525239,962.267725,9178.553681
392.103177,4519.963438,1332.370696,8216.285956
392.103485,3907.087040,444.123565,9474.636058
392.103793,4290.134789,888.247130,9770.718434
392.104101,2987.772442,-0.000000,9548.656652
392.104409,2911.162892,-0.000000,10881.027347
392.104716,2987.772442,518.144159,10066.800811
392.105024,2374.896044,666.185348,9918.759623
392.105332,2681.334243,666.185348,10362.883188
392.105640,3140.991542,222.061783,9844.739029
392.105948,2604.724693,666.185348,10140.821405
392.106256,2145.067394,296.082377,9918.759623
392.106564,1915.238745,444.123565,9992.780217
392.106872,1762.019645,222.061783,9918.759623
392.107180,1532.190996,-444.123565,10288.862594
392.107488,1455.581446,-962.267725,10362.883188
392.107795,1225.752797,-1184.329507,10362.883188
392.108103,1455.581446,-1332.370696,10807.006753
392.108411,2221.676944,-1998.556043,10732.986159
392.108719,2757.943793,-1554.432478,10362.883188
392.109027,3064.381992,-1702.473667,9992.780217
392.109335,3447.429741,-1406.391290,9770.718434
392.109643,3677.258390,-1332.370696,9326.594869
392.109951,3830.477490,-444.123565,9178.553681
392.110259,5362.668486,148.041188,9104.533087
392.110567,4979.620737,814.226536,8364.327145
392.110874,4826.401637,296.082377,8290.306550
392.111182,5362.668486,592.164754,7920.203579
392.111490,4903.011187,666.185348,8216.285956
392.111798,4213.525239,592.164754,8364.327145
392.112106,4060.306139,-0.000000,8956.491898
392.112414,3600.648841,-0.000000,9548.656652
392.112722,3370.820191,-518.144159,9474.636058
392.113030,3294.210641,222.061783,10140.821405
392.113338,3217.601092,592.164754,9252.574275
392.113646,3600.648841,962.267725,9178.553681
392.113954,4519.963438,2368.659014,8956.491898
392.114261,4366.744339,2664.741391,8290.306550
392.114569,4443.353888,3034.844362,8438.347739
392.114877,4213.525239,3034.844362,8290.306550
392.115185,4443.353888,1850.514855,9474.636058
392.115493,2681.334243,666.185348,9918.759623
392.115801,1991.848295,-1036.288319,11769.274478
392.116109,1762.019645,-2664.741391,12509.480420
392.116417,-459.657299,-3330.926739,12583.501014
392.116725,612.876398,-3997.112087,13915.871710
392.117033,1762.019645,-3330.926739,12731.542202
392.117340,2757.943793,-2368.659014,11695.253884
392.117648,4136.915689,-888.247130,9474.636058
392.117956,6511.811733,222.061783,8660.409521
392.118264,7124.688131,1702.473667,7402.059420
392.118572,7431.126331,2886.803174,5477.523971
392.118880,7967.393179,4071.132681,6069.688724
392.119188,7354.516781,4367.215058,5033.400406
392.119496,6281.983084,4737.318029,5403.503377
392.119804,5362.668486,3923.091493,6365.771101
392.120112,4060.306139,2590.720797,7920.203579
392.120420,2604.724693,814.226536,8882.471304
392.120727,1762.019645,-148.041188,10658.965565
392.121035,306.438199,-2590.720797,11843.295072
392.121343,0.000000,-3478.967927,12953.603985
392.121651,0.000000,-3997.112087,13915.871710
392.121959,76.609550,-3997.112087,13841.851115
392.122267,1072.533697,-4071.132681,13027.624579
392.122575,2145.067394,-2664.741391,12213.398043
392.122883,4213.525239,-1924.535449,11399.171507
392.123191,4903.011187,-888.247130,9474.636058
392.123499,5898.935335,1332.370696,7698.141797
392.123806,6588.421283,2146.597232,7105.977043
392.124114,6128.763984,3034.844362,5921.647536
392.124422,6128.763984,3701.029710,6143.709319
392.124730,5975.544884,3775.050304,6143.709319
392.125038,4749.792088,2368.659014,6587.832884
392.125346,4060.306139,1184.329507,8068.244768
392.125654,2911.162892,-444.123565,9918.759623
392.125962,1302.362347,-2368.659014,11917.315666
392.126270,536.266849,-3923.091493,13027.624579
392.126578,76.609550,-4367.215058,13693.809927
392.126885,995.924147,-3478.967927,13249.686362
392.127193,2604.724693,-1924.535449,11843.295072
392.127501,4826.401637,148.041188,9918.759623
392.127809,6205.373534,3034.844362,6735.874072
392.128117,7967.393179,4811.338623,5033.400406
392.128425,8273.831378,5921.647536,4219.173869
392.128733,8427.050478,6587.832884,4515.256246
392.129041,7048.078582,5255.462188,5625.565159
392.129349,4213.525239,2146.597232,8438.347739
392.129657,1455.581446,-1036.288319,11251.130318
392.129965,-1149.143247,-2664.741391,12731.542202
392.130272,-3907.087040,-4959.379811,15396.283594
392.130580,-3370.820191,-6809.894666,17912.983796
392.130888,-2451.505594,-6291.750507,17394.839637
392.131196,-766.095498,-4885.359217,15322.262999
392.131504,1762.019645,-1924.535449,11103.089130
392.131812,4903.011187,518.144159,7846.182985
392.132120,7584.345430,3849.070898,6365.771101
392.132428,9422.974625,5477.523971,4589.276840
392.132736,9882.631924,5773.606348,3256.906145
392.133044,9269.755526,5847.626942,2368.659014
392.133351,7507.735880,3330.926739,5255.462188
392.133659,4596.572988,-0.000000,8808.450710
392.133967,1532.190996,-2960.823768,11399.171507
392.134275,-919.314598,-4959.379811,12731.542202
392.134583,-1915.238745,-4811.338623,13249.686362
392.134891,-153.219100,-4515.256246,13397.727550
392.135199,3064.381992,-1628.453072,12139.377449
392.135507,4749.792088,1554.432478,8364.327145
392.135815,7507.735880,2146.597232,7772.162391
392.136123,8656.879127,3627.009116,6735.874072
392.136430,7431.126331,5403.503377,6143.709319
392.136738,6971.469032,3108.864956,8290.306550
392.137046,4903.011187,2442.679609,8512.368333
392.137354,1838.629195,-148.041188,11325.150913
392.137662,-536.266849,-1850.514855,11991.336260
392.137970,-1455.581446,-2368.659014,13249.686362
392.138278,-1225.752797,-3997.112087,15026.180623
392.138586,-1608.800546,-3108.864956,12287.418637
392.138894,1149.143247,-2368.659014,12065.356855
392.139202,3294.210641,-1702.473667,11325.150913
392.139510,5362.668486,-592.164754,8808.450710
392.139817,6281.983084,-74.020594,8142.265362
392.140125,6205.373534,1184.329507,7254.018232
392.140433,6358.592633,2368.659014,7179.997637
392.140741,6052.154434,3701.029710,7105.977043
392.141049,5975.544884,5329.482782,5847.626942
392.141357,6358.592633,5921.647536,5847.626942
392.141665,6358.592633,5699.585753,5847.626942
392.141973,5132.839837,4219.173869,7105.977043
392.142281,4903.011187,814.226536,10214.842000
392.142589,2221.676944,-814.226536,12065.356855
392.142898,153.219100,-4441.235652,14211.954086
392.143206,-1455.581446,-6957.935855,14952.160028
392.143514,-2221.676944,-5477.523971,14878.139434
392.143822,-995.924147,-4441.235652,13249.686362
392.144130,1532.190996,-1554.432478,11029.068536
392.144438,3600.648841,148.041188,9770.718434
392.144745,4903.011187,1332.370696,8364.327145
392.145053,6358.592633,1628.453072,7105.977043
392.145361,5669.106685,3478.967927,5255.462188
392.145669,6588.421283,3330.926739,5551.544565
392.145977,6052.154434,4145.153275,6661.853478
392.146285,5362.668486,3627.009116,7698.141797
392.146593,4979.620737,3108.864956,7994.224174
392.146901,3753.867940,2368.659014,8216.285956
392.147209,3524.039291,-0.000000,9844.739029
392.147517,2911.162892,-2146.597232,11843.295072
392.147825,1455.581446,-3552.988522,12879.583391
392.148133,842.705048,-6217.729913,14137.933492
392.148441,-1149.143247,-5477.523971,11917.315666
392.148749,-536.266849,-3997.112087,12435.459826
392.149057,1608.800546,-1628.453072,11251.130318
392.149365,3983.696590,1036.288319,8438.347739
392.149672,4903.011187,2590.720797,6365.771101
392.149980,6588.421283,2664.741391,5921.647536
392.150288,4443.353888,2220.617826,6587.832884
392.150596,3370.820191,1480.411884,7476.080014
392.150904,2604.724693,1924.535449,8882.471304
392.151212,1378.971896,2146.597232,9252.574275
392.151520,842.705048,2442.679609,9474.636058
392.151828,2374.896044,2368.659014,9400.615463
392.152136,2604.724693,2146.597232,9474.636058
392.152444,2221.676944,-1036.288319,10807.006753
392.152752,1149.143247,-3108.864956,11769.274478
392.153060,-1149.143247,-4441.235652,12287.418637
392.153368,-1685.410096,-4737.318029,12805.562797
392.153676,-612.876398,-2590.720797,11769.274478
392.153984,689.485948,-222.061783,9326.594869
392.154292,3064.381992,1628.453072,7624.121203
392.154599,4979.620737,2220.617826,6439.791695
392.154907,4826.401637,2442.679609,6809.894666
392.155215,3677.258390,518.144159,7476.080014
392.155523,2221.676944,-444.123565,8586.388927
392.155831,229.828649,-296.082377,10362.883188
392.156139,229.828649,-0.000000,11103.089130
392.156447,1915.238745,1258.350101,10436.903782
392.156755,3524.039291,1480.411884,9770.718434
392.157063,3753.867940,962.267725,9474.636058
392.157371,3064.381992,-1036.288319,10066.800811
392.157679,1532.190996,-1628.453072,11547.212695
392.157987,1225.752797,-2442.679609,11917.315666
392.158295,1072.533697,-1776.494261,10288.862594
392.158603,1378.971896,-222.061783,8734.430116
392.158911,3677.258390,370.102971,7698.141797
392.159219,4366.744339,2220.617826,6587.832884
392.159526,4136.915689,1998.556043,7254.018232
392.159834,3294.210641,814.226536,8290.306550
392.160142,995.924147,2072.576638,9622.677246
392.160450,-306.438199,814.226536,11177.109724
392.160758,459.657299,1480.411884,11251.130318
392.161066,1378.971896,2220.617826,10881.027347
392.161374,1915.238745,1480.411884,10658.965565
392.161682,1225.752797,-74.020594,11843.295072
392.161990,306.438199,-814.226536,12435.459826
392.162298,-1072.533697,-2368.659014,12953.603985
392.162606,-1762.019645,-1776.494261,12509.480420
392.162914,-612.876398,-222.061783,10288.862594
392.163222,995.924147,444.123565,8882.471304
392.163530,2757.943793,1258.350101,7476.080014
392.163838,2834.553343,1776.494261,6513.812290
392.164146,2681.334243,1480.411884,7328.038826
392.164453,2221.676944,888.247130,8512.368333
392.164761,76.609550,1258.350101,9030.512492
392.165069,-153.219100,-0.000000,10955.047942
392.165377,689.485948,814.226536,11399.171507
392.165685,995.924147,-0.000000,10214.842000
392.165993,1072.533697,-1480.411884,11103.089130
392.166301,306.438199,-1554.432478,11103.089130
392.166609,-919.314598,-1850.514855,10807.006753
392.166917,-766.095498,-2368.659014,10436.903782
392.167225,153.219100,-148.041188,9622.677246
392.167533,1532.190996,148.041188,8290.306550
392.167841,1915.238745,1036.288319,6513.812290
392.168149,2451.505594,1406.391290,5847.626942
392.168457,2068.457845,1406.391290,6809.894666
392.168765,842.705048,1406.391290,8216.285956
392.169073,383.047749,1258.350101,9252.574275
392.169380,-306.438199,962.267725,10140.821405
392.169688,383.047749,370.102971,10955.047942
392.169996,1225.752797,-444.123565,10288.862594
392.170304,0.000000,-1332.370696,11843.295072
392.170612,-995.924147,-2442.679609,12287.418637
392.170920,-2374.896044,-2886.803174,12731.542202
392.171228,-2911.162892,-2516.700203,12583.501014
392.171536,-2145.067394,-1554.432478,11399.171507
392.171844,0.000000,148.041188,9696.697840
392.172152,1149.143247,962.267725,8438.347739
392.172460,2298.286494,1036.288319,6587.832884
392.172768,2528.115143,2590.720797,5995.668130
392.173076,2221.676944,2590.720797,7254.018232
392.173384,1149.143247,2960.823768,7328.038826
392.173692,1302.362347,2368.659014,9326.594869
392.174000,2145.067394,2664.741391,9548.656652
392.174307,2298.286494,444.123565,10066.800811
392.174615,689.485948,-1036.288319,11029.068536
392.174923,-306.438199,-2072.576638,11991.336260
392.175231,-2145.067394,-3182.885551,12361.439231
392.175539,-3064.381992,-2516.700203,11991.336260
392.175847,-1991.848295,-2368.659014,11547.212695
392.176155,-842.705048,-814.226536,8660.409521
392.176463,766.095498,-74.020594,8068.244768
392.176771,1838.629195,518.144159,6661.853478
392.177079,1838.629195,1406.391290,6365.771101
392.177387,2221.676944,2368.659014,7624.121203
392.177695,1762.019645,2220.617826,8586.388927
392.178003,2068.457845,3182.885551,8290.306550
392.178311,2298.286494,2664.741391,8808.450710
392.178619,2528.115143,1554.432478,9918.759623
392.178927,2068.457845,-444.123565,10881.027347
392.179234,0.000000,-1924.535449,11769.274478
392.179542,-1915.238745,-2664.741391,13175.665768
392.179850,-2221.676944,-3256.906145,13249.686362
392.180158,-1532.190996,-1850.514855,10955.047942
392.180466,612.876398,-444.123565,9918.759623
392.180774,1608.800546,222.061783,7179.997637
392.181082,2221.676944,814.226536,7105.977043
392.181390,3064.381992,2072.576638,7920.203579
392.181698,3140.991542,2590.720797,7550.100608
392.182006,1608.800546,3404.947333,8364.327145
392.182314,3064.381992,3330.926739,9030.512492
392.182622,2834.553343,3849.070898,7846.182985
392.182930,2987.772442,1776.494261,11103.089130
392.183238,1991.848295,-1258.350101,12213.398043
392.183546,-1838.629195,-518.144159,12287.418637
392.183854,-1608.800546,-4293.194464,14434.015869
392.184161,-3753.867940,-2812.782580,13249.686362
392.184469,-2451.505594,-2442.679609,12657.521608
392.184777,76.609550,-1924.535449,9696.697840
392.185085,1532.190996,148.041188,7550.100608
392.185393,2451.505594,1036.288319,6957.935855
392.185701,2604.724693,2146.597232,6513.812290
392.186009,2987.772442,2960.823768,8512.368333
392.186317,2604.724693,3701.029710,7328.038826
392.186625,3677.258390,3330.926739,7772.162391
392.186933,2987.772442,3923.091493,8290.306550
392.187241,3217.601092,740.205942,9400.615463
392.187549,76.609550,370.102971,11917.315666
392.187857,-1455.581446,-1480.411884,13249.686362
392.188165,-2298.286494,-3330.926739,12879.583391
392.188473,-3294.210641,-1924.535449,11029.068536
392.188781,-1608.800546,-2590.720797,10732.986159
392.189088,0.000000,-2368.659014,10955.047942
392.189396,1532.190996,-444.123565,7624.121203
392.189704,1302.362347,962.267725,6513.812290
392.190012,2145.067394,1702.473667,6735.874072
392.190320,1991.848295,2886.803174,8216.285956
392.190628,1915.238745,3182.885551,8438.347739
392.190936,3294.210641,2960.823768,8734.430116
392.191244,1762.019645,1924.535449,8512.368333
392.191552,1149.143247,222.061783,10881.027347
392.191860,-153.219100,-2516.700203,13619.789333
392.192168,-3140.991542,-2738.761985,13915.871710
392.192476,-4673.182538,-3775.050304,13545.768739
392.192784,-3294.210641,-2738.761985,10955.047942
392.193092,-2298.286494,-1998.556043,10881.027347
392.193400,383.047749,-1776.494261,9474.636058
392.193708,2068.457845,666.185348,6587.832884
392.194015,2374.896044,1258.350101,5181.441594
392.194323,2221.676944,2738.761985,5847.626942
392.194631,3064.381992,3404.947333,8364.327145
392.194939,2987.772442,4071.132681,8586.388927
392.195247,3217.601092,3701.029710,8438.347739
392.195555,2451.505594,1628.453072,8734.430116
392.195863,689.485948,-962.267725,11325.150913
392.196171,-1532.190996,-2960.823768,14211.954086
392.196479,-3907.087040,-4219.173869,14063.912898
392.196787,-4903.011187,-4293.194464,13767.830521
392.197095,-3677.258390,-3552.988522,11251.130318
392.197403,-2221.676944,-1924.535449,9918.759623
392.197711,689.485948,-1036.288319,9622.677246
392.198019,1838.629195,888.247130,6291.750507
392.198327,2451.505594,1702.473667,5773.606348
392.198635,2911.162892,2960.823768,6439.791695
392.198942,3217.601092,3923.091493,7624.121203
392.199250,3830.477490,4737.318029,7624.121203
392.199558,3907.087040,3997.112087,8290.306550
392.199866,2451.505594,2368.659014,8290.306550
392.200174,229.828649,-518.144159,10510.924376
392.200482,-919.314598,-1998.556043,13249.686362
392.200790,-3830.477490,-2886.803174,13693.809927
392.201098,-4213.525239,-3330.926739,12731.542202
392.201406,-3370.820191,-2960.823768,11177.109724
392.201714,-1455.581446,-2812.782580,10140.821405
392.202022,1072.533697,-962.267725,8734.430116
392.202330,2451.505594,-0.000000,6143.709319
392.202638,2681.334243,1406.391290,6291.750507
392.202946,2528.115143,2590.720797,7254.018232
392.203254,3677.258390,3034.844362,8142.265362
392.203562,3983.696590,3849.070898,9548.656652
392.203869,3983.696590,3108.864956,8438.347739
392.204177,2298.286494,1480.411884,7994.224174
392.204485,1685.410096,-740.205942,12657.521608
392.204793,-612.876398,-2220.617826,13693.809927
392.205101,-3217.601092,-3775.050304,13101.645173
392.205409,-2451.505594,-3330.926739,12435.459826
392.205717,-2145.067394,-3701.029710,10436.903782
392.206025,229.828649,-2590.720797,11251.130318
392.206333,2757.943793,-1110.308913,8438.347739
392.206641,3600.648841,1258.350101,6069.688724
392.206949,3140.991542,2220.617826,5699.585753
392.207257,3370.820191,3627.009116,6661.853478
392.207565,3830.477490,4219.173869,8364.327145
392.207873,4443.353888,4293.194464,8438.347739
392.208181,3370.820191,4441.235652,7105.977043
392.208489,2298.286494,1406.391290,9770.718434
392.208796,459.657299,-1332.370696,13175.665768
392.209104,-2528.115143,-2220.617826,14211.954086
392.209412,-3830.477490,-3478.967927,13471.748144
392.209720,-3753.867940,-2960.823768,12213.398043
392.210028,-3524.039291,-2812.782580,10881.027347
392.210336,-383.047749,-1998.556043,11103.089130
392.210644,1991.848295,222.061783,8068.244768
392.210952,2221.676944,1184.329507,5921.647536
392.211260,1838.629195,3108.864956,6513.812290
392.211568,3447.429741,4071.132681,7105.977043
392.211876,2681.334243,4515.256246,8512.368333
392.212184,3983.696590,4811.338623,8660.409521
392.212492,3370.820191,3627.009116,7772.162391
392.212800,1225.752797,740.205942,10066.800811
392.213108,536.266849,-1776.494261,12879.583391
392.213416,-2221.676944,-1850.514855,13249.686362
392.213723,-3677.258390,-4589.276840,14656.077652
392.214031,-3600.648841,-3552.988522,12583.501014
392.214339,-2068.457845,-2812.782580,10807.006753
392.214647,919.314598,-2664.741391,10658.965565
392.214955,2145.067394,-296.082377,6143.709319
392.215263,2451.505594,1702.473667,5403.503377
392.215571,2681.334243,2442.679609,7179.997637
392.215879,3907.087040,3849.070898,7328.038826
392.216187,3753.867940,3701.029710,9104.533087
392.216495,3217.601092,3997.112087,8808.450710
392.216803,2374.896044,2368.659014,8364.327145
392.217111,0.000000,-1480.411884,12361.439231
392.217419,-2298.286494,-2738.761985,15174.221811
392.217727,-4673.182538,-4811.338623,15396.283594
392.218035,-5515.887586,-4959.379811,14878.139434
392.218343,-4213.525239,-4293.194464,11843.295072
392.218651,-1608.800546,-3256.906145,10436.903782
392.218958,1532.190996,-1110.308913,9474.636058
392.219266,2528.115143,740.205942,5921.647536
392.219574,2298.286494,2664.741391,4663.297435
392.219882,3983.696590,3849.070898,6217.729913
392.220190,3983.696590,5329.482782,5995.668130
392.220498,3907.087040,6217.729913,6291.750507
392.220806,5209.449386,4885.359217,6883.915261
392.221114,2911.162892,3478.967927,6735.874072
392.221422,383.047749,148.041188,11917.315666
392.221730,-1225.752797,-2368.659014,14434.015869
392.222038,-4366.744339,-3256.906145,13693.809927
392.222346,-5209.449386,-3997.112087,13693.809927
392.222654,-3294.210641,-3849.070898,11473.192101
392.222962,-1225.752797,-2664.741391,10955.047942
392.223270,459.657299,-1554.432478,9326.594869
392.223578,2987.772442,222.061783,6143.709319
392.223885,2604.724693,2220.617826,5699.585753
392.224193,2757.943793,3478.967927,6883.915261
392.224501,2987.772442,3330.926739,7920.203579
392.224809,3370.820191,4663.297435,8068.244768
392.225117,3677.258390,3256.906145,8290.306550
392.225425,1762.019645,518.144159,9178.553681
392.225733,-383.047749,-2368.659014,13397.727550
392.226041,-1762.019645,-4071.132681,15248.242405
392.226349,-3524.039291,-4293.194464,13619.789333
392.226657,-3830.477490,-4071.132681,12879.583391
392.226965,-2834.553343,-3775.050304,11547.212695
392.227273,-153.219100,-2590.720797,10658.965565
392.227581,2374.896044,-148.041188,7550.100608
392.227889,3140.991542,1406.391290,5255.462188
392.228197,2834.553343,3256.906145,3923.091493
392.228505,4290.134789,4737.318029,5773.606348
392.228812,4290.134789,4515.256246,6809.894666
392.229120,4213.525239,5255.462188,7179.997637
392.229428,3677.258390,3627.009116,7550.100608
392.229736,1608.800546,814.226536,9474.636058
392.230044,0.000000,-1850.514855,13175.665768
392.230352,-2757.943793,-3478.967927,14878.139434
392.230660,-5975.544884,-4441.235652,14285.974681
392.230968,-5132.839837,-4071.132681,12953.603985
392.231276,-3677.258390,-3034.844362,11991.336260
392.231584,-536.266849,-2072.576638,11621.233289
392.231892,1532.190996,-296.082377,7031.956449
392.232200,2221.676944,2072.576638,5995.668130
392.232508,3217.601092,3404.947333,7031.956449
392.232816,3983.696590,4885.359217,5921.647536
392.233124,3217.601092,5847.626942,6957.935855
392.233432,4213.525239,5477.523971,7550.100608
392.233739,3370.820191,3923.091493,6957.935855
392.234047,2068.457845,518.144159,10881.027347
392.234355,-1762.019645,-1850.514855,13175.665768
392.234663,-2145.067394,-4515.256246,15026.180623
392.234971,-4213.525239,-4663.297435,13101.645173
392.235279,-3983.696590,-3627.009116,12435.459826
392.235587,-1685.410096,-4663.297435,12509.480420
392.235895,306.438199,-1924.535449,9918.759623
392.236203,1072.533697,-666.185348,6809.894666
392.236511,3753.867940,1850.514855,5033.400406
392.236819,3677.258390,3404.947333,5847.626942
392.237127,3677.258390,4811.338623,6957.935855
392.237435,4060.306139,4737.318029,7179.997637
392.237743,4903.011187,4811.338623,7698.141797
392.238051,3140.991542,2886.803174,7920.203579
392.238359,1762.019645,-592.164754,11991.336260
392.238666,-995.924147,-3034.844362,13915.871710
392.238974,-4213.525239,-3849.070898,14285.974681
392.239282,-5286.058936,-4885.359217,14730.098246
392.239590,-4136.915689,-3923.091493,13027.624579
392.239898,-1838.629195,-3330.926739,12361.439231
392.240206,153.219100,-1850.514855,9918.759623
392.240514,2374.896044,-0.000000,6513.812290
392.240822,3677.258390,1480.411884,5773.606348
392.241130,3677.258390,3923.091493,5773.606348
392.241438,3907.087040,5033.400406,6217.729913
392.241746,4826.401637,5847.626942,7105.977043
392.242054,4290.134789,4737.318029,7476.080014
392.242362,3830.477490,3330.926739,8882.471304
392.242670,2145.067394,-518.144159,11473.192101
392.242978,-1838.629195,-1998.556043,13693.809927
392.243286,-3447.429741,-3701.029710,14434.015869
392.243593,-4826.401637,-3775.050304,12805.562797
392.243901,-4290.134789,-3108.864956,12731.542202
392.244209,-1915.238745,-3478.967927,11843.295072
392.244517,1072.533697,-1036.288319,8660.409521
392.244826,2221.676944,666.185348,6143.709319
392.245134,2681.334243,1406.391290,5699.585753
392.245442,3064.381992,3330.926739,6069.688724
392.245750,3370.820191,4663.297435,7179.997637
392.246058,3600.648841,4515.256246,7846.182985
392.246366,3907.087040,4219.173869,7994.224174
392.246674,2604.724693,2294.638420,8660.409521
392.246982,919.314598,-888.247130,11991.336260
392.247290,-766.095498,-2738.761985,13841.851115
392.247598,-3753.867940,-3404.947333,12879.583391
392.247907,-4749.792088,-4145.153275,13619.789333
392.248215,-3677.258390,-3775.050304,13249.686362
392.248523,0.000000,-3108.864956,11917.315666
392.248831,459.657299,-1036.288319,8290.306550
392.249139,2604.724693,592.164754,5477.523971
392.249447,3064.381992,1332.370696,7105.977043
392.249755,2451.505594,4071.132681,6143.709319
392.250063,2987.772442,4071.132681,7994.224174
392.250371,4213.525239,5033.400406,7846.182985
392.250679,4060.306139,4293.194464,7698.141797
392.250988,1762.019645,1998.556043,9474.636058
392.251296,1302.362347,-814.226536,11843.295072
392.251604,-2298.286494,-2146.597232,12435.459826
392.251912,-4443.353888,-3108.864956,12953.603985
392.252220,-4136.915689,-3552.988522,13323.706956
392.252528,-4136.915689,-3404.947333,12657.521608
392.252836,-1378.971896,-3108.864956,11843.295072
392.253144,1838.629195,-814.226536,7402.059420
392.253452,1915.238745,666.185348,5033.400406
392.253760,2221.676944,1332.370696,7402.059420
392.254069,2834.553343,4145.153275,6587.832884
392.254377,3370.820191,5107.421000,7402.059420
392.254685,3983.696590,4885.359217,7328.038826
392.254993,3983.696590,4737.318029,6809.894666
392.255301,3447.429741,1110.308913,9696.697840
392.255609,536.266849,-666.185348,11843.295072
392.255917,-2068.457845,-2294.638420,13397.727550
392.256225,-3907.087040,-3627.009116,13545.768739
392.256533,-4673.182538,-4663.297435,13915.871710
392.256841,-3447.429741,-4367.215058,12657.521608
392.257150,-842.705048,-4219.173869,10881.027347
392.257458,612.876398,-2368.659014,7550.100608
392.257766,1991.848295,-370.102971,6365.771101
392.258074,2911.162892,1110.308913,7179.997637
392.258382,3447.429741,3923.091493,7105.977043
392.258690,3600.648841,5477.523971,6513.812290
392.258998,5286.058936,5181.441594,7105.977043
392.259306,4903.011187,4293.194464,7105.977043
392.259614,2757.943793,1554.432478,9548.656652
392.259922,766.095498,-1628.453072,12065.356855
392.260231,-2221.676944,-3034.844362,12879.583391
392.260539,-4903.011187,-4737.318029,13397.727550
392.260847,-4596.572988,-4663.297435,13989.892304
392.261155,-3677.258390,-4515.256246,12657.521608
392.261463,-842.705048,-2886.803174,10510.924376
392.261771,1455.581446,-740.205942,6809.894666
392.262079,2451.505594,1110.308913,6439.791695
392.262387,2834.553343,2220.617826,6513.812290
392.262695,4136.915689,4663.297435,5921.647536
392.263003,3753.867940,5995.668130,6291.750507
392.263312,4979.620737,5625.565159,6735.874072
392.263620,4519.963438,4515.256246,7105.977043
392.263928,2298.286494,2294.638420,10066.800811
392.264236,-153.219100,-370.102971,12065.356855
392.264544,-2451.505594,-1554.432478,12953.603985
392.264852,-4519.963438,-3701.029710,14804.118840
392.265160,-4979.620737,-3478.967927,13619.789333
392.265468,-2757.943793,-3627.009116,12657.521608
392.265776,-383.047749,-2960.823768,10584.944971
392.266084,919.314598,-1110.308913,6735.874072
392.266393,1532.190996,370.102971,7328.038826
392.266701,2757.943793,1850.514855,8290.306550
392.267009,2451.505594,4219.173869,7254.018232
392.267317,3524.039291,4145.153275,7550.100608
392.267625,4979.620737,4663.297435,7920.203579
392.267933,4519.963438,2368.659014,8586.388927
392.268241,1378.971896,518.144159,11251.130318
392.268549,0.000000,-1406.391290,13101.645173
392.268857,-2757.943793,-2442.679609,13175.665768
392.269165,-3907.087040,-3775.050304,13471.748144
392.269474,-3370.820191,-3775.050304,12583.501014
392.269782,-1762.019645,-3552.988522,11103.089130
392.270090,0.000000,-2220.617826,9030.512492
392.270398,766.095498,-222.061783,6809.894666
392.270706,2145.067394,296.082377,8142.265362
392.271014,1838.629195,2368.659014,7476.080014
392.271322,2757.943793,3997.112087,7031.956449
392.271630,4213.525239,4737.318029,7994.224174
392.271938,4749.792088,4663.297435,6735.874072
392.272246,4060.306139,2664.741391,7402.059420
392.272555,1455.581446,370.102971,11103.089130
392.272863,-995.924147,-370.102971,12065.356855
392.273171,-2528.115143,-2072.576638,12731.542202
392.273479,-3677.258390,-2442.679609,12287.418637
392.273787,-4136.915689,-2960.823768,11991.336260
392.274095,76.609550,-3478.967927,11695.253884
392.274403,-919.314598,-296.082377,6513.812290
392.274711,1838.629195,-592.164754,6809.894666
392.275019,2221.676944,-0.000000,8142.265362
392.275327,536.266849,3478.967927,6809.894666
392.275636,3370.820191,3034.844362,8882.471304
392.275944,3294.210641,4293.194464,6587.832884
392.276252,3753.867940,4367.215058,7624.121203
392.276560,2987.772442,1924.535449,9104.533087
392.276868,1149.143247,1184.329507,10436.903782
392.277176,-995.924147,-592.164754,13101.645173
392.277484,-2681.334243,-1850.514855,12657.521608
392.277792,-3064.381992,-3108.864956,13471.748144
392.278100,-2911.162892,-3775.050304,11325.150913
392.278408,459.657299,-3478.967927,10658.965565
392.278716,306.438199,-1924.535449,6809.894666
392.279025,1225.752797,-370.102971,7031.956449
392.279333,1838.629195,-740.205942,9622.677246
392.279641,1915.238745,3404.947333,7550.100608
392.279949,3217.601092,3256.906145,8364.327145
392.280257,4519.963438,5033.400406,7624.121203
392.280565,4366.744339,3701.029710,6735.874072
392.280873,2221.676944,1776.494261,9696.697840
392.281181,766.095498,-74.020594,11769.274478
392.281489,-1302.362347,-1184.329507,13027.624579
392.281797,-4366.744339,-3552.988522,13101.645173
392.282106,-2834.553343,-3478.967927,11991.336260
392.282414,-3064.381992,-3552.988522,11251.130318
392.282722,-919.314598,-3182.885551,10214.842000
392.283030,536.266849,-1332.370696,7772.162391
392.283338,842.705048,-148.041188,7698.141797
392.283646,1149.143247,444.123565,8216.285956
392.283954,2145.067394,3108.864956,6883.915261
392.284262,4290.134789,5107.421000,7254.018232
392.284570,4596.572988,4737.318029,6957.935855
392.284878,4903.011187,4515.256246,6957.935855
392.285187,2834.553343,2664.741391,9622.677246
392.285495,1225.752797,592.164754,11399.171507
392.285803,-1608.800546,-518.144159,11843.295072
392.286111,-2911.162892,-2442.679609,12805.562797
392.286419,-3140.991542,-3182.885551,11843.295072
392.286727,-2528.115143,-3034.844362,10214.842000
392.287035,-306.438199,-2886.803174,10732.986159
392.287343,383.047749,-1258.350101,8734.430116
392.287651,383.047749,-592.164754,7994.224174
392.287959,1072.533697,148.041188,8290.306550
392.288268,2221.676944,2368.659014,7920.203579
392.288576,3217.601092,3849.070898,8734.430116
392.288884,3830.477490,3775.050304,8142.265362
392.289192,3907.087040,2590.720797,8364.327145
392.289500,1685.410096,592.164754,10955.047942
392.289808,383.047749,-1184.329507,12435.459826
392.290116,-2298.286494,-2368.659014,12805.562797
392.290424,-2528.115143,-3552.988522,13397.727550
392.290732,-2757.943793,-3256.906145,11103.089130
392.291040,-1838.629195,-2738.761985,9474.636058
392.291349,229.828649,-2812.782580,10140.821405
392.291657,1302.362347,-888.247130,7772.162391
392.291965,536.266849,666.185348,7105.977043
392.292273,1455.581446,740.205942,8512.368333
392.292581,3677.258390,3404.947333,7105.977043
392.292889,3600.648841,5033.400406,7031.956449
392.293197,3907.087040,4737.318029,7994.224174
392.293505,3600.648841,3182.885551,8290.306550
392.293813,1072.533697,962.267725,10288.862594
392.294121,-1072.533697,-740.205942,13619.789333
392.294430,-2451.505594,-3478.967927,12805.562797
392.294738,-3983.696590,-3108.864956,12879.583391
392.295046,-3217.601092,-3256.906145,11547.212695
392.295354,-1302.362347,-2590.720797,9918.759623
392.295662,76.609550,-518.144159,8142.265362
392.295970,1608.800546,296.082377,7550.100608
392.296278,2221.676944,1406.391290,6661.853478
392.296586,2298.286494,3923.091493,6217.729913
392.296894,3907.087040,4145.153275,7994.224174
392.297202,4596.572988,5403.503377,7105.977043
392.297511,3907.087040,4441.235652,8068.244768
392.297819,2528.115143,2072.576638,9696.697840
392.298127,995.924147,-296.082377,11843.295072
392.298435,-1838.629195,-1850.514855,14285.974681
392.298743,-3447.429741,-3627.009116,14063.912898
392.299051,-3524.039291,-4145.153275,13471.748144
392.299359,-3524.039291,-2960.823768,12287.418637
392.299667,-995.924147,-3182.885551,11103.089130
392.299975,1532.190996,-1258.350101,8364.327145
392.300283,1455.581446,-0.000000,7105.977043
392.300592,2528.115143,814.226536,7550.100608
392.300900,2451.505594,3478.967927,6809.894666
392.301208,3370.820191,4293.194464,7994.224174
392.301516,4290.134789,4293.194464,8142.265362
392.301824,4213.525239,4441.235652,7772.162391
392.302132,1608.800546,814.226536,10066.800811
392.302440,-612.876398,-1998.556043,13249.686362
392.302748,-2374.896044,-2664.741391,14508.036463
392.303056,-4979.620737,-4367.215058,14359.995275
392.303364,-4213.525239,-4293.194464,14359.995275
392.303673,-3217.601092,-2812.782580,10584.944971
392.303981,76.609550,-2664.741391,11029.068536
392.304289,995.924147,-962.267725,7846.182985
392.304597,2451.505594,962.267725,5921.647536
392.304905,2451.505594,2664.741391,6217.729913
392.305213,3524.039291,4811.338623,5699.585753
392.305521,4290.134789,5329.482782,6883.915261
392.305829,4443.353888,5551.544565,7105.977043
392.306137,3830.477490,3923.091493,7179.997637
392.306445,1838.629195,1924.535449,9918.759623
392.306754,536.266849,-666.185348,13101.645173
392.307062,-2145.067394,-2368.659014,13545.768739
392.307370,-4443.353888,-3775.050304,13471.748144
392.307678,-3600.648841,-3849.070898,13027.624579
392.307986,-2451.505594,-2738.761985,10732.986159
392.308294,383.047749,-2590.720797,10288.862594
392.308602,1608.800546,-666.185348,7254.018232
392.308910,2528.115143,222.061783,6661.853478
392.309218,2604.724693,1332.370696,8068.244768
392.309526,2451.505594,3627.009116,7179.997637
392.309835,3140.991542,3923.091493,7772.162391
392.310143,3907.087040,3701.029710,8068.244768
392.310451,2987.772442,2664.741391,8216.285956
392.310759,1302.362347,-148.041188,11177.109724
392.311067,-76.609550,-2368.659014,13693.809927
392.311375,-3140.991542,-3330.926739,14063.912898
392.311683,-3294.210641,-4441.235652,14063.912898
392.311991,-2221.676944,-3330.926739,12435.459826
392.312299,-1532.190996,-2590.720797,9918.759623
392.312607,1378.971896,-1406.391290,8512.368333
392.312916,2911.162892,592.164754,5773.606348
392.313224,2451.505594,1480.411884,6069.688724
392.313532,2604.724693,2738.761985,5773.606348
392.313840,4060.306139,4663.297435,6587.832884
392.314148,3677.258390,4441.235652,7550.100608
392.314456,4673.182538,4071.132681,8586.388927
392.314764,3600.648841,2294.638420,9326.594869
392.315072,0.000000,-370.102971,11251.130318
392.315380,-1532.190996,-2442.679609,14582.057057
392.315688,-3370.820191,-4145.153275,14952.160028
392.315997,-4673.182538,-3552.988522,13249.686362
392.316305,-2987.772442,-3404.947333,12139.377449
392.316613,0.000000,-2294.638420,10362.883188
392.316921,1608.800546,-814.226536,9104.533087
392.317229,1838.629195,518.144159,5995.668130
392.317537,2834.553343,1924.535449,6143.709319
392.317845,3217.601092,4071.132681,5699.585753
392.318153,3524.039291,5329.482782,6143.709319
392.318461,4136.915689,5033.400406,7031.956449
392.318769,3830.477490,4515.256246,7846.182985
392.319078,2221.676944,1998.556043,9548.656652
392.319386,1455.581446,-888.247130,12509.480420
392.319694,-2221.676944,-2886.803174,14211.954086
392.320002,-4060.306139,-3849.070898,14434.015869
392.320310,-3677.258390,-4367.215058,13619.789333
392.320618,-2834.553343,-2738.761985,11325.150913
392.320926,0.000000,-2886.803174,10584.944971
392.321234,1378.971896,-1184.329507,7772.162391
392.321542,2145.067394,740.205942,5773.606348
392.321850,2374.896044,2072.576638,7031.956449
392.322159,3064.381992,3923.091493,6069.688724
392.322467,3294.210641,5699.585753,6587.832884
392.322775,4366.744339,4367.215058,7550.100608
392.323083,3294.210641,4441.235652,7105.977043
392.323391,1608.800546,666.185348,10955.047942
392.323699,-689.485948,-2072.576638,14359.995275
392.324007,-4366.744339,-3478.967927,14656.077652
392.324315,-4290.134789,-5773.606348,15840.407159
392.324623,-5669.106685,-4589.276840,13693.809927
392.324931,-3140.991542,-4515.256246,12361.439231
392.325240,-842.705048,-2812.782580,9770.718434
392.325548,1302.362347,-592.164754,7624.121203
392.325856,2681.334243,962.267725,6957.935855
392.326164,2834.553343,2738.761985,6069.688724
392.326472,3983.696590,5033.400406,5847.626942
392.326780,4060.306139,5255.462188,5995.668130
392.327088,4903.011187,5477.523971,6143.709319
392.327396,3677.258390,4663.297435,7105.977043
392.327704,1302.362347,1480.411884,9770.718434
392.328012,-536.266849,-1554.432478,13841.851115
392.328321,-3753.867940,-3404.947333,14434.015869
392.328629,-4749.792088,-4663.297435,14730.098246
392.328937,-4366.744339,-4441.235652,12657.521608
392.329245,-1991.848295,-2886.803174,11473.192101
392.329553,153.219100,-2590.720797,10066.800811
392.329861,2528.115143,-0.000000,6217.729913
392.330169,2451.505594,1554.432478,5847.626942
392.330477,3140.991542,2812.782580,6217.729913
392.330785,4749.792088,5255.462188,5847.626942
392.331093,4213.525239,5181.441594,7179.997637
392.331402,4136.915689,4589.276840,7254.018232
392.331710,3370.820191,3256.906145,7846.182985
392.332018,612.876398,296.082377,11251.130318
392.332326,-1378.971896,-2812.782580,15100.201217
392.332634,-3140.991542,-3182.885551,14285.974681
392.332942,-4290.134789,-4071.132681,13841.851115
392.333250,-3447.429741,-3849.070898,12731.542202
392.333558,-1455.581446,-3330.926739,11251.130318
392.333866,842.705048,-2146.597232,10066.800811
392.334174,2681.334243,-296.082377,6957.935855
392.334483,2145.067394,1406.391290,5699.585753
392.334791,3140.991542,3330.926739,6439.791695
392.335099,4060.306139,4959.379811,6291.750507
392.335407,4136.915689,5403.503377,6661.853478
392.335715,4673.182538,4589.276840,7550.100608
392.336023,2757.943793,2146.597232,9252.574275
392.336331,459.657299,-1110.308913,12583.501014
392.336639,-1838.629195,-3330.926739,15618.345376
392.336947,-4060.306139,-3923.091493,14878.139434
392.337255,-5209.449386,-4663.297435,13619.789333
392.337564,-3677.258390,-3997.112087,11695.253884
392.337872,-1838.629195,-2664.741391,10658.965565
392.338180,1302.362347,-814.226536,9252.574275
392.338488,2451.505594,888.247130,5181.441594
392.338796,3294.210641,2664.741391,5847.626942
392.339104,3830.477490,3775.050304,5847.626942
392.339412,4136.915689,5921.647536,5033.400406
392.339720,4673.182538,5699.585753,6587.832884
392.340028,4519.963438,4737.318029,6735.874072
392.340336,1991.848295,2812.782580,8512.368333
392.340645,306.438199,-1554.432478,13323.706956
392.340953,-2374.896044,-3256.906145,14730.098246
392.341261,-4443.353888,-4367.215058,13841.851115
392.341569,-4596.572988,-5255.462188,13693.809927
392.341877,-3983.696590,-4071.132681,12065.356855
392.342185,-1455.581446,-3404.947333,11325.150913
392.342493,995.924147,-1554.432478,8512.368333
392.342801,2221.676944,592.164754,6143.709319
392.343109,2681.334243,1332.370696,7920.203579
392.343417,2987.772442,3108.864956,7328.038826
392.343726,3524.039291,5403.503377,6217.729913
392.344034,5132.839837,5403.503377,7846.182985
392.344342,4136.915689,4663.297435,7031.956449
392.344650,2145.067394,2738.761985,8808.450710
392.344958,612.876398,-962.267725,13915.871710
392.345266,-1762.019645,-2738.761985,13841.851115
392.345574,-3753.867940,-3627.009116,13249.686362
392.345882,-4519.963438,-4811.338623,12657.521608
392.346190,-3217.601092,-4441.235652,11917.315666
392.346498,-1532.190996,-3034.844362,10732.986159
392.346806,995.924147,-814.226536,8142.265362
392.347115,2145.067394,962.267725,6143.709319
392.347423,2681.334243,1776.494261,6809.894666
392.347731,3524.039291,3923.091493,5995.668130
392.348039,4136.915689,5033.400406,6439.791695
392.348347,4749.792088,5255.462188,6661.853478
392.348655,4290.134789,4515.256246,7550.100608
392.348963,1685.410096,1850.514855,10362.883188
392.349271,-306.438199,-1480.411884,13841.851115
392.349579,-2528.115143,-2220.617826,13619.789333
392.349887,-4749.792088,-3627.009116,13027.624579
392.350195,-4443.353888,-4515.256246,13397.727550
392.350504,-3140.991542,-2886.803174,10955.047942
392.350812,-1072.533697,-3108.864956,10584.944971
392.351120,919.314598,-888.247130,7550.100608
392.351428,2681.334243,814.226536,6069.688724
392.351736,4366.744339,962.267725,7179.997637
392.352044,1991.848295,4367.215058,5329.482782
392.352352,4673.182538,5107.421000,7550.100608
392.352660,5056.230287,4885.359217,8290.306550
392.352968,2834.553343,4293.194464,7550.100608
392.353276,1991.848295,1258.350101,10584.944971
392.353585,383.047749,-1776.494261,14656.077652
392.353893,-3600.648841,-2146.597232,13915.871710
392.354201,-4903.011187,-3923.091493,13767.830521
392.354509,-4213.525239,-3034.844362,13471.748144
392.354817,-3600.648841,-3182.885551,13027.624579
392.355125,-383.047749,-2368.659014,10288.862594
392.355433,1532.190996,740.205942,6957.935855
392.355741,1608.800546,-148.041188,7846.182985
392.356049,2298.286494,1258.350101,6661.853478
392.356357,3140.991542,4515.256246,7031.956449
392.356665,3524.039291,4885.359217,7846.182985
392.356974,3983.696590,4885.359217,7254.018232
392.357282,3983.696590,4737.318029,7179.997637
392.357590,1915.238745,370.102971,11029.068536
392.357898,-612.876398,-1554.432478,13027.624579
392.358206,-2757.943793,-2220.617826,12065.356855
392.358514,-4673.182538,-4589.276840,14211.954086
392.358822,-3983.696590,-3775.050304,12287.418637
392.359130,-2298.286494,-2590.720797,9992.780217
392.359438,919.314598,-2368.659014,10066.800811
392.359746,1762.019645,-1258.350101,5699.585753
392.360054,2451.505594,740.205942,6291.750507
392.360363,2757.943793,1258.350101,6883.915261
392.360671,4060.306139,2960.823768,6513.812290
392.360979,3753.867940,5033.400406,6735.874072
392.361287,5515.887586,4219.173869,7476.080014
392.361595,3753.867940,2368.659014,7772.162391
392.361903,1838.629195,-0.000000,10807.006753
392.362211,0.000000,-1998.556043,12657.521608
392.362519,-2834.553343,-2886.803174,11991.336260
392.362827,-3753.867940,-4663.297435,12731.542202
392.363135,-2911.162892,-4219.173869,12139.377449
392.363444,-1455.581446,-3182.885551,10066.800811
392.363752,1149.143247,-2442.679609,9030.512492
392.364060,1685.410096,-222.061783,6883.915261
392.364368,2374.896044,518.144159,7105.977043
392.364676,2604.724693,2220.617826,7254.018232
392.364984,3140.991542,4589.276840,7105.977043
392.365292,4060.306139,4737.318029,7402.059420
392.365600,4136.915689,4811.338623,7031.956449
392.365908,4060.306139,2516.700203,8882.471304
392.366216,1991.848295,-444.123565,11769.274478
392.366524,-995.924147,-962.267725,12139.377449
392.366833,-3217.601092,-3034.844362,13175.665768
392.367141,-4596.572988,-3923.091493,12731.542202
392.367449,-3830.477490,-2590.720797,11399.171507
392.367757,-766.095498,-3108.864956,11029.068536
392.368065,536.266849,-1036.288319,8364.327145
392.368373,1685.410096,518.144159,6809.894666
392.368681,2834.553343,888.247130,7476.080014
392.368989,2221.676944,3182.885551,7624.121203
392.369297,2987.772442,4663.297435,7624.121203
392.369605,3524.039291,5255.462188,8364.327145
392.369914,4060.306139,4293.194464,9104.533087
392.370222,2757.943793,1036.288319,9696.697840
392.370530,995.924147,-0.000000,12213.398043
392.370838,-1149.143247,-666.185348,12583.501014
392.371146,-3064.381992,-3627.009116,13027.624579
392.371454,-4596.572988,-2368.659014,12139.377449
392.371762,-2987.772442,-2442.679609,11843.295072
392.372070,-459.657299,-2812.782580,11103.089130
392.372378,536.266849,-148.041188,7846.182985
392.372686,1685.410096,-74.020594,6809.894666
392.372994,1838.629195,518.144159,7846.182985
392.373303,2221.676944,3108.864956,7698.141797
392.373611,2068.457845,3330.926739,8734.430116
392.373919,4290.134789,3404.947333,9178.553681
392.374227,4213.525239,3478.967927,7624.121203
392.374535,2145.067394,1036.288319,9918.759623
392.374843,919.314598,-1406.391290,13249.686362
392.375151,-1149.143247,-1850.514855,11843.295072
392.375459,-3983.696590,-3552.988522,12879.583391
392.375767,-3524.039291,-3923.091493,12435.459826
392.376075,-2911.162892,-3256.906145,10510.924376
392.376383,-229.828649,-2220.617826,10288.862594
392.376692,306.438199,-0.000000,6957.935855
392.377000,1762.019645,666.185348,7031.956449
392.377308,842.705048,1110.308913,7920.203579
392.377616,1302.362347,3182.885551,8364.327145
392.377924,2451.505594,3256.906145,8956.491898
392.378232,3064.381992,3552.988522,9474.636058
392.378540,2987.772442,2812.782580,9474.636058
392.378848,1072.533697,222.061783,10436.903782
392.379156,0.000000,-888.247130,12731.542202
392.379464,-2145.067394,-962.267725,11695.253884
392.379773,-2604.724693,-2812.782580,11843.295072
392.380081,-2221.676944,-1998.556043,10955.047942
392.380389,-1762.019645,-2294.638420,10436.903782
392.380697,383.047749,-1702.473667,9474.636058
392.381005,1149.143247,148.041188,6217.729913
392.381313,2298.286494,1110.308913,6143.709319
392.381621,2145.067394,1924.535449,6587.832884
392.381929,1532.190996,4219.173869,7031.956449
392.382237,3447.429741,3108.864956,9918.759623
392.382545,3830.477490,3552.988522,7920.203579
392.382853,2068.457845,3034.844362,8586.388927
392.383162,2451.505594,-1184.329507,13323.706956
392.383470,153.219100,-666.185348,11177.109724
392.383778,-2757.943793,-1924.535449,11843.295072
392.384086,-2681.334243,-2590.720797,11769.274478
392.384394,-1915.238745,-2516.700203,10584.944971
392.384702,-1608.800546,-2664.741391,9844.739029
392.385010,612.876398,-1924.535449,9474.636058
392.385318,1378.971896,-0.000000,7402.059420
392.385626,1225.752797,-0.000000,7920.203579
392.385934,1685.410096,1924.535449,9178.553681
392.386242,2528.115143,3108.864956,7846.182985
392.386551,2757.943793,3627.009116,8364.327145
392.386859,4290.134789,3478.967927,8290.306550
392.387167,4060.306139,2812.782580,8586.388927
392.387475,2604.724693,-888.247130,11103.089130
392.387783,383.047749,-1554.432478,11991.336260
392.388091,-2068.457845,-2664.741391,11917.315666
392.388399,-3447.429741,-3627.009116,12139.377449
392.388707,-2987.772442,-3034.844362,11029.068536
392.389015,-1302.362347,-2886.803174,11103.089130
392.389323,153.219100,-1480.411884,8734.430116
392.389632,1072.533697,-0.000000,7550.100608
392.389940,1532.190996,740.205942,7254.018232
392.390248,1762.019645,1998.556043,7994.224174
392.390556,2834.553343,3849.070898,7920.203579
392.390864,3370.820191,4515.256246,8142.265362
392.391172,4366.744339,4145.153275,7698.141797
392.391480,2681.334243,2738.761985,8660.409521
392.391788,2145.067394,222.061783,11103.089130
392.392096,76.609550,-222.061783,11547.212695
392.392404,-1991.848295,-1998.556043,11769.274478
392.392712,-2374.896044,-3108.864956,12139.377449
392.393021,-2911.162892,-2738.761985,10214.842000
392.393329,-1608.800546,-3478.967927,10881.027347
392.393637,76.609550,-592.164754,8290.306550
392.393945,1302.362347,-666.185348,7994.224174
392.394253,689.485948,222.061783,7698.141797
392.394561,1762.019645,2368.659014,7179.997637
392.394869,2604.724693,3775.050304,9030.512492
392.395177,3677.258390,3404.947333,9770.718434
392.395485,3524.039291,3552.988522,8808.450710
392.395793,3064.381992,1036.288319,9252.574275
392.396102,1378.971896,-296.082377,11621.233289
392.396410,-383.047749,-1554.432478,12065.356855
392.396718,-2221.676944,-2664.741391,12657.521608
392.397026,-2604.724693,-2886.803174,11695.253884
392.397334,-2528.115143,-3034.844362,10288.862594
392.397642,229.828649,-2220.617826,10362.883188
392.397950,1072.533697,-666.185348,7920.203579
392.398258,1532.190996,296.082377,7328.038826
392.398566,766.095498,666.185348,7772.162391
392.398874,1225.752797,2812.782580,7920.203579
392.399182,2374.896044,3701.029710,8660.409521
392.399491,3217.601092,4145.153275,9252.574275
392.399799,3140.991542,3404.947333,9400.615463
392.400107,2451.505594,370.102971,10732.986159
392.400415,0.000000,-888.247130,11843.295072
392.400723,-1608.800546,-1480.411884,11547.212695
392.401031,-2681.334243,-2590.720797,11769.274478
392.401339,-3677.258390,-2146.597232,11029.068536
392.401647,-2145.067394,-2442.679609,10214.842000
392.401955,-306.438199,-1406.391290,8956.491898
392.402263,1149.143247,-0.000000,7994.224174
392.402571,995.924147,-296.082377,7179.997637
392.402880,1608.800546,1998.556043,7031.956449
392.403188,1302.362347,3404.947333,8364.327145
392.403496,2221.676944,3108.864956,8882.471304
392.403804,3217.601092,4071.132681,8660.409521
392.404112,2681.334243,2516.700203,9104.533087
392.404420,1762.019645,148.041188,11251.130318
392.404728,0.000000,-1110.308913,11917.315666
392.405036,-1608.800546,-3108.864956,12657.521608
392.405344,-3753.867940,-3034.844362,12213.398043
392.405652,-2298.286494,-2442.679609,10955.047942
392.405961,-2068.457845,-2368.659014,10066.800811
392.406269,842.705048,-2294.638420,9474.636058
392.406577,1302.362347,222.061783,6809.894666
392.406885,1532.190996,740.205942,6661.853478
392.407193,2604.724693,2220.617826,7328.038826
392.407501,2221.676944,3627.009116,7254.018232
392.407809,1838.629195,3552.988522,8882.471304
392.408117,4213.525239,3404.947333,9178.553681
392.408425,2834.553343,2294.638420,8956.491898
392.408733,1072.533697,-740.205942,12213.398043
392.409041,-306.438199,-2368.659014,13175.665768
392.409350,-2221.676944,-2590.720797,12731.542202
392.409658,-3600.648841,-3478.967927,11991.336260
392.409966,-2145.067394,-3034.844362,10881.027347
392.410274,-306.438199,-3108.864956,10955.047942
392.410582,766.095498,-444.123565,8438.347739
392.410890,1991.848295,296.082377,6365.771101
392.411198,1838.629195,1776.494261,6883.915261
392.411506,2298.286494,2960.823768,7179.997637
392.411814,2374.896044,4219.173869,7402.059420
392.412122,4060.306139,4293.194464,8808.450710
392.412430,4290.134789,3627.009116,7920.203579
392.412739,1762.019645,2812.782580,8734.430116
392.413047,1608.800546,-518.144159,12361.439231
392.413355,-689.485948,-1628.453072,12583.501014
392.413663,-3447.429741,-2368.659014,11917.315666
392.413971,-2604.724693,-2812.782580,11991.336260
392.414279,-2681.334243,-2590.720797,10510.924376
392.414587,-536.266849,-2368.659014,11029.068536
392.414895,1302.362347,-1184.329507,8512.368333
392.415203,2451.505594,-0.000000,6809.894666
392.415511,1532.190996,888.247130,6735.874072
392.415820,2145.067394,2664.741391,7031.956449
392.416128,2298.286494,2960.823768,9030.512492
392.416436,3524.039291,3552.988522,9178.553681
392.416744,3524.039291,2960.823768,8512.368333
392.417052,2757.943793,-0.000000,10214.842000
392.417360,766.095498,-1924.535449,12805.562797
392.417668,-1302.362347,-2442.679609,12805.562797
392.417976,-3294.210641,-3256.906145,12583.501014
392.418284,-2528.115143,-2960.823768,11917.315666
392.418592,-1838.629195,-2738.761985,10436.903782
392.418900,1225.752797,-1628.453072,9918.759623
392.419209,2451.505594,-74.020594,7105.977043
392.419517,2528.115143,1036.288319,6217.729913
392.419825,2298.286494,2220.617826,5921.647536
392.420133,2604.724693,4219.173869,6735.874072
392.420441,2681.334243,4145.153275,7920.203579
392.420749,3294.210641,4071.132681,8586.388927
392.421057,3524.039291,2738.761985,8660.409521
392.421365,842.705048,-222.061783,10288.862594
392.421673,-536.266849,-2294.638420,13767.830521
392.421981,-2451.505594,-2812.782580,13989.892304
392.422289,-4519.963438,-3552.988522,13545.768739
392.422598,-4366.744339,-3108.864956,12805.562797
392.422906,-1225.752797,-2220.617826,10658.965565
392.423214,536.266849,-740.205942,9474.636058
392.423522,1532.190996,296.082377,6735.874072
392.423830,3370.820191,1480.411884,6661.853478
392.424138,2145.067394,3627.009116,7105.977043
392.424446,2681.334243,4737.318029,6957.935855
392.424754,3677.258390,4145.153275,8882.471304
392.425062,3830.477490,4367.215058,8438.347739
392.425370,2681.334243,2590.720797,8734.430116
392.425679,1225.752797,-666.185348,11695.253884
392.425987,-612.876398,-2072.576638,13471.748144
392.426295,-3524.039291,-3775.050304,13841.851115
392.426603,-3753.867940,-4441.235652,14359.995275
392.426911,-3064.381992,-2960.823768,11621.233289
392.427219,-1378.971896,-2960.823768,11399.171507
392.427527,1149.143247,-1184.329507,8956.491898
392.427835,2528.115143,1184.329507,5625.565159
392.428143,2757.943793,1702.473667,5921.647536
392.428451,2451.505594,3701.029710,6809.894666
392.428759,2911.162892,4441.235652,7994.224174
392.429068,3064.381992,4663.297435,8734.430116
392.429376,3907.087040,3923.091493,9918.759623
392.429684,2757.943793,814.226536,9622.677246
392.429992,0.000000,-666.185348,11843.295072
392.430300,-1532.190996,-3330.926739,14730.098246
392.430608,-4290.134789,-4071.132681,13767.830521
392.430916,-4596.572988,-4071.132681,12953.603985
392.431224,-2987.772442,-3330.926739,12139.377449
392.431532,-1149.143247,-2442.679609,9622.677246
392.431840,1532.190996,-222.061783,9030.512492
392.432149,2451.505594,740.205942,6513.812290
392.432457,2374.896044,2812.782580,5329.482782
392.432765,3447.429741,3404.947333,6883.915261
392.433073,2757.943793,5847.626942,5921.647536
392.433381,3447.429741,3997.112087,8808.450710
392.433689,3524.039291,3923.091493,8290.306550
392.433997,1149.143247,1702.473667,9474.636058
392.434305,0.000000,-1924.535449,13915.871710
392.434613,-2604.724693,-2886.803174,13471.748144
392.434921,-4596.572988,-3775.050304,13915.871710
392.435229,-3983.696590,-3256.906145,11473.192101
392.435538,-2757.943793,-2664.741391,10362.883188
392.435846,-689.485948,-1850.514855,10955.047942
392.436154,1762.019645,-0.000000,7920.203579
392.436462,2604.724693,1628.453072,5551.544565
392.436770,2528.115143,2516.700203,5699.585753
392.437078,3140.991542,3849.070898,6957.935855
392.437386,2604.724693,4737.318029,7624.121203
392.437694,3370.820191,4811.338623,7994.224174
392.438002,3524.039291,2664.741391,8956.491898
392.438310,1378.971896,592.164754,9696.697840
392.438618,306.438199,-2368.659014,13767.830521
392.438927,-2911.162892,-4589.276840,14582.057057
392.439235,-4213.525239,-4811.338623,13619.789333
392.439543,-4060.306139,-3923.091493,12731.542202
392.439851,-3217.601092,-3404.947333,10807.006753
392.440159,153.219100,-3256.906145,10732.986159
392.440467,1608.800546,296.082377,6883.915261
392.440775,2374.896044,1036.288319,5995.668130
392.441083,2604.724693,2664.741391,5847.626942
392.441391,3753.867940,3701.029710,6513.812290
392.441699,3830.477490,4663.297435,7105.977043
392.442008,3140.991542,4293.194464,8216.285956
392.442316,3294.210641,2812.782580,8512.368333
392.442624,536.266849,-222.061783,10881.027347
392.442932,-689.485948,-2516.700203,13175.665768
392.443240,-3370.820191,-3034.844362,12879.583391
392.443548,-4596.572988,-4367.215058,12953.603985
392.443856,-3064.381992,-3256.906145,11917.315666
392.444164,-2068.457845,-2368.659014,10510.924376
392.444472,1225.752797,-1332.370696,9326.594869
392.444780,1915.238745,444.123565,6291.750507
392.445088,3370.820191,1554.432478,5847.626942
392.445396,3600.648841,3330.926739,5551.544565
392.445704,3217.601092,4367.215058,6883.915261
392.446012,3294.210641,4293.194464,8438.347739
392.446320,4060.306139,4515.256246,8734.430116
392.446628,2757.943793,2368.659014,9622.677246
392.446936,536.266849,-888.247130,12139.377449
392.447244,-229.828649,-2146.597232,13471.748144
392.447553,-3370.820191,-3997.112087,13619.789333
392.447861,-3753.867940,-3775.050304,12879.583391
392.448169,-2221.676944,-2886.803174,11621.233289
392.448477,-919.314598,-3108.864956,11029.068536
392.448785,1532.190996,-1924.535449,9770.718434
392.449093,1838.629195,592.164754,6365.771101
392.449401,3524.039291,1184.329507,6735.874072
392.449709,3294.210641,3034.844362,6587.832884
392.450017,3753.867940,5033.400406,6957.935855
392.450325,4290.134789,4589.276840,8808.450710
392.450633,4596.572988,4589.276840,8216.285956
392.450941,2451.505594,2664.741391,8808.450710
392.451249,1072.533697,-888.247130,13915.871710
392.451557,-995.924147,-3256.906145,13619.789333
392.451865,-3447.429741,-3849.070898,13175.665768
392.452173,-4290.134789,-3849.070898,12879.583391
392.452481,-3677.258390,-3997.112087,11917.315666
392.452789,-1608.800546,-2368.659014,11991.336260
392.453097,766.095498,-1332.370696,9474.636058
392.453405,2145.067394,1332.370696,6069.688724
392.453713,2604.724693,1850.514855,5773.606348
392.454021,4673.182538,3849.070898,6365.771101
392.454329,3294.210641,5255.462188,6513.812290
392.454637,5439.278036,5477.523971,7402.059420
392.454945,4826.401637,5255.462188,7550.100608
392.455253,2451.505594,2886.803174,8364.327145
392.455561,459.657299,-888.247130,12953.603985
392.455869,-1532.190996,-1702.473667,14137.933492
392.456177,-4443.353888,-3330.926739,13619.789333
392.456485,-4749.792088,-3849.070898,12657.521608
392.456793,-3677.258390,-3182.885551,11843.295072
392.457101,-1302.362347,-3034.844362,12065.356855
392.457409,766.095498,-666.185348,8364.327145
392.457717,2451.505594,518.144159,5847.626942
392.458025,2221.676944,1480.411884,5921.647536
392.458333,2681.334243,3256.906145,7031.956449
392.458641,3064.381992,4515.256246,7994.224174
392.458949,4749.792088,4885.359217,7772.162391
392.459257,3983.696590,3701.029710,7624.121203
392.459565,2374.896044,1184.329507,9474.636058
392.459873,306.438199,-1554.432478,13323.706956
392.460182,-2374.896044,-3182.885551,14137.933492
392.460490,-4443.353888,-4145.153275,13175.665768
392.460798,-4596.572988,-4515.256246,12287.418637
392.461106,-3600.648841,-4071.132681,12139.377449
392.461414,-612.876398,-3404.947333,11843.295072
392.461722,766.095498,814.226536,7254.018232
392.462030,2528.115143,666.185348,5625.565159
392.462338,2834.553343,2812.782580,5181.441594
392.462646,3140.991542,4071.132681,7550.100608
392.462954,3524.039291,4293.194464,8142.265362
392.463262,4903.011187,5181.441594,7846.182985
392.463570,3677.258390,3775.050304,8586.388927
392.463878,1378.971896,962.267725,10881.027347
392.464186,0.000000,-962.267725,14211.954086
392.464494,-3447.429741,-2294.638420,13915.871710
392.464802,-4903.011187,-3182.885551,12361.439231
392.465110,-4060.306139,-2812.782580,11769.274478
392.465418,-3600.648841,-2516.700203,12065.356855
392.465726,-689.485948,-1702.473667,11029.068536
392.466034,2451.505594,-0.000000,6661.853478
392.466342,2528.115143,888.247130,5181.441594
392.466650,2298.286494,2220.617826,5847.626942
392.466958,3677.258390,3552.988522,7031.956449
392.467266,3370.820191,4737.318029,7920.203579
392.467574,3753.867940,4515.256246,7105.977043
392.467882,3753.867940,3108.864956,7328.038826
392.468190,1532.190996,370.102971,11177.109724
392.468498,-229.828649,-1776.494261,13545.768739
392.468806,-2911.162892,-2812.782580,12435.459826
392.469114,-4060.306139,-3330.926739,13249.686362
392.469422,-3830.477490,-4219.173869,12139.377449
392.469730,-3370.820191,-3478.967927,11325.150913
392.470038,229.828649,-2664.741391,11029.068536
392.470346,1455.581446,-666.185348,7031.956449
392.470654,1838.629195,296.082377,4811.338623
392.470962,3447.429741,1776.494261,6735.874072
392.471270,3600.648841,2886.803174,6809.894666
392.471578,3370.820191,3552.988522,7328.038826
392.471886,5132.839837,3775.050304,7402.059420
392.472194,3830.477490,2220.617826,8512.368333
392.472502,1608.800546,-740.205942,10510.924376
392.472811,-153.219100,-2812.782580,12953.603985
392.473119,-2068.457845,-2960.823768,12139.377449
392.473427,-3753.867940,-4293.194464,11917.315666
392.473735,-2834.553343,-3552.988522,11251.130318
392.474043,-1991.848295,-2442.679609,12065.356855
392.474351,842.705048,-1480.411884,9770.718434
392.474659,1225.752797,1036.288319,6069.688724
392.474967,1915.238745,1628.453072,6143.709319
392.475275,3064.381992,2516.700203,6439.791695
392.475583,4596.572988,4959.379811,6439.791695
392.475891,4443.353888,5181.441594,7772.162391
392.476199,4826.401637,4885.359217,7476.080014
392.476507,3447.429741,2368.659014,8586.388927
392.476815,995.924147,-148.041188,11843.295072
392.477123,-1225.752797,-1628.453072,13175.665768
392.477431,-2911.162892,-2664.741391,13027.624579
392.477739,-4366.744339,-3108.864956,13323.706956
392.478047,-3907.087040,-2812.782580,11695.253884
392.478355,-1378.971896,-2368.659014,11917.315666
392.478663,766.095498,-370.102971,9252.574275
392.478971,1991.848295,888.247130,5551.544565
392.479279,2068.457845,1924.535449,6439.791695
392.479587,2374.896044,2664.741391,8512.368333
392.479895,2834.553343,3552.988522,9326.594869
392.480203,3983.696590,4589.276840,8882.471304
392.480511,4060.306139,3701.029710,9178.553681
392.480819,2145.067394,1332.370696,10140.821405
392.481127,1532.190996,-518.144159,12435.459826
392.481435,-1072.533697,-2368.659014,12805.562797
392.481743,-3370.820191,-2738.761985,12361.439231
392.482051,-3140.991542,-3552.988522,12509.480420
392.482359,-3524.039291,-2886.803174,11547.212695
392.482667,-1378.971896,-2812.782580,11547.212695
392.482975,842.705048,-592.164754,8512.368333
392.483283,1149.143247,444.123565,6957.935855
392.483591,1685.410096,888.247130,7179.997637
392.483899,2528.115143,2886.803174,7624.121203
392.484207,2987.772442,3775.050304,8734.430116
392.484515,4213.525239,4515.256246,8660.409521
392.484823,4213.525239,3701.029710,9104.533087
392.485132,2145.067394,740.205942,10066.800811
392.485440,0.000000,-740.205942,11399.171507
392.485748,-1149.143247,-2368.659014,13175.665768
392.486056,-2451.505594,-2516.700203,11769.274478
392.486364,-3064.381992,-2368.659014,11399.171507
392.486672,-2604.724693,-2812.782580,11325.150913
392.486980,-383.047749,-1998.556043,11103.089130
392.487288,766.095498,740.205942,7179.997637
392.487596,919.314598,1110.308913,6735.874072
392.487904,1915.238745,2368.659014,6809.894666
392.488212,3140.991542,2812.782580,6957.935855
392.488520,3140.991542,4737.318029,8142.265362
392.488828,4060.306139,3849.070898,8364.327145
392.489136,3447.429741,3404.947333,8142.265362
392.489444,1378.971896,-0.000000,10288.862594
392.489752,0.000000,-1406.391290,12361.439231
392.490060,-2068.457845,-1924.535449,12657.521608
392.490368,-3217.601092,-2886.803174,12287.418637
392.490676,-3524.039291,-2368.659014,11473.192101
392.490984,-2221.676944,-2960.823768,11695.253884
392.491292,-229.828649,-2220.617826,10214.842000
392.491600,1225.752797,-518.144159,7031.956449
392.491908,1378.971896,-0.000000,5921.647536
392.492216,1072.533697,1184.329507,7328.038826
392.492524,2068.457845,2072.576638,8808.450710
392.492832,2528.115143,3256.906145,8956.491898
392.493140,3983.696590,3627.009116,8586.388927
392.493448,3294.210641,1850.514855,8586.388927
392.493756,1455.581446,-0.000000,10658.965565
392.494064,536.266849,-2442.679609,12287.418637
392.494372,-2528.115143,-3034.844362,11325.150913
392.494680,-3140.991542,-3330.926739,12213.398043
392.494988,-2681.334243,-4219.173869,11251.130318
392.495296,-1915.238745,-2590.720797,10955.047942
392.495604,153.219100,-1554.432478,10140.821405
392.495912,306.438199,518.144159,6661.853478
392.496220,1532.190996,1036.288319,6365.771101
392.496528,1378.971896,2664.741391,7254.018232
392.496836,2298.286494,3627.009116,8364.327145
392.497144,3447.429741,4293.194464,8956.491898
392.497452,3907.087040,4219.173869,8216.285956
392.497761,3140.991542,2220.617826,8882.471304
392.498069,383.047749,-0.000000,10436.903782
392.498377,0.000000,-1110.308913,13471.748144
392.498685,-1532.190996,-2664.741391,11917.315666
392.498993,-4366.744339,-1850.514855,11177.109724
392.499301,-2298.286494,-2812.782580,12731.542202
392.499609,-1072.533697,-1702.473667,10362.883188
392.499917,459.657299,-444.123565,9178.553681
392.500225,1762.019645,888.247130,6513.812290
392.500533,2145.067394,814.226536,7328.038826
392.500841,1762.019645,2368.659014,9104.533087
392.501149,2145.067394,3923.091493,9326.594869
392.501457,3294.210641,3849.070898,9918.759623
392.501765,3217.601092,3627.009116,8734.430116
392.502073,2451.505594,962.267725,10140.821405
392.502381,2068.457845,-0.000000,11325.150913
392.502689,0.000000,-2368.659014,12435.459826
392.502997,-2068.457845,-2812.782580,12657.521608
392.503305,-2068.457845,-2886.803174,11547.212695
392.503613,-2221.676944,-2664.741391,11029.068536
392.503921,-459.657299,-2220.617826,10732.986159
392.504229,1685.410096,296.082377,7476.080014
392.504537,2374.896044,1258.350101,6439.791695
392.504845,2374.896044,1258.350101,6809.894666
392.505153,2451.505594,3034.844362,7031.956449
392.505461,2298.286494,3330.926739,8808.450710
392.505769,2911.162892,3330.926739,9474.636058
392.506077,2374.896044,2516.700203,9400.615463
392.506385,1149.143247,222.061783,11177.109724
392.506693,-383.047749,-2220.617826,12435.459826
392.507001,-1455.581446,-2886.803174,12879.583391
392.507309,-2604.724693,-3923.091493,12879.583391
392.507617,-3064.381992,-2442.679609,11251.130318
392.507925,-2068.457845,-2590.720797,10066.800811
392.508233,229.828649,-740.205942,9400.615463
392.508541,1991.848295,518.144159,7105.977043
392.508849,2451.505594,1998.556043,4959.379811
392.509157,2834.553343,2590.720797,5255.462188
392.509465,2451.505594,3256.906145,6809.894666
392.509773,2834.553343,3997.112087,7772.162391
392.510081,3140.991542,3256.906145,9474.636058
392.510390,1991.848295,1406.391290,9178.553681
392.510698,766.095498,-962.267725,10732.986159
392.511006,-919.314598,-2220.617826,12287.418637
392.511314,-1991.848295,-3775.050304,13323.706956
392.511622,-3370.820191,-2664.741391,12213.398043
392.511930,-1685.410096,-2664.741391,11029.068536
392.512238,-3447.429741,-2368.659014,9548.656652
392.512546,1149.143247,-2146.597232,10288.862594
392.512854,1685.410096,-296.082377,7254.018232
392.513162,1608.800546,1554.432478,4885.359217
392.513470,2374.896044,1924.535449,7031.956449
392.513778,1915.238745,3775.050304,7105.977043
392.514086,1991.848295,3182.885551,9992.780217
392.514394,2451.505594,3923.091493,10066.800811
392.514702,2528.115143,1480.411884,10066.800811
392.515010,766.095498,-592.164754,11103.089130
392.515318,689.485948,-2590.720797,12213.398043
392.515626,-1378.971896,-3108.864956,13175.665768
392.515934,-2987.772442,-3404.947333,10807.006753
392.516242,-2911.162892,-2368.659014,10066.800811
392.516550,-459.657299,-2146.597232,10362.883188
392.516858,1378.971896,-1184.329507,8734.430116
392.517166,1378.971896,814.226536,6587.832884
392.517474,2068.457845,1184.329507,6439.791695
392.517782,2451.505594,2960.823768,7105.977043
392.518090,2068.457845,4219.173869,7772.162391
392.518398,3217.601092,3775.050304,9770.718434
392.518706,2987.772442,4219.173869,8734.430116
392.519014,2221.676944,1332.370696,10288.862594
392.519322,459.657299,-888.247130,11621.233289
392.519630,-1072.533697,-2220.617826,13915.871710
392.519938,-1608.800546,-3182.885551,13027.624579
392.520246,-3140.991542,-2072.576638,11177.109724
392.520554,-2451.505594,-2146.597232,11325.150913
392.520862,-153.219100,-1554.432478,9844.739029
392.521170,1762.019645,222.061783,8364.327145
392.521478,2068.457845,1184.329507,6143.709319
392.521786,2834.553343,1776.494261,6439.791695
392.522094,2757.943793,3256.906145,7772.162391
392.522402,2451.505594,2960.823768,8068.244768
392.522710,2911.162892,3627.009116,9548.656652
392.523019,2604.724693,2886.803174,8586.388927
392.523327,2068.457845,444.123565,10658.965565
392.523635,0.000000,-1480.411884,12583.501014
392.523943,-1072.533697,-3034.844362,13471.748144
392.524251,-2451.505594,-3627.009116,12953.603985
392.524559,-2834.553343,-3256.906145,11473.192101
392.524867,-1838.629195,-2664.741391,10214.842000
392.525175,536.266849,-1850.514855,10362.883188
392.525483,2221.676944,222.061783,7920.203579
392.525791,1608.800546,1702.473667,4959.379811
392.526099,2451.505594,2368.659014,5699.585753
392.526407,2757.943793,3923.091493,6957.935855
392.526715,3447.429741,3849.070898,8438.347739
392.527023,3064.381992,3701.029710,9918.759623
392.527331,2681.334243,2442.679609,10140.821405
392.527639,1225.752797,-592.164754,10584.944971
392.527947,-1455.581446,-2516.700203,13767.830521
392.528255,-2145.067394,-4145.153275,14952.160028
392.528563,-3983.696590,-3256.906145,11843.295072
392.528871,-3447.429741,-3034.844362,11991.336260
392.529179,-1532.190996,-2960.823768,10881.027347
392.529487,689.485948,-370.102971,8290.306550
392.529795,3294.210641,1110.308913,7328.038826
392.530103,2987.772442,1924.535449,4441.235652
392.530411,3830.477490,3849.070898,4737.318029
392.530719,3140.991542,3923.091493,6809.894666
392.531027,2528.115143,4367.215058,8142.265362
392.531335,3447.429741,3923.091493,9474.636058
392.531643,2451.505594,2294.638420,9548.656652
392.531951,0.000000,-444.123565,10881.027347
392.532259,0.000000,-2516.700203,12879.583391
392.532567,-2834.553343,-3627.009116,14211.954086
392.532875,-3753.867940,-3552.988522,12879.583391
392.533183,-2528.115143,-3330.926739,11251.130318
392.533491,-1532.190996,-1998.556043,11103.089130
392.533799,459.657299,-1406.391290,8956.491898
392.534107,2374.896044,148.041188,7105.977043
392.534415,2451.505594,1924.535449,5773.606348
392.534723,1762.019645,3108.864956,5551.544565
392.535031,3370.820191,2886.803174,7994.224174
392.535340,2604.724693,5033.400406,7698.141797
392.535648,3524.039291,3849.070898,9178.553681
392.535956,1378.971896,2146.597232,9252.574275
392.536264,229.828649,-962.267725,12361.439231
392.536572,-1149.143247,-3552.988522,14434.015869
392.536880,-3753.867940,-3701.029710,13767.830521
392.537188,-3294.210641,-4663.297435,12583.501014
392.537496,-3524.039291,-3478.967927,11399.171507
392.537804,-1532.190996,-2886.803174,10881.027347
392.538112,1302.362347,-1406.391290,9252.574275
392.538420,2451.505594,1332.370696,5625.565159
392.538728,3064.381992,3182.885551,4663.297435
392.539036,3830.477490,4293.194464,4959.379811
392.539344,4060.306139,5477.523971,6439.791695
392.539652,4596.572988,4959.379811,7550.100608
392.539960,4596.572988,5181.441594,8364.327145
392.540268,2298.286494,2146.597232,8882.471304
392.540576,383.047749,-1332.370696,12509.480420
392.540884,-1608.800546,-3108.864956,14359.995275
392.541192,-3677.258390,-3701.029710,14211.954086
392.541500,-4366.744339,-3997.112087,12879.583391
392.541808,-3907.087040,-3256.906145,11695.253884
392.542116,-1915.238745,-2220.617826,11547.212695
392.542424,1302.362347,-592.164754,9474.636058
392.542732,2451.505594,888.247130,6143.709319
392.543040,2145.067394,2442.679609,5107.421000
392.543348,3753.867940,3034.844362,6735.874072
392.543656,3217.601092,4737.318029,6661.853478
392.543964,3370.820191,4663.297435,7994.224174
392.544272,5132.839837,3997.112087,8438.347739
392.544580,2374.896044,1332.370696,9696.697840
392.544888,0.000000,-1406.391290,12731.542202
392.545196,-459.657299,-3478.967927,14285.974681
392.545504,-3524.039291,-2590.720797,13027.624579
392.545812,-4366.744339,-3552.988522,13397.727550
392.546120,-2757.943793,-3034.844362,11991.336260
392.546428,-1225.752797,-1850.514855,10436.903782
392.546736,1225.752797,-1036.288319,8808.450710
392.547044,2528.115143,1036.288319,4737.318029
392.547352,1838.629195,2812.782580,6365.771101
392.547660,2451.505594,3330.926739,8364.327145
392.547968,2528.115143,4663.297435,7105.977043
392.548276,2298.286494,4959.379811,9252.574275
392.548584,2298.286494,2294.638420,9918.759623
392.548892,919.314598,-0.000000,9992.780217
392.549200,-842.705048,-2960.823768,13471.748144
392.549508,-2145.067394,-4589.276840,13989.892304
392.549816,-3753.867940,-4589.276840,12287.418637
392.550124,-4060.306139,-3849.070898,12509.480420
392.550432,-2604.724693,-3923.091493,12065.356855
392.550740,76.609550,-1332.370696,9178.553681
392.551048,2374.896044,592.164754,6439.791695
392.551356,2451.505594,1036.288319,4811.338623
392.551664,3294.210641,3034.844362,5107.421000
392.551972,3600.648841,4589.276840,6291.750507
392.552280,3983.696590,4515.256246,6957.935855
392.552588,3830.477490,4959.379811,7031.956449
392.552896,3064.381992,3404.947333,8512.368333
392.553204,1378.971896,-1110.308913,11103.089130
392.553511,-766.095498,-2146.597232,12213.398043
392.553819,-2834.553343,-3478.967927,13915.871710
392.554127,-3064.381992,-4441.235652,13619.789333
392.554435,-3524.039291,-3849.070898,11251.130318
392.554743,-2221.676944,-3108.864956,11325.150913
392.555051,459.657299,-2368.659014,10288.862594
392.555359,2374.896044,592.164754,6217.729913
392.555667,2298.286494,1110.308913,5181.441594
392.555975,2145.067394,3034.844362,6143.709319
392.556283,2987.772442,3923.091493,7254.018232
392.556591,3677.258390,4293.194464,8068.244768
392.556899,3140.991542,5773.606348,7328.038826
392.557207,3064.381992,2590.720797,8882.471304
392.557515,919.314598,-148.041188,11843.295072
392.557823,-1225.752797,-2368.659014,14137.933492
392.558131,-2604.724693,-3849.070898,13397.727550
392.558439,-3830.477490,-3997.112087,12213.398043
392.558747,-4443.353888,-4071.132681,12065.356855
392.559055,-1915.238745,-3034.844362,11843.295072
392.559363,1608.800546,-1628.453072,9992.780217
392.559671,2221.676944,962.267725,5477.523971
392.559979,2528.115143,1776.494261,4515.256246
392.560287,3830.477490,3627.009116,6587.832884
392.560595,3140.991542,4367.215058,6957.935855
392.560903,4519.963438,4737.318029,7550.100608
392.561211,4136.915689,4663.297435,7772.162391
392.561519,3140.991542,1628.453072,9622.677246
392.561826,842.705048,-888.247130,12361.439231
392.562134,0.000000,-2294.638420,14137.933492
392.562442,-2528.115143,-3256.906145,12805.562797
392.562750,-3830.477490,-2960.823768,11843.295072
392.563058,-3600.648841,-2812.782580,12361.439231
392.563366,-1532.190996,-2960.823768,12805.562797
392.563674,612.876398,-740.205942,9400.615463
392.563982,1991.848295,814.226536,5699.585753
392.564290,2221.676944,1258.350101,5995.668130
392.564598,2528.115143,2886.803174,6957.935855
392.564906,2834.553343,3552.988522,8808.450710
392.565214,3907.087040,4367.215058,8512.368333
392.565522,3294.210641,4589.276840,7698.141797
392.565830,3217.601092,1110.308913,10140.821405
392.566138,766.095498,-888.247130,12139.377449
392.566446,-383.047749,-1110.308913,12435.459826
392.566754,-2451.505594,-2664.741391,12657.521608
392.567062,-2451.505594,-2886.803174,12139.377449
392.567370,-3140.991542,-2664.741391,11695.253884
392.567678,-1225.752797,-1924.535449,11399.171507
392.567986,1302.362347,-666.185348,9030.512492
392.568294,1072.533697,1036.288319,5181.441594
392.568602,1532.190996,1850.514855,6735.874072
392.568910,3447.429741,3034.844362,8216.285956
392.569218,2221.676944,4071.132681,8438.347739
392.569526,2911.162892,4293.194464,8290.306550
392.569834,3677.258390,3701.029710,8142.265362
392.570141,1991.848295,1184.329507,10066.800811
392.570449,0.000000,-2294.638420,12361.439231
392.570757,-766.095498,-2368.659014,12287.418637
392.571065,-2911.162892,-4219.173869,12509.480420
392.571373,-4060.306139,-3256.906145,12139.377449
392.571681,-3447.429741,-3108.864956,11843.295072
392.571989,-919.314598,-2220.617826,11103.089130
392.572297,612.876398,-74.020594,7550.100608
392.572605,1838.629195,1036.288319,5699.585753
392.572913,1455.581446,2146.597232,6143.709319
392.573221,2528.115143,3330.926739,7254.018232
392.573529,2604.724693,4663.297435,7698.141797
392.573837,3524.039291,4293.194464,8290.306550
392.574145,2681.334243,2960.823768,9178.553681
392.574453,1532.190996,296.082377,10510.924376
392.574761,689.485948,-1480.411884,11991.336260
392.575069,-1455.581446,-2590.720797,11843.295072
392.575377,-1838.629195,-2960.823768,11843.295072
392.575685,-2757.943793,-2960.823768,11843.295072
392.575993,-1608.800546,-3256.906145,12139.377449
392.576301,-229.828649,-2294.638420,10362.883188
392.576609,995.924147,-0.000000,6735.874072
392.576917,1455.581446,888.247130,6809.894666
392.577225,1455.581446,1258.350101,6957.935855
392.577533,1991.848295,3923.091493,7698.141797
392.577841,2145.067394,3627.009116,9178.553681
392.578149,2834.553343,4145.153275,8660.409521
392.578457,1915.238745,2886.803174,9844.739029
392.578764,1455.581446,-74.020594,11843.295072
392.579072,0.000000,-1776.494261,11917.315666
392.579380,-1532.190996,-2294.638420,11251.130318
392.579688,-2451.505594,-2960.823768,11473.192101
392.579996,-2911.162892,-2516.700203,11325.150913
392.580304,-1762.019645,-2590.720797,11917.315666
392.580612,459.657299,-1184.329507,9548.656652
392.580920,1225.752797,592.164754,5773.606348
392.581228,1302.362347,1184.329507,6143.709319
392.581536,1991.848295,1924.535449,6661.853478
392.581844,1915.238745,3256.906145,7402.059420
392.582152,3140.991542,3997.112087,8364.327145
392.582460,3294.210641,3775.050304,8734.430116
392.582768,2987.772442,2146.597232,10362.883188
392.583076,1991.848295,-1110.308913,11843.295072
392.583384,766.095498,-1184.329507,11177.109724
392.583692,-1532.190996,-2368.659014,10881.027347
392.584000,-995.924147,-2812.782580,11769.274478
392.584308,-1991.848295,-1776.494261,9844.739029
392.584616,-383.047749,-1924.535449,11399.171507
392.584924,995.924147,-592.164754,8808.450710
392.585232,1378.971896,1258.350101,6069.688724
392.585540,536.266849,814.226536,7328.038826
392.585848,1685.410096,1628.453072,8586.388927
392.586156,1225.752797,2812.782580,8438.347739
392.586464,1685.410096,3034.844362,9622.677246
392.586772,2451.505594,2664.741391,9696.697840
392.587079,1991.848295,740.205942,10584.944971
392.587387,1149.143247,-814.226536,11991.336260
392.587695,689.485948,-1924.535449,11177.109724
392.588003,-689.485948,-2072.576638,11473.192101
392.588311,-1532.190996,-2294.638420,11473.192101
392.588619,-1072.533697,-2146.597232,10732.986159
392.588927,-536.266849,-1480.411884,10881.027347
392.589235,1225.752797,-1036.288319,8586.388927
392.589543,383.047749,1332.370696,6069.688724
392.589851,995.924147,962.267725,7698.141797
392.590159,1225.752797,2294.638420,7698.141797
392.590467,1838.629195,2960.823768,9326.594869
392.590775,1762.019645,3552.988522,8660.409521
392.591083,2987.772442,2294.638420,10436.903782
392.591391,2221.676944,518.144159,10436.903782
392.591699,689.485948,-444.123565,10881.027347
392.592007,76.609550,-2442.679609,11473.192101
392.592315,-1378.971896,-2220.617826,9992.780217
392.592623,-1762.019645,-2590.720797,11473.192101
392.592931,-1378.971896,-2220.617826,10362.883188
392.593239,689.485948,-888.247130,9474.636058
392.593547,1149.143247,592.164754,7105.977043
392.593855,842.705048,962.267725,6143.709319
392.594163,3064.381992,1036.288319,7994.224174
392.594471,383.047749,2960.823768,5995.668130
392.594779,2145.067394,2072.576638,10066.800811
392.595087,2451.505594,2960.823768,9696.697840
392.595394,1685.410096,1998.556043,10066.800811
392.595702,1685.410096,-740.205942,11843.295072
392.596010,1455.581446,-1184.329507,11325.150913
392.596318,-306.438199,-1998.556043,11177.109724
392.596626,-995.924147,-2146.597232,10362.883188
392.596934,-766.095498,-1406.391290,9992.780217
392.597242,-1302.362347,-1850.514855,10658.965565
392.597550,1149.143247,-1110.308913,9918.759623
392.597858,842.705048,444.123565,6883.915261
392.598166,459.657299,296.082377,6957.935855
392.598474,383.047749,592.164754,8068.244768
392.598782,229.828649,3404.947333,7994.224174
392.599090,1378.971896,2072.576638,10510.924376
392.599398,1685.410096,3330.926739,9770.718434
392.599706,1608.800546,2590.720797,10066.800811
392.600014,2451.505594,-666.185348,11547.212695
392.600322,1302.362347,-740.205942,10066.800811
392.600630,153.219100,-1332.370696,10436.903782
392.600938,0.000000,-2368.659014,10732.986159
392.601246,-1149.143247,-1332.370696,9770.718434
392.601554,-766.095498,-2220.617826,10362.883188
392.601862,383.047749,-962.267725,9622.677246
392.602170,0.000000,148.041188,7698.141797
392.602478,306.438199,296.082377,7994.224174
392.602786,1225.752797,1036.288319,7846.182985
392.603094,383.047749,2886.803174,8216.285956
392.603402,1762.019645,2294.638420,9696.697840
392.603709,2145.067394,3034.844362,8660.409521
392.604017,3217.601092,1554.432478,10436.903782
392.604325,1915.238745,-0.000000,9548.656652
392.604633,1225.752797,-962.267725,10510.924376
392.604941,229.828649,-1998.556043,10881.027347
392.605249,-689.485948,-2146.597232,9696.697840
392.605557,-1225.752797,-1480.411884,11029.068536
392.605865,383.047749,-2368.659014,10658.965565
392.606173,0.000000,-296.082377,8364.327145
392.606481,536.266849,-74.020594,8216.285956
392.606789,229.828649,-0.000000,7994.224174
392.607097,76.609550,2072.576638,8364.327145
392.607405,383.047749,1998.556043,9992.780217
392.607713,1685.410096,2368.659014,9548.656652
392.608021,1991.848295,2590.720797,9770.718434
392.608329,2451.505594,1110.308913,10362.883188
392.608637,1455.581446,-518.144159,9918.759623
392.608945,766.095498,-1258.350101,10510.924376
392.609253,-459.657299,-1998.556043,11399.171507
392.609561,-306.438199,-1776.494261,10288.862594
392.609869,-689.485948,-1480.411884,10362.883188
392.610177,-536.266849,-1628.453072,10140.821405
392.610485,995.924147,-222.061783,8512.368333
392.610793,995.924147,888.247130,7402.059420
392.611101,153.219100,1332.370696,7624.121203
392.611409,536.266849,2294.638420,8216.285956
392.611717,536.266849,2590.720797,9992.780217
392.612024,1608.800546,2886.803174,9770.718434
392.612332,1838.629195,2516.700203,10066.800811
392.612640,2298.286494,296.082377,10807.006753
392.612948,459.657299,-1554.432478,11103.089130
392.613256,-153.219100,-2368.659014,11473.192101
392.613564,-1685.410096,-2738.761985,11547.212695
392.613872,-1838.629195,-2220.617826,10881.027347
392.614180,-919.314598,-2072.576638,10214.842000
392.614488,459.657299,-666.185348,9474.636058
392.614796,919.314598,222.061783,7624.121203
392.615104,153.219100,888.247130,6513.812290
392.615412,1072.533697,1998.556043,7402.059420
392.615720,919.314598,3182.885551,8142.265362
392.616028,1532.190996,2960.823768,9474.636058
392.616336,1838.629195,3552.988522,9326.594869
392.616644,2145.067394,2516.700203,9548.656652
392.616952,1762.019645,-0.000000,10214.842000
392.617260,0.000000,-444.123565,10732.986159
392.617568,-766.095498,-2220.617826,11621.233289
392.617876,-1302.362347,-1850.514855,11177.109724
392.618184,-1991.848295,-888.247130,10807.006753
392.618492,-995.924147,-1036.288319,10362.883188
392.618800,0.000000,-666.185348,9178.553681
392.619108,0.000000,814.226536,7846.182985
392.619416,-919.314598,-0.000000,7994.224174
392.619724,-1762.019645,888.247130,8660.409521
392.620032,-2451.505594,2146.597232,10807.006753
392.620340,-1685.410096,1332.370696,12065.356855
392.620647,-1302.362347,2590.720797,11251.130318
392.620955,76.609550,1184.329507,11991.336260
392.621263,0.000000,444.123565,10584.944971
392.621571,0.000000,-1036.288319,10288.862594
392.621879,-1225.752797,-2442.679609,11103.089130
392.622187,-2068.457845,-2220.617826,9992.780217
392.622495,-2681.334243,-1850.514855,9474.636058
392.622803,-1915.238745,-1110.308913,9770.718434
392.623111,612.876398,-0.000000,8586.388927
392.623419,612.876398,1924.535449,5847.626942
392.623727,-153.219100,1184.329507,7105.977043
392.624035,-383.047749,1628.453072,8068.244768
392.624343,-842.705048,2368.659014,8882.471304
392.624651,-1378.971896,1998.556043,10584.944971
392.624959,-919.314598,1480.411884,10584.944971
392.625267,-153.219100,1036.288319,10658.965565
392.625575,153.219100,-1480.411884,10955.047942
392.625883,-459.657299,-2072.576638,10066.800811
392.626191,-1838.629195,-3034.844362,10955.047942
392.626499,-2298.286494,-3182.885551,10658.965565
392.626807,-2911.162892,-2220.617826,9696.697840
392.627115,-1991.848295,-1258.350101,9474.636058
392.627423,-306.438199,148.041188,8586.388927
392.627731,1072.533697,2368.659014,5699.585753
392.628039,1455.581446,1850.514855,5477.523971
392.628347,536.266849,2220.617826,6661.853478
392.628655,-842.705048,2220.617826,8734.430116
392.628962,-1991.848295,2442.679609,10066.800811
392.629270,-2451.505594,1776.494261,11547.212695
392.629578,-2068.457845,1258.350101,11695.253884
392.629886,-1455.581446,-0.000000,11621.233289
392.630194,-1378.971896,-1110.308913,11621.233289
392.630502,-2068.457845,-2294.638420,10955.047942
392.630810,-3753.867940,-2294.638420,10288.862594
392.631118,-4443.353888,-3478.967927,11473.192101
392.631426,-4366.744339,-2664.741391,11547.212695
392.631734,-3830.477490,-222.061783,9696.697840
392.632042,-1915.238745,740.205942,8734.430116
392.632350,-306.438199,2738.761985,7105.977043
392.632658,76.609550,3182.885551,6513.812290
392.632966,-153.219100,1776.494261,8438.347739
392.633274,-536.266849,1702.473667,8586.388927
392.633582,-2451.505594,2072.576638,9548.656652
392.633890,-3064.381992,1036.288319,11177.109724
392.634198,-2145.067394,592.164754,11547.212695
392.634506,-1072.533697,444.123565,11547.212695
392.634814,-612.876398,296.082377,9252.574275
392.635122,-919.314598,-0.000000,8068.244768
392.635430,-2298.286494,-1628.453072,9548.656652
392.635738,-3753.867940,-2368.659014,11177.109724
392.636046,-4213.525239,-2368.659014,11843.295072
392.636354,-4903.011187,-1850.514855,11103.089130
392.636662,-3907.087040,-666.185348,10214.842000
392.636970,-2298.286494,740.205942,9474.636058
392.637277,-612.876398,1850.514855,8512.368333
392.637585,0.000000,2220.617826,7994.224174
392.637893,76.609550,1776.494261,7994.224174
392.638201,-1532.190996,444.123565,9178.553681
392.638509,-2528.115143,-74.020594,10288.862594
392.638817,-2987.772442,-148.041188,10362.883188
392.639125,-3140.991542,-222.061783,10214.842000
392.639433,-2145.067394,888.247130,9326.594869
392.639741,-153.219100,2072.576638,8216.285956
392.640049,0.000000,2072.576638,7846.182985
392.640357,0.000000,2220.617826,7772.162391
392.640665,-689.485948,1110.308913,8586.388927
392.640973,-2987.772442,-1036.288319,10881.027347
392.641281,-4213.525239,-2516.700203,12509.480420
392.641589,-4826.401637,-2442.679609,12213.398043
392.641897,-4213.525239,-1554.432478,12065.356855
392.642205,-3524.039291,222.061783,10807.006753
392.642513,-1685.410096,1184.329507,9474.636058
392.642821,-1149.143247,1628.453072,8438.347739
392.643129,-1072.533697,1628.453072,7328.038826
392.643437,-1762.019645,1110.308913,8290.306550
392.643745,-3064.381992,-518.144159,9178.553681
392.644053,-4213.525239,-1258.350101,10584.944971
392.644361,-4826.401637,-1036.288319,10881.027347
392.644669,-4596.572988,-0.000000,10658.965565
392.644977,-3524.039291,1332.370696,10658.965565
392.645285,-1915.238745,2590.720797,9104.533087
392.645593,-689.485948,2886.803174,8512.368333
392.645901,-766.095498,2590.720797,7920.203579
392.646209,-766.095498,740.205942,8512.368333
392.646517,-1762.019645,-1036.288319,9770.718434
392.646825,-3447.429741,-2812.782580,11695.253884
392.647133,-4673.182538,-4367.215058,13027.624579
392.647441,-5132.839837,-4589.276840,12731.542202
392.647749,-4903.011187,-3552.988522,11843.295072
392.648057,-3677.258390,-1628.453072,9918.759623
392.648365,-2451.505594,666.185348,8438.347739
392.648673,-689.485948,2812.782580,6809.894666
392.648981,1455.581446,3923.091493,5403.503377
392.649289,1225.752797,4737.318029,5033.400406
392.649597,1072.533697,4737.318029,5625.565159
392.649905,536.266849,3182.885551,7031.956449
392.650213,-1455.581446,1628.453072,9252.574275
392.650521,-2757.943793,-444.123565,10881.027347
392.650829,-4596.572988,-1776.494261,11695.253884
392.651137,-5592.497135,-2146.597232,12361.439231
392.651446,-5056.230287,-1776.494261,12361.439231
392.651754,-3983.696590,-1036.288319,12361.439231
392.652062,-2298.286494,74.020594,10584.944971
392.652370,-612.876398,666.185348,8216.285956
392.652678,-229.828649,1554.432478,7550.100608
392.652986,0.000000,1332.370696,8068.244768
392.653294,-1225.752797,148.041188,9400.615463
392.653602,-2681.334243,-1110.308913,11029.068536
392.653910,-4213.525239,-2368.659014,12213.398043
392.654218,-5975.544884,-3256.906145,12953.603985
392.654526,-6588.421283,-3330.926739,13693.809927
392.654834,-5515.887586,-2294.638420,13027.624579
392.655142,-3907.087040,-296.082377,10362.883188
392.655450,-1378.971896,1924.535449,8290.306550
392.655758,1532.190996,3701.029710,6217.729913
392.656066,2757.943793,5403.503377,4145.153275
392.656374,3753.867940,6069.688724,3330.926739
392.656682,4060.306139,5255.462188,3627.009116
392.656990,1455.581446,3775.050304,5181.441594
392.657298,-612.876398,1628.453072,7772.162391
392.657606,-3983.696590,-666.185348,10658.965565
392.657914,-5975.544884,-3108.864956,13693.809927
392.658222,-7660.954980,-4737.318029,14582.057057
392.658530,-8350.440928,-6069.688724,15692.365970
392.658839,-7048.078582,-5847.626942,15544.324782
392.659147,-4596.572988,-3182.885551,12953.603985
392.659455,-2374.896044,-740.205942,9770.718434
392.659763,76.609550,962.267725,7698.141797
392.660071,1149.143247,3923.091493,6439.791695
392.660379,2068.457845,5181.441594,5921.647536
392.660687,2145.067394,5921.647536,5181.441594
392.660995,1072.533697,5255.462188,5551.544565
392.661303,-612.876398,3034.844362,8290.306550
392.661611,-3524.039291,592.164754,10584.944971
392.661919,-6128.763984,-2590.720797,12953.603985
392.662227,-8273.831378,-4885.359217,15396.283594
392.662535,-8733.488677,-6217.729913,14730.098246
392.662843,-7814.174080,-5625.565159,14285.974681
392.663151,-4673.182538,-4515.256246,12805.562797
392.663459,-1685.410096,-1776.494261,9474.636058
392.663767,766.095498,296.082377,7179.997637
392.664075,2911.162892,2590.720797,5551.544565
392.664383,4060.306139,4293.194464,4811.338623
392.664691,4826.401637,5551.544565,4367.215058
392.664999,3753.867940,6883.915261,3552.988522
392.665307,2528.115143,6143.709319,4959.379811
392.665615,536.266849,4293.194464,7105.977043
392.665923,-2528.115143,2294.638420,9474.636058
392.666232,-4979.620737,-1036.288319,12805.562797
392.666540,-7354.516781,-3923.091493,13841.851115
392.666848,-8886.707777,-3923.091493,14434.015869
392.667156,-7967.393179,-4663.297435,14878.139434
392.667464,-6052.154434,-4441.235652,13915.871710
392.667772,-4749.792088,-2738.761985,11399.171507
392.668080,-3447.429741,-1998.556043,9622.677246
392.668388,-1302.362347,-222.061783,8512.368333
392.668696,76.609550,1776.494261,7254.018232
392.669004,995.924147,2368.659014,6661.853478
392.669312,2374.896044,3552.988522,6661.853478
392.669620,2374.896044,3552.988522,6587.832884
392.669928,919.314598,3256.906145,7105.977043
392.670236,76.609550,1628.453072,9104.533087
392.670544,-919.314598,444.123565,10510.924376
392.670852,-2604.724693,-666.185348,11325.150913
392.671160,-2834.553343,-1332.370696,10881.027347
392.671468,-3524.039291,-1924.535449,10732.986159
392.671776,-2987.772442,-1036.288319,9918.759623
392.672084,-2451.505594,-0.000000,9548.656652
392.672392,-1762.019645,296.082377,8956.491898
392.672700,-1991.848295,1110.308913,8364.327145
392.673008,-2221.676944,1850.514855,9178.553681
392.673316,-2451.505594,2072.576638,9992.780217
392.673625,-3294.210641,1850.514855,10288.862594
392.673933,-4290.134789,1110.308913,10807.006753
392.674241,-5515.887586,222.061783,11547.212695
392.674549,-6435.202183,-962.267725,12139.377449
392.674857,-6818.249932,-1628.453072,12731.542202
392.675165,-6511.811733,-1998.556043,12509.480420
392.675473,-6205.373534,-2590.720797,12213.398043
392.675781,-4903.011187,-2220.617826,11251.130318
392.676089,-3447.429741,-1406.391290,9844.739029
392.676397,-1838.629195,-370.102971,9104.533087
392.676705,-229.828649,444.123565,6883.915261
392.677013,536.266849,1406.391290,6439.791695
392.677321,1302.362347,2146.597232,5995.668130
392.677629,1302.362347,2812.782580,5995.668130
392.677937,1455.581446,2738.761985,6883.915261
392.678245,919.314598,2516.700203,7254.018232
392.678553,-842.705048,1628.453072,8586.388927
392.678861,-1532.190996,592.164754,9918.759623
392.679169,-3140.991542,-222.061783,10584.944971
392.679477,-3830.477490,-888.247130,11325.150913
392.679785,-3907.087040,-1702.473667,11621.233289
392.680093,-3983.696590,-1924.535449,11251.130318
392.680401,-3753.867940,-1850.514855,10732.986159
392.680709,-3140.991542,-1554.432478,10881.027347
392.681018,-2068.457845,-444.123565,10066.800811
392.681326,-1685.410096,-0.000000,9326.594869
392.681634,-995.924147,1258.350101,9178.553681
392.681942,-459.657299,1554.432478,8956.491898
392.682250,-306.438199,1850.514855,8734.430116
392.682558,-919.314598,1480.411884,9104.533087
392.682866,-689.485948,1184.329507,9548.656652
392.683174,-1608.800546,444.123565,9770.718434
392.683482,-2221.676944,222.061783,10732.986159
392.683790,-2451.505594,-444.123565,10066.800811
392.684098,-2528.115143,-0.000000,9696.697840
392.684406,-1838.629195,296.082377,9622.677246
392.684714,-1762.019645,222.061783,9104.533087
392.685022,-1685.410096,370.102971,9030.512492
392.685330,-1225.752797,518.144159,8808.450710
392.685638,-1302.362347,592.164754,8734.430116
392.685946,-1532.190996,888.247130,9030.512492
392.686254,-1608.800546,962.267725,9474.636058
392.686562,-1991.848295,518.144159,9622.677246
392.686870,-2987.772442,148.041188,9918.759623
392.687178,-3753.867940,-370.102971,10584.944971
392.687486,-3983.696590,-592.164754,10881.027347
392.687794,-4136.915689,-1110.308913,11103.089130
392.688102,-3217.601092,-1628.453072,10881.027347
392.688411,-2987.772442,-1184.329507,10807.006753
392.688719,-2528.115143,-1036.288319,10288.862594
392.689027,-1532.190996,-666.185348,9474.636058
392.689335,-1455.581446,-370.102971,8882.471304
392.689643,-842.705048,-148.041188,8734.430116
392.689951,-766.095498,-0.000000,8734.430116
392.690259,-383.047749,444.123565,8734.430116
392.690567,-383.047749,592.164754,8586.388927
392.690875,0.000000,814.226536,8216.285956
392.691183,229.828649,1110.308913,8216.285956
392.691491,0.000000,1332.370696,8512.368333
392.691799,76.609550,1702.473667,8364.327145
392.692107,-459.657299,1702.473667,8364.327145
392.692415,-1225.752797,1258.350101,8956.491898
392.692723,-1532.190996,962.267725,9622.677246
392.693031,-2298.286494,148.041188,10584.944971
392.693339,-2757.943793,222.061783,10732.986159
392.693647,-3064.381992,-0.000000,10732.986159
392.693955,-2834.553343,518.144159,10584.944971
392.694263,-3447.429741,370.102971,11029.068536
392.694571,-3524.039291,444.123565,10955.047942
392.694879,-3524.039291,518.144159,10807.006753
392.695187,-3524.039291,296.082377,10510.924376
392.695495,-3524.039291,444.123565,10732.986159
392.695804,-3217.601092,370.102971,10510.924376
392.696112,-2604.724693,-0.000000,10066.800811
392.696420,-3064.381992,666.185348,9696.697840
392.696728,-2987.772442,888.247130,9400.615463
392.697036,-2757.943793,666.185348,9178.553681
392.697344,-2987.772442,740.205942,9030.512492
392.697652,-3370.820191,592.164754,9104.533087
392.697960,-3677.258390,-148.041188,9474.636058
392.698268,-3983.696590,-74.020594,9474.636058
392.698576,-4060.306139,-740.205942,9548.656652
392.698884,-4213.525239,-666.185348,9696.697840
392.699192,-4136.915689,-222.061783,9474.636058
392.699500,-4060.306139,-148.041188,9770.718434
392.699808,-4136.915689,-518.144159,9474.636058
392.700116,-4060.306139,-518.144159,9400.615463
392.700424,-4366.744339,-888.247130,9400.615463
392.700732,-3830.477490,-296.082377,9844.739029
392.701040,-3677.258390,-740.205942,9696.697840
392.701348,-3753.867940,-1110.308913,9992.780217
392.701656,-3447.429741,-962.267725,9918.759623
392.701964,-3907.087040,-666.185348,9030.512492
392.702272,-3217.601092,-1184.329507,10881.027347
392.702580,-2757.943793,-1258.350101,10510.924376
392.702888,-2911.162892,-1184.329507,9844.739029
392.703197,-1685.410096,-1110.308913,10584.944971
392.703505,-1378.971896,-518.144159,9474.636058
392.703813,-1072.533697,-518.144159,9622.677246
392.704121,0.000000,518.144159,8142.265362
392.704429,919.314598,1332.370696,7550.100608
392.704737,1455.581446,2072.576638,7105.977043
392.705045,1685.410096,2738.761985,6513.812290
392.705353,1762.019645,3256.906145,6957.935855
392.705661,919.314598,3923.091493,7105.977043
392.705969,76.609550,3552.988522,7772.162391
392.706277,-612.876398,2960.823768,8734.430116
392.706585,-1991.848295,2146.597232,10066.800811
392.706893,-3140.991542,1480.411884,10955.047942
392.707201,-4060.306139,592.164754,11769.274478
392.707509,-4673.182538,-814.226536,12435.459826
392.707817,-5209.449386,-1036.288319,12361.439231
392.708125,-4826.401637,-2072.576638,13397.727550
392.708433,-5132.839837,-2072.576638,13249.686362
392.708741,-5592.497135,-1554.432478,12287.418637
392.709049,-3524.039291,-2294.638420,12805.562797
392.709357,-3677.258390,-1332.370696,11251.130318
392.709665,-2834.553343,-888.247130,10510.924376
392.709973,-1762.019645,-148.041188,9770.718434
392.710281,-1149.143247,370.102971,8956.491898
392.710590,-689.485948,888.247130,8438.347739
392.710898,612.876398,1628.453072,7254.018232
392.711206,995.924147,2072.576638,7846.182985
392.711514,1225.752797,2368.659014,6809.894666
392.711822,1072.533697,3182.885551,6217.729913
392.712130,919.314598,3256.906145,7105.977043
392.712438,0.000000,2368.659014,7402.059420
392.712746,-842.705048,2516.700203,7550.100608
392.713054,-1455.581446,1406.391290,9252.574275
392.713362,-3064.381992,-0.000000,10140.821405
392.713670,-4213.525239,-1184.329507,11399.171507
392.713978,-5132.839837,-2072.576638,12139.377449
392.714286,-7048.078582,-2590.720797,12139.377449
392.714594,-6511.811733,-3182.885551,13323.706956
392.714902,-6128.763984,-3330.926739,13545.768739
392.715210,-5592.497135,-2960.823768,12213.398043
392.715518,-4366.744339,-3034.844362,11991.336260
392.715826,-3524.039291,-2368.659014,10955.047942
392.716134,-2528.115143,-518.144159,9622.677246
392.716442,-766.095498,814.226536,8290.306550
392.716750,766.095498,2590.720797,7031.956449
392.717058,2068.457845,4515.256246,4885.359217
392.717366,3370.820191,4885.359217,4663.297435
392.717674,2834.553343,5329.482782,3627.009116
392.717983,2834.553343,4737.318029,4959.379811
392.718291,1532.190996,3627.009116,6513.812290
392.718599,-1225.752797,2146.597232,7698.141797
392.718907,-2911.162892,-444.123565,10584.944971
392.719215,-5286.058936,-2368.659014,12731.542202
392.719523,-6818.249932,-4367.215058,14359.995275
392.719831,-7814.174080,-5773.606348,14211.954086
392.720139,-7124.688131,-6217.729913,15544.324782
392.720447,-5898.935335,-5477.523971,13915.871710
392.720755,-5056.230287,-3256.906145,11399.171507
392.721063,-2451.505594,-444.123565,10214.842000
392.721371,-306.438199,2294.638420,7105.977043
392.721679,1608.800546,4737.318029,6069.688724
392.721987,3064.381992,5995.668130,4367.215058
392.722295,3677.258390,6217.729913,3627.009116
392.722603,2068.457845,5181.441594,5403.503377
392.722911,-383.047749,2220.617826,7920.203579
392.723219,-3447.429741,-814.226536,11103.089130
392.723527,-7277.907231,-3923.091493,12805.562797
392.723835,-8350.440928,-6439.791695,15174.221811
392.724143,-9116.536426,-6883.915261,15248.242405
392.724451,-7967.393179,-6365.771101,14359.995275
392.724759,-4979.620737,-4145.153275,11917.315666
392.725068,-2374.896044,-814.226536,9178.553681
392.725376,76.609550,2072.576638,7328.038826
392.725684,2681.334243,5329.482782,4737.318029
392.725992,5056.230287,7328.038826,2960.823768
392.726300,5286.058936,8364.327145,3034.844362
392.726608,4136.915689,7994.224174,3701.029710
392.726916,1991.848295,4737.318029,7179.997637
392.727224,-2528.115143,962.267725,11029.068536
392.727532,-5669.106685,-2886.803174,14285.974681
392.727840,-8886.707777,-5847.626942,16062.468941
392.728148,-10112.460574,-7328.038826,17616.901420
392.728456,-10112.460574,-6439.791695,16802.674883
392.728764,-6818.249932,-4071.132681,14359.995275
392.729072,-3447.429741,-518.144159,9992.780217
392.729380,0.000000,2146.597232,6513.812290
392.729688,1608.800546,3108.864956,5995.668130
392.729996,2987.772442,5403.503377,4367.215058
392.730304,3983.696590,5995.668130,4589.276840
392.730612,1685.410096,5107.421000,5773.606348
392.730920,-1838.629195,2368.659014,7772.162391
392.731228,-4519.963438,222.061783,10807.006753
392.731536,-6665.030833,-1554.432478,13323.706956
392.731844,-7814.174080,-2590.720797,14211.954086
392.732152,-8120.612279,-3849.070898,14359.995275
392.732461,-6205.373534,-1776.494261,13249.686362
392.732769,-3524.039291,-0.000000,10066.800811
392.733077,459.657299,1110.308913,8364.327145
392.733385,2145.067394,888.247130,6291.750507
392.733693,2604.724693,444.123565,6957.935855
392.734001,1608.800546,222.061783,6957.935855
392.734309,153.219100,518.144159,7328.038826
392.734617,-995.924147,666.185348,9252.574275
392.734925,-2221.676944,1258.350101,9844.739029
392.735233,-2145.067394,962.267725,9992.780217
392.735541,-2298.286494,740.205942,9548.656652
392.735849,-3064.381992,296.082377,9474.636058
392.736157,-3524.039291,-1110.308913,11029.068536
392.736465,-4443.353888,-2886.803174,12287.418637
392.736773,-5515.887586,-4293.194464,12583.501014
392.737081,-6128.763984,-3701.029710,11399.171507
392.737389,-5132.839837,-2664.741391,11177.109724
392.737697,-3524.039291,296.082377,8956.491898
392.738005,-689.485948,3034.844362,8142.265362
392.738313,1608.800546,4885.359217,5255.462188
392.738621,2374.896044,5699.585753,3997.112087
392.738929,2528.115143,4441.235652,5699.585753
392.739237,919.314598,1998.556043,8216.285956
392.739545,-2298.286494,-74.020594,10066.800811
392.739854,-4290.134789,-2368.659014,11917.315666
392.740162,-5669.106685,-3108.864956,13619.789333
392.740470,-6281.983084,-3627.009116,15026.180623
392.740778,-5209.449386,-3256.906145,13841.851115
392.741086,-3600.648841,-1480.411884,10658.965565
392.741394,-2145.067394,-444.123565,9400.615463
392.741702,-995.924147,-1554.432478,9178.553681
392.742010,-919.314598,-666.185348,9400.615463
392.742318,-1685.410096,444.123565,8512.368333
392.742626,-536.266849,2516.700203,7624.121203
392.742934,76.609550,3775.050304,7105.977043
392.743242,1378.971896,5477.523971,6809.894666
392.743550,1685.410096,4885.359217,6365.771101
392.743858,1072.533697,4441.235652,7105.977043
392.744166,153.219100,1258.350101,9622.677246
392.744474,-2451.505594,-1406.391290,11325.150913
392.744782,-4519.963438,-3923.091493,13767.830521
392.745090,-5362.668486,-4071.132681,14285.974681
392.745398,-4673.182538,-3404.947333,11695.253884
392.745706,-2298.286494,-2072.576638,12361.439231
392.746014,0.000000,-1036.288319,9622.677246
392.746322,612.876398,-888.247130,8808.450710
392.746630,536.266849,-666.185348,8142.265362
392.746939,229.828649,-962.267725,8660.409521
392.747247,-1302.362347,-370.102971,8882.471304
392.747555,-1302.362347,1184.329507,9622.677246
392.747863,0.000000,2368.659014,9400.615463
392.748171,919.314598,3552.988522,7772.162391
392.748479,2757.943793,4219.173869,7476.080014
392.748787,3524.039291,3256.906145,7624.121203
392.749095,1685.410096,1998.556043,8290.306550
392.749403,153.219100,370.102971,9696.697840
392.749711,-1762.019645,-1036.288319,10362.883188
392.750019,-2145.067394,-1110.308913,11103.089130
392.750327,-1608.800546,-740.205942,10955.047942
392.750635,0.000000,296.082377,10140.821405
392.750944,612.876398,-74.020594,9918.759623
392.751252,-229.828649,-740.205942,9252.574275
392.751560,-766.095498,-962.267725,10362.883188
392.751868,-1608.800546,-1258.350101,10436.903782
392.752176,-3524.039291,-666.185348,11251.130318
392.752484,-2068.457845,296.082377,11695.253884
392.752792,-689.485948,1628.453072,9548.656652
392.753100,459.657299,2590.720797,8216.285956
392.753408,1685.410096,1776.494261,8290.306550
392.753716,1149.143247,1110.308913,9178.553681
392.754024,153.219100,-296.082377,9696.697840
392.754332,-1532.190996,-370.102971,10140.821405
392.754640,-2221.676944,-1480.411884,11547.212695
392.754949,-1685.410096,-740.205942,10140.821405
392.755257,-689.485948,-1184.329507,9770.718434
392.755565,536.266849,-1332.370696,8956.491898
392.755873,-383.047749,-1554.432478,7846.182985
392.756181,-689.485948,-1110.308913,9178.553681
392.756489,-1149.143247,-222.061783,8660.409521
392.756797,-1149.143247,296.082377,9844.739029
392.757105,229.828649,1406.391290,9104.533087
392.757413,1762.019645,1998.556043,7550.100608
392.757721,2221.676944,2072.576638,7105.977043
392.758029,2374.896044,814.226536,7920.203579
392.758337,459.657299,222.061783,9104.533087
392.758645,-1072.533697,-0.000000,11029.068536
392.758954,-1302.362347,-814.226536,11473.192101
392.759262,-1532.190996,-0.000000,10807.006753
392.759570,0.000000,-518.144159,10807.006753
392.759878,919.314598,-296.082377,8956.491898
392.760186,0.000000,-814.226536,9104.533087
392.760494,-842.705048,-1332.370696,10066.800811
392.760802,-1455.581446,-444.123565,9696.697840
392.761110,-1455.581446,148.041188,10732.986159
392.761418,-306.438199,1406.391290,9844.739029
392.761726,995.924147,2072.576638,8956.491898
392.762034,2068.457845,1406.391290,8364.327145
392.762342,2298.286494,962.267725,9178.553681
392.762650,842.705048,-0.000000,9326.594869
392.762959,-612.876398,296.082377,10584.944971
392.763267,-1072.533697,-0.000000,12065.356855
392.763575,-919.314598,-592.164754,11769.274478
392.763883,536.266849,-444.123565,10732.986159
392.764191,766.095498,-888.247130,8734.430116
392.764499,536.266849,-1628.453072,9104.533087
392.764807,-383.047749,-1258.350101,9844.739029
392.765115,-1302.362347,-296.082377,10362.883188
392.765423,-459.657299,444.123565,10584.944971
392.765731,919.314598,2516.700203,9104.533087
392.766039,2757.943793,3256.906145,7179.997637
392.766347,4136.915689,3478.967927,7031.956449
392.766655,4366.744339,2812.782580,6883.915261
392.766964,2834.553343,1776.494261,7994.224174
392.767272,1072.533697,814.226536,10362.883188
392.767580,-153.219100,740.205942,12065.356855
392.767888,0.000000,-888.247130,12583.501014
392.768196,-306.438199,-740.205942,10955.047942
392.768504,0.000000,-2072.576638,10288.862594
392.768812,-536.266849,-2590.720797,10807.006753
392.769120,-1608.800546,-3108.864956,11843.295072
392.769428,-2145.067394,-1554.432478,11769.274478
392.769736,-1225.752797,-0.000000,10288.862594
392.770044,1072.533697,1702.473667,9918.759623
392.770352,2451.505594,2960.823768,7550.100608
392.770660,4979.620737,3330.926739,7772.162391
392.770969,4213.525239,2664.741391,6587.832884
392.771277,2681.334243,2368.659014,7476.080014
392.771585,2987.772442,370.102971,10807.006753
392.771893,459.657299,518.144159,11251.130318
392.772201,0.000000,-1776.494261,12731.542202
392.772509,-459.657299,-2072.576638,9844.739029
392.772817,-383.047749,-2294.638420,9918.759623
392.773125,-1072.533697,-3923.091493,11399.171507
392.773433,-1302.362347,-2886.803174,10658.965565
392.773741,-612.876398,-1110.308913,11029.068536
392.774049,-153.219100,814.226536,8364.327145
392.774357,2757.943793,2516.700203,8438.347739
392.774665,4596.572988,4737.318029,6661.853478
392.774974,4673.182538,3997.112087,6957.935855
392.775282,4213.525239,2886.803174,7846.182985
392.775590,3217.601092,1406.391290,8142.265362
392.775898,306.438199,962.267725,9622.677246
392.776206,-842.705048,-740.205942,12361.439231
392.776514,1378.971896,-2590.720797,13027.624579
392.776822,-1991.848295,-1480.411884,9696.697840
392.777130,-995.924147,-3923.091493,11103.089130
392.777438,-842.705048,-3775.050304,11029.068536
392.777746,-2374.896044,-3108.864956,11399.171507
392.778054,-1455.581446,-1332.370696,10066.800811
392.778362,-229.828649,1406.391290,8068.244768
392.778670,2374.896044,3182.885551,8216.285956
392.778979,3983.696590,4589.276840,5847.626942
392.779287,5056.230287,5255.462188,7328.038826
392.779595,4903.011187,3034.844362,6809.894666
392.779903,1915.238745,2960.823768,6957.935855
392.780211,1225.752797,1406.391290,10881.027347
392.780519,0.000000,-888.247130,12583.501014
392.780827,-1225.752797,-2146.597232,12879.583391
392.781135,-1762.019645,-2590.720797,10140.821405
392.781443,-2221.676944,-3849.070898,10732.986159
392.781751,-2298.286494,-5551.544565,13619.789333
392.782059,-2298.286494,-2812.782580,10732.986159
392.782367,-1302.362347,-814.226536,9696.697840
392.782675,-383.047749,592.164754,8586.388927
392.782984,2604.724693,3478.967927,7624.121203
392.783292,4749.792088,3923.091493,8290.306550
392.783600,4673.182538,3701.029710,7179.997637
392.783908,3753.867940,3256.906145,6735.874072
392.784216,2604.724693,2368.659014,8438.347739
392.784524,689.485948,-0.000000,11843.295072
392.784832,-995.924147,-1776.494261,13397.727550
392.785140,-1225.752797,-2368.659014,12065.356855
392.785448,-1762.019645,-2146.597232,9844.739029
392.785756,-2221.676944,-4145.153275,10732.986159
392.786064,-1685.410096,-4293.194464,12213.398043
392.786372,-1838.629195,-2220.617826,11547.212695
392.786680,-1762.019645,-592.164754,8882.471304
392.786988,842.705048,1628.453072,8956.491898
392.787297,2834.553343,4737.318029,7105.977043
392.787605,4596.572988,4367.215058,7031.956449
392.787913,4903.011187,4663.297435,6735.874072
392.788221,3217.601092,3923.091493,6143.709319
392.788529,1838.629195,2220.617826,8660.409521
392.788837,-383.047749,518.144159,12139.377449
392.789145,-612.876398,-1702.473667,14285.974681
392.789453,-1762.019645,-2368.659014,12065.356855
392.789761,-1532.190996,-2146.597232,8956.491898
392.790069,-2451.505594,-4145.153275,10955.047942
392.790377,-2374.896044,-4589.276840,12139.377449
392.790685,-1532.190996,-1776.494261,10362.883188
392.790993,-1072.533697,-370.102971,9696.697840
392.791302,1378.971896,2146.597232,7328.038826
392.791610,3907.087040,3923.091493,6365.771101
392.791918,5286.058936,4515.256246,7476.080014
392.792226,5056.230287,3849.070898,6587.832884
392.792534,3370.820191,3849.070898,5551.544565
392.792842,1685.410096,1998.556043,8956.491898
392.793150,766.095498,-444.123565,13471.748144
392.793458,-536.266849,-2220.617826,13323.706956
392.793766,-1685.410096,-2886.803174,11547.212695
392.794074,-2221.676944,-2886.803174,9844.739029
392.794382,-1455.581446,-5551.544565,12213.398043
392.794690,-2145.067394,-4589.276840,12065.356855
392.794998,-2145.067394,-1406.391290,9474.636058
392.795307,229.828649,-370.102971,8438.347739
392.795615,1149.143247,3330.926739,7179.997637
392.795923,4443.353888,4367.215058,7105.977043
392.796231,6052.154434,3923.091493,6587.832884
392.796539,4903.011187,5255.462188,6587.832884
392.796847,2834.553343,3182.885551,6957.935855
392.797155,1378.971896,1332.370696,9696.697840
392.797463,-153.219100,-666.185348,14359.995275
392.797771,-1685.410096,-1776.494261,13619.789333
392.798079,-2145.067394,-2664.741391,11769.274478
392.798387,-2145.067394,-3478.967927,10436.903782
392.798695,-1762.019645,-5329.482782,12657.521608
392.799003,-3064.381992,-3478.967927,10510.924376
392.799312,-2068.457845,-1036.288319,10066.800811
392.799620,383.047749,-0.000000,9474.636058
392.799928,1608.800546,4663.297435,5403.503377
392.800236,5439.278036,4737.318029,6661.853478
392.800544,5745.716235,4663.297435,5773.606348
392.800852,4596.572988,4737.318029,5921.647536
392.801160,2757.943793,3775.050304,7179.997637
392.801468,842.705048,1480.411884,10732.986159
392.801776,-459.657299,-962.267725,13915.871710
392.802084,-1915.238745,-1702.473667,12657.521608
392.802392,-2145.067394,-2516.700203,11177.109724
392.802700,-2451.505594,-3923.091493,10510.924376
392.803008,-3294.210641,-4885.359217,12953.603985
392.803317,-2298.286494,-3182.885551,11695.253884
392.803625,-1762.019645,-1554.432478,9474.636058
392.803933,612.876398,1258.350101,9104.533087
392.804241,2604.724693,3923.091493,6365.771101
392.804549,5745.716235,4219.173869,5995.668130
392.804857,4826.401637,3923.091493,6365.771101
392.805165,4749.792088,4589.276840,5699.585753
392.805473,2451.505594,2368.659014,7328.038826
392.805781,459.657299,-296.082377,12509.480420
392.806089,-1455.581446,-2368.659014,14359.995275
392.806397,-2374.896044,-3256.906145,14211.954086
392.806705,-2221.676944,-4811.338623,10732.986159
392.807013,-3753.867940,-4515.256246,10807.006753
392.807322,-1608.800546,-5403.503377,13249.686362
392.807630,-1762.019645,-2146.597232,9474.636058
392.807938,-536.266849,-74.020594,8808.450710
392.808246,1991.848295,1998.556043,8068.244768
392.808554,3830.477490,5107.421000,5033.400406
392.808862,6128.763984,5773.606348,5625.565159
392.809170,6205.373534,5181.441594,5329.482782
392.809478,4366.744339,5625.565159,4663.297435
392.809786,1915.238745,2960.823768,8290.306550
392.810094,0.000000,518.144159,13323.706956
392.810402,-1225.752797,-1406.391290,14434.015869
392.810710,-3294.210641,-3627.009116,13915.871710
392.811018,-2911.162892,-3775.050304,11695.253884
392.811327,-3677.258390,-4885.359217,11547.212695
392.811635,-2681.334243,-4737.318029,13175.665768
392.811943,-2145.067394,-2220.617826,10140.821405
392.812251,-459.657299,148.041188,8216.285956
392.812559,2221.676944,2590.720797,7846.182985
392.812867,5056.230287,4811.338623,4885.359217
392.813175,5439.278036,5033.400406,6217.729913
392.813483,6128.763984,4071.132681,7031.956449
392.813791,4213.525239,4737.318029,4885.359217
392.814099,1378.971896,2368.659014,9104.533087
392.814407,0.000000,-1184.329507,13989.892304
392.814715,-1455.581446,-2516.700203,14359.995275
392.815023,-3447.429741,-3404.947333,12139.377449
392.815332,-2757.943793,-5255.462188,10955.047942
392.815640,-2604.724693,-4811.338623,11621.233289
392.815948,-2298.286494,-4959.379811,12509.480420
392.816256,-1532.190996,-1998.556043,9474.636058
392.816564,153.219100,814.226536,8364.327145
392.816872,3064.381992,3256.906145,6883.915261
392.817180,5286.058936,5403.503377,4589.276840
392.817488,6205.373534,4589.276840,5699.585753
392.817796,5592.497135,5181.441594,5773.606348
392.818104,3600.648841,4219.173869,6291.750507
392.818412,1149.143247,1702.473667,10584.944971
392.818720,76.609550,-1258.350101,14878.139434
392.819028,-2528.115143,-2294.638420,13989.892304
392.819337,-3753.867940,-3404.947333,12583.501014
392.819645,-2681.334243,-4367.215058,11695.253884
392.819953,-3677.258390,-4663.297435,11843.295072
392.820261,-3064.381992,-4219.173869,12805.562797
392.820569,-842.705048,-1850.514855,9918.759623
392.820877,153.219100,1480.411884,7994.224174
392.821185,3370.820191,3775.050304,6291.750507
392.821493,6128.763984,5255.462188,4737.318029
392.821801,5745.716235,5477.523971,5329.482782
392.822109,5669.106685,5255.462188,4959.379811
392.822417,3677.258390,4811.338623,5403.503377
392.822725,1072.533697,2072.576638,10658.965565
392.823033,-459.657299,-814.226536,13841.851115
392.823342,-2451.505594,-2368.659014,14285.974681
392.823650,-3907.087040,-3997.112087,12213.398043
392.823958,-3600.648841,-5477.523971,11917.315666
392.824266,-3830.477490,-5551.544565,12731.542202
392.824574,-2757.943793,-4293.194464,12731.542202
392.824882,-919.314598,-2368.659014,10510.924376
392.825190,306.438199,1480.411884,7772.162391
392.825498,4519.963438,2812.782580,7254.018232
392.825806,6358.592633,5551.544565,4663.297435
392.826114,6205.373534,4219.173869,5033.400406
392.826422,6052.154434,4811.338623,5699.585753
392.826730,3753.867940,4367.215058,5625.565159
392.827038,1378.971896,518.144159,11991.336260
392.827347,-612.876398,-1480.411884,14730.098246
392.827655,-2298.286494,-2664.741391,13619.789333
392.827963,-4443.353888,-5033.400406,11991.336260
392.828271,-4673.182538,-5033.400406,11325.150913
392.828579,-3140.991542,-5477.523971,13545.768739
392.828887,-2528.115143,-2664.741391,11769.274478
392.829195,-842.705048,-814.226536,9474.636058
392.829503,689.485948,2072.576638,7179.997637
392.829811,5132.839837,3997.112087,5773.606348
392.830119,5669.106685,4737.318029,4145.153275
392.830427,6358.592633,4885.359217,5033.400406
392.830735,5592.497135,4737.318029,5181.441594
392.831043,3370.820191,3478.967927,5995.668130
392.831352,995.924147,-0.000000,11399.171507
392.831660,-1378.971896,-1258.350101,14285.974681
392.831968,-2604.724693,-3404.947333,14359.995275
392.832276,-4596.572988,-4219.173869,12213.398043
392.832584,-4673.182538,-5551.544565,12879.583391
392.832892,-3830.477490,-5699.585753,13323.706956
392.833200,-2834.553343,-2664.741391,11547.212695
392.833508,-153.219100,-888.247130,9104.533087
392.833816,1915.238745,3330.926739,5773.606348
392.834124,5132.839837,5551.544565,4367.215058
392.834432,7354.516781,6217.729913,3701.029710
392.834740,6665.030833,5403.503377,5033.400406
392.835048,5975.544884,5255.462188,5403.503377
392.835357,2374.896044,2886.803174,7031.956449
392.835665,383.047749,222.061783,13323.706956
392.835973,-1072.533697,-2516.700203,15396.283594
392.836281,-3447.429741,-3627.009116,14656.077652
392.836589,-4290.134789,-5107.421000,12879.583391
392.836897,-4596.572988,-6217.729913,12879.583391
392.837205,-4519.963438,-4885.359217,13841.851115
392.837513,-1991.848295,-2368.659014,11769.274478
392.837821,0.000000,-444.123565,9622.677246
392.838129,2068.457845,2664.741391,7772.162391
392.838437,5286.058936,4959.379811,4737.318029
392.838745,6511.811733,5551.544565,5329.482782
392.839053,6358.592633,5773.606348,5699.585753
392.839362,5362.668486,5551.544565,5847.626942
392.839670,2528.115143,3552.988522,8882.471304
392.839978,459.657299,-0.000000,13027.624579
392.840286,-1455.581446,-1554.432478,14211.954086
392.840594,-2987.772442,-3034.844362,14063.912898
392.840902,-4213.525239,-4737.318029,12731.542202
392.841210,-4366.744339,-4589.276840,12953.603985
392.841518,-3524.039291,-3997.112087,12287.418637
392.841826,-2145.067394,-1924.535449,10955.047942
392.842134,229.828649,444.123565,8660.409521
392.842442,2987.772442,3182.885551,6883.915261
392.842750,5056.230287,5107.421000,4219.173869
392.843058,6818.249932,5625.565159,4737.318029
392.843367,6358.592633,5477.523971,5255.462188
392.843675,4519.963438,4737.318029,6513.812290
392.843983,1915.238745,2886.803174,8956.491898
392.844291,-229.828649,-222.061783,13471.748144
392.844599,-1532.190996,-2442.679609,14434.015869
392.844907,-3907.087040,-4441.235652,13619.789333
392.845215,-4749.792088,-4885.359217,12213.398043
392.845523,-3064.381992,-4737.318029,11325.150913
392.845831,-2528.115143,-3923.091493,11991.336260
392.846139,-2145.067394,-2072.576638,10436.903782
392.846447,1225.752797,-296.082377,8586.388927
392.846755,3983.696590,3404.947333,5255.462188
392.847063,5439.278036,5181.441594,3478.967927
392.847372,7048.078582,3849.070898,4737.318029
392.847680,6435.202183,4515.256246,5181.441594
392.847988,3830.477490,3997.112087,6291.750507
392.848296,1838.629195,1110.308913,9770.718434
392.848604,76.609550,-814.226536,13249.686362
392.848912,-2068.457845,-3108.864956,14804.118840
392.849220,-4213.525239,-4811.338623,13249.686362
392.849528,-4213.525239,-5699.585753,12435.459826
