#time,accel_x,accel_y,accel_z
217.531511,2987.772442,148.041188,9696.697840
217.531819,2834.553343,-296.082377,9696.697840
217.532127,3140.991542,-222.061783,9548.656652
217.532435,2834.553343,-0.000000,9474.636058
217.532743,2834.553343,518.144159,9104.533087
217.533051,3064.381992,962.267725,9474.636058
217.533358,3370.820191,1258.350101,9474.636058
217.533666,3447.429741,1258.350101,9400.615463
217.533974,3600.648841,1332.370696,9104.533087
217.534282,2528.115143,962.267725,8290.306550
217.534590,2298.286494,740.205942,9400.615463
217.534898,1838.629195,814.226536,9992.780217
217.535206,1302.362347,444.123565,10288.862594
217.535514,919.314598,-0.000000,10732.986159
217.535822,919.314598,-518.144159,10881.027347
217.536129,842.705048,-1110.308913,11177.109724
217.536437,995.924147,-1184.329507,11917.315666
217.536745,689.485948,-1924.535449,11695.253884
217.537053,766.095498,-2146.597232,11695.253884
217.537361,1838.629195,-2146.597232,11547.212695
217.537669,2451.505594,-1480.411884,10436.903782
217.537977,2528.115143,-296.082377,9474.636058
217.538285,4366.744339,-296.082377,9918.759623
217.538593,4290.134789,-74.020594,9104.533087
217.538900,4673.182538,222.061783,9252.574275
217.539208,4596.572988,-592.164754,8882.471304
217.539516,4213.525239,-518.144159,8882.471304
217.539824,4519.963438,-74.020594,8660.409521
217.540132,4979.620737,518.144159,8364.327145
217.540440,5362.668486,592.164754,8512.368333
217.540748,5592.497135,296.082377,8364.327145
217.541056,6205.373534,1036.288319,8290.306550
217.541364,5822.325785,740.205942,8216.285956
217.541671,6281.983084,370.102971,8290.306550
217.541979,6435.202183,740.205942,8660.409521
217.542287,6588.421283,1184.329507,8290.306550
217.542595,6741.640382,1110.308913,8364.327145
217.542903,6665.030833,1628.453072,8290.306550
217.543211,6741.640382,1702.473667,8438.347739
217.543519,6511.811733,1480.411884,8142.265362
217.543827,6128.763984,1332.370696,8956.491898
217.544135,6281.983084,1332.370696,9474.636058
217.544442,5898.935335,1924.535449,9104.533087
217.544750,5362.668486,1184.329507,9474.636058
217.545058,5515.887586,1258.350101,9992.780217
217.545366,4443.353888,888.247130,10362.883188
217.545674,4290.134789,666.185348,10732.986159
217.545982,3983.696590,-0.000000,11843.295072
217.546290,3370.820191,-0.000000,11325.150913
217.546598,3447.429741,-370.102971,11473.192101
217.546906,2757.943793,-370.102971,11103.089130
217.547213,2681.334243,-74.020594,11473.192101
217.547521,2757.943793,-0.000000,10881.027347
217.547829,3140.991542,-0.000000,10732.986159
217.548137,3753.867940,222.061783,10436.903782
217.548445,3677.258390,148.041188,10362.883188
217.548753,4673.182538,-0.000000,9918.759623
217.549061,4213.525239,-74.020594,9844.739029
217.549369,4213.525239,-296.082377,9548.656652
217.549677,4060.306139,-222.061783,9474.636058
217.549984,3983.696590,-222.061783,9326.594869
217.550292,4366.744339,-0.000000,8882.471304
217.550600,4903.011187,296.082377,8660.409521
217.550908,5132.839837,814.226536,8068.244768
217.551216,4903.011187,518.144159,7994.224174
217.551524,4826.401637,740.205942,7624.121203
217.551832,4366.744339,1332.370696,7698.141797
217.552140,3830.477490,1332.370696,7476.080014
217.552448,3677.258390,1628.453072,7402.059420
217.552755,2834.553343,1480.411884,7772.162391
217.553063,2298.286494,1406.391290,8142.265362
217.553371,2451.505594,1406.391290,8882.471304
217.553679,1608.800546,962.267725,9104.533087
217.553987,995.924147,1332.370696,9326.594869
217.554295,1225.752797,666.185348,9918.759623
217.554603,766.095498,-0.000000,9918.759623
217.554911,-229.828649,-740.205942,10881.027347
217.555219,-689.485948,-1702.473667,11843.295072
217.555526,-1762.019645,-2960.823768,12213.398043
217.555834,-2757.943793,-4145.153275,13619.789333
217.556142,-2604.724693,-4663.297435,13841.851115
217.556450,-1838.629195,-5181.441594,14063.912898
217.556758,-2298.286494,-4367.215058,13249.686362
217.557066,-919.314598,-3256.906145,12287.418637
217.557374,766.095498,-1998.556043,11103.089130
217.557682,2221.676944,-370.102971,9474.636058
217.557990,4366.744339,1036.288319,8290.306550
217.558297,4596.572988,2220.617826,6661.853478
217.558605,5669.106685,2516.700203,6365.771101
217.558913,5362.668486,3256.906145,5773.606348
217.559221,4443.353888,3256.906145,5625.565159
217.559529,3294.210641,3256.906145,6069.688724
217.559837,2298.286494,3404.947333,6291.750507
217.560145,1455.581446,3997.112087,6661.853478
217.560453,1302.362347,3330.926739,6883.915261
217.560761,536.266849,3330.926739,8216.285956
217.561068,1072.533697,1924.535449,9622.677246
217.561376,-459.657299,1258.350101,9474.636058
217.561684,-1532.190996,-74.020594,10955.047942
217.561992,-1608.800546,-2294.638420,13471.748144
217.562300,-3753.867940,-3108.864956,13841.851115
217.562608,-4136.915689,-3997.112087,15100.201217
217.562916,-4136.915689,-4589.276840,15396.283594
217.563224,-3983.696590,-5033.400406,16136.489536
217.563532,-3524.039291,-4515.256246,14211.954086
217.563840,-1225.752797,-3256.906145,12583.501014
217.564148,612.876398,-1924.535449,11029.068536
217.564456,1302.362347,-148.041188,8216.285956
217.564764,3677.258390,1036.288319,8734.430116
217.565072,4366.744339,2072.576638,6809.894666
217.565380,4366.744339,2960.823768,5847.626942
217.565687,4596.572988,3404.947333,5181.441594
217.565995,3907.087040,4441.235652,4293.194464
217.566303,4826.401637,4589.276840,4737.318029
217.566611,3907.087040,5181.441594,4145.153275
217.566919,3600.648841,4515.256246,5847.626942
217.567227,2145.067394,2960.823768,6513.812290
217.567535,383.047749,1332.370696,8512.368333
217.567843,-1225.752797,-962.267725,11177.109724
217.568151,-2374.896044,-2960.823768,12879.583391
217.568459,-3370.820191,-4145.153275,14359.995275
217.568767,-3907.087040,-5033.400406,13619.789333
217.569075,-3140.991542,-4663.297435,14137.933492
217.569383,-1762.019645,-3775.050304,13471.748144
217.569691,-383.047749,-2294.638420,11473.192101
217.569999,1532.190996,-1258.350101,10881.027347
217.570307,2068.457845,-814.226536,9696.697840
217.570615,3447.429741,518.144159,8882.471304
217.570923,3217.601092,1776.494261,7624.121203
217.571231,3983.696590,2294.638420,6365.771101
217.571539,3907.087040,3108.864956,6217.729913
217.571847,4213.525239,3256.906145,6143.709319
217.572155,3753.867940,2886.803174,6069.688724
217.572463,2681.334243,2368.659014,6735.874072
217.572771,2528.115143,1406.391290,8290.306550
217.573079,1378.971896,-148.041188,9400.615463
217.573387,-306.438199,-1036.288319,10584.944971
217.573695,-536.266849,-2146.597232,12657.521608
217.574003,-766.095498,-2294.638420,12435.459826
217.574311,-612.876398,-2294.638420,12435.459826
217.574618,-306.438199,-1776.494261,12509.480420
217.574926,459.657299,-1702.473667,12139.377449
217.575234,1072.533697,-814.226536,10732.986159
217.575542,766.095498,-666.185348,9474.636058
217.575850,1608.800546,962.267725,8586.388927
217.576158,2068.457845,1850.514855,8290.306550
217.576466,2298.286494,2368.659014,7994.224174
217.576774,2834.553343,2886.803174,7105.977043
217.577082,2451.505594,3404.947333,6735.874072
217.577390,2374.896044,3701.029710,7105.977043
217.577698,2298.286494,2886.803174,8068.244768
217.578006,1149.143247,1998.556043,8512.368333
217.578314,0.000000,-0.000000,10436.903782
217.578622,-1302.362347,-814.226536,11547.212695
217.578930,-1991.848295,-1850.514855,12583.501014
217.579238,-2221.676944,-2294.638420,13471.748144
217.579546,-2145.067394,-2294.638420,13101.645173
217.579854,-1685.410096,-1924.535449,12657.521608
217.580162,0.000000,-1554.432478,11547.212695
217.580470,1149.143247,-962.267725,10140.821405
217.580778,2757.943793,-222.061783,9400.615463
217.581086,2987.772442,-0.000000,7772.162391
217.581394,3370.820191,1258.350101,7254.018232
217.581702,3447.429741,1850.514855,7105.977043
217.582010,3217.601092,2738.761985,6957.935855
217.582318,2757.943793,3108.864956,6661.853478
217.582626,2374.896044,3330.926739,7254.018232
217.582934,1838.629195,2664.741391,7994.224174
217.583242,536.266849,1554.432478,9622.677246
217.583550,-306.438199,296.082377,9992.780217
217.583857,-2221.676944,-1406.391290,12139.377449
217.584165,-2757.943793,-2442.679609,13767.830521
217.584473,-3983.696590,-4071.132681,14137.933492
217.584781,-3677.258390,-3775.050304,15026.180623
217.585089,-3217.601092,-4145.153275,13471.748144
217.585397,-2757.943793,-2960.823768,13027.624579
217.585705,-842.705048,-1998.556043,11769.274478
217.586013,536.266849,-1258.350101,10732.986159
217.586321,1532.190996,296.082377,8438.347739
217.586629,2528.115143,1924.535449,6513.812290
217.586937,3753.867940,2812.782580,6069.688724
217.587245,4213.525239,3775.050304,5551.544565
217.587553,4826.401637,4441.235652,5403.503377
217.587861,3677.258390,4885.359217,4293.194464
217.588169,3447.429741,4589.276840,5773.606348
217.588477,2604.724693,3108.864956,6957.935855
217.588785,995.924147,2516.700203,7698.141797
217.589093,-229.828649,444.123565,9992.780217
217.589401,-1915.238745,-1110.308913,10807.006753
217.589709,-3294.210641,-2368.659014,12731.542202
217.590017,-3907.087040,-3627.009116,13841.851115
217.590325,-4366.744339,-3775.050304,13693.809927
217.590633,-3294.210641,-3997.112087,14285.974681
217.590941,-2221.676944,-3108.864956,12953.603985
217.591249,-995.924147,-1998.556043,11399.171507
217.591557,383.047749,-814.226536,9918.759623
217.591865,1915.238745,-74.020594,8734.430116
217.592173,2374.896044,666.185348,7328.038826
217.592481,3217.601092,1998.556043,6883.915261
217.592788,2987.772442,2442.679609,6217.729913
217.593096,2987.772442,3256.906145,5847.626942
217.593404,3294.210641,3701.029710,5921.647536
217.593712,2834.553343,3330.926739,6365.771101
217.594020,2221.676944,2368.659014,7402.059420
217.594328,689.485948,740.205942,8808.450710
217.594636,-229.828649,-518.144159,10658.965565
217.594944,-2374.896044,-2368.659014,12657.521608
217.595252,-3140.991542,-3552.988522,13989.892304
217.595560,-3677.258390,-4145.153275,14359.995275
217.595868,-3677.258390,-4219.173869,14285.974681
217.596176,-2681.334243,-3552.988522,13619.789333
217.596484,-1532.190996,-2368.659014,12287.418637
217.596792,0.000000,-888.247130,10510.924376
217.597100,1838.629195,518.144159,8290.306550
217.597408,3064.381992,2072.576638,7550.100608
217.597716,3524.039291,2812.782580,6957.935855
217.598024,3983.696590,3552.988522,5403.503377
217.598332,3677.258390,4367.215058,5625.565159
217.598640,3600.648841,3775.050304,5995.668130
217.598948,2757.943793,4071.132681,6069.688724
217.599256,2221.676944,3404.947333,7624.121203
217.599564,1225.752797,1554.432478,8364.327145
217.599872,306.438199,962.267725,10140.821405
217.600180,-1685.410096,-666.185348,11251.130318
217.600488,-2374.896044,-2294.638420,12287.418637
217.600796,-2834.553343,-3034.844362,13693.809927
217.601104,-2451.505594,-3034.844362,14063.912898
217.601412,-1838.629195,-3108.864956,13841.851115
217.601720,-1072.533697,-2368.659014,11991.336260
217.602027,1149.143247,-1850.514855,11325.150913
217.602335,1762.019645,-666.185348,10066.800811
217.602643,2298.286494,-0.000000,8216.285956
217.602951,2757.943793,1036.288319,7624.121203
217.603259,3447.429741,1998.556043,7698.141797
217.603567,3907.087040,2220.617826,7772.162391
217.603875,3370.820191,2886.803174,6143.709319
217.604183,3370.820191,3849.070898,6069.688724
217.604491,4136.915689,3108.864956,7254.018232
217.604799,2528.115143,2590.720797,7328.038826
217.605107,1532.190996,1702.473667,8882.471304
217.605415,995.924147,-74.020594,10807.006753
217.605723,-1072.533697,-1332.370696,11547.212695
217.606031,-2145.067394,-2812.782580,13175.665768
217.606339,-2451.505594,-3775.050304,14434.015869
217.606647,-2681.334243,-3997.112087,14211.954086
217.606955,-1762.019645,-3923.091493,13471.748144
217.607263,-689.485948,-3256.906145,12435.459826
217.607571,689.485948,-1554.432478,10881.027347
217.607879,2374.896044,-0.000000,9474.636058
217.608187,3447.429741,1480.411884,7994.224174
217.608495,3907.087040,1998.556043,6587.832884
217.608803,4213.525239,3108.864956,5625.565159
217.609111,4136.915689,4071.132681,5699.585753
217.609419,4290.134789,3478.967927,5255.462188
217.609727,2987.772442,4293.194464,5773.606348
217.610035,3524.039291,3923.091493,6883.915261
217.610343,1685.410096,2590.720797,7550.100608
217.610651,229.828649,1332.370696,9548.656652
217.610958,-1149.143247,-0.000000,10881.027347
217.611266,-2757.943793,-1850.514855,12213.398043
217.611574,-3064.381992,-3330.926739,14137.933492
217.611882,-3677.258390,-3182.885551,14359.995275
217.612190,-2987.772442,-3404.947333,13915.871710
217.612498,-1149.143247,-3034.844362,12805.562797
217.612806,0.000000,-1036.288319,11473.192101
217.613114,1072.533697,-666.185348,10658.965565
217.613422,2068.457845,222.061783,8808.450710
217.613730,2681.334243,1776.494261,7476.080014
217.614038,2987.772442,1998.556043,7105.977043
217.614346,2451.505594,2368.659014,6809.894666
217.614654,2757.943793,3404.947333,7105.977043
217.614962,2528.115143,3701.029710,6661.853478
217.615270,1838.629195,3330.926739,6809.894666
217.615578,1455.581446,2442.679609,7772.162391
217.615886,-229.828649,1628.453072,9400.615463
217.616194,-1685.410096,-370.102971,10732.986159
217.616502,-2528.115143,-2368.659014,12879.583391
217.616810,-3524.039291,-3627.009116,14063.912898
217.617118,-4443.353888,-4293.194464,14508.036463
217.617426,-3600.648841,-4515.256246,14211.954086
217.617734,-3140.991542,-3404.947333,13397.727550
217.618042,-1455.581446,-2442.679609,11177.109724
217.618350,459.657299,-444.123565,9548.656652
217.618658,1608.800546,-222.061783,8956.491898
217.618966,3064.381992,814.226536,7031.956449
217.619274,3064.381992,1850.514855,6069.688724
217.619582,3524.039291,2442.679609,5477.523971
217.619890,3140.991542,2368.659014,5995.668130
217.620197,2528.115143,3478.967927,6217.729913
217.620505,2681.334243,4145.153275,5995.668130
217.620813,1915.238745,3478.967927,6587.832884
217.621121,995.924147,2590.720797,7402.059420
217.621429,0.000000,1258.350101,8956.491898
217.621737,-1455.581446,-222.061783,10288.862594
217.622045,-2834.553343,-1776.494261,11917.315666
217.622353,-3140.991542,-2960.823768,13693.809927
217.622661,-3294.210641,-3627.009116,14211.954086
217.622969,-2911.162892,-3849.070898,13545.768739
217.623277,-1915.238745,-3330.926739,13027.624579
217.623585,-766.095498,-1998.556043,11695.253884
217.623893,995.924147,-1554.432478,10732.986159
217.624201,1838.629195,-666.185348,9178.553681
217.624509,3217.601092,814.226536,7550.100608
217.624817,3907.087040,1480.411884,6735.874072
217.625125,4060.306139,2516.700203,6661.853478
217.625433,4443.353888,3552.988522,6439.791695
217.625741,3983.696590,4219.173869,5403.503377
217.626049,3447.429741,4367.215058,5995.668130
217.626357,3217.601092,2886.803174,7402.059420
217.626665,1149.143247,2146.597232,8438.347739
217.626973,-383.047749,222.061783,11103.089130
217.627281,-1915.238745,-2072.576638,12287.418637
217.627589,-3370.820191,-3404.947333,13841.851115
217.627897,-3753.867940,-4589.276840,15100.201217
217.628205,-3370.820191,-4293.194464,14434.015869
217.628513,-2451.505594,-4071.132681,13693.809927
217.628821,-1608.800546,-2960.823768,11917.315666
217.629128,1532.190996,-962.267725,10881.027347
217.629436,2757.943793,-296.082377,9622.677246
217.629744,3983.696590,1110.308913,7254.018232
217.630052,3830.477490,2960.823768,6069.688724
217.630360,4749.792088,2960.823768,6661.853478
217.630668,4596.572988,3182.885551,6957.935855
217.630976,3830.477490,4367.215058,5773.606348
217.631284,3370.820191,4737.318029,6143.709319
217.631592,3753.867940,3775.050304,6291.750507
217.631900,2221.676944,3182.885551,7476.080014
217.632208,1225.752797,2368.659014,9178.553681
217.632516,-229.828649,592.164754,10732.986159
217.632824,-1685.410096,-888.247130,11769.274478
217.633132,-2528.115143,-2294.638420,13323.706956
217.633440,-2911.162892,-3034.844362,14063.912898
217.633748,-2451.505594,-3034.844362,14063.912898
217.634056,-1915.238745,-2886.803174,13545.768739
217.634364,0.000000,-1702.473667,12065.356855
217.634672,1149.143247,-1258.350101,10584.944971
217.634980,2451.505594,-0.000000,9548.656652
217.635288,3140.991542,1036.288319,8216.285956
217.635596,3524.039291,1628.453072,7328.038826
217.635904,3524.039291,2220.617826,7105.977043
217.636212,3447.429741,2812.782580,6957.935855
217.636520,2987.772442,3330.926739,6661.853478
217.636828,2145.067394,3256.906145,6809.894666
217.637136,1991.848295,2812.782580,7846.182985
217.637444,153.219100,1258.350101,8734.430116
217.637752,-995.924147,-0.000000,10658.965565
217.638060,-2374.896044,-1628.453072,12065.356855
217.638367,-3294.210641,-2738.761985,13471.748144
217.638675,-3677.258390,-4145.153275,14137.933492
217.638983,-3064.381992,-3997.112087,13619.789333
217.639291,-1991.848295,-3256.906145,13101.645173
217.639599,-1225.752797,-2812.782580,11769.274478
217.639907,306.438199,-1184.329507,9918.759623
217.640215,1532.190996,-962.267725,9178.553681
217.640523,2451.505594,222.061783,7179.997637
217.640831,3217.601092,1332.370696,6513.812290
217.641139,3753.867940,1998.556043,5921.647536
217.641447,3830.477490,2220.617826,5773.606348
217.641755,3370.820191,2812.782580,5477.523971
217.642063,3064.381992,3478.967927,5625.565159
217.642371,2451.505594,3108.864956,6143.709319
217.642679,1149.143247,2516.700203,7254.018232
217.642987,306.438199,1554.432478,8882.471304
217.643295,-1072.533697,222.061783,10214.842000
217.643603,-1991.848295,-1554.432478,11547.212695
217.643911,-3064.381992,-2220.617826,13249.686362
217.644219,-3217.601092,-3330.926739,13471.748144
217.644527,-3064.381992,-3182.885551,13767.830521
217.644835,-2451.505594,-2886.803174,13175.665768
217.645143,-612.876398,-2294.638420,12287.418637
217.645451,842.705048,-1554.432478,10658.965565
217.645759,2068.457845,-444.123565,8882.471304
217.646067,2834.553343,740.205942,8142.265362
217.646375,3140.991542,1406.391290,7179.997637
217.646683,3753.867940,2294.638420,6957.935855
217.646991,4060.306139,3108.864956,6883.915261
217.647298,3294.210641,3997.112087,5995.668130
217.647606,2757.943793,4293.194464,6439.791695
217.647914,2298.286494,3701.029710,7550.100608
217.648222,1225.752797,2368.659014,8882.471304
217.648530,-459.657299,814.226536,10436.903782
217.648838,-1762.019645,-962.267725,12361.439231
217.649146,-3217.601092,-2812.782580,13323.706956
217.649454,-3983.696590,-3701.029710,14508.036463
217.649762,-3830.477490,-3849.070898,14285.974681
217.650070,-2757.943793,-3330.926739,13767.830521
217.650378,-1762.019645,-2812.782580,12731.542202
217.650686,-306.438199,-1850.514855,11621.233289
217.650994,1149.143247,-888.247130,9400.615463
217.651302,3140.991542,444.123565,7772.162391
217.651610,3370.820191,2146.597232,7105.977043
217.651918,3983.696590,2294.638420,6809.894666
217.652226,3677.258390,3034.844362,6513.812290
217.652534,3753.867940,4071.132681,5551.544565
217.652842,3294.210641,3923.091493,5255.462188
217.653150,2681.334243,3701.029710,6291.750507
217.653458,2221.676944,3034.844362,7179.997637
217.653766,1455.581446,1776.494261,9178.553681
217.654074,-229.828649,222.061783,10362.883188
217.654382,-1455.581446,-1110.308913,11843.295072
217.654690,-2374.896044,-2294.638420,12879.583391
217.654998,-2987.772442,-3034.844362,14063.912898
217.655306,-2604.724693,-2812.782580,13989.892304
217.655614,-1532.190996,-2664.741391,13323.706956
217.655922,-612.876398,-2294.638420,12731.542202
217.656230,919.314598,-1850.514855,10881.027347
217.656537,2298.286494,-740.205942,8808.450710
217.656845,2757.943793,370.102971,7846.182985
217.657153,3447.429741,1406.391290,7550.100608
217.657461,3753.867940,2368.659014,7328.038826
217.657769,4060.306139,3182.885551,6883.915261
217.658077,3677.258390,3627.009116,5995.668130
217.658385,2757.943793,4293.194464,6217.729913
217.658693,2681.334243,3108.864956,7328.038826
217.659001,1455.581446,2146.597232,8586.388927
217.659309,0.000000,814.226536,9918.759623
217.659617,-1532.190996,-888.247130,11251.130318
217.659925,-3217.601092,-2590.720797,13101.645173
217.660233,-3677.258390,-3627.009116,14285.974681
217.660541,-3370.820191,-4071.132681,14063.912898
217.660849,-2757.943793,-3478.967927,13323.706956
217.661157,-1991.848295,-2886.803174,11843.295072
217.661465,76.609550,-1554.432478,11473.192101
217.661773,1455.581446,-962.267725,9400.615463
217.662081,2451.505594,592.164754,7698.141797
217.662389,3370.820191,1036.288319,6883.915261
217.662697,3600.648841,1850.514855,6143.709319
217.663005,3370.820191,2442.679609,5995.668130
217.663313,3677.258390,3034.844362,6217.729913
217.663621,2681.334243,3330.926739,5181.441594
217.663929,2757.943793,3552.988522,6291.750507
217.664237,2451.505594,2960.823768,6809.894666
217.664545,842.705048,2368.659014,7994.224174
217.664853,0.000000,1184.329507,9844.739029
217.665161,-536.266849,-518.144159,10955.047942
217.665469,-2757.943793,-1924.535449,12139.377449
217.665776,-2987.772442,-3256.906145,14063.912898
217.666084,-2834.553343,-3108.864956,13619.789333
217.666392,-3140.991542,-2738.761985,14137.933492
217.666700,-1225.752797,-2516.700203,13101.645173
217.667008,153.219100,-1628.453072,11991.336260
217.667316,689.485948,-444.123565,9622.677246
217.667624,2604.724693,666.185348,8290.306550
217.667932,3524.039291,1924.535449,7328.038826
217.668240,3447.429741,2220.617826,7179.997637
217.668548,3907.087040,3034.844362,7179.997637
217.668856,3370.820191,4219.173869,6069.688724
217.669164,3064.381992,3701.029710,6957.935855
217.669472,2298.286494,3330.926739,6883.915261
217.669780,1225.752797,2664.741391,8586.388927
217.670088,-612.876398,814.226536,9992.780217
217.670396,-1915.238745,-518.144159,11621.233289
217.670704,-2451.505594,-2146.597232,13397.727550
217.671012,-3830.477490,-3478.967927,13915.871710
217.671320,-4136.915689,-3775.050304,13767.830521
217.671628,-3064.381992,-3552.988522,13471.748144
217.671936,-1991.848295,-2516.700203,12583.501014
217.672244,-229.828649,-1258.350101,10732.986159
217.672552,1225.752797,-370.102971,9474.636058
217.672860,2451.505594,222.061783,7920.203579
217.673168,3294.210641,666.185348,6217.729913
217.673476,3677.258390,1406.391290,6735.874072
217.673784,2911.162892,1480.411884,6661.853478
217.674092,2911.162892,2368.659014,6513.812290
217.674400,2681.334243,2812.782580,6291.750507
217.674708,2528.115143,3552.988522,6365.771101
217.675016,2068.457845,3034.844362,6957.935855
217.675324,1378.971896,2220.617826,7920.203579
217.675632,229.828649,1332.370696,9474.636058
217.675940,-1378.971896,-666.185348,10732.986159
217.676248,-1762.019645,-1776.494261,11991.336260
217.676556,-2911.162892,-2590.720797,13397.727550
217.676864,-2911.162892,-3034.844362,13545.768739
217.677172,-2528.115143,-2960.823768,13545.768739
217.677480,-1685.410096,-2590.720797,12879.583391
217.677787,-306.438199,-1702.473667,11547.212695
217.678095,919.314598,-1110.308913,10066.800811
217.678403,2298.286494,-74.020594,8438.347739
217.678711,3140.991542,1184.329507,7772.162391
217.679019,3524.039291,1850.514855,7328.038826
217.679327,3830.477490,2738.761985,6587.832884
217.679635,3524.039291,3330.926739,6217.729913
217.679943,3217.601092,3701.029710,6069.688724
217.680251,2528.115143,3256.906145,7476.080014
217.680559,1532.190996,2220.617826,8586.388927
217.680867,0.000000,1258.350101,9622.677246
217.681175,-1455.581446,-370.102971,11251.130318
217.681483,-2681.334243,-2220.617826,12731.542202
217.681791,-3677.258390,-3256.906145,13841.851115
217.682099,-3447.429741,-3627.009116,13915.871710
217.682407,-2834.553343,-3478.967927,13397.727550
217.682715,-1532.190996,-2664.741391,11991.336260
217.683023,383.047749,-1850.514855,11251.130318
217.683331,1838.629195,-1036.288319,9474.636058
217.683639,2451.505594,-0.000000,8364.327145
217.683947,3370.820191,740.205942,7031.956449
217.684255,3600.648841,1628.453072,6365.771101
217.684563,3370.820191,1998.556043,6809.894666
217.684871,3907.087040,2442.679609,7031.956449
217.685179,3294.210641,3627.009116,5625.565159
217.685487,3907.087040,4071.132681,6069.688724
217.685795,3447.429741,3404.947333,7031.956449
217.686103,1685.410096,2812.782580,7920.203579
217.686411,842.705048,1480.411884,9400.615463
217.686719,-229.828649,-148.041188,10881.027347
217.687027,-1608.800546,-1702.473667,12731.542202
217.687335,-2757.943793,-2886.803174,13545.768739
217.687643,-2604.724693,-3478.967927,14063.912898
217.687951,-2911.162892,-3552.988522,14211.954086
217.688259,-2068.457845,-3034.844362,13471.748144
217.688567,306.438199,-1850.514855,12509.480420
217.688875,995.924147,-370.102971,9844.739029
217.689183,3140.991542,370.102971,8512.368333
217.689490,3907.087040,1850.514855,7031.956449
217.689798,4443.353888,2516.700203,6661.853478
217.690106,4826.401637,2738.761985,6661.853478
217.690414,4596.572988,3849.070898,5847.626942
217.690722,3370.820191,3701.029710,6291.750507
217.691030,2681.334243,3478.967927,6957.935855
217.691338,1378.971896,2516.700203,8734.430116
217.691646,-383.047749,1110.308913,10362.883188
217.691954,-1608.800546,-444.123565,11621.233289
217.692262,-2911.162892,-2146.597232,12805.562797
217.692570,-3217.601092,-3330.926739,13989.892304
217.692878,-3907.087040,-3775.050304,14211.954086
217.693186,-3370.820191,-3627.009116,13619.789333
217.693494,-2681.334243,-3108.864956,12953.603985
217.693802,-612.876398,-2072.576638,11177.109724
217.694110,766.095498,-888.247130,9474.636058
217.694418,1838.629195,296.082377,8290.306550
217.694726,3217.601092,1406.391290,6957.935855
217.695034,3294.210641,1702.473667,7179.997637
217.695342,4213.525239,2220.617826,6069.688724
217.695650,3140.991542,2886.803174,5477.523971
217.695958,2987.772442,2812.782580,6069.688724
217.696266,2681.334243,3182.885551,6365.771101
217.696574,2528.115143,3256.906145,7105.977043
217.696882,1838.629195,2146.597232,7624.121203
217.697190,459.657299,592.164754,9400.615463
217.697498,-766.095498,-296.082377,10510.924376
217.697806,-2757.943793,-2072.576638,12065.356855
217.698114,-3064.381992,-3404.947333,13989.892304
217.698422,-3370.820191,-3775.050304,14211.954086
217.698730,-2834.553343,-3330.926739,14211.954086
217.699038,-1991.848295,-2812.782580,13397.727550
217.699346,-766.095498,-1924.535449,11547.212695
217.699654,766.095498,-592.164754,10066.800811
217.699962,2298.286494,148.041188,8438.347739
217.700270,3217.601092,1184.329507,7994.224174
217.700578,3217.601092,1702.473667,6809.894666
217.700886,4060.306139,3182.885551,6365.771101
217.701194,3294.210641,3627.009116,5921.647536
217.701501,3370.820191,4145.153275,5921.647536
217.701809,2528.115143,3849.070898,7031.956449
217.702117,1608.800546,2960.823768,7920.203579
217.702425,383.047749,1850.514855,9474.636058
217.702733,-1532.190996,444.123565,10955.047942
217.703041,-2834.553343,-1998.556043,12583.501014
217.703349,-3830.477490,-3182.885551,13619.789333
217.703657,-4060.306139,-3627.009116,13989.892304
217.703965,-3524.039291,-3552.988522,14063.912898
217.704273,-2987.772442,-2664.741391,13175.665768
217.704581,-1149.143247,-2072.576638,12213.398043
217.704889,536.266849,-1406.391290,10066.800811
217.705197,995.924147,-0.000000,8882.471304
217.705505,2221.676944,370.102971,8142.265362
217.705813,2987.772442,1554.432478,6735.874072
217.706121,3294.210641,1998.556043,6365.771101
217.706429,3294.210641,2516.700203,6291.750507
217.706737,3294.210641,3182.885551,6143.709319
217.707045,3294.210641,3404.947333,5699.585753
217.707353,2834.553343,3701.029710,6513.812290
217.707661,2604.724693,2664.741391,7402.059420
217.707969,1685.410096,1184.329507,8808.450710
217.708277,-766.095498,-0.000000,10732.986159
217.708585,-2068.457845,-1702.473667,12287.418637
217.708893,-2528.115143,-3034.844362,13841.851115
217.709201,-3064.381992,-3256.906145,14137.933492
217.709509,-2528.115143,-3330.926739,13989.892304
217.709817,-1608.800546,-3404.947333,13175.665768
217.710125,0.000000,-2072.576638,11769.274478
217.710433,1608.800546,-666.185348,9992.780217
217.710741,2834.553343,-0.000000,8290.306550
217.711049,3447.429741,1480.411884,7920.203579
217.711357,4290.134789,2442.679609,7105.977043
217.711665,4519.963438,3182.885551,6809.894666
217.711973,4366.744339,3849.070898,5403.503377
217.712281,3983.696590,4293.194464,5995.668130
217.712589,3370.820191,3775.050304,6883.915261
217.712897,2145.067394,2886.803174,8216.285956
217.713205,766.095498,1480.411884,9770.718434
217.713512,-689.485948,296.082377,10436.903782
217.713820,-2068.457845,-1628.453072,12361.439231
217.714128,-3370.820191,-2886.803174,13693.809927
217.714436,-3217.601092,-3478.967927,14211.954086
217.714744,-2911.162892,-3849.070898,14137.933492
217.715052,-2834.553343,-2812.782580,12953.603985
217.715360,-612.876398,-2368.659014,12435.459826
217.715668,153.219100,-1332.370696,10288.862594
217.715976,1302.362347,296.082377,8512.368333
217.716284,2451.505594,518.144159,7846.182985
217.716592,3217.601092,1554.432478,6513.812290
217.716900,3524.039291,1998.556043,6143.709319
217.717208,3064.381992,2738.761985,6069.688724
217.717516,3600.648841,3182.885551,5773.606348
217.717824,3447.429741,4367.215058,6217.729913
217.718132,2834.553343,3775.050304,6291.750507
217.718440,2374.896044,2368.659014,7105.977043
217.718748,1072.533697,1184.329507,8808.450710
217.719056,-612.876398,-592.164754,10658.965565
217.719364,-2145.067394,-2368.659014,12065.356855
217.719672,-2681.334243,-3849.070898,13841.851115
217.719980,-3524.039291,-4441.235652,14211.954086
217.720288,-3064.381992,-3849.070898,14137.933492
217.720596,-1838.629195,-3182.885551,13693.809927
217.720904,-459.657299,-2072.576638,11843.295072
217.721212,1225.752797,-592.164754,9844.739029
217.721520,2604.724693,592.164754,8216.285956
217.721828,3294.210641,1776.494261,7624.121203
217.722136,4519.963438,2294.638420,7179.997637
217.722444,4443.353888,3182.885551,5847.626942
217.722752,3753.867940,3627.009116,5921.647536
217.723060,3447.429741,3330.926739,7105.977043
217.723368,2221.676944,3701.029710,6809.894666
217.723676,1072.533697,2442.679609,8512.368333
217.723984,-153.219100,1332.370696,9400.615463
217.724292,-1225.752797,-444.123565,10881.027347
217.724600,-2604.724693,-2072.576638,12731.542202
217.724908,-3830.477490,-3330.926739,13619.789333
217.725216,-3753.867940,-3552.988522,14063.912898
217.725523,-3753.867940,-3330.926739,13323.706956
217.725831,-2451.505594,-2738.761985,12805.562797
217.726139,-1072.533697,-1702.473667,11769.274478
217.726447,0.000000,-962.267725,10436.903782
217.726755,1608.800546,-222.061783,9030.512492
217.727063,2298.286494,592.164754,7328.038826
217.727371,2145.067394,1110.308913,6957.935855
217.727679,3140.991542,1554.432478,6735.874072
217.727987,3217.601092,2368.659014,6439.791695
217.728295,3064.381992,3108.864956,6069.688724
217.728603,2987.772442,3627.009116,5255.462188
217.728911,3140.991542,3701.029710,5625.565159
217.729219,2374.896044,2886.803174,6957.935855
217.729527,1608.800546,1628.453072,8290.306550
217.729835,-689.485948,-0.000000,10362.883188
217.730143,-1149.143247,-1850.514855,12139.377449
217.730451,-2757.943793,-3478.967927,13397.727550
217.730759,-3370.820191,-4441.235652,14434.015869
217.731067,-2987.772442,-4145.153275,14359.995275
217.731375,-2451.505594,-3552.988522,13915.871710
217.731683,-919.314598,-2812.782580,12435.459826
217.731991,919.314598,-1480.411884,11251.130318
217.732299,1991.848295,444.123565,9326.594869
217.732607,2757.943793,1036.288319,7402.059420
217.732915,4060.306139,2368.659014,7105.977043
217.733223,4366.744339,3034.844362,6735.874072
217.733531,4213.525239,4071.132681,6217.729913
217.733839,3677.258390,4441.235652,5699.585753
217.734147,3217.601092,4293.194464,6883.915261
217.734455,2374.896044,3552.988522,7254.018232
217.734763,766.095498,2146.597232,9030.512492
217.735071,-1149.143247,518.144159,10732.986159
217.735379,-2145.067394,-1258.350101,12065.356855
217.735687,-3064.381992,-2368.659014,13471.748144
217.735995,-3983.696590,-3923.091493,14211.954086
217.736303,-3447.429741,-3627.009116,13693.809927
217.736611,-2374.896044,-3552.988522,13619.789333
217.736919,-1225.752797,-2442.679609,12213.398043
217.737227,76.609550,-888.247130,10732.986159
217.737534,1302.362347,-740.205942,9326.594869
217.737842,2451.505594,444.123565,7624.121203
217.738150,2681.334243,1628.453072,6661.853478
217.738458,3600.648841,2294.638420,6809.894666
217.738766,3600.648841,3330.926739,6069.688724
217.739074,3830.477490,3997.112087,5625.565159
217.739382,3753.867940,4515.256246,5699.585753
217.739690,3140.991542,4219.173869,5847.626942
217.739998,2528.115143,2664.741391,6957.935855
217.740306,1149.143247,1554.432478,8808.450710
217.740614,-536.266849,-666.185348,10362.883188
217.740922,-1608.800546,-2072.576638,12065.356855
217.741230,-2987.772442,-3997.112087,13989.892304
217.741538,-3524.039291,-4811.338623,14063.912898
217.741846,-3064.381992,-4367.215058,14508.036463
217.742154,-2221.676944,-4145.153275,14211.954086
217.742462,-459.657299,-2368.659014,12287.418637
217.742770,1302.362347,-1110.308913,10436.903782
217.743078,2681.334243,222.061783,8882.471304
217.743386,3600.648841,1480.411884,6957.935855
217.743694,3830.477490,2590.720797,6735.874072
217.744002,4443.353888,3404.947333,7105.977043
217.744310,4060.306139,3775.050304,6069.688724
217.744618,3600.648841,3849.070898,5773.606348
217.744926,2604.724693,4293.194464,6513.812290
217.745234,1532.190996,3182.885551,7698.141797
217.745542,229.828649,1924.535449,9326.594869
217.745850,-1072.533697,444.123565,10658.965565
217.746158,-2145.067394,-1554.432478,12361.439231
217.746466,-3447.429741,-3256.906145,13619.789333
217.746774,-3677.258390,-3627.009116,14063.912898
217.747082,-3753.867940,-3404.947333,14211.954086
217.747390,-2681.334243,-3256.906145,12805.562797
217.747698,-1225.752797,-2368.659014,12509.480420
217.748006,76.609550,-1480.411884,11251.130318
217.748314,1378.971896,-666.185348,9030.512492
217.748622,2145.067394,222.061783,7846.182985
217.748930,2911.162892,1036.288319,7402.059420
217.749237,3753.867940,1480.411884,6587.832884
217.749545,3677.258390,2368.659014,6439.791695
217.749853,3677.258390,3552.988522,5773.606348
217.750161,3524.039291,4071.132681,5107.421000
217.750469,3524.039291,4219.173869,5847.626942
217.750777,2681.334243,3330.926739,6587.832884
217.751085,2145.067394,1924.535449,7994.224174
217.751393,0.000000,-0.000000,9992.780217
217.751701,-1608.800546,-2220.617826,11621.233289
217.752009,-2681.334243,-3849.070898,13323.706956
217.752317,-3907.087040,-4441.235652,14508.036463
217.752625,-3447.429741,-4367.215058,14211.954086
217.752933,-2528.115143,-4219.173869,14137.933492
217.753241,-919.314598,-3108.864956,12657.521608
217.753549,842.705048,-1554.432478,10807.006753
217.753857,2451.505594,-222.061783,8660.409521
217.754165,3753.867940,370.102971,7624.121203
217.754473,4673.182538,1924.535449,6735.874072
217.754781,4366.744339,3256.906145,6587.832884
217.755089,4136.915689,3701.029710,6069.688724
217.755397,3830.477490,4367.215058,5995.668130
217.755705,2757.943793,4219.173869,6217.729913
217.756013,1915.238745,3627.009116,7402.059420
217.756321,306.438199,2294.638420,8660.409521
217.756629,-919.314598,814.226536,10510.924376
217.756937,-1685.410096,-962.267725,11473.192101
217.757245,-3064.381992,-2220.617826,13027.624579
217.757553,-3677.258390,-3478.967927,13915.871710
217.757861,-3600.648841,-3923.091493,13841.851115
217.758169,-2604.724693,-3256.906145,13397.727550
217.758477,-1302.362347,-2516.700203,12805.562797
217.758785,383.047749,-1554.432478,11547.212695
217.759093,995.924147,-666.185348,9474.636058
217.759401,2221.676944,-222.061783,8364.327145
217.759709,2604.724693,1036.288319,7179.997637
217.760017,2987.772442,1480.411884,6587.832884
217.760325,3294.210641,2442.679609,6513.812290
217.760633,3370.820191,3182.885551,6217.729913
217.760941,3524.039291,3701.029710,5551.544565
217.761248,2757.943793,3923.091493,5625.565159
217.761556,1915.238745,3627.009116,6809.894666
217.761864,1455.581446,2220.617826,8290.306550
217.762172,-383.047749,444.123565,9918.759623
217.762480,-1762.019645,-1702.473667,11917.315666
217.762788,-3217.601092,-2960.823768,13175.665768
217.763096,-3677.258390,-4145.153275,14434.015869
217.763405,-3447.429741,-4589.276840,13915.871710
217.763713,-1608.800546,-4441.235652,13619.789333
217.764021,-1149.143247,-2590.720797,12213.398043
217.764329,995.924147,-1628.453072,10362.883188
217.764637,2145.067394,-740.205942,9474.636058
217.764946,3753.867940,740.205942,7920.203579
217.765254,4136.915689,1850.514855,7031.956449
217.765562,4443.353888,2960.823768,6957.935855
217.765870,3983.696590,3330.926739,6809.894666
217.766178,3370.820191,3849.070898,6513.812290
217.766487,2757.943793,4589.276840,6809.894666
217.766795,2604.724693,3627.009116,7402.059420
217.767103,766.095498,2590.720797,8586.388927
217.767411,-536.266849,1406.391290,10140.821405
217.767719,-1991.848295,-518.144159,11917.315666
217.768028,-3140.991542,-1850.514855,13175.665768
217.768336,-3294.210641,-2516.700203,14582.057057
217.768644,-3524.039291,-3256.906145,14211.954086
217.768952,-3140.991542,-2886.803174,13471.748144
217.769260,-1225.752797,-2368.659014,12953.603985
217.769569,153.219100,-1702.473667,11399.171507
217.769877,1149.143247,-888.247130,9548.656652
217.770185,2451.505594,-0.000000,8290.306550
217.770493,3217.601092,888.247130,7328.038826
217.770801,3600.648841,1776.494261,7105.977043
217.771110,4443.353888,2146.597232,6735.874072
217.771418,3677.258390,3330.926739,6217.729913
217.771726,3217.601092,3775.050304,5625.565159
217.772034,2987.772442,4441.235652,5403.503377
217.772342,2528.115143,3849.070898,6291.750507
217.772651,1302.362347,2368.659014,7920.203579
217.772959,0.000000,740.205942,9918.759623
217.773267,-1838.629195,-1110.308913,11695.253884
217.773575,-2834.553343,-2812.782580,13323.706956
217.773883,-3217.601092,-4219.173869,13841.851115
217.774192,-2987.772442,-4441.235652,14359.995275
217.774500,-2451.505594,-4145.153275,13619.789333
217.774808,-1072.533697,-3404.947333,12213.398043
217.775116,383.047749,-1924.535449,10658.965565
217.775424,2298.286494,-888.247130,9326.594869
217.775733,3524.039291,-0.000000,7846.182985
217.776041,4366.744339,1776.494261,7105.977043
217.776349,4596.572988,2220.617826,6587.832884
217.776657,4673.182538,2960.823768,6291.750507
217.776965,3907.087040,3775.050304,6217.729913
217.777274,3140.991542,3849.070898,6069.688724
217.777582,2451.505594,3627.009116,7105.977043
217.777890,842.705048,2886.803174,8068.244768
217.778198,-383.047749,1480.411884,9992.780217
217.778506,-2068.457845,-444.123565,11325.150913
217.778815,-2987.772442,-1702.473667,12509.480420
217.779123,-3524.039291,-2812.782580,13323.706956
217.779431,-3600.648841,-3034.844362,13693.809927
217.779739,-2757.943793,-2960.823768,13767.830521
217.780047,-1762.019645,-2442.679609,12805.562797
217.780356,-459.657299,-1998.556043,11473.192101
217.780664,919.314598,-1110.308913,9622.677246
217.780972,2068.457845,-444.123565,8290.306550
217.781280,2451.505594,-0.000000,7105.977043
217.781588,3370.820191,1406.391290,7105.977043
217.781897,3524.039291,2072.576638,6513.812290
217.782205,3370.820191,3034.844362,6069.688724
217.782513,3217.601092,3627.009116,5847.626942
217.782821,3217.601092,4219.173869,5699.585753
217.783129,2681.334243,3701.029710,6661.853478
217.783437,1302.362347,2886.803174,7994.224174
217.783746,-229.828649,1110.308913,9770.718434
217.784054,-1762.019645,-1036.288319,11473.192101
217.784362,-3294.210641,-2664.741391,12805.562797
217.784670,-3753.867940,-3627.009116,13915.871710
217.784978,-3677.258390,-3923.091493,13915.871710
217.785287,-2604.724693,-3108.864956,13545.768739
217.785595,-1302.362347,-2442.679609,12213.398043
217.785903,842.705048,-1332.370696,10658.965565
217.786211,1685.410096,-444.123565,9844.739029
217.786519,3677.258390,296.082377,8512.368333
217.786828,3294.210641,1332.370696,7179.997637
217.787136,4213.525239,1628.453072,7624.121203
217.787444,3677.258390,2664.741391,6957.935855
217.787752,3294.210641,3256.906145,6957.935855
217.788060,2834.553343,3404.947333,6587.832884
217.788369,2145.067394,3775.050304,7105.977043
217.788677,919.314598,2368.659014,8808.450710
217.788985,-459.657299,1850.514855,9918.759623
217.789293,-1532.190996,-0.000000,11621.233289
217.789601,-3370.820191,-1628.453072,12731.542202
217.789910,-3830.477490,-2664.741391,13989.892304
217.790218,-3753.867940,-3182.885551,14137.933492
217.790526,-2757.943793,-2886.803174,13693.809927
217.790834,-1455.581446,-2812.782580,12435.459826
217.791142,0.000000,-2072.576638,11251.130318
217.791451,1149.143247,-1184.329507,9992.780217
217.791759,1915.238745,-148.041188,8068.244768
217.792067,3064.381992,592.164754,7624.121203
217.792375,3447.429741,1406.391290,6735.874072
217.792683,3983.696590,2220.617826,6143.709319
217.792992,3983.696590,2664.741391,5699.585753
217.793300,3830.477490,3701.029710,5107.421000
217.793608,3600.648841,4441.235652,5773.606348
217.793916,2757.943793,3849.070898,6291.750507
217.794224,1685.410096,2664.741391,7994.224174
217.794533,0.000000,1110.308913,9474.636058
217.794841,-1685.410096,-592.164754,11325.150913
217.795149,-2681.334243,-2368.659014,12731.542202
217.795457,-3753.867940,-3552.988522,14211.954086
217.795765,-2834.553343,-3775.050304,14285.974681
217.796074,-2451.505594,-3478.967927,13471.748144
217.796382,-1225.752797,-2812.782580,12879.583391
217.796690,306.438199,-1924.535449,10955.047942
217.796998,2068.457845,-518.144159,9474.636058
217.797306,3217.601092,148.041188,8512.368333
217.797615,4519.963438,962.267725,7476.080014
217.797923,4213.525239,1406.391290,7179.997637
217.798231,4443.353888,1924.535449,7179.997637
217.798539,3983.696590,3108.864956,6439.791695
217.798847,3140.991542,3256.906145,7105.977043
217.799156,2374.896044,3256.906145,7328.038826
217.799464,1225.752797,2738.761985,8216.285956
217.799772,153.219100,2072.576638,9400.615463
217.800080,-229.828649,592.164754,10881.027347
217.800388,-1608.800546,-740.205942,12287.418637
217.800697,-2528.115143,-1924.535449,13027.624579
217.801005,-3524.039291,-2442.679609,13619.789333
217.801313,-3064.381992,-2590.720797,13471.748144
217.801621,-2298.286494,-2294.638420,13101.645173
217.801929,-1072.533697,-1850.514855,11843.295072
217.802238,306.438199,-1480.411884,10881.027347
217.802546,1455.581446,-518.144159,9548.656652
217.802854,2374.896044,296.082377,8068.244768
217.803162,2451.505594,592.164754,7698.141797
217.803470,3677.258390,1776.494261,6587.832884
217.803779,3370.820191,2812.782580,6217.729913
217.804087,3524.039291,3404.947333,5995.668130
217.804395,3217.601092,3997.112087,5551.544565
217.804703,2987.772442,3775.050304,6069.688724
217.805011,2145.067394,2738.761985,7402.059420
217.805320,612.876398,1406.391290,9178.553681
217.805628,-842.705048,-370.102971,10807.006753
217.805936,-2068.457845,-1924.535449,12435.459826
217.806244,-3217.601092,-3108.864956,13249.686362
217.806552,-3447.429741,-3849.070898,13767.830521
217.806861,-2681.334243,-3404.947333,13619.789333
217.807169,-1608.800546,-3182.885551,12805.562797
217.807477,229.828649,-2442.679609,11769.274478
217.807785,1455.581446,-962.267725,9992.780217
217.808093,2528.115143,-518.144159,8808.450710
217.808402,3753.867940,222.061783,7698.141797
217.808710,4213.525239,1850.514855,6365.771101
217.809018,4136.915689,2368.659014,6513.812290
217.809326,3447.429741,3330.926739,6217.729913
217.809634,2987.772442,3478.967927,6809.894666
217.809943,2145.067394,3552.988522,7476.080014
217.810251,1225.752797,2738.761985,8586.388927
217.810559,0.000000,1850.514855,9326.594869
217.810867,-1685.410096,74.020594,10881.027347
217.811175,-2987.772442,-1258.350101,12583.501014
217.811484,-3217.601092,-2368.659014,13767.830521
217.811792,-3753.867940,-2960.823768,13767.830521
217.812100,-3370.820191,-3256.906145,14063.912898
217.812408,-2221.676944,-2812.782580,13101.645173
217.812716,-842.705048,-2368.659014,11769.274478
217.813025,229.828649,-1332.370696,10584.944971
217.813333,1532.190996,-0.000000,8512.368333
217.813641,2681.334243,740.205942,7624.121203
217.813949,3447.429741,1480.411884,6735.874072
217.814257,3907.087040,2590.720797,6069.688724
217.814566,4290.134789,3330.926739,5699.585753
217.814874,3830.477490,3627.009116,5107.421000
217.815182,3370.820191,4367.215058,5551.544565
217.815490,3064.381992,3849.070898,6513.812290
217.815798,1532.190996,2368.659014,8068.244768
217.816107,0.000000,1184.329507,9474.636058
217.816415,-1608.800546,-518.144159,11325.150913
217.816723,-2757.943793,-2294.638420,12657.521608
217.817031,-3447.429741,-3182.885551,13767.830521
217.817339,-2604.724693,-3627.009116,14063.912898
217.817648,-2451.505594,-3182.885551,13989.892304
217.817956,-1455.581446,-3923.091493,12731.542202
217.818264,76.609550,-2220.617826,11769.274478
217.818572,1378.971896,-1036.288319,10436.903782
217.818880,2604.724693,-0.000000,8734.430116
217.819189,3677.258390,888.247130,7698.141797
217.819497,3983.696590,1406.391290,7105.977043
217.819805,4213.525239,2368.659014,7031.956449
217.820113,3753.867940,3256.906145,6143.709319
217.820421,3524.039291,4367.215058,6735.874072
217.820730,2604.724693,3627.009116,6957.935855
217.821038,1991.848295,3256.906145,7846.182985
217.821346,459.657299,2516.700203,8956.491898
217.821654,-383.047749,962.267725,9918.759623
217.821962,-1608.800546,-592.164754,11769.274478
217.822271,-3524.039291,-1998.556043,13397.727550
217.822579,-3677.258390,-2960.823768,14211.954086
217.822887,-3677.258390,-3627.009116,13989.892304
217.823195,-3217.601092,-3404.947333,13767.830521
217.823503,-1608.800546,-2738.761985,12361.439231
217.823812,-229.828649,-2294.638420,11325.150913
217.824120,1072.533697,-1332.370696,9918.759623
217.824428,2451.505594,222.061783,7698.141797
217.824736,3217.601092,1184.329507,7105.977043
217.825044,3907.087040,1850.514855,6439.791695
217.825353,4443.353888,3034.844362,5625.565159
217.825661,4213.525239,3923.091493,5403.503377
217.825969,3677.258390,4589.276840,5107.421000
217.826277,3140.991542,4293.194464,5921.647536
217.826585,1685.410096,3034.844362,7402.059420
217.826894,612.876398,1776.494261,8808.450710
217.827202,-1378.971896,-296.082377,10658.965565
217.827510,-2451.505594,-2072.576638,12509.480420
217.827818,-2757.943793,-3404.947333,12879.583391
217.828126,-3294.210641,-3627.009116,13767.830521
217.828435,-2451.505594,-3849.070898,13841.851115
217.828743,-1762.019645,-3478.967927,13101.645173
217.829051,-536.266849,-2442.679609,11769.274478
217.829359,1378.971896,-2072.576638,10584.944971
217.829667,2451.505594,-370.102971,8808.450710
217.829976,3064.381992,518.144159,8068.244768
217.830284,3830.477490,1184.329507,7328.038826
217.830592,3677.258390,2294.638420,6883.915261
217.830900,3370.820191,2960.823768,7031.956449
217.831208,3217.601092,3997.112087,6069.688724
217.831517,2757.943793,3997.112087,6957.935855
217.831825,2068.457845,3330.926739,7698.141797
217.832133,229.828649,2294.638420,8808.450710
217.832441,153.219100,740.205942,10140.821405
217.832749,-1532.190996,-888.247130,12213.398043
217.833058,-3140.991542,-2220.617826,13175.665768
217.833366,-3447.429741,-3108.864956,14063.912898
217.833674,-3447.429741,-3404.947333,13841.851115
217.833982,-2528.115143,-3552.988522,13027.624579
217.834290,-1072.533697,-2368.659014,12361.439231
217.834599,153.219100,-1998.556043,11399.171507
217.834907,1225.752797,-444.123565,9548.656652
217.835215,2757.943793,-0.000000,8142.265362
217.835523,3677.258390,1258.350101,6957.935855
217.835831,3753.867940,2368.659014,6143.709319
217.836140,4060.306139,3330.926739,5847.626942
217.836448,3907.087040,4219.173869,5477.523971
217.836756,3217.601092,4293.194464,5477.523971
217.837064,2757.943793,4219.173869,6143.709319
217.837372,1608.800546,3108.864956,7254.018232
217.837681,689.485948,1702.473667,9400.615463
217.837989,-919.314598,148.041188,10732.986159
217.838297,-2221.676944,-1628.453072,12287.418637
217.838605,-2987.772442,-2812.782580,13619.789333
217.838913,-3677.258390,-3701.029710,13471.748144
217.839222,-2681.334243,-3701.029710,14359.995275
217.839530,-1838.629195,-3404.947333,13545.768739
217.839838,-383.047749,-2516.700203,11695.253884
217.840146,919.314598,-1628.453072,10881.027347
217.840454,2221.676944,-814.226536,9104.533087
217.840763,2911.162892,296.082377,7846.182985
217.841071,3524.039291,1406.391290,7402.059420
217.841379,4060.306139,2146.597232,7105.977043
217.841687,3447.429741,2664.741391,6661.853478
217.841995,3217.601092,3849.070898,6069.688724
217.842304,2451.505594,4219.173869,6809.894666
217.842612,2221.676944,2960.823768,7031.956449
217.842920,612.876398,2590.720797,8808.450710
217.843228,-689.485948,1110.308913,10288.862594
217.843536,-1762.019645,-592.164754,11991.336260
217.843845,-3140.991542,-2368.659014,13397.727550
217.844153,-3370.820191,-3552.988522,14211.954086
217.844461,-3907.087040,-3552.988522,13693.809927
217.844769,-3524.039291,-3478.967927,13545.768739
217.845077,-2298.286494,-2886.803174,12509.480420
217.845386,-153.219100,-2220.617826,11473.192101
217.845694,919.314598,-962.267725,9326.594869
217.846002,2528.115143,-0.000000,7550.100608
217.846310,3064.381992,1258.350101,6587.832884
217.846618,3830.477490,2294.638420,6365.771101
217.846927,4060.306139,3256.906145,6217.729913
217.847235,3600.648841,4441.235652,5477.523971
217.847543,3447.429741,4441.235652,5255.462188
217.847851,3064.381992,4367.215058,5847.626942
217.848159,2374.896044,3404.947333,7179.997637
217.848468,995.924147,2146.597232,8734.430116
217.848776,-459.657299,74.020594,10510.924376
217.849084,-2145.067394,-1406.391290,11621.233289
217.849392,-3294.210641,-3034.844362,13397.727550
217.849700,-3140.991542,-3849.070898,14063.912898
217.850009,-2987.772442,-3849.070898,13915.871710
217.850317,-1915.238745,-3404.947333,13545.768739
217.850625,-842.705048,-2664.741391,12065.356855
217.850933,766.095498,-1776.494261,11177.109724
217.851241,1991.848295,-888.247130,9548.656652
217.851550,2757.943793,666.185348,8290.306550
217.851858,3600.648841,1702.473667,7994.224174
217.852166,3983.696590,2812.782580,6513.812290
217.852474,3907.087040,3552.988522,6587.832884
217.852782,3677.258390,4367.215058,5995.668130
217.853091,2681.334243,3923.091493,6809.894666
217.853399,2145.067394,3478.967927,7550.100608
217.853707,842.705048,1776.494261,8586.388927
217.854015,-459.657299,370.102971,10658.965565
217.854323,-2145.067394,-1258.350101,12435.459826
217.854632,-2911.162892,-2368.659014,13175.665768
217.854940,-3907.087040,-3478.967927,13915.871710
217.855248,-3294.210641,-3627.009116,13989.892304
217.855556,-2298.286494,-3330.926739,13101.645173
217.855864,-1072.533697,-2368.659014,11917.315666
217.856173,766.095498,-1628.453072,10881.027347
217.856481,1532.190996,-888.247130,9104.533087
217.856789,2834.553343,148.041188,8290.306550
217.857097,3830.477490,1406.391290,7105.977043
217.857405,3983.696590,2294.638420,6217.729913
217.857714,3983.696590,3627.009116,5847.626942
217.858022,3983.696590,4145.153275,5551.544565
217.858330,3677.258390,4441.235652,5551.544565
217.858638,2911.162892,4293.194464,5995.668130
217.858946,2298.286494,2886.803174,7105.977043
217.859255,766.095498,1850.514855,9178.553681
217.859563,-536.266849,222.061783,10955.047942
217.859871,-2221.676944,-1406.391290,11917.315666
217.860179,-2681.334243,-2664.741391,13027.624579
217.860487,-2987.772442,-3256.906145,13767.830521
217.860796,-2451.505594,-3478.967927,13767.830521
217.861104,-1302.362347,-3478.967927,12953.603985
217.861412,-306.438199,-2812.782580,12139.377449
217.861720,842.705048,-2146.597232,11103.089130
217.862028,1378.971896,-1258.350101,9474.636058
217.862337,2528.115143,-0.000000,8364.327145
217.862645,3217.601092,1036.288319,7550.100608
217.862953,3447.429741,2368.659014,6809.894666
217.863261,3907.087040,3701.029710,6217.729913
217.863569,3294.210641,4663.297435,6069.688724
217.863878,3600.648841,4219.173869,6587.832884
217.864186,2451.505594,3701.029710,6809.894666
217.864494,1225.752797,2960.823768,8068.244768
217.864802,-306.438199,740.205942,9918.759623
217.865110,-2145.067394,-740.205942,11473.192101
217.865418,-3217.601092,-2516.700203,13545.768739
217.865727,-4443.353888,-3701.029710,13841.851115
217.866035,-3907.087040,-4367.215058,14211.954086
217.866343,-3064.381992,-4293.194464,13841.851115
217.866651,-2451.505594,-3552.988522,12879.583391
217.866959,-536.266849,-2442.679609,11695.253884
217.867267,459.657299,-1332.370696,9844.739029
217.867575,1838.629195,-0.000000,8364.327145
217.867884,2987.772442,1480.411884,6809.894666
217.868192,3753.867940,2590.720797,6217.729913
217.868500,4443.353888,3627.009116,5403.503377
217.868808,4290.134789,4293.194464,5255.462188
217.869116,3370.820191,4441.235652,5329.482782
217.869424,2834.553343,4589.276840,5625.565159
217.869732,1838.629195,3404.947333,7476.080014
217.870041,459.657299,2146.597232,9178.553681
217.870349,-995.924147,296.082377,10584.944971
217.870657,-2298.286494,-1332.370696,12065.356855
217.870965,-2834.553343,-2812.782580,12953.603985
217.871273,-3294.210641,-3256.906145,13841.851115
217.871581,-2451.505594,-3627.009116,13915.871710
217.871889,-1762.019645,-3552.988522,13175.665768
217.872198,-995.924147,-2590.720797,12065.356855
217.872506,459.657299,-1850.514855,11399.171507
217.872814,1685.410096,-888.247130,9696.697840
217.873122,2374.896044,296.082377,8586.388927
217.873430,2681.334243,1184.329507,8290.306550
217.873738,3140.991542,1776.494261,7328.038826
217.874046,3217.601092,2886.803174,7328.038826
217.874355,3294.210641,3997.112087,6883.915261
217.874663,2987.772442,3923.091493,6513.812290
217.874971,2221.676944,3775.050304,7402.059420
217.875279,1685.410096,3034.844362,8364.327145
217.875587,919.314598,1406.391290,9696.697840
217.875895,-842.705048,-0.000000,11251.130318
217.876203,-2681.334243,-1850.514855,12731.542202
217.876512,-2681.334243,-2886.803174,13989.892304
217.876820,-3064.381992,-4145.153275,14063.912898
217.877128,-2911.162892,-3404.947333,13619.789333
217.877436,-1608.800546,-2886.803174,12879.583391
217.877744,0.000000,-2368.659014,11547.212695
217.878052,1072.533697,-1036.288319,9696.697840
217.878360,2681.334243,-0.000000,7994.224174
217.878669,3677.258390,1184.329507,7328.038826
217.878977,3600.648841,2368.659014,6365.771101
217.879285,4596.572988,2886.803174,5625.565159
217.879593,4749.792088,3849.070898,5403.503377
217.879901,3830.477490,4367.215058,4737.318029
217.880209,2987.772442,3923.091493,6291.750507
217.880517,2298.286494,3552.988522,7328.038826
217.880826,1072.533697,2294.638420,8660.409521
217.881134,-459.657299,296.082377,9918.759623
217.881442,-1991.848295,-1110.308913,11695.253884
217.881750,-2987.772442,-2886.803174,13471.748144
217.882058,-3217.601092,-3701.029710,13989.892304
217.882366,-2911.162892,-3775.050304,13841.851115
217.882674,-2298.286494,-3849.070898,13101.645173
217.882983,-1149.143247,-3478.967927,12139.377449
217.883291,995.924147,-2368.659014,11325.150913
217.883599,1532.190996,-1110.308913,9104.533087
217.883907,3140.991542,-148.041188,7624.121203
217.884215,3524.039291,1406.391290,6809.894666
217.884523,4519.963438,2960.823768,6217.729913
217.884831,4443.353888,3701.029710,5699.585753
217.885140,4443.353888,4515.256246,5625.565159
217.885448,3983.696590,4219.173869,5773.606348
217.885756,2374.896044,3108.864956,6883.915261
217.886064,919.314598,2294.638420,8660.409521
217.886372,-383.047749,148.041188,10066.800811
217.886680,-2298.286494,-1110.308913,11843.295072
217.886988,-3370.820191,-2664.741391,13545.768739
217.887297,-4213.525239,-3997.112087,14285.974681
217.887605,-4596.572988,-4589.276840,14434.015869
217.887913,-3064.381992,-4367.215058,14211.954086
217.888221,-1991.848295,-3256.906145,12731.542202
217.888529,-689.485948,-2442.679609,11547.212695
217.888837,1378.971896,-1184.329507,9770.718434
217.889145,2298.286494,592.164754,7698.141797
217.889454,3753.867940,1776.494261,6513.812290
217.889762,4290.134789,2812.782580,5699.585753
217.890070,4519.963438,3478.967927,5551.544565
217.890378,4826.401637,4071.132681,5921.647536
217.890686,3677.258390,4367.215058,5773.606348
217.890994,2757.943793,3997.112087,6513.812290
217.891302,2374.896044,3108.864956,7179.997637
217.891611,1072.533697,2220.617826,8364.327145
217.891919,-383.047749,814.226536,10066.800811
217.892227,-1532.190996,-814.226536,11547.212695
217.892535,-2528.115143,-2368.659014,12509.480420
217.892843,-3064.381992,-3404.947333,14063.912898
217.893151,-2834.553343,-4071.132681,14211.954086
217.893459,-2374.896044,-3627.009116,13693.809927
217.893768,-1378.971896,-3182.885551,13027.624579
217.894076,0.000000,-2072.576638,11843.295072
217.894384,1225.752797,-740.205942,9992.780217
217.894692,2145.067394,370.102971,8882.471304
217.895000,3217.601092,1628.453072,7772.162391
217.895308,3677.258390,2294.638420,7402.059420
217.895616,3753.867940,3108.864956,6069.688724
217.895925,4290.134789,4293.194464,5699.585753
217.896233,3370.820191,4367.215058,6069.688724
217.896541,2528.115143,3627.009116,7031.956449
217.896849,1532.190996,2664.741391,8512.368333
217.897157,-383.047749,1258.350101,9844.739029
217.897465,-1915.238745,-740.205942,11917.315666
217.897773,-3217.601092,-2516.700203,13027.624579
217.898082,-3983.696590,-3552.988522,14211.954086
217.898390,-4136.915689,-4515.256246,14508.036463
217.898698,-3524.039291,-3775.050304,13619.789333
217.899006,-2374.896044,-3108.864956,12805.562797
217.899314,-459.657299,-1998.556043,11325.150913
217.899622,842.705048,-888.247130,9474.636058
217.899930,2451.505594,148.041188,7994.224174
217.900239,3753.867940,1036.288319,7031.956449
217.900547,4136.915689,1924.535449,5847.626942
217.900855,4060.306139,2590.720797,5773.606348
217.901163,4519.963438,3034.844362,5773.606348
217.901471,3294.210641,3701.029710,5329.482782
217.901779,3140.991542,3627.009116,6143.709319
217.902087,2145.067394,3182.885551,6957.935855
217.902396,1532.190996,2368.659014,8438.347739
217.902704,306.438199,1036.288319,9622.677246
217.903012,-995.924147,-444.123565,11103.089130
217.903320,-2221.676944,-1998.556043,12139.377449
217.903628,-2451.505594,-3478.967927,13323.706956
217.903936,-2451.505594,-3256.906145,13323.706956
217.904244,-2451.505594,-3552.988522,13545.768739
217.904553,-1378.971896,-3034.844362,12879.583391
217.904861,-612.876398,-2368.659014,11769.274478
217.905169,1378.971896,-1628.453072,10881.027347
217.905477,2068.457845,-0.000000,9252.574275
217.905785,2911.162892,962.267725,7994.224174
217.906093,3217.601092,1924.535449,7105.977043
217.906401,3830.477490,3182.885551,6143.709319
217.906710,4290.134789,3997.112087,5921.647536
217.907018,3600.648841,4145.153275,5921.647536
217.907326,2221.676944,3775.050304,6883.915261
217.907634,995.924147,2368.659014,8068.244768
217.907942,76.609550,814.226536,9918.759623
217.908250,-2145.067394,-740.205942,12139.377449
217.908558,-3217.601092,-2368.659014,12805.562797
217.908867,-4213.525239,-3478.967927,13915.871710
217.909175,-4213.525239,-3923.091493,14211.954086
217.909483,-3600.648841,-3627.009116,13545.768739
217.909791,-2221.676944,-3108.864956,12509.480420
217.910099,-612.876398,-2072.576638,11843.295072
217.910407,1532.190996,-1702.473667,9770.718434
217.910715,2987.772442,-222.061783,7994.224174
217.911024,3907.087040,1406.391290,6513.812290
217.911332,4519.963438,2220.617826,5847.626942
217.911640,4366.744339,3182.885551,5921.647536
217.911948,4290.134789,3404.947333,5625.565159
217.912256,3600.648841,3775.050304,5329.482782
217.912564,3370.820191,3627.009116,5773.606348
217.912872,2451.505594,3256.906145,7179.997637
217.913181,1302.362347,2072.576638,8586.388927
217.913489,0.000000,1258.350101,9844.739029
217.913797,-919.314598,-740.205942,11251.130318
217.914105,-2451.505594,-2072.576638,12657.521608
217.914413,-2911.162892,-3108.864956,13841.851115
217.914721,-2911.162892,-3330.926739,14211.954086
217.915029,-2145.067394,-3404.947333,14211.954086
217.915338,-1225.752797,-2960.823768,13545.768739
217.915646,459.657299,-2146.597232,11621.233289
217.915954,1149.143247,-962.267725,9770.718434
217.916262,2757.943793,222.061783,8808.450710
217.916570,3907.087040,1332.370696,7624.121203
217.916878,4060.306139,2368.659014,6957.935855
217.917186,4366.744339,2886.803174,6513.812290
217.917495,4519.963438,4145.153275,6439.791695
217.917803,3753.867940,3701.029710,6365.771101
217.918111,3064.381992,3404.947333,7105.977043
217.918419,1608.800546,2886.803174,7846.182985
217.918727,0.000000,1332.370696,9622.677246
217.919035,-1685.410096,-222.061783,11251.130318
217.919343,-2757.943793,-1850.514855,12657.521608
217.919652,-3753.867940,-2738.761985,13693.809927
217.919960,-3753.867940,-3330.926739,14137.933492
217.920268,-3140.991542,-2738.761985,13767.830521
217.920576,-2068.457845,-2664.741391,12657.521608
217.920884,-536.266849,-2072.576638,11251.130318
217.921192,766.095498,-1110.308913,9844.739029
217.921500,1838.629195,-444.123565,8882.471304
217.921809,2604.724693,518.144159,7772.162391
217.922117,3140.991542,1480.411884,6883.915261
217.922425,3677.258390,2220.617826,6809.894666
217.922733,3524.039291,2516.700203,5847.626942
217.923041,3524.039291,3330.926739,5699.585753
217.923349,3140.991542,3627.009116,5995.668130
217.923657,2911.162892,3404.947333,6439.791695
217.923966,1838.629195,2590.720797,7402.059420
217.924274,459.657299,962.267725,9474.636058
217.924582,-995.924147,-148.041188,10955.047942
217.924890,-2145.067394,-1850.514855,12435.459826
217.925198,-2528.115143,-2960.823768,14063.912898
217.925506,-3294.210641,-3404.947333,13915.871710
217.925814,-2451.505594,-3552.988522,13693.809927
217.926123,-1762.019645,-3256.906145,13027.624579
217.926431,-536.266849,-2516.700203,12065.356855
217.926739,536.266849,-1628.453072,10362.883188
217.927047,2298.286494,-518.144159,9030.512492
217.927355,2987.772442,814.226536,7772.162391
217.927663,4060.306139,2294.638420,6957.935855
217.927971,4136.915689,3404.947333,5699.585753
217.928280,4749.792088,4145.153275,5995.668130
217.928588,3447.429741,4589.276840,5477.523971
217.928896,2451.505594,3997.112087,7031.956449
217.929204,1455.581446,2442.679609,8808.450710
217.929512,-689.485948,1110.308913,9548.656652
217.929820,-2145.067394,-814.226536,11917.315666
217.930128,-3753.867940,-1702.473667,12731.542202
217.930436,-4213.525239,-3256.906145,14285.974681
217.930745,-4136.915689,-3552.988522,14508.036463
217.931053,-3370.820191,-3256.906145,13841.851115
217.931361,-2221.676944,-2590.720797,12731.542202
217.931669,-612.876398,-2146.597232,11177.109724
217.931977,1225.752797,-814.226536,9770.718434
217.932285,2068.457845,-0.000000,8364.327145
217.932593,3294.210641,1036.288319,7105.977043
217.932902,3753.867940,2220.617826,6587.832884
217.933210,3830.477490,2368.659014,6217.729913
217.933518,3830.477490,2664.741391,5847.626942
217.933826,3064.381992,3330.926739,6069.688724
217.934134,2374.896044,3256.906145,6513.812290
217.934442,1991.848295,3330.926739,7179.997637
217.934750,1685.410096,2368.659014,8290.306550
217.935059,76.609550,1110.308913,9400.615463
217.935367,-229.828649,-0.000000,10214.842000
217.935675,-1762.019645,-1258.350101,11843.295072
217.935983,-2068.457845,-2146.597232,12657.521608
217.936291,-2451.505594,-2738.761985,13545.768739
217.936599,-2221.676944,-2960.823768,13249.686362
217.936907,-1838.629195,-3034.844362,12879.583391
217.937216,-383.047749,-2368.659014,12213.398043
217.937524,689.485948,-2072.576638,11473.192101
217.937832,1455.581446,-1258.350101,9918.759623
217.938140,2374.896044,222.061783,8808.450710
217.938448,3064.381992,1554.432478,7772.162391
217.938756,3447.429741,2442.679609,6883.915261
217.939064,3753.867940,3330.926739,6291.750507
217.939373,3907.087040,4219.173869,5921.647536
217.939681,3753.867940,3849.070898,6661.853478
217.939989,1838.629195,3478.967927,7402.059420
217.940297,766.095498,2146.597232,8660.409521
217.940605,-842.705048,666.185348,10584.944971
217.940913,-2145.067394,-740.205942,11843.295072
217.941221,-3064.381992,-2442.679609,12805.562797
217.941530,-3217.601092,-2812.782580,13619.789333
217.941838,-3370.820191,-3478.967927,13397.727550
217.942146,-2451.505594,-2664.741391,12657.521608
217.942454,-766.095498,-2738.761985,11917.315666
217.942762,1072.533697,-2146.597232,10807.006753
217.943070,1532.190996,-1184.329507,9104.533087
217.943378,2757.943793,-222.061783,7698.141797
217.943687,3370.820191,740.205942,7105.977043
217.943995,3600.648841,1776.494261,6661.853478
217.944303,4060.306139,2442.679609,5847.626942
217.944611,3907.087040,3627.009116,5995.668130
217.944919,3217.601092,3701.029710,5773.606348
217.945227,2757.943793,3849.070898,6143.709319
217.945535,2374.896044,3330.926739,7402.059420
217.945844,1072.533697,1924.535449,8586.388927
217.946152,0.000000,888.247130,9992.780217
217.946460,-1378.971896,-1110.308913,11695.253884
217.946768,-1455.581446,-2442.679609,13175.665768
217.947076,-2987.772442,-3404.947333,13841.851115
217.947384,-2987.772442,-3849.070898,14434.015869
217.947692,-1532.190996,-3997.112087,13693.809927
217.948001,-1455.581446,-2664.741391,12509.480420
217.948309,229.828649,-1850.514855,11103.089130
217.948617,1838.629195,-592.164754,9474.636058
217.948925,2987.772442,888.247130,7772.162391
217.949233,4290.134789,2590.720797,7476.080014
217.949541,4443.353888,3330.926739,6439.791695
217.949849,4136.915689,3775.050304,5699.585753
217.950158,4060.306139,4219.173869,5477.523971
217.950466,3140.991542,4071.132681,6661.853478
217.950774,1608.800546,3182.885551,8142.265362
217.951082,-153.219100,1850.514855,9474.636058
217.951390,-1685.410096,296.082377,11029.068536
217.951698,-2911.162892,-1554.432478,12583.501014
217.952006,-4136.915689,-2294.638420,13693.809927
217.952315,-4443.353888,-3775.050304,13915.871710
217.952623,-3524.039291,-3404.947333,13915.871710
217.952931,-2987.772442,-3108.864956,12805.562797
217.953239,-1149.143247,-2220.617826,11769.274478
217.953547,383.047749,-1258.350101,10288.862594
217.953855,1685.410096,-296.082377,8734.430116
217.954163,2757.943793,888.247130,7994.224174
217.954472,3294.210641,962.267725,7328.038826
217.954780,3830.477490,1924.535449,6143.709319
217.955088,3447.429741,2516.700203,6661.853478
217.955396,3294.210641,2664.741391,5995.668130
217.955704,2681.334243,3478.967927,6069.688724
217.956012,2374.896044,3404.947333,6809.894666
217.956320,1991.848295,3108.864956,7402.059420
217.956629,919.314598,1850.514855,8512.368333
217.956937,-536.266849,222.061783,10214.842000
217.957245,-1302.362347,-1036.288319,11843.295072
217.957553,-2604.724693,-2738.761985,12953.603985
217.957861,-2987.772442,-3478.967927,13989.892304
217.958169,-3064.381992,-3701.029710,14137.933492
217.958477,-2528.115143,-3701.029710,13619.789333
217.958786,-1225.752797,-2886.803174,12805.562797
217.959094,229.828649,-1998.556043,11177.109724
217.959402,2068.457845,-666.185348,9474.636058
217.959710,3217.601092,296.082377,8290.306550
217.960018,3524.039291,1628.453072,7550.100608
217.960326,4290.134789,2516.700203,6587.832884
217.960634,4060.306139,3775.050304,5847.626942
217.960943,3907.087040,4515.256246,5551.544565
217.961251,3524.039291,4663.297435,6069.688724
217.961559,2068.457845,3701.029710,7254.018232
217.961867,612.876398,2590.720797,8956.491898
217.962175,-766.095498,740.205942,10288.862594
217.962483,-2451.505594,-518.144159,12287.418637
217.962791,-3447.429741,-2146.597232,13323.706956
217.963100,-3907.087040,-2960.823768,13915.871710
217.963408,-3830.477490,-3404.947333,13915.871710
217.963716,-2757.943793,-2812.782580,13101.645173
217.964024,-1455.581446,-3182.885551,12139.377449
217.964332,0.000000,-2220.617826,11103.089130
217.964640,919.314598,-1554.432478,9474.636058
217.964948,2298.286494,-0.000000,8512.368333
217.965257,2757.943793,518.144159,7846.182985
217.965565,3294.210641,1332.370696,6735.874072
217.965873,3294.210641,2368.659014,6365.771101
217.966181,3447.429741,3108.864956,6069.688724
217.966489,3524.039291,3849.070898,5773.606348
217.966797,2911.162892,3849.070898,5773.606348
217.967105,2298.286494,3404.947333,6365.771101
217.967414,1762.019645,2738.761985,8068.244768
217.967722,153.219100,740.205942,9474.636058
217.968030,-995.924147,-888.247130,11325.150913
217.968338,-2451.505594,-2442.679609,12657.521608
217.968646,-2987.772442,-3552.988522,13841.851115
217.968954,-2834.553343,-4145.153275,14137.933492
217.969262,-2221.676944,-4293.194464,14063.912898
217.969571,-1149.143247,-3330.926739,13027.624579
217.969877,229.828649,-2072.576638,11473.192101
217.970185,1838.629195,-518.144159,9548.656652
217.970493,3294.210641,444.123565,8438.347739
217.970801,4060.306139,1628.453072,7105.977043
217.971110,4213.525239,2738.761985,6217.729913
217.971418,4903.011187,3552.988522,6291.750507
217.971726,4519.963438,4441.235652,5847.626942
217.972034,3447.429741,4145.153275,6217.729913
217.972342,2451.505594,3552.988522,7624.121203
217.972650,995.924147,2664.741391,8956.491898
217.972959,-842.705048,962.267725,10288.862594
217.973267,-2451.505594,-444.123565,11917.315666
217.973575,-2987.772442,-2072.576638,13323.706956
217.973883,-3524.039291,-2960.823768,13915.871710
217.974191,-3447.429741,-3256.906145,13989.892304
217.974500,-2374.896044,-3108.864956,13101.645173
217.974808,-1915.238745,-2368.659014,12509.480420
217.975116,-153.219100,-1776.494261,10658.965565
217.975424,1455.581446,-1036.288319,9770.718434
217.975732,1991.848295,-370.102971,8216.285956
217.976040,2298.286494,666.185348,7402.059420
217.976349,3217.601092,1184.329507,7105.977043
217.976657,3217.601092,1702.473667,6217.729913
217.976965,2911.162892,2886.803174,6217.729913
217.977273,3447.429741,3256.906145,6069.688724
217.977581,3140.991542,3627.009116,5699.585753
217.977890,2451.505594,3552.988522,6143.709319
217.978198,1838.629195,2368.659014,7772.162391
217.978506,536.266849,592.164754,9696.697840
217.978814,-689.485948,-1110.308913,11399.171507
217.979122,-2221.676944,-2368.659014,12657.521608
217.979430,-2757.943793,-3182.885551,13915.871710
217.979739,-3447.429741,-3552.988522,13989.892304
217.980047,-2451.505594,-3478.967927,13545.768739
217.980355,-919.314598,-3108.864956,12731.542202
217.980663,0.000000,-2368.659014,11325.150913
217.980971,1378.971896,-1258.350101,9622.677246
217.981280,2451.505594,-0.000000,8660.409521
217.981588,3447.429741,888.247130,7994.224174
217.981896,4290.134789,2294.638420,7105.977043
217.982204,4443.353888,3849.070898,5921.647536
217.982512,4213.525239,4663.297435,5847.626942
217.982820,3907.087040,4811.338623,6143.709319
217.983129,2451.505594,4589.276840,7105.977043
217.983437,1532.190996,2960.823768,8586.388927
217.983745,-766.095498,1258.350101,9770.718434
217.984053,-2374.896044,-888.247130,11917.315666
217.984361,-2911.162892,-2146.597232,13471.748144
217.984670,-3753.867940,-3108.864956,13841.851115
217.984978,-3753.867940,-3330.926739,14211.954086
217.985286,-3140.991542,-3182.885551,13693.809927
217.985594,-1991.848295,-2886.803174,12583.501014
217.985902,-689.485948,-2072.576638,11251.130318
217.986210,536.266849,-1628.453072,10140.821405
217.986519,1838.629195,-148.041188,8364.327145
217.986827,2374.896044,518.144159,7476.080014
217.987135,3370.820191,1184.329507,6661.853478
217.987443,3447.429741,2960.823768,6217.729913
217.987751,3677.258390,3923.091493,5625.565159
217.988060,3600.648841,4441.235652,5403.503377
217.988368,3370.820191,4367.215058,5699.585753
217.988676,2451.505594,3849.070898,6513.812290
217.988984,1149.143247,2442.679609,8438.347739
217.989292,-153.219100,-0.000000,9844.739029
217.989601,-1608.800546,-1406.391290,11251.130318
217.989909,-2911.162892,-2960.823768,13397.727550
217.990217,-3370.820191,-4367.215058,14211.954086
217.990525,-3370.820191,-4219.173869,14137.933492
217.990833,-2451.505594,-4219.173869,13915.871710
217.991141,-1455.581446,-3404.947333,12657.521608
217.991450,0.000000,-2516.700203,11547.212695
217.991758,1378.971896,-1332.370696,9622.677246
217.992066,2834.553343,222.061783,8216.285956
217.992374,3830.477490,1480.411884,6883.915261
217.992682,4290.134789,3034.844362,6291.750507
217.992991,4596.572988,3923.091493,5551.544565
217.993299,4519.963438,4515.256246,5625.565159
217.993607,3753.867940,4737.318029,6513.812290
217.993915,2451.505594,3552.988522,7031.956449
217.994223,995.924147,2146.597232,8512.368333
217.994531,-842.705048,740.205942,10510.924376
217.994840,-2451.505594,-666.185348,11917.315666
217.995148,-3294.210641,-1924.535449,12879.583391
217.995456,-3600.648841,-2516.700203,13693.809927
217.995764,-2681.334243,-3256.906145,13841.851115
217.996072,-2757.943793,-2590.720797,13471.748144
217.996381,-2374.896044,-2442.679609,12879.583391
217.996689,-459.657299,-1998.556043,11547.212695
217.996997,306.438199,-1998.556043,9992.780217
217.997305,1302.362347,-444.123565,8660.409521
217.997613,2145.067394,-0.000000,7920.203579
217.997921,2987.772442,1332.370696,7105.977043
217.998230,3370.820191,2368.659014,6513.812290
217.998538,3524.039291,2886.803174,5625.565159
217.998846,4060.306139,4145.153275,5625.565159
217.999154,3753.867940,4219.173869,5477.523971
217.999462,2911.162892,3849.070898,6513.812290
217.999771,2298.286494,2516.700203,7550.100608
218.000079,919.314598,1036.288319,9326.594869
218.000387,-842.705048,-740.205942,10881.027347
218.000695,-2145.067394,-2220.617826,12805.562797
218.001003,-2681.334243,-3775.050304,14211.954086
218.001311,-2528.115143,-3997.112087,14285.974681
218.001620,-3140.991542,-4145.153275,13693.809927
218.001928,-1455.581446,-3775.050304,12953.603985
218.002236,0.000000,-2738.761985,12065.356855
218.002544,1149.143247,-1332.370696,10288.862594
218.002852,2757.943793,222.061783,8808.450710
218.003161,3600.648841,1406.391290,6883.915261
218.003469,4213.525239,2590.720797,6735.874072
218.003777,4443.353888,3775.050304,6513.812290
218.004085,4290.134789,4071.132681,5625.565159
218.004393,3447.429741,4663.297435,6291.750507
218.004701,2528.115143,3552.988522,7105.977043
218.005010,1072.533697,2738.761985,8364.327145
218.005318,-612.876398,1406.391290,10510.924376
218.005626,-1991.848295,-296.082377,11621.233289
218.005934,-2987.772442,-1554.432478,12361.439231
218.006242,-3753.867940,-2516.700203,13545.768739
218.006551,-3753.867940,-3478.967927,13841.851115
218.006859,-2834.553343,-2812.782580,13027.624579
218.007167,-1685.410096,-2368.659014,12657.521608
218.007475,-459.657299,-2220.617826,11325.150913
218.007783,459.657299,-1332.370696,10362.883188
218.008092,1838.629195,-888.247130,8956.491898
218.008400,2298.286494,518.144159,7550.100608
218.008708,3064.381992,1554.432478,6809.894666
218.009016,3217.601092,2368.659014,6809.894666
218.009324,3600.648841,3552.988522,5699.585753
218.009632,3830.477490,4071.132681,5403.503377
218.009941,3677.258390,4071.132681,5551.544565
218.010249,2834.553343,3478.967927,6217.729913
218.010557,1072.533697,2294.638420,7920.203579
218.010865,766.095498,296.082377,10140.821405
218.011173,-919.314598,-962.267725,11103.089130
218.011482,-2604.724693,-3034.844362,12731.542202
218.011790,-3447.429741,-4219.173869,14137.933492
218.012098,-3447.429741,-4441.235652,14359.995275
218.012406,-2834.553343,-4145.153275,13841.851115
218.012714,-1608.800546,-3478.967927,13027.624579
218.013022,306.438199,-2886.803174,11547.212695
218.013331,2145.067394,-962.267725,9992.780217
218.013639,3294.210641,-0.000000,7846.182985
218.013947,4443.353888,2146.597232,6661.853478
218.014255,4519.963438,3108.864956,5847.626942
218.014563,4749.792088,4071.132681,5625.565159
218.014872,4519.963438,4515.256246,5625.565159
218.015180,3294.210641,4293.194464,6217.729913
218.015488,1991.848295,3330.926739,7402.059420
218.015796,0.000000,2146.597232,8660.409521
218.016104,-1608.800546,592.164754,10510.924376
218.016412,-2298.286494,-666.185348,12213.398043
218.016721,-3677.258390,-1998.556043,13249.686362
218.017029,-4290.134789,-2812.782580,13841.851115
218.017337,-3983.696590,-3108.864956,13915.871710
218.017645,-2834.553343,-2738.761985,13323.706956
218.017953,-1455.581446,-2590.720797,11843.295072
218.018262,-536.266849,-1924.535449,11177.109724
218.018570,383.047749,-1480.411884,9918.759623
218.018878,2068.457845,-148.041188,8438.347739
218.019186,2757.943793,666.185348,7550.100608
218.019494,3217.601092,1850.514855,6439.791695
218.019802,3677.258390,2368.659014,6069.688724
218.020111,3524.039291,3034.844362,5773.606348
218.020419,3753.867940,3404.947333,5625.565159
218.020727,3294.210641,3701.029710,5847.626942
218.021035,2757.943793,2960.823768,6661.853478
218.021343,1991.848295,2294.638420,8290.306550
218.021652,383.047749,740.205942,9622.677246
218.021960,-995.924147,-814.226536,11177.109724
218.022268,-2451.505594,-2516.700203,13027.624579
218.022576,-2987.772442,-3552.988522,14211.954086
218.022884,-3753.867940,-4515.256246,14137.933492
218.023192,-2221.676944,-4441.235652,14137.933492
218.023501,-2221.676944,-3849.070898,12879.583391
218.023809,-153.219100,-2368.659014,11991.336260
218.024117,1225.752797,-1406.391290,10436.903782
218.024425,2604.724693,-74.020594,8586.388927
218.024733,3830.477490,1036.288319,7476.080014
218.025042,4213.525239,2516.700203,6587.832884
218.025350,4826.401637,2960.823768,5995.668130
218.025658,3753.867940,4145.153275,5773.606348
218.025966,3600.648841,4737.318029,6587.832884
218.026274,2681.334243,4293.194464,7031.956449
218.026582,1762.019645,3552.988522,7772.162391
218.026891,536.266849,2368.659014,9252.574275
218.027199,-1072.533697,666.185348,10732.986159
218.027507,-2451.505594,-888.247130,12139.377449
218.027815,-2757.943793,-2072.576638,13767.830521
218.028123,-3370.820191,-3256.906145,13989.892304
218.028432,-3447.429741,-3182.885551,13471.748144
218.028740,-2451.505594,-2664.741391,13249.686362
218.029048,-1072.533697,-2442.679609,11991.336260
218.029356,0.000000,-2146.597232,11103.089130
218.029664,1225.752797,-1036.288319,9474.636058
218.029973,2145.067394,-0.000000,7920.203579
218.030281,2374.896044,1406.391290,7328.038826
218.030589,3983.696590,1702.473667,6587.832884
218.030897,4060.306139,3034.844362,5995.668130
218.031205,4136.915689,3478.967927,4811.338623
218.031513,3677.258390,4293.194464,5181.441594
218.031822,2757.943793,3997.112087,6143.709319
218.032130,1991.848295,2516.700203,7624.121203
218.032438,459.657299,888.247130,9104.533087
218.032746,-689.485948,-814.226536,11103.089130
218.033054,-2298.286494,-3034.844362,12879.583391
218.033363,-3677.258390,-3997.112087,14063.912898
218.033671,-3064.381992,-4071.132681,14434.015869
218.033979,-2528.115143,-3849.070898,13545.768739
218.034287,-1455.581446,-3182.885551,12361.439231
218.034595,229.828649,-2368.659014,11547.212695
218.034903,1532.190996,-962.267725,9696.697840
218.035212,2987.772442,74.020594,8068.244768
218.035520,3830.477490,962.267725,6809.894666
218.035828,4366.744339,1998.556043,6513.812290
218.036136,4443.353888,2516.700203,6143.709319
218.036444,3753.867940,3997.112087,6365.771101
218.036753,2911.162892,3997.112087,6809.894666
218.037061,1915.238745,3552.988522,7476.080014
218.037369,919.314598,2886.803174,8586.388927
218.037677,0.000000,1332.370696,10140.821405
218.037985,-1532.190996,296.082377,10881.027347
218.038293,-2528.115143,-962.267725,12583.501014
218.038602,-3524.039291,-2442.679609,13767.830521
218.038910,-3447.429741,-2960.823768,13841.851115
218.039218,-2911.162892,-2590.720797,13619.789333
218.039526,-1762.019645,-2368.659014,12657.521608
218.039834,-766.095498,-1702.473667,11473.192101
218.040143,229.828649,-1258.350101,10288.862594
218.040451,1455.581446,-444.123565,9252.574275
218.040759,2451.505594,592.164754,7550.100608
218.041067,3140.991542,1702.473667,7105.977043
218.041375,3524.039291,2368.659014,6217.729913
218.041683,3370.820191,3108.864956,5995.668130
218.041992,3447.429741,3701.029710,5477.523971
218.042300,3524.039291,3923.091493,5773.606348
218.042608,2451.505594,3478.967927,6143.709319
218.042916,1378.971896,2442.679609,7920.203579
218.043224,0.000000,1184.329507,9770.718434
218.043533,-1225.752797,-1184.329507,11029.068536
218.043841,-2757.943793,-2442.679609,12879.583391
218.044149,-3370.820191,-3627.009116,13915.871710
218.044457,-3370.820191,-4367.215058,14211.954086
218.044765,-2451.505594,-4219.173869,13767.830521
218.045073,-1532.190996,-3552.988522,12879.583391
218.045382,0.000000,-2590.720797,11473.192101
218.045690,1302.362347,-1480.411884,10881.027347
218.045998,2451.505594,-370.102971,8734.430116
218.046306,3524.039291,740.205942,7328.038826
218.046614,3907.087040,2072.576638,6809.894666
218.046923,4366.744339,3108.864956,6365.771101
218.047231,3830.477490,4145.153275,5625.565159
218.047539,3677.258390,3923.091493,5921.647536
218.047847,3064.381992,4293.194464,6291.750507
218.048155,1991.848295,3330.926739,8142.265362
218.048463,383.047749,2220.617826,9030.512492
218.048772,-995.924147,888.247130,10584.944971
218.049080,-2451.505594,-666.185348,11917.315666
218.049388,-3140.991542,-1554.432478,13323.706956
218.049696,-3370.820191,-2516.700203,13989.892304
218.050004,-2528.115143,-2960.823768,13397.727550
218.050313,-2145.067394,-2738.761985,13175.665768
218.050621,-1072.533697,-2590.720797,12065.356855
218.050929,0.000000,-2294.638420,11029.068536
218.051237,1072.533697,-1184.329507,9770.718434
218.051545,1915.238745,-148.041188,8364.327145
218.051854,2834.553343,888.247130,7698.141797
218.052162,3217.601092,2368.659014,6735.874072
218.052470,4136.915689,2886.803174,5995.668130
218.052778,3907.087040,3775.050304,5181.441594
218.053086,3753.867940,4071.132681,5329.482782
218.053394,3064.381992,4145.153275,6143.709319
218.053703,2374.896044,2886.803174,7105.977043
218.054011,766.095498,1184.329507,8882.471304
218.054319,-919.314598,-592.164754,10288.862594
218.054627,-2604.724693,-2664.741391,12139.377449
218.054935,-3217.601092,-4145.153275,13471.748144
218.055244,-3524.039291,-4441.235652,13693.809927
218.055552,-2528.115143,-4219.173869,13545.768739
218.055860,-1762.019645,-3330.926739,12657.521608
218.056168,0.000000,-2442.679609,11325.150913
218.056476,1532.190996,-1628.453072,10288.862594
218.056784,2451.505594,-370.102971,8882.471304
218.057093,3753.867940,592.164754,7624.121203
218.057401,3753.867940,1554.432478,6809.894666
218.057709,3677.258390,2738.761985,6587.832884
218.058017,3983.696590,3330.926739,6513.812290
218.058325,3064.381992,3627.009116,6661.853478
218.058634,2298.286494,3627.009116,7105.977043
218.058942,1225.752797,3034.844362,7920.203579
218.059250,0.000000,1998.556043,9030.512492
218.059558,-689.485948,296.082377,10584.944971
218.059866,-1838.629195,-814.226536,11695.253884
218.060174,-2911.162892,-1776.494261,13101.645173
218.060483,-2374.896044,-2368.659014,13175.665768
218.060791,-2681.334243,-2368.659014,13397.727550
218.061099,-1762.019645,-2368.659014,12583.501014
218.061407,-766.095498,-2146.597232,12287.418637
218.061715,153.219100,-1702.473667,11103.089130
218.062024,919.314598,-1184.329507,10066.800811
218.062332,1532.190996,-814.226536,8882.471304
218.062640,2681.334243,592.164754,8216.285956
218.062948,3294.210641,1776.494261,7105.977043
218.063256,3294.210641,2960.823768,6365.771101
218.063564,3753.867940,3923.091493,5551.544565
218.063873,3753.867940,4737.318029,5551.544565
218.064181,2911.162892,4219.173869,6661.853478
218.064489,1915.238745,2738.761985,7772.162391
218.064797,0.000000,1924.535449,9178.553681
218.065105,-766.095498,-0.000000,10807.006753
218.065414,-2374.896044,-1702.473667,12509.480420
218.065722,-3294.210641,-2886.803174,13767.830521
218.066030,-3370.820191,-3627.009116,14730.098246
218.066338,-2911.162892,-3701.029710,13693.809927
218.066646,-1608.800546,-3404.947333,12879.583391
218.066954,-229.828649,-2812.782580,12139.377449
218.067263,1149.143247,-1850.514855,10584.944971
218.067571,2681.334243,-1110.308913,8586.388927
218.067879,3830.477490,814.226536,7846.182985
218.068187,3983.696590,1554.432478,6957.935855
218.068495,4060.306139,2738.761985,6143.709319
218.068804,4060.306139,3701.029710,6513.812290
218.069112,3217.601092,3701.029710,6439.791695
218.069420,2298.286494,3478.967927,6809.894666
218.069728,1532.190996,2664.741391,7994.224174
218.070036,229.828649,2072.576638,9178.553681
218.070345,-995.924147,666.185348,10658.965565
218.070653,-2221.676944,-222.061783,11473.192101
218.070961,-2604.724693,-1406.391290,12583.501014
218.071269,-3140.991542,-2738.761985,13471.748144
218.071577,-3140.991542,-2812.782580,13249.686362
218.071885,-1685.410096,-2812.782580,12731.542202
218.072193,-1149.143247,-2146.597232,11991.336260
218.072502,0.000000,-2368.659014,11177.109724
218.072810,919.314598,-1924.535449,9696.697840
218.073118,1762.019645,-666.185348,8660.409521
218.073426,2451.505594,222.061783,7328.038826
218.073734,3140.991542,1776.494261,6291.750507
218.074042,3830.477490,3034.844362,5995.668130
218.074350,3600.648841,3775.050304,5329.482782
218.074658,4060.306139,4293.194464,5255.462188
218.074966,3370.820191,4071.132681,5625.565159
218.075275,2298.286494,3182.885551,7328.038826
218.075583,536.266849,1480.411884,8734.430116
218.075891,-1072.533697,-0.000000,10362.883188
218.076199,-2451.505594,-1998.556043,11991.336260
218.076507,-3294.210641,-2886.803174,13175.665768
218.076815,-3140.991542,-3775.050304,14211.954086
218.077123,-3217.601092,-3849.070898,13915.871710
218.077431,-1991.848295,-3701.029710,12953.603985
218.077740,-383.047749,-2664.741391,12287.418637
218.078048,1149.143247,-1998.556043,10510.924376
218.078356,2604.724693,-666.185348,8956.491898
218.078664,3677.258390,296.082377,7550.100608
218.078972,4136.915689,1258.350101,7031.956449
218.079280,4136.915689,2442.679609,6439.791695
218.079588,3907.087040,3701.029710,6883.915261
218.079896,3294.210641,3849.070898,6069.688724
218.080204,2987.772442,4219.173869,6661.853478
218.080513,2221.676944,3330.926739,7698.141797
218.080821,842.705048,2442.679609,8734.430116
218.081129,-306.438199,1406.391290,9992.780217
218.081437,-1762.019645,-0.000000,11399.171507
218.081745,-2451.505594,-1332.370696,12953.603985
218.082053,-2987.772442,-2960.823768,13619.789333
218.082361,-3217.601092,-2960.823768,14730.098246
218.082669,-2834.553343,-3256.906145,13989.892304
218.082978,-2221.676944,-2664.741391,12953.603985
218.083286,-842.705048,-2220.617826,12213.398043
218.083594,383.047749,-1776.494261,10510.924376
218.083902,1685.410096,-148.041188,8882.471304
218.084210,2911.162892,592.164754,7698.141797
218.084518,3217.601092,1924.535449,6661.853478
218.084826,3907.087040,2960.823768,6291.750507
218.085134,4136.915689,4071.132681,5477.523971
218.085442,3600.648841,4737.318029,5181.441594
218.085751,3370.820191,4515.256246,5921.647536
218.086059,2374.896044,3404.947333,7031.956449
218.086367,842.705048,2368.659014,8512.368333
218.086675,-1302.362347,222.061783,10140.821405
218.086983,-2068.457845,-1184.329507,11991.336260
218.087291,-2221.676944,-2886.803174,13101.645173
218.087599,-2834.553343,-3701.029710,14063.912898
218.087907,-2604.724693,-3701.029710,13545.768739
218.088216,-1838.629195,-3330.926739,12509.480420
218.088524,-306.438199,-2664.741391,11843.295072
218.088832,995.924147,-1776.494261,10362.883188
218.089140,2451.505594,-444.123565,8882.471304
218.089448,3524.039291,296.082377,8586.388927
218.089756,3830.477490,1258.350101,7402.059420
218.090064,3677.258390,1776.494261,7179.997637
218.090372,3294.210641,2738.761985,7105.977043
218.090680,2987.772442,3182.885551,6735.874072
218.090989,2298.286494,3701.029710,6957.935855
218.091297,1991.848295,3182.885551,7772.162391
218.091605,1072.533697,2886.803174,8290.306550
218.091913,229.828649,1702.473667,9474.636058
218.092221,-1378.971896,-0.000000,11399.171507
218.092529,-1991.848295,-1702.473667,12213.398043
218.092837,-2834.553343,-2442.679609,13471.748144
218.093145,-3217.601092,-3404.947333,13989.892304
218.093454,-2681.334243,-3404.947333,13471.748144
218.093762,-2221.676944,-3256.906145,12583.501014
218.094070,-459.657299,-2886.803174,11621.233289
218.094378,1225.752797,-2072.576638,10140.821405
218.094686,2221.676944,-222.061783,8660.409521
218.094994,2911.162892,814.226536,6735.874072
218.095302,3753.867940,1924.535449,6143.709319
218.095610,3907.087040,2886.803174,5773.606348
218.095918,3907.087040,3997.112087,5329.482782
218.096227,3447.429741,4737.318029,5033.400406
218.096535,2987.772442,4441.235652,5551.544565
218.096843,2451.505594,3627.009116,6661.853478
218.097151,536.266849,2442.679609,8364.327145
218.097459,-1302.362347,296.082377,10436.903782
218.097767,-2604.724693,-1628.453072,11843.295072
218.098075,-3600.648841,-2886.803174,13619.789333
218.098383,-3753.867940,-3997.112087,14211.954086
218.098692,-3677.258390,-4219.173869,13989.892304
218.099000,-2451.505594,-3552.988522,13027.624579
218.099308,-383.047749,-3034.844362,12139.377449
218.099616,842.705048,-1998.556043,10955.047942
218.099924,2145.067394,-444.123565,9474.636058
218.100232,3294.210641,296.082377,8438.347739
218.100540,3370.820191,1184.329507,7328.038826
218.100848,3677.258390,2072.576638,7328.038826
218.101156,3600.648841,3182.885551,7105.977043
218.101465,2987.772442,3997.112087,6809.894666
218.101773,2987.772442,4515.256246,6513.812290
218.102081,1991.848295,3997.112087,7031.956449
218.102389,1455.581446,3256.906145,8142.265362
218.102697,459.657299,1776.494261,9474.636058
218.103005,-1378.971896,296.082377,11103.089130
218.103313,-2374.896044,-1258.350101,12805.562797
218.103621,-3064.381992,-2442.679609,14211.954086
218.103929,-4596.572988,-3182.885551,13915.871710
218.104238,-3217.601092,-3775.050304,15100.201217
218.104546,-1225.752797,-3478.967927,13323.706956
218.104854,-1915.238745,-2146.597232,11029.068536
218.105162,1072.533697,-2442.679609,11769.274478
218.105470,1685.410096,-222.061783,8512.368333
218.105778,2451.505594,296.082377,8068.244768
218.106086,3753.867940,1110.308913,6439.791695
218.106394,4519.963438,2368.659014,6513.812290
218.106703,3830.477490,3330.926739,5551.544565
218.107011,3294.210641,4441.235652,5033.400406
218.107319,4213.525239,4885.359217,5551.544565
218.107627,2451.505594,3552.988522,6143.709319
218.107935,1302.362347,2812.782580,7698.141797
218.108243,229.828649,814.226536,9252.574275
218.108551,-1915.238745,-1110.308913,11251.130318
218.108859,-2911.162892,-2368.659014,12657.521608
218.109167,-2757.943793,-3478.967927,13767.830521
218.109476,-2681.334243,-4219.173869,14063.912898
218.109784,-2451.505594,-3923.091493,12879.583391
218.110092,-842.705048,-2960.823768,12361.439231
218.110400,229.828649,-2368.659014,11251.130318
218.110708,1685.410096,-1776.494261,9770.718434
218.111016,2911.162892,-666.185348,8734.430116
218.111324,2987.772442,222.061783,7550.100608
218.111632,4290.134789,1406.391290,6587.832884
218.111941,3907.087040,2738.761985,5995.668130
218.112249,3753.867940,3627.009116,6217.729913
218.112557,3140.991542,3849.070898,5773.606348
218.112865,2528.115143,3849.070898,6735.874072
218.113173,1838.629195,2886.803174,7550.100608
218.113481,536.266849,1776.494261,8956.491898
218.113789,-1685.410096,-0.000000,10807.006753
218.114097,-2451.505594,-1480.411884,12657.521608
218.114405,-3217.601092,-2812.782580,14063.912898
218.114714,-3600.648841,-3330.926739,14063.912898
218.115022,-2834.553343,-3478.967927,14211.954086
218.115330,-2221.676944,-3108.864956,12805.562797
218.115638,-229.828649,-2368.659014,12287.418637
218.115946,919.314598,-1628.453072,10807.006753
218.116254,1532.190996,-444.123565,9104.533087
218.116562,3294.210641,740.205942,7402.059420
218.116870,3370.820191,2738.761985,6439.791695
218.117179,4213.525239,3478.967927,6143.709319
218.117487,4519.963438,4441.235652,5921.647536
218.117795,3753.867940,5329.482782,4959.379811
218.118103,3524.039291,4885.359217,5921.647536
218.118411,2298.286494,3923.091493,6661.853478
218.118719,1378.971896,2812.782580,8586.388927
218.119027,-306.438199,1110.308913,10955.047942
218.119335,-2145.067394,-1036.288319,12065.356855
218.119643,-2987.772442,-2294.638420,13175.665768
218.119952,-3600.648841,-3330.926739,14434.015869
218.120260,-2834.553343,-3552.988522,14434.015869
218.120568,-2681.334243,-3478.967927,13619.789333
218.120876,-919.314598,-2886.803174,13323.706956
218.121184,459.657299,-2072.576638,11473.192101
218.121492,2068.457845,-1184.329507,9622.677246
218.121800,2834.553343,-148.041188,8882.471304
218.122108,3294.210641,1258.350101,7402.059420
218.122417,3830.477490,2072.576638,7476.080014
218.122725,3677.258390,3034.844362,6735.874072
218.123033,3294.210641,3997.112087,6143.709319
218.123341,2757.943793,4071.132681,6143.709319
218.123649,2451.505594,3997.112087,6587.832884
218.123957,1838.629195,3108.864956,8364.327145
218.124265,153.219100,1554.432478,9918.759623
218.124573,-1302.362347,-0.000000,11103.089130
218.124881,-2451.505594,-1776.494261,12361.439231
218.125190,-3600.648841,-2960.823768,13841.851115
218.125498,-4290.134789,-4071.132681,14211.954086
218.125806,-3600.648841,-4145.153275,13545.768739
218.126114,-2374.896044,-3478.967927,13397.727550
218.126422,-919.314598,-2886.803174,11399.171507
218.126730,612.876398,-2294.638420,10362.883188
218.127038,1915.238745,-814.226536,8438.347739
218.127346,2757.943793,370.102971,7254.018232
218.127655,3677.258390,2072.576638,6217.729913
218.127963,4136.915689,2738.761985,5551.544565
218.128271,4673.182538,3997.112087,4959.379811
218.128579,4136.915689,4441.235652,4959.379811
218.128887,3524.039291,4663.297435,5699.585753
218.129195,2221.676944,3108.864956,6143.709319
218.129503,919.314598,2220.617826,7994.224174
218.129811,-766.095498,592.164754,9474.636058
218.130119,-2145.067394,-1184.329507,11473.192101
218.130428,-2681.334243,-2368.659014,12731.542202
218.130736,-3140.991542,-3552.988522,13249.686362
218.131044,-2987.772442,-3849.070898,13397.727550
218.131352,-2451.505594,-3552.988522,13101.645173
218.131660,-689.485948,-3182.885551,12361.439231
218.131968,0.000000,-2664.741391,11399.171507
218.132276,1608.800546,-1110.308913,9474.636058
218.132584,2528.115143,-592.164754,8586.388927
218.132893,3447.429741,518.144159,7476.080014
218.133201,3830.477490,1850.514855,6883.915261
218.133509,4136.915689,2590.720797,6365.771101
218.133817,3907.087040,3478.967927,6291.750507
218.134125,3217.601092,4219.173869,6143.709319
218.134433,2757.943793,4293.194464,6661.853478
218.134741,1915.238745,3627.009116,7920.203579
218.135049,766.095498,2146.597232,9030.512492
218.135357,-919.314598,962.267725,10807.006753
218.135666,-1991.848295,-1406.391290,12657.521608
218.135974,-3294.210641,-2812.782580,14063.912898
218.136282,-3907.087040,-3478.967927,14359.995275
218.136590,-3600.648841,-3849.070898,14285.974681
218.136898,-2987.772442,-3775.050304,13841.851115
218.137206,-1532.190996,-2664.741391,12509.480420
218.137514,153.219100,-1776.494261,11103.089130
218.137822,1302.362347,-888.247130,9326.594869
218.138131,2834.553343,814.226536,7846.182985
218.138439,3677.258390,1628.453072,6883.915261
218.138747,3983.696590,3034.844362,6143.709319
218.139055,4749.792088,4441.235652,5477.523971
218.139363,4443.353888,4959.379811,5181.441594
218.139671,3677.258390,4811.338623,5551.544565
218.139979,2834.553343,4219.173869,6735.874072
218.140287,1915.238745,2738.761985,7920.203579
218.140595,0.000000,1036.288319,9844.739029
218.140904,-1838.629195,-962.267725,11251.130318
218.141212,-2604.724693,-1998.556043,12879.583391
218.141520,-3294.210641,-3404.947333,14211.954086
218.141828,-3217.601092,-3701.029710,14063.912898
218.142136,-2604.724693,-3552.988522,13175.665768
218.142444,-1072.533697,-2886.803174,12509.480420
218.142752,76.609550,-2294.638420,11547.212695
218.143060,1915.238745,-1332.370696,9918.759623
218.143369,2757.943793,-148.041188,8660.409521
218.143677,3983.696590,444.123565,7772.162391
218.143985,3677.258390,1998.556043,7179.997637
218.144293,3600.648841,2812.782580,6661.853478
218.144601,3217.601092,3775.050304,6365.771101
218.144909,3064.381992,3849.070898,6439.791695
218.145217,2451.505594,3997.112087,7105.977043
218.145525,2068.457845,3182.885551,8364.327145
218.145833,306.438199,1406.391290,9474.636058
218.146142,-995.924147,-74.020594,10658.965565
218.146450,-2451.505594,-1406.391290,12287.418637
218.146758,-3370.820191,-3108.864956,13841.851115
218.147066,-3753.867940,-3997.112087,13989.892304
218.147374,-3600.648841,-4071.132681,13841.851115
218.147682,-2451.505594,-3552.988522,13249.686362
218.147990,0.000000,-3182.885551,11843.295072
218.148298,383.047749,-2294.638420,10140.821405
218.148607,2221.676944,-518.144159,8808.450710
218.148915,3140.991542,814.226536,6957.935855
218.149223,3753.867940,1924.535449,6143.709319
218.149531,4060.306139,2960.823768,5699.585753
218.149839,4443.353888,3849.070898,5255.462188
218.150147,4136.915689,4441.235652,5255.462188
218.150455,3600.648841,4589.276840,5477.523971
218.150763,2374.896044,3997.112087,6587.832884
218.151071,1302.362347,2442.679609,8216.285956
218.151380,0.000000,1184.329507,9548.656652
218.151688,-1685.410096,-370.102971,11251.130318
218.151996,-2528.115143,-2294.638420,12583.501014
218.152304,-2987.772442,-2886.803174,13693.809927
218.152612,-2681.334243,-3404.947333,14285.974681
218.152920,-2528.115143,-3404.947333,13915.871710
218.153228,-1608.800546,-3182.885551,12879.583391
218.153536,-459.657299,-2664.741391,12065.356855
218.153845,1225.752797,-1554.432478,10288.862594
218.154153,2374.896044,-222.061783,8586.388927
218.154461,3677.258390,888.247130,7402.059420
218.154769,4290.134789,1924.535449,6883.915261
218.155077,4290.134789,2812.782580,6291.750507
218.155385,4290.134789,4145.153275,6143.709319
218.155693,3830.477490,4441.235652,6069.688724
218.156001,2834.553343,3923.091493,6439.791695
218.156309,2068.457845,3330.926739,7624.121203
218.156618,229.828649,1924.535449,9104.533087
218.156926,-1149.143247,148.041188,10955.047942
218.157234,-2451.505594,-1628.453072,12435.459826
218.157542,-3830.477490,-3034.844362,14211.954086
218.157850,-4060.306139,-3404.947333,14656.077652
218.158158,-4366.744339,-4219.173869,14878.139434
218.158466,-2834.553343,-3997.112087,13989.892304
218.158774,-1532.190996,-3034.844362,12509.480420
218.159083,153.219100,-2146.597232,11103.089130
218.159391,1991.848295,-740.205942,8956.491898
218.159699,3370.820191,666.185348,7476.080014
218.160007,4060.306139,2146.597232,6069.688724
218.160315,4903.011187,2664.741391,5181.441594
218.160623,4749.792088,3701.029710,5329.482782
218.160931,4366.744339,4589.276840,5329.482782
218.161239,3447.429741,4737.318029,5181.441594
218.161547,2757.943793,4367.215058,5699.585753
218.161856,1762.019645,2886.803174,7698.141797
218.162164,229.828649,1628.453072,9326.594869
218.162472,-689.485948,-444.123565,11103.089130
218.162780,-2145.067394,-1554.432478,12509.480420
218.163088,-2911.162892,-3182.885551,13027.624579
218.163396,-3447.429741,-3775.050304,13989.892304
218.163704,-2757.943793,-3775.050304,13989.892304
218.164012,-2298.286494,-3627.009116,13249.686362
218.164321,-919.314598,-2812.782580,11991.336260
218.164629,306.438199,-1776.494261,10658.965565
218.164937,2145.067394,-814.226536,9030.512492
218.165245,3600.648841,518.144159,7846.182985
218.165553,3677.258390,1554.432478,7328.038826
218.165861,3830.477490,2664.741391,6883.915261
218.166169,3753.867940,3627.009116,6143.709319
218.166477,3447.429741,4293.194464,5773.606348
218.166785,2911.162892,3997.112087,6587.832884
218.167094,2145.067394,3182.885551,7254.018232
218.167402,1072.533697,1924.535449,8956.491898
218.167710,-536.266849,222.061783,10288.862594
218.168018,-1225.752797,-1332.370696,11695.253884
218.168326,-2681.334243,-2812.782580,13471.748144
218.168634,-3600.648841,-3552.988522,13989.892304
218.168942,-3294.210641,-3923.091493,14211.954086
218.169250,-2528.115143,-3552.988522,13027.624579
218.169559,-1149.143247,-2442.679609,12287.418637
218.169867,306.438199,-2072.576638,10807.006753
218.170175,1532.190996,-1406.391290,9474.636058
218.170483,2681.334243,-222.061783,8142.265362
218.170791,2757.943793,1184.329507,6957.935855
218.171099,3600.648841,1998.556043,6513.812290
218.171407,3524.039291,2738.761985,6291.750507
218.171715,3600.648841,3701.029710,5699.585753
218.172023,3294.210641,4071.132681,5625.565159
218.172331,2528.115143,4293.194464,6587.832884
218.172639,2145.067394,3108.864956,7550.100608
218.172947,689.485948,2368.659014,9104.533087
218.173255,-612.876398,1258.350101,10436.903782
218.173564,-1685.410096,-222.061783,11399.171507
218.173872,-2374.896044,-1776.494261,12953.603985
218.174180,-2528.115143,-2442.679609,13841.851115
218.174488,-2451.505594,-2590.720797,13619.789333
218.174796,-1149.143247,-2812.782580,13471.748144
218.175104,0.000000,-2072.576638,12361.439231
218.175412,1302.362347,-2072.576638,11251.130318
218.175720,1378.971896,-962.267725,9918.759623
218.176028,2604.724693,-0.000000,8512.368333
218.176336,3140.991542,1332.370696,7550.100608
218.176644,3677.258390,2368.659014,7179.997637
218.176952,3830.477490,3330.926739,6513.812290
218.177260,3753.867940,4293.194464,6809.894666
218.177569,2987.772442,4293.194464,6957.935855
218.177877,2298.286494,3849.070898,7031.956449
218.178185,1149.143247,2368.659014,8956.491898
218.178493,-459.657299,888.247130,10436.903782
218.178801,-1915.238745,-666.185348,11769.274478
218.179109,-2987.772442,-2146.597232,13175.665768
218.179417,-3753.867940,-3478.967927,14137.933492
218.179725,-3983.696590,-3923.091493,13989.892304
218.180033,-2374.896044,-4071.132681,13101.645173
218.180341,-1072.533697,-3330.926739,11991.336260
218.180649,229.828649,-2368.659014,10584.944971
218.180957,1225.752797,-1702.473667,9252.574275
218.181266,2681.334243,-74.020594,8216.285956
218.181574,3447.429741,888.247130,6587.832884
218.181882,4290.134789,2146.597232,5921.647536
218.182190,4826.401637,3034.844362,5181.441594
218.182498,4136.915689,3997.112087,5033.400406
218.182806,3830.477490,3627.009116,5551.544565
218.183114,2451.505594,3923.091493,5921.647536
218.183422,1532.190996,2738.761985,7105.977043
218.183730,153.219100,1406.391290,8734.430116
218.184038,-919.314598,-0.000000,10214.842000
218.184346,-2068.457845,-1406.391290,11547.212695
218.184654,-2528.115143,-2664.741391,12879.583391
218.184962,-2451.505594,-3256.906145,13175.665768
218.185271,-2298.286494,-2960.823768,13619.789333
218.185579,-1455.581446,-3108.864956,13027.624579
218.185887,-229.828649,-2368.659014,11769.274478
218.186195,842.705048,-1628.453072,10807.006753
218.186503,2374.896044,-888.247130,9104.533087
218.186811,3524.039291,222.061783,7846.182985
218.187119,3830.477490,888.247130,7105.977043
218.187427,3983.696590,1850.514855,6883.915261
218.187735,3294.210641,3256.906145,6809.894666
218.188043,3294.210641,3627.009116,6439.791695
218.188351,2528.115143,3997.112087,6513.812290
218.188659,1608.800546,3108.864956,7624.121203
218.188967,536.266849,2146.597232,9178.553681
218.189276,-842.705048,222.061783,10214.842000
218.189584,-1915.238745,-1036.288319,11843.295072
218.189892,-3140.991542,-2442.679609,13027.624579
218.190200,-3140.991542,-3701.029710,13841.851115
218.190508,-3983.696590,-3330.926739,14211.954086
218.190816,-3294.210641,-3256.906145,13323.706956
218.191124,-1532.190996,-2442.679609,12213.398043
218.191432,-306.438199,-1110.308913,10362.883188
218.191740,1225.752797,-296.082377,10510.924376
218.192048,2528.115143,-0.000000,8512.368333
218.192356,2528.115143,1776.494261,6957.935855
218.192664,3447.429741,1850.514855,7476.080014
218.192972,3370.820191,3034.844362,5995.668130
218.193281,2987.772442,3552.988522,6513.812290
218.193589,3140.991542,4071.132681,6365.771101
218.193897,2298.286494,3627.009116,7179.997637
218.194205,1225.752797,3108.864956,8364.327145
218.194513,0.000000,2294.638420,9844.739029
218.194821,-842.705048,740.205942,11103.089130
218.195129,-2374.896044,-444.123565,11917.315666
218.195437,-2604.724693,-1628.453072,13545.768739
218.195745,-2681.334243,-2294.638420,13767.830521
218.196053,-2757.943793,-2516.700203,14063.912898
218.196361,-1378.971896,-2812.782580,13397.727550
218.196669,-229.828649,-2220.617826,11769.274478
218.196977,1072.533697,-1924.535449,11325.150913
218.197286,1838.629195,-1406.391290,9252.574275
218.197594,3370.820191,-222.061783,8438.347739
218.197902,3907.087040,1184.329507,7550.100608
218.198210,3677.258390,2516.700203,6661.853478
218.198518,3983.696590,3404.947333,6217.729913
218.198826,4060.306139,4441.235652,6069.688724
218.199134,3524.039291,4293.194464,6069.688724
218.199442,3064.381992,3997.112087,6883.915261
218.199750,1225.752797,2368.659014,8364.327145
218.200058,-612.876398,444.123565,9844.739029
218.200366,-2145.067394,-1036.288319,11695.253884
218.200674,-3447.429741,-2590.720797,13027.624579
218.200982,-3983.696590,-3775.050304,13989.892304
218.201291,-4060.306139,-4367.215058,14063.912898
218.201599,-3064.381992,-4367.215058,13249.686362
218.201907,-1225.752797,-3701.029710,12213.398043
218.202215,76.609550,-3108.864956,10362.883188
218.202523,1915.238745,-1702.473667,8956.491898
218.202831,2987.772442,-666.185348,7105.977043
218.203139,3753.867940,296.082377,6439.791695
218.203447,4060.306139,1332.370696,6069.688724
218.203755,4596.572988,1998.556043,5403.503377
218.204063,3753.867940,3182.885551,5033.400406
218.204371,3524.039291,2738.761985,5107.421000
218.204679,3677.258390,3478.967927,5773.606348
218.204988,2068.457845,2664.741391,6883.915261
218.205296,842.705048,1998.556043,7846.182985
218.205604,0.000000,814.226536,9326.594869
218.205912,-1532.190996,-666.185348,10658.965565
218.206220,-2604.724693,-1924.535449,11991.336260
218.206528,-2757.943793,-2960.823768,13397.727550
218.206836,-2757.943793,-3627.009116,13397.727550
218.207144,-2298.286494,-3701.029710,13471.748144
218.207452,-842.705048,-3478.967927,12731.542202
218.207760,-153.219100,-2368.659014,11917.315666
218.208068,1225.752797,-1110.308913,10362.883188
218.208376,2604.724693,370.102971,8660.409521
218.208684,3983.696590,1702.473667,7624.121203
218.208993,4136.915689,2812.782580,6735.874072
218.209301,3600.648841,4071.132681,6365.771101
218.209609,4749.792088,5329.482782,6365.771101
218.209917,3983.696590,4959.379811,6365.771101
218.210225,2451.505594,4663.297435,7105.977043
218.210533,842.705048,3108.864956,8808.450710
218.210841,-995.924147,1480.411884,10436.903782
218.211149,-2681.334243,-148.041188,12287.418637
218.211457,-3677.258390,-1702.473667,13915.871710
218.211765,-4596.572988,-3034.844362,14878.139434
218.212073,-4060.306139,-3923.091493,15026.180623
218.212381,-3753.867940,-3256.906145,13767.830521
218.212689,-1915.238745,-2886.803174,13101.645173
218.212998,0.000000,-1850.514855,11769.274478
218.213306,1762.019645,-962.267725,9770.718434
218.213614,2834.553343,148.041188,8142.265362
218.213922,3217.601092,814.226536,7105.977043
218.214230,4290.134789,1850.514855,6957.935855
218.214538,4060.306139,2072.576638,6439.791695
218.214846,3447.429741,2738.761985,5995.668130
218.215154,2911.162892,3701.029710,5995.668130
218.215462,2528.115143,3775.050304,6513.812290
218.215770,1991.848295,3330.926739,6883.915261
218.216078,1149.143247,2590.720797,8216.285956
218.216386,76.609550,1480.411884,9622.677246
218.216694,-459.657299,-0.000000,10658.965565
218.217003,-2068.457845,-1776.494261,12435.459826
218.217311,-2834.553343,-2590.720797,13397.727550
218.217619,-3294.210641,-3404.947333,13471.748144
218.217927,-2757.943793,-3849.070898,13619.789333
218.218235,-1608.800546,-3478.967927,13027.624579
218.218543,-612.876398,-2738.761985,11547.212695
218.218851,1455.581446,-1258.350101,10140.821405
218.219159,2298.286494,-962.267725,8734.430116
218.219467,3294.210641,592.164754,7476.080014
218.219775,3983.696590,1628.453072,6735.874072
218.220083,3677.258390,2590.720797,6143.709319
218.220391,3907.087040,3775.050304,5921.647536
218.220699,3064.381992,3997.112087,5995.668130
218.221008,2528.115143,3627.009116,6513.812290
218.221316,612.876398,2960.823768,7772.162391
218.221624,-306.438199,1924.535449,8956.491898
218.221932,-1838.629195,-222.061783,10955.047942
218.222240,-2681.334243,-1480.411884,12657.521608
218.222548,-3600.648841,-2960.823768,13693.809927
218.222856,-3983.696590,-3552.988522,13693.809927
218.223164,-3294.210641,-3552.988522,13397.727550
218.223472,-2145.067394,-3034.844362,12879.583391
218.223780,0.000000,-2664.741391,11103.089130
218.224088,1225.752797,-1776.494261,9474.636058
218.224396,2834.553343,-444.123565,8512.368333
218.224704,3524.039291,222.061783,7402.059420
218.225013,3907.087040,1480.411884,6735.874072
218.225321,3907.087040,2146.597232,6365.771101
218.225629,3907.087040,3256.906145,5847.626942
218.225937,3217.601092,3997.112087,5847.626942
218.226245,2987.772442,3997.112087,6291.750507
218.226553,2451.505594,3701.029710,7179.997637
218.226861,1455.581446,3182.885551,8438.347739
218.227169,-229.828649,1406.391290,9770.718434
218.227477,-1455.581446,-0.000000,11473.192101
218.227785,-2528.115143,-1406.391290,12879.583391
218.228093,-3140.991542,-2368.659014,13989.892304
218.228401,-3294.210641,-3182.885551,14656.077652
218.228710,-1991.848295,-3849.070898,14211.954086
218.229018,-919.314598,-3404.947333,13175.665768
218.229326,459.657299,-2516.700203,11843.295072
218.229634,1991.848295,-962.267725,10362.883188
218.229942,3217.601092,370.102971,8438.347739
218.230250,3830.477490,1480.411884,7328.038826
218.230558,4596.572988,2516.700203,6957.935855
218.230866,4903.011187,3478.967927,6365.771101
218.231174,3983.696590,4663.297435,5625.565159
218.231482,3907.087040,4515.256246,7105.977043
218.231790,2068.457845,3923.091493,7179.997637
218.232098,536.266849,2812.782580,9030.512492
218.232406,-229.828649,1628.453072,10140.821405
218.232715,-2068.457845,370.102971,11473.192101
218.233023,-3370.820191,-1184.329507,13101.645173
218.233331,-3677.258390,-2516.700203,13841.851115
218.233639,-3524.039291,-2812.782580,14285.974681
218.233947,-3524.039291,-3627.009116,13471.748144
218.234255,-1762.019645,-3404.947333,12213.398043
218.234563,-229.828649,-2442.679609,11547.212695
218.234871,1072.533697,-2220.617826,10214.842000
218.235179,1838.629195,-1110.308913,8882.471304
218.235487,3294.210641,-148.041188,7476.080014
218.235795,3294.210641,148.041188,6661.853478
218.236103,2681.334243,1406.391290,6587.832884
218.236411,3600.648841,2368.659014,6587.832884
218.236720,3064.381992,3182.885551,5477.523971
218.237028,3064.381992,4145.153275,5403.503377
218.237336,2834.553343,3849.070898,6291.750507
218.237644,1838.629195,3478.967927,7105.977043
218.237952,919.314598,2072.576638,8438.347739
218.238260,-766.095498,296.082377,9622.677246
218.238568,-1762.019645,-1332.370696,11547.212695
218.238876,-2834.553343,-3034.844362,13027.624579
218.239184,-3907.087040,-4441.235652,13619.789333
218.239492,-3064.381992,-4441.235652,13989.892304
218.239800,-1915.238745,-4293.194464,13249.686362
218.240108,-536.266849,-3256.906145,11843.295072
218.240416,1302.362347,-2294.638420,10362.883188
218.240725,2145.067394,-888.247130,9104.533087
218.241033,3830.477490,888.247130,7328.038826
218.241341,4443.353888,1406.391290,6365.771101
218.241649,4443.353888,3182.885551,6217.729913
218.241957,4443.353888,4145.153275,5699.585753
218.242265,3524.039291,4515.256246,5995.668130
218.242573,2451.505594,4515.256246,6735.874072
218.242881,1455.581446,3256.906145,8290.306550
218.243189,-689.485948,1998.556043,9474.636058
218.243497,-2298.286494,592.164754,11325.150913
218.243805,-3294.210641,-1036.288319,13249.686362
218.244113,-4290.134789,-2368.659014,13767.830521
218.244421,-4366.744339,-3108.864956,14211.954086
218.244730,-3447.429741,-3330.926739,13767.830521
218.245038,-2298.286494,-2812.782580,12731.542202
218.245346,-766.095498,-1924.535449,11843.295072
218.245654,536.266849,-1702.473667,10140.821405
218.245962,2068.457845,-814.226536,8956.491898
218.246270,2834.553343,-0.000000,7920.203579
218.246578,3217.601092,1480.411884,7031.956449
218.246886,3600.648841,1850.514855,6513.812290
218.247194,3600.648841,2738.761985,6143.709319
218.247502,2911.162892,3849.070898,5551.544565
218.247810,3064.381992,3923.091493,6439.791695
218.248118,2528.115143,3849.070898,6809.894666
218.248426,1455.581446,2960.823768,7772.162391
218.248735,-383.047749,1850.514855,9474.636058
218.249043,-1302.362347,222.061783,11251.130318
218.249351,-2528.115143,-1110.308913,12213.398043
218.249659,-3064.381992,-2294.638420,13471.748144
218.249967,-3294.210641,-3108.864956,14211.954086
218.250275,-2834.553343,-3701.029710,14063.912898
218.250583,-1991.848295,-3182.885551,13323.706956
218.250891,-229.828649,-2294.638420,12139.377449
218.251199,1225.752797,-1850.514855,10658.965565
218.251507,2681.334243,-814.226536,8660.409521
218.251815,3830.477490,888.247130,7920.203579
218.252123,3983.696590,1628.453072,7179.997637
218.252432,4136.915689,2960.823768,6587.832884
218.252740,4673.182538,3923.091493,6513.812290
218.253048,4290.134789,4589.276840,6217.729913
218.253356,2451.505594,4663.297435,6217.729913
218.253664,1915.238745,3627.009116,7994.224174
218.253972,229.828649,2368.659014,9474.636058
218.254280,-1225.752797,888.247130,10732.986159
218.254588,-2987.772442,-444.123565,12361.439231
218.254896,-3830.477490,-1924.535449,13545.768739
218.255204,-4290.134789,-2664.741391,14285.974681
218.255512,-3753.867940,-3108.864956,14359.995275
218.255820,-2221.676944,-3256.906145,13471.748144
218.256128,-689.485948,-3034.844362,11473.192101
218.256437,536.266849,-2146.597232,10436.903782
218.256745,1838.629195,-1850.514855,9326.594869
218.257053,2604.724693,-444.123565,8068.244768
218.257361,3447.429741,518.144159,6883.915261
218.257669,4213.525239,1332.370696,6143.709319
218.257977,4443.353888,2442.679609,5551.544565
218.258285,4443.353888,3108.864956,5255.462188
218.258593,3983.696590,4145.153275,4959.379811
218.258901,3217.601092,4071.132681,5625.565159
218.259209,1991.848295,3108.864956,6809.894666
218.259517,842.705048,1924.535449,8660.409521
218.259825,-766.095498,296.082377,9992.780217
218.260133,-1991.848295,-2220.617826,11621.233289
218.260442,-2451.505594,-2812.782580,13397.727550
218.260750,-3524.039291,-4071.132681,14137.933492
218.261058,-3600.648841,-4885.359217,14137.933492
218.261366,-2221.676944,-4441.235652,13101.645173
218.261674,-612.876398,-3404.947333,12139.377449
218.261982,689.485948,-2368.659014,10584.944971
218.262290,2451.505594,-1110.308913,9030.512492
218.262598,3370.820191,814.226536,7476.080014
218.262906,4673.182538,1776.494261,6735.874072
218.263214,5132.839837,3256.906145,5847.626942
218.263522,5286.058936,3997.112087,5921.647536
218.263830,3983.696590,4515.256246,5625.565159
218.264138,3140.991542,4367.215058,6513.812290
218.264447,1762.019645,3552.988522,8068.244768
218.264755,-153.219100,2146.597232,9474.636058
218.265063,-1838.629195,666.185348,11251.130318
218.265371,-3447.429741,-962.267725,12731.542202
218.265679,-3753.867940,-2294.638420,13693.809927
218.265987,-4366.744339,-2294.638420,14285.974681
218.266295,-3600.648841,-2738.761985,13915.871710
218.266603,-2451.505594,-2442.679609,12953.603985
218.266911,-612.876398,-1924.535449,11843.295072
218.267219,919.314598,-1554.432478,10732.986159
218.267527,1915.238745,-1110.308913,9326.594869
218.267835,2681.334243,-666.185348,8290.306550
218.268143,2604.724693,444.123565,7846.182985
218.268452,3217.601092,1628.453072,7179.997637
218.268760,3140.991542,2368.659014,6661.853478
218.269068,3677.258390,3552.988522,5773.606348
218.269376,3217.601092,4367.215058,5329.482782
218.269684,3140.991542,4293.194464,6365.771101
218.269992,2298.286494,3552.988522,7031.956449
218.270300,1225.752797,1998.556043,8290.306550
218.270608,-229.828649,-0.000000,10288.862594
218.270916,-2221.676944,-888.247130,11843.295072
218.271224,-3140.991542,-2590.720797,13471.748144
218.271532,-3600.648841,-3627.009116,14211.954086
218.271840,-3140.991542,-3849.070898,14137.933492
218.272148,-2221.676944,-3775.050304,13397.727550
218.272456,-383.047749,-3034.844362,12583.501014
218.272764,459.657299,-2590.720797,11103.089130
218.273072,2681.334243,-962.267725,9770.718434
218.273380,3600.648841,-444.123565,7772.162391
218.273688,3983.696590,1480.411884,6883.915261
218.273996,4443.353888,2590.720797,6217.729913
218.274304,4136.915689,3849.070898,5773.606348
218.274612,3983.696590,4737.318029,5699.585753
218.274920,2987.772442,4589.276840,6735.874072
218.275228,2068.457845,3256.906145,7920.203579
218.275536,0.000000,2146.597232,9252.574275
218.275844,-1762.019645,888.247130,10584.944971
218.276152,-3217.601092,-370.102971,12287.418637
218.276460,-4213.525239,-1702.473667,13619.789333
218.276769,-4443.353888,-2590.720797,14359.995275
218.277077,-4213.525239,-2886.803174,13841.851115
218.277385,-2757.943793,-2738.761985,13175.665768
218.277693,-1225.752797,-2960.823768,12065.356855
218.278001,536.266849,-2072.576638,10658.965565
218.278309,1532.190996,-1184.329507,10066.800811
218.278617,2834.553343,-888.247130,8290.306550
218.278925,2604.724693,1036.288319,6661.853478
218.279233,4060.306139,1332.370696,7031.956449
218.279541,4136.915689,2664.741391,5995.668130
218.279849,3447.429741,3849.070898,5551.544565
218.280157,3217.601092,4145.153275,5551.544565
218.280465,2987.772442,3627.009116,6069.688724
218.280773,1685.410096,3478.967927,7476.080014
218.281081,995.924147,2146.597232,8290.306550
218.281389,-612.876398,666.185348,10140.821405
218.281697,-2374.896044,-1776.494261,11769.274478
218.282005,-3064.381992,-2886.803174,13249.686362
218.282313,-3677.258390,-3775.050304,14285.974681
218.282621,-2911.162892,-4737.318029,14063.912898
218.282929,-2068.457845,-4515.256246,13027.624579
218.283237,-306.438199,-3404.947333,12361.439231
218.283545,1302.362347,-2590.720797,11103.089130
218.283853,2604.724693,-1258.350101,9104.533087
218.284161,3983.696590,518.144159,7550.100608
218.284469,4443.353888,1406.391290,6883.915261
218.284777,4366.744339,2664.741391,6587.832884
218.285085,4673.182538,3997.112087,5847.626942
218.285393,3983.696590,4589.276840,5255.462188
218.285701,3524.039291,4293.194464,5995.668130
218.286009,1915.238745,3849.070898,7698.141797
218.286317,0.000000,2590.720797,9474.636058
218.286625,-1532.190996,1184.329507,10658.965565
218.286933,-2987.772442,-0.000000,12139.377449
218.287241,-3140.991542,-1554.432478,13693.809927
218.287549,-3753.867940,-2368.659014,14211.954086
218.287857,-3677.258390,-3108.864956,14211.954086
218.288165,-2528.115143,-3108.864956,13397.727550
218.288473,-1378.971896,-2590.720797,12287.418637
218.288781,459.657299,-2072.576638,11103.089130
218.289089,2145.067394,-1480.411884,9474.636058
218.289397,2987.772442,-0.000000,7920.203579
218.289705,4136.915689,666.185348,6809.894666
218.290013,4749.792088,1776.494261,6365.771101
218.290321,4290.134789,2590.720797,6291.750507
218.290629,4519.963438,3849.070898,5329.482782
218.290937,3907.087040,4367.215058,5403.503377
218.291245,3217.601092,4219.173869,5921.647536
218.291553,1915.238745,3404.947333,7328.038826
218.291861,689.485948,2220.617826,9252.574275
218.292169,-459.657299,370.102971,10288.862594
218.292477,-2604.724693,-1184.329507,12509.480420
218.292785,-3217.601092,-3330.926739,13989.892304
218.293093,-3983.696590,-4441.235652,14582.057057
218.293401,-4136.915689,-4367.215058,14434.015869
218.293709,-2604.724693,-4293.194464,13619.789333
218.294017,0.000000,-3256.906145,12657.521608
218.294325,1072.533697,-1850.514855,10214.842000
218.294633,2834.553343,-888.247130,8290.306550
218.294941,4673.182538,370.102971,7031.956449
218.295249,4749.792088,2294.638420,6513.812290
218.295557,5056.230287,2590.720797,6587.832884
218.295865,4519.963438,4145.153275,5477.523971
218.296173,3983.696590,3997.112087,5995.668130
218.296481,2757.943793,4367.215058,5995.668130
218.296789,1915.238745,3478.967927,7550.100608
218.297097,153.219100,2294.638420,9474.636058
218.297405,-1762.019645,740.205942,10214.842000
218.297713,-3370.820191,-666.185348,11769.274478
218.298021,-3983.696590,-2442.679609,13471.748144
218.298329,-4596.572988,-2738.761985,13841.851115
218.298637,-4060.306139,-3182.885551,14137.933492
218.298945,-3447.429741,-3627.009116,13545.768739
218.299253,-2145.067394,-3182.885551,12583.501014
218.299561,-766.095498,-2664.741391,11177.109724
218.299869,1302.362347,-1850.514855,9992.780217
218.300177,1838.629195,-1110.308913,8660.409521
218.300485,2834.553343,370.102971,7698.141797
218.300793,3370.820191,1480.411884,6735.874072
218.301101,3677.258390,2516.700203,5995.668130
218.301409,4060.306139,3849.070898,5403.503377
218.301717,3830.477490,4589.276840,4959.379811
218.302025,3294.210641,4663.297435,5477.523971
218.302333,2221.676944,3701.029710,7105.977043
218.302641,612.876398,2368.659014,8438.347739
218.302949,-1225.752797,666.185348,10214.842000
218.303257,-2451.505594,-1110.308913,11917.315666
