#time,accel_x,accel_y,accel_z
840.737105,-114.855485,-880.558717,-9686.145885
840.739788,-114.855485,-899.701298,-9686.145885
840.742471,-38.285162,-861.416136,-9571.290400
840.745155,-114.855485,-880.558717,-9571.290400
840.747838,-38.285162,-957.129040,-9743.573627
840.750521,-57.427742,-880.558717,-9647.860723
840.753204,-76.570323,-918.843878,-9571.290400
840.755887,-114.855485,-880.558717,-9571.290400
840.758570,-76.570323,-899.701298,-9743.573627
840.761253,-76.570323,-823.130974,-9571.290400
840.763936,-114.855485,-880.558717,-9647.860723
840.766619,-38.285162,-861.416136,-9743.573627
840.769302,-57.427742,-880.558717,-9686.145885
840.771985,-114.855485,-823.130974,-9647.860723
840.774668,-114.855485,-918.843878,-9628.718142
840.777351,-76.570323,-899.701298,-9628.718142
840.780034,-114.855485,-995.414202,-9379.864592
840.782717,-0.000000,-1339.980656,-9590.432981
840.785400,229.710970,-1799.402595,-9418.149754
840.788083,-229.710970,-2641.676150,-8997.012976
840.790766,-535.992262,-4881.358104,-9954.142016
840.793449,-114.855485,-9188.438784,-8633.303941
840.796132,-1052.841944,-10624.132344,-10030.712339
840.798815,344.566454,-11121.839445,-11083.554283
840.801498,-1301.695494,-3330.809059,-11370.692995
840.804181,3043.670347,669.990328,-7580.461997
840.806864,210.568389,3656.232933,-6833.901346
840.809547,-3215.953574,3445.664544,-12442.677520
840.812171,3101.098090,-2967.100024,-6776.473603
840.814795,-1952.543242,-5321.637462,-8537.591037
840.817420,-306.281293,-14184.652373,-12461.820101
840.820044,133.998066,-11083.554283,-3637.090352
840.822668,-1493.121302,-2967.100024,-14337.793019
840.825292,2679.961312,-3407.379382,-10317.851051
840.827916,-3503.092286,4115.654872,-7848.458128
840.830540,2392.822600,2220.539373,-5589.633594
840.833164,-133.998066,1129.412267,-14261.222696
840.835788,-1378.265818,-3885.943902,-7389.036189
840.838412,1837.687757,-10202.995566,-7925.028451
840.841036,-1071.984525,-8327.022648,-12576.675586
840.843660,344.566454,-4919.643266,-10604.989763
840.846285,-2373.680019,1454.836141,-7255.038123
840.848909,2297.109696,2009.970984,-9265.009107
840.851533,1703.689691,4402.793584,-11906.685258
840.854157,-2699.103893,6776.473603,-8365.307810
840.856781,5015.356170,-2641.676150,-7867.600709
840.859405,-4919.643266,-1014.556782,-9896.714274
840.862029,4000.799387,-8920.442653,-9360.722011
840.864653,-2833.101958,-3445.664544,-8709.874264
840.867277,-535.992262,-2947.957443,-12232.109131
840.869901,1588.834206,-823.130974,-7350.751027
840.872525,-2297.109696,3790.230998,-10202.995566
840.875150,1148.554848,2067.398726,-11102.696864
840.877774,-1033.699363,2871.387120,-6278.766502
840.880398,-95.712904,-669.990328,-10413.563955
840.883022,478.564520,-4096.512291,-8920.442653
840.885646,2928.814862,-7350.751027,-5704.489078
840.888270,-6757.331022,-57.427742,-17190.037558
840.890894,3809.373579,-4307.080680,-5627.918755
840.893518,-114.855485,478.564520,-8939.585234
840.896142,-2928.814862,3330.809059,-12576.675586
840.898766,2718.246474,650.847747,-8231.309744
840.901390,-1512.263883,1722.832272,-5934.200048
840.904015,650.847747,-2239.681954,-14854.642701
840.906639,-210.568389,-3177.668413,-8805.587168
840.909263,19.142581,-2086.541307,-5838.487144
840.911887,-1167.697429,-1282.552914,-14644.074312
840.914511,-440.279358,-669.990328,-9686.145885
840.917105,880.558717,-1205.982590,-6106.483275
840.919699,-1167.697429,1761.117434,-13438.091722
840.922293,-1110.269686,1550.549045,-8116.454259
840.924887,1301.695494,-918.843878,-6317.051664
840.927481,-1339.980656,-1301.695494,-12366.107197
840.930076,-5379.065205,401.994197,-12691.531070
840.932670,7676.174901,-10336.993632,631.705166
840.935264,-2488.535504,-4996.213589,-19468.004674
840.937858,-1895.115499,1033.699363,-12576.675586
840.940452,1914.258080,3369.094221,38.285162
840.943046,382.851616,3139.383251,-16156.338195
840.945640,-1990.828403,4173.082614,-10011.569758
840.948234,2086.541307,-401.994197,-6010.770371
840.950828,133.998066,-2871.387120,-8748.159426
840.953423,-2488.535504,-3254.238736,-17936.598210
840.956017,2450.250342,-4689.932296,-2603.390989
840.958611,-3866.801322,114.855485,-11102.696864
840.961205,2660.818731,-3215.953574,-14682.359474
840.963799,555.134843,421.136778,-5034.498750
840.966393,-2584.248408,4134.797453,-8920.442653
840.968987,6987.041992,-1569.691626,-18396.020149
840.971581,-4613.361973,5723.631659,-1033.699363
840.974176,-1722.832272,-478.564520,-2622.533570
840.976770,-1129.412267,-6029.912952,-27144.179574
840.979364,-401.994197,-3503.092286,6891.329088
840.981958,2660.818731,-3790.230998,-6661.618118
840.984552,-2526.820666,-1014.556782,-26282.763438
840.987146,1397.408398,803.988394,8116.454259
840.989740,172.283227,1761.117434,-15390.634963
840.992334,-995.414202,2545.963246,-16654.045296
840.994928,4211.367776,-3235.096155,8039.883936
840.997523,-5111.069074,1646.261949,-23545.374384
841.000093,4689.932296,-5034.498750,-10853.843314
841.002663,-918.843878,-421.136778,5551.348432
841.005234,-1952.543242,-727.418070,-21899.112435
841.007804,2201.396792,-3330.809059,-14471.791085
841.010375,-2163.111630,1703.689691,8250.452325
841.012945,1416.550979,-1646.261949,-26761.327958
841.015516,-1435.693560,2431.107762,-3541.377448
841.018086,-95.712904,1052.841944,-57.427742
841.020656,-765.703232,-2373.680019,-24579.073747
841.023227,-229.710970,-1244.267752,1646.261949
841.025797,2124.826469,-3081.955509,-11121.839445
841.028368,-3541.377448,-842.273555,-23411.376318
841.030938,4173.082614,-2469.392923,3445.664544
841.033509,-1378.265818,-1186.840010,-8748.159426
841.036079,-2986.242605,401.994197,-19793.428547
841.038649,3445.664544,-2986.242605,-1148.554848
841.041220,-2009.970984,957.129040,-5876.772306
841.043790,19.142581,-2009.970984,-22358.534374
841.046361,612.562586,287.138712,1875.972918
841.048931,-1378.265818,-210.568389,-11485.548480
841.051502,957.129040,-593.420005,-13859.228499
841.054072,-2967.100024,555.134843,459.421939
841.056642,3790.230998,-5551.348432,-17228.322720
841.059213,-4287.938099,1933.400661,-13744.373014
841.061783,3407.379382,-1014.556782,2986.242605
841.064354,-3311.666478,2316.252277,-17381.463366
841.066924,19.142581,76.570323,-13342.378818
841.069495,1741.974853,-1607.976787,440.279358
841.072065,-1875.972918,-1627.119368,-16424.334326
841.074635,267.996131,-2833.101958,-14203.794954
841.077206,-1607.976787,133.998066,957.129040
841.079776,1837.687757,-3292.523898,-16424.334326
841.082347,-535.992262,-2947.957443,-11696.116869
841.084917,2469.392923,-2335.394858,-382.851616
841.087488,-1971.685822,842.273555,-17726.029821
841.090058,1990.828403,1339.980656,-5111.069074
841.092628,1741.974853,-382.851616,-7465.606512
841.095199,-3292.523898,2239.681954,-13667.802691
841.097769,1282.552914,-2928.814862,-11236.694930
841.100340,-172.283227,-2009.970984,-4460.221326
841.102699,-631.705166,-2699.103893,-14912.070443
841.105058,-2507.678085,937.986459,-8154.739421
841.107418,2699.103893,-3235.096155,-3464.807125
841.109777,-593.420005,-1397.408398,-18204.594341
841.112136,-459.421939,708.275490,-2335.394858
841.114496,593.420005,574.277424,-7140.182638
841.116855,-3139.383251,2411.965181,-17783.457563
841.119214,2967.100024,-2297.109696,-5130.211654
841.121574,-2048.256146,76.570323,-4670.789715
841.123933,153.140646,-3751.945837,-19468.004674
841.126292,-114.855485,-1895.115499,-172.283227
841.128651,-38.285162,-2565.105827,-12653.245909
841.131011,-1473.978722,-76.570323,-13572.089787
841.133370,765.703232,937.986459,-5187.639397
841.135729,3081.955509,-114.855485,-9609.575562
841.138089,-1607.976787,1531.406464,-12729.816232
841.140448,1110.269686,-497.707101,-7006.184573
841.142807,-1627.119368,-248.853550,-9781.858789
841.145167,1837.687757,-3215.953574,-12212.966550
841.147526,-555.134843,-1856.830338,-8709.874264
841.149885,-267.996131,-1684.547110,-9667.003304
841.152245,-114.855485,-1550.549045,-11983.255581
841.154604,-2718.246474,842.273555,-5283.352301
841.156963,-784.845813,-57.427742,-14548.361408
841.159322,4249.652938,-1397.408398,-12002.398162
841.161682,-2277.967115,2718.246474,-1607.976787
841.164041,2718.246474,-4479.363907,-20922.840814
841.166400,-497.707101,-2201.396792,-5685.346498
841.168760,-2239.681954,-976.271621,-5321.637462
841.171119,2679.961312,-4709.074877,-16347.764003
841.173478,2086.541307,-2277.967115,-11313.265253
841.175838,-3273.381317,2928.814862,1148.554848
841.178197,57.427742,114.855485,-15314.064640
841.180556,76.570323,-1339.980656,-18319.449826
841.182916,-880.558717,344.566454,1875.972918
841.185275,1531.406464,-1454.836141,-11600.403965
841.187634,-2316.252277,-746.560651,-18740.586603
841.189994,3292.523898,-3024.527766,1569.691626
841.192353,-593.420005,-1837.687757,-12921.242040
841.194712,-1071.984525,-784.845813,-17036.896912
841.197139,-19.142581,1052.841944,3617.947771
841.199571,1799.402595,-1914.258080,-18434.305310
841.202003,-4268.795518,3101.098090,-9360.722011
841.204435,3254.238736,-2488.535504,-3541.377448
841.206867,191.425808,-1818.545176,-12327.822035
841.209299,-2660.818731,-918.843878,-13591.232368
841.211732,1722.832272,-3311.666478,-3177.668413
841.214164,38.285162,-2909.672282,-10451.849117
841.216596,-1244.267752,0.000000,-14529.218827
841.219028,1110.269686,-1607.976787,-2488.535504
841.221460,1837.687757,-1225.125171,-11217.552349
841.223892,-4843.072942,3464.807125,-14835.500120
841.226324,4441.078746,-2469.392923,-4345.365842
841.228756,-1378.265818,-574.277424,-8901.300072
841.231188,-1225.125171,-1091.127106,-16194.623357
841.233620,459.421939,-2660.818731,-2584.248408
841.236052,1780.260014,-3024.527766,-15409.777544
841.238484,-2316.252277,803.988394,-6278.766502
841.240916,19.142581,172.283227,-7503.891674
841.243348,1167.697429,-823.130974,-12882.956878
841.245780,-2660.818731,1473.978722,-7905.885870
841.248212,4153.940034,-3005.385186,-5781.059402
841.250644,-4709.074877,1856.830338,-15333.207221
841.253076,-401.994197,-172.283227,-5149.354235
841.255508,3330.809059,-5111.069074,-9265.009107
841.257940,-650.847747,-612.562586,-12978.669782
841.260372,-3828.516160,1607.976787,-5187.639397
841.262804,1148.554848,-2182.254211,-13552.947206
841.265236,1875.972918,-4249.652938,-9265.009107
841.267668,-2067.398726,0.000000,-11638.689126
841.270100,325.423874,-2067.398726,-11428.120738
841.272532,-19.142581,-248.853550,-10892.128475
841.274964,5934.200048,-3560.520029,-4287.938099
841.277396,-7197.610381,5589.633594,-20693.129845
841.279828,1914.258080,669.990328,-5800.201982
841.282261,3043.670347,-2029.113565,-7561.319416
841.284693,-5168.496816,1684.547110,-12117.253646
841.287125,2986.242605,-4670.789715,-12040.683323
841.289557,2354.537438,-3254.238736,-2909.672282
841.291989,-7848.458128,4153.940034,-15141.781413
841.294465,6202.196179,-5034.498750,-9456.434915
841.296941,-2201.396792,-325.423874,-5187.639397
841.299417,-3924.229064,1607.976787,-13016.954944
841.301893,3943.371645,-3349.951640,-13706.087853
841.304369,-2392.822600,2220.539373,-3120.240670
841.306845,1799.402595,-2335.394858,-16213.765938
841.309321,-1359.123237,-248.853550,-7542.176835
841.311797,727.418070,-2488.535504,-5034.498750
841.314273,1359.123237,-2737.389054,-17304.893043
841.316749,-2909.672282,287.138712,-6221.338760
841.319225,1014.556782,-401.994197,-6795.616184
841.321701,95.712904,-363.709035,-18281.164664
841.324177,1799.402595,-861.416136,-401.994197
841.326653,-2009.970984,-440.279358,-12959.527202
841.329129,4039.084549,-3866.801322,-13227.523333
841.331605,-5264.209720,2947.957443,-7465.606512
841.334081,3139.383251,-2660.818731,-5895.914886
841.336557,-1339.980656,-191.425808,-17936.598210
841.339034,765.703232,76.570323,-2986.242605
841.341510,-708.275490,-191.425808,-11294.122672
841.343986,-19.142581,-1435.693560,-13533.804626
841.346462,-478.564520,114.855485,-3426.521963
841.348938,1014.556782,-2545.963246,-14318.650438
841.351414,2679.961312,-3120.240670,-7637.889739
841.353890,-3924.229064,516.849682,-5800.201982
841.356366,2928.814862,-2373.680019,-12308.679454
841.358842,-3215.953574,-191.425808,-10490.134278
841.361318,2909.672282,-2622.533570,-9533.005238
841.363794,-325.423874,-689.132909,-9054.440718
841.366270,-784.845813,1225.125171,-11447.263318
841.368746,1397.408398,-1110.269686,-9150.153622
841.371222,-1531.406464,631.705166,-11006.983960
841.373698,976.271621,-1186.840010,-11370.692995
841.376174,19.142581,-363.709035,-8518.448456
841.378650,-3617.947771,1914.258080,-14529.218827
841.381126,-555.134843,2660.818731,-8078.169098
841.383602,1301.695494,1895.115499,-7369.893608
841.386078,-3694.518094,5838.487144,-13189.238171
841.388554,4153.940034,1244.267752,-11466.405899
841.391030,-2488.535504,5072.783912,574.277424
841.393532,689.132909,2450.250342,-19085.153058
841.396034,-593.420005,2852.244539,-9360.722011
841.398536,-191.425808,-976.271621,-401.994197
841.401038,-95.712904,-689.132909,-17630.316917
841.403540,-976.271621,2986.242605,-9533.005238
841.406042,1091.127106,1148.554848,-5972.485210
841.408544,-1244.267752,2431.107762,-13170.095590
841.411046,153.140646,5015.356170,-10853.843314
841.413548,765.703232,4039.084549,-4460.221326
841.416050,-1129.412267,3541.377448,-15371.492382
841.418552,746.560651,1627.119368,-5704.489078
841.421054,-210.568389,1569.691626,-8327.022648
841.423556,-612.562586,153.140646,-14548.361408
841.426058,344.566454,-172.283227,-6776.473603
841.428560,-153.140646,784.845813,-8863.014910
841.431062,-95.712904,1052.841944,-13686.945272
841.433563,-516.849682,-133.998066,-6680.760699
841.436065,-229.710970,-497.707101,-10413.563955
841.438567,-153.140646,-765.703232,-12289.536874
841.441069,95.712904,497.707101,-6872.186507
841.443571,593.420005,4039.084549,-10356.136213
841.446073,-516.849682,7867.600709,-11428.120738
841.448575,-172.283227,11485.548480,-7963.313613
841.451077,382.851616,7752.745224,-9686.145885
841.453579,-784.845813,1837.687757,-11160.124606
841.456081,669.990328,-4192.225195,-5034.498750
841.458583,-267.996131,-2890.529701,-14280.365277
841.461085,-918.843878,-3139.383251,-10394.421374
841.463587,363.709035,-459.421939,-5857.629725
841.466089,-133.998066,3732.803256,-12595.818166
841.468591,-57.427742,6814.758765,-10432.706536
841.471093,133.998066,8729.016845,-8020.741355
841.473594,1397.408398,4709.074877,-10241.280728
841.476096,-1359.123237,918.843878,-9035.298138
841.478598,-727.418070,-133.998066,-10815.558152
841.481100,1378.265818,-2488.535504,-7082.754896
841.483602,-2775.674216,-1607.976787,-12078.968485
841.486104,5359.922624,-4594.219392,-10796.415571
841.488606,-6699.903280,6604.190376,-3311.666478
841.491108,5225.924558,-2277.967115,-19295.721446
841.493629,-4594.219392,4575.076811,-2852.244539
841.496150,4421.936165,-3407.379382,-7561.319416
841.498671,-2718.246474,-593.420005,-16730.615619
841.501192,593.420005,-2507.678085,-3943.371645
841.503712,210.568389,-4115.654872,-9552.147819
841.506233,-2775.674216,19.142581,-16634.902715
841.508754,1780.260014,-555.134843,-5321.637462
841.511275,-612.562586,650.847747,-5436.492947
841.513796,1378.265818,-267.996131,-19066.010477
841.516317,-3694.518094,3503.092286,-4919.643266
841.518838,3311.666478,-1914.258080,-7350.751027
841.521359,-1875.972918,-2373.680019,-12729.816232
841.523879,-478.564520,-2239.681954,-7006.184573
841.526400,-1971.685822,-2488.535504,-8614.161360
841.528921,3235.096155,-3905.086483,-14337.793019
841.531442,-1569.691626,2029.113565,-2756.531635
841.533963,1761.117434,-1339.980656,-15601.203352
841.536484,-803.988394,1684.547110,-10681.560086
841.539005,899.701298,535.992262,-4039.084549
841.541525,2163.111630,-1052.841944,-15122.638832
841.544046,-4555.934230,899.701298,-7676.174901
841.546567,2182.254211,-3349.951640,-12346.964616
841.549088,1129.412267,-4345.365842,-5187.639397
841.551609,-2584.248408,-803.988394,-14261.222696
841.554130,918.843878,-861.416136,-7044.469734
841.556651,38.285162,1569.691626,-9265.009107
841.559172,-1244.267752,1531.406464,-10930.413637
841.561692,631.705166,344.566454,-8901.300072
841.564213,-765.703232,229.710970,-8346.165229
841.566734,306.281293,-1990.828403,-11868.400096
841.569255,612.562586,-1780.260014,-6240.481341
841.571776,-3656.232933,-133.998066,-11734.402030
841.574297,-2143.969050,-172.283227,-9169.296203
841.576818,7446.463931,-7331.608446,-8250.452325
841.579339,-1646.261949,-1627.119368,-8690.731683
841.581859,-1052.841944,-1397.408398,-16902.898846
841.584380,-1129.412267,1703.689691,-7618.747158
841.586901,76.570323,803.988394,-2545.963246
841.589422,1512.263883,-861.416136,-21975.682758
841.591943,2048.256146,-937.986459,-1627.119368
841.594474,-3445.664544,2411.965181,-4766.502619
841.597004,3005.385186,-4977.071008,-22779.671152
841.599535,-2373.680019,669.990328,-4173.082614
841.602066,5206.781978,-3388.236802,-9226.723946
841.604597,-9379.864592,3522.234867,-18778.871765
841.607127,3809.373579,-4192.225195,784.845813
841.609658,5436.492947,-5015.356170,-8863.014910
841.612189,-8365.307810,4345.365842,-18683.158861
841.614720,2584.248408,-2737.389054,-5264.209720
841.617251,3675.375514,-2699.103893,-3675.375514
841.619781,-4383.651003,1703.689691,-17209.180139
841.622312,1780.260014,-1416.550979,-9188.438784
841.624843,784.845813,-1588.834206,-1741.974853
841.627374,-2411.965181,57.427742,-17649.459498
841.629904,2373.680019,-3790.230998,-9226.723946
841.632435,-574.277424,-382.851616,-3407.379382
841.634966,823.130974,-2565.105827,-15122.638832
841.637497,-593.420005,-248.853550,-12519.247843
841.640027,803.988394,-823.130974,-3637.090352
841.642558,-2890.529701,325.423874,-16328.621422
841.645089,2852.244539,-2967.100024,-13935.798822
841.647620,4862.215523,-3330.809059,4843.072942
841.650150,-5608.776174,1799.402595,-20865.413072
841.652681,382.851616,-248.853550,-11925.827838
841.655212,612.562586,421.136778,6872.186507
841.657743,-1167.697429,248.853550,-22147.965986
841.660274,172.283227,-2507.678085,-14835.500120
841.662804,-153.140646,-727.418070,4517.649069
841.665335,133.998066,-2813.959378,-17840.885306
841.667866,-1627.119368,-1493.121302,-15869.199483
841.670397,-516.849682,-1014.556782,5876.772306
841.672927,1435.693560,-2737.389054,-16596.617554
841.675458,1301.695494,-1397.408398,-9092.725880
841.677989,-229.710970,918.843878,-7523.034254
841.680520,133.998066,-114.855485,-19908.284032
841.683050,-2699.103893,1837.687757,-1722.832272
841.685581,2526.820666,-2584.248408,-10777.272990
841.688112,-2699.103893,-1091.127106,-17228.322720
841.690643,2105.683888,-3407.379382,-823.130974
841.693173,19.142581,-2871.387120,-12672.388490
841.695613,-3292.523898,1741.974853,-12614.960747
841.698052,2641.676150,-1761.117434,-5589.633594
841.700491,-1378.265818,1933.400661,-8231.309744
841.702931,1473.978722,-1186.840010,-14720.644635
841.705370,-3503.092286,2813.959378,-4039.084549
841.707809,4173.082614,-2890.529701,-10547.562021
841.710248,-5781.059402,1167.697429,-11944.970419
841.712688,3407.379382,-4575.076811,-6527.620053
841.715127,-3215.953574,-1301.695494,-14108.082050
841.717566,1225.125171,-1359.123237,-5915.057467
841.720006,2124.826469,-1780.260014,-10547.562021
841.722445,-1646.261949,1588.834206,-12576.675586
841.724884,1684.547110,-57.427742,-8441.878133
841.727324,-2431.107762,2124.826469,-8537.591037
841.729763,3656.232933,-3905.086483,-14873.785282
841.732202,-3024.527766,1282.552914,-2105.683888
841.734641,2239.681954,-2947.957443,-15543.775610
841.737081,-1741.974853,-746.560651,-9303.294269
841.739520,-267.996131,-1435.693560,-6833.901346
841.741959,1454.836141,-2258.824534,-11657.831707
841.744399,-2297.109696,1416.550979,-9705.288466
841.746838,803.988394,382.851616,-9303.294269
841.749277,-1282.552914,1990.828403,-9456.434915
841.751716,2775.674216,-1416.550979,-9858.429112
841.754156,-3330.809059,-1167.697429,-10432.706536
841.756595,1512.263883,-4345.365842,-8231.309744
841.759034,1512.263883,-3445.664544,-7331.608446
841.761474,-3024.527766,95.712904,-11313.265253
841.763913,4153.940034,-2316.252277,-10719.845248
841.766352,-4651.647134,3675.375514,-6087.340694
841.768792,3024.527766,-593.420005,-14414.363342
841.771231,-191.425808,-1033.699363,-9513.862658
841.773670,-1167.697429,248.853550,-7274.180704
841.776109,1244.267752,-3235.096155,-13706.087853
841.778549,-708.275490,-1339.980656,-6565.905214
841.780988,1875.972918,-3751.945837,-10107.282662
841.783427,-2909.672282,-19.142581,-13591.232368
841.785867,3713.660675,-2603.390989,-6967.899411
841.788306,-2756.531635,3732.803256,-10643.274925
841.790745,3254.238736,-1167.697429,-14644.074312
841.793221,-2335.394858,1684.547110,-2756.531635
841.795696,-478.564520,-1569.691626,-9896.714274
841.798172,1129.412267,-5091.926493,-17190.037558
841.800648,1569.691626,-4230.510357,3235.096155
841.803123,-1531.406464,-3005.385186,-18549.160795
841.805599,-4460.221326,1895.115499,-12691.531070
841.808074,4173.082614,-957.129040,5436.492947
841.810550,-3024.527766,2277.967115,-22683.958248
841.813026,765.703232,-650.847747,-10911.271056
841.815501,880.558717,459.421939,3464.807125
841.817977,-937.986459,-1359.123237,-16347.764003
841.820452,3139.383251,-4402.793584,-16003.197549
841.822928,-5321.637462,1435.693560,8748.159426
841.825404,3522.234867,-6049.055533,-27890.740226
841.827879,-3426.521963,2182.254211,-3062.812928
841.830355,784.845813,1071.984525,-5819.344563
841.832830,-1454.836141,1359.123237,-21611.973723
841.835306,2086.541307,114.855485,1282.552914
841.837781,-248.853550,-918.843878,-11236.694930
841.840257,-2660.818731,-842.273555,-17304.893043
841.842733,1512.263883,-3292.523898,-612.562586
841.845208,-3637.090352,-1244.267752,-11370.692995
841.847684,4268.795518,-5302.494882,-17515.461432
841.850159,-3235.096155,2220.539373,3005.385186
841.852635,-363.709035,555.134843,-14624.931731
841.855111,1684.547110,-1722.832272,-12576.675586
841.857586,-4249.652938,4594.219392,-2737.389054
841.860062,-210.568389,191.425808,-14931.213024
841.862537,5570.491013,-5819.344563,1359.123237
841.865013,421.136778,-4919.643266,-18606.588538
841.867489,-4345.365842,-1301.695494,-9456.434915
841.869964,880.558717,-2756.531635,-8652.446522
841.872440,-1780.260014,2392.822600,-10738.987829
841.874915,1875.972918,1320.838075,-11600.403965
841.877391,-765.703232,4670.789715,-6355.336826
841.879867,-2373.680019,2890.529701,-9896.714274
841.882342,3196.810994,-3043.670347,-13897.513661
841.884818,-3120.240670,-1895.115499,-5742.774240
841.887293,1473.978722,-5532.205851,-10068.997501
841.889769,-1014.556782,-3828.516160,-14012.369146
841.892269,-1014.556782,-765.703232,-5168.496816
841.894769,2163.111630,-1301.695494,-11083.554283
841.897269,-1684.547110,3177.668413,-10279.565890
841.899769,2163.111630,1110.269686,-5915.057467
841.902269,-1110.269686,0.000000,-12366.107197
841.904769,2488.535504,-2603.390989,-10183.852986
841.907269,-2794.816797,-1473.978722,-6221.338760
841.909770,-1129.412267,-3656.232933,-13897.513661
841.912270,3962.514226,-6776.473603,-11581.261384
841.914770,-3254.238736,2813.959378,-2775.674216
841.917270,1703.689691,-325.423874,-17017.754331
841.919770,-325.423874,2737.389054,-8997.012976
841.922270,-1052.841944,2718.246474,-4862.215523
841.924770,1225.125171,-1110.269686,-12959.527202
841.927270,-2316.252277,-631.705166,-10566.704602
841.929770,1646.261949,-3598.805190,-6278.766502
841.932270,114.855485,-2660.818731,-13074.382686
841.934770,-1971.685822,-784.845813,-8269.594906
841.937270,1071.984525,-2124.826469,-8729.016845
841.939770,-191.425808,-19.142581,-12519.247843
841.942270,-535.992262,1301.695494,-6106.483275
841.944770,1397.408398,-842.273555,-9590.432981
841.947271,3464.807125,-4555.934230,-7446.463931
841.949771,-2220.539373,-1033.699363,-17247.465301
841.952271,-880.558717,-38.285162,-7350.751027
841.954771,1550.549045,-2392.822600,-3273.381317
841.957271,-1646.261949,-306.281293,-17324.035624
841.959771,1167.697429,-1091.127106,-9494.720077
841.962271,2986.242605,-937.986459,-4326.223261
841.964771,-3445.664544,-19.142581,-14720.644635
841.967271,-937.986459,-746.560651,-11600.403965
841.969771,3943.371645,-3885.943902,-4632.504554
841.972271,-7235.895542,2220.539373,-15084.353670
841.974771,6853.043926,-6087.340694,-14567.503989
841.977271,-918.843878,1703.689691,1186.840010
841.979771,-3024.527766,2660.818731,-16213.765938
841.982271,6910.471669,-5742.774240,-8977.870395
841.984772,-5781.059402,3311.666478,-4823.930362
841.987272,1741.974853,-3464.807125,-16826.328523
841.989772,-1320.838075,-803.988394,-4249.652938
841.992291,38.285162,-1588.834206,-7523.034254
841.994810,1493.121302,-3369.094221,-16118.053034
841.997329,-2373.680019,1071.984525,-5340.780043
841.999848,3273.381317,-2143.969050,-10279.565890
842.002367,-1588.834206,-267.996131,-12729.816232
842.004886,2392.822600,-1722.832272,-7503.891674
842.007405,2852.244539,-3464.807125,-8480.163294
842.009924,-3139.383251,1148.554848,-15850.056902
842.012443,5111.069074,-5513.063270,-7484.749093
842.014962,-5321.637462,3426.521963,-3924.229064
842.017481,2947.957443,-3522.234867,-17458.033690
842.020000,-995.414202,708.275490,-7714.460062
842.022519,-669.990328,-76.570323,-2986.242605
842.025038,2067.398726,-4211.367776,-19276.578866
842.027557,-3120.240670,-1397.408398,-6297.909083
842.030076,1933.400661,-6374.479406,-8709.874264
842.032595,-2220.539373,-5934.200048,-13725.230434
842.035115,1799.402595,-6910.471669,-7791.030386
842.037634,-1110.269686,-4249.652938,-3579.662610
842.040153,1071.984525,-3656.232933,-18223.736922
842.042672,-727.418070,2105.683888,-5953.342629
842.045191,-535.992262,-248.853550,-13150.953010
842.047710,-325.423874,-6393.621987,-10834.700733
842.050229,803.988394,-5302.494882,-4211.367776
842.052748,-440.279358,-5245.067139,-13552.947206
842.055267,-57.427742,-5647.061336,-11274.980091
842.057786,-440.279358,-4996.213589,-3215.953574
842.060305,765.703232,-4670.789715,-13036.097525
842.062824,-708.275490,669.990328,-13055.240106
842.065343,153.140646,-2048.256146,-2507.678085
842.067862,76.570323,-4192.225195,-12978.669782
842.070381,-19.142581,-4804.787781,-11026.126541
842.072900,-172.283227,-5015.356170,-5130.211654
842.075419,-248.853550,-5723.631659,-14222.937534
842.077938,-229.710970,-229.710970,-8001.598774
842.080457,478.564520,-861.416136,-6163.911018
842.082976,-229.710970,-1933.400661,-15026.925928
842.085495,95.712904,-1933.400661,-4402.793584
842.088015,-803.988394,-4039.084549,-10738.987829
842.090534,191.425808,-8422.735552,-11619.546546
842.092990,-210.568389,-10643.274925,-5857.629725
842.095446,-95.712904,-9820.143950,-11370.692995
842.097903,-421.136778,-3866.801322,-12212.966550
842.100359,-593.420005,-1703.689691,-6068.198114
842.102816,727.418070,-153.140646,-11504.691061
842.105272,-57.427742,957.129040,-9628.718142
842.107729,19.142581,574.277424,-7733.602643
842.110185,-210.568389,-4900.500685,-11179.267187
842.112642,-76.570323,-8958.727814,-7389.036189
842.115098,-650.847747,-6355.336826,-10394.421374
842.117555,-823.130974,-7580.461997,-13150.953010
842.120011,1282.552914,-7618.747158,-1454.836141
842.122467,-191.425808,-3349.951640,-12155.538808
842.124924,-1493.121302,2794.816797,-12442.677520
842.127380,2124.826469,-172.283227,-4383.651003
842.129837,-153.140646,-3177.668413,-14510.076246
842.132293,1244.267752,-4498.506488,-6202.196179
842.134750,-535.992262,-4019.941968,-9379.864592
842.137206,-708.275490,-3349.951640,-14605.789150
842.139663,-76.570323,-2890.529701,-4977.071008
842.142119,555.134843,459.421939,-11619.546546
842.144575,-2469.392923,4421.936165,-13820.943338
842.147032,2622.533570,57.427742,-4019.941968
842.149488,2354.537438,-3024.527766,-8805.587168
842.151945,-5206.781978,2239.681954,-17936.598210
842.154401,3962.514226,-4900.500685,-3445.664544
842.156858,-612.562586,-1990.828403,-13265.808494
842.159314,-3617.947771,-421.136778,-11810.972354
842.161771,4670.789715,-3139.383251,-6604.190376
842.164227,-3349.951640,2679.961312,-9207.581365
842.166684,-1320.838075,535.992262,-15237.494317
842.169140,976.271621,-1014.556782,-4153.940034
842.171596,574.277424,-382.851616,-11370.692995
842.174053,95.712904,-535.992262,-9341.579430
842.176509,-1837.687757,-153.140646,-5436.492947
842.178966,3809.373579,-5742.774240,-11638.689126
842.181422,-4058.227130,1167.697429,-10604.989763
842.183879,-2488.535504,1875.972918,-9609.575562
842.186335,5915.057467,-4651.647134,-9686.145885
842.188792,-5034.498750,3177.668413,-7312.465866
842.191280,2488.535504,-2928.814862,-14586.646570
842.193767,1818.545176,-1665.404530,-3273.381317
842.196255,-3598.805190,-57.427742,-12710.673651
842.198742,2928.814862,-4019.941968,-12729.816232
842.201230,-2297.109696,-669.990328,-2258.824534
842.203717,-1033.699363,-1167.697429,-15888.342064
842.206205,4039.084549,-2737.389054,-15658.631094
842.208692,1282.552914,937.986459,-306.281293
842.211180,-2584.248408,3215.953574,-9743.573627
842.213668,555.134843,-344.566454,-20961.125976
842.216155,-727.418070,937.986459,-957.129040
842.218643,-3005.385186,1282.552914,-7446.463931
842.221130,1895.115499,-4804.787781,-20214.565325
842.223618,918.843878,-4000.799387,-114.855485
842.226105,-2756.531635,-593.420005,-9379.864592
842.228593,440.279358,-2239.681954,-18204.594341
842.231080,172.283227,1454.836141,-287.138712
842.233568,363.709035,535.992262,-11236.694930
842.236055,-248.853550,727.418070,-15677.773675
842.238543,-287.138712,38.285162,-3158.525832
842.241030,1627.119368,-3464.807125,-8384.450390
842.243518,4594.219392,-5800.201982,-15735.201418
842.246005,-7293.323285,4517.649069,-10356.136213
842.248493,-363.709035,478.564520,10643.274925
842.250980,4249.652938,-6795.616184,-31393.832512
842.253468,-6087.340694,3426.521963,-5532.205851
842.255955,4613.361973,-3426.521963,516.849682
842.258443,-2756.531635,650.847747,-24713.071813
842.260930,-1052.841944,1416.550979,-8997.012976
842.263418,2201.396792,-842.273555,5053.641331
842.265905,-2852.244539,76.570323,-25995.624726
842.268393,2488.535504,-1952.543242,3043.670347
842.270880,1033.699363,-2163.111630,-10011.569758
842.273368,-3349.951640,-133.998066,-19448.862093
842.275855,1799.402595,-2316.252277,1320.838075
842.278343,-2124.826469,-631.705166,-14816.357539
842.280831,2086.541307,-3407.379382,-10662.417506
842.283318,-3101.098090,1301.695494,-3790.230998
842.285806,2660.818731,-2105.683888,-14088.939469
842.288293,-95.712904,440.279358,-11236.694930
842.290803,-1799.402595,1205.982590,-3349.951640
842.293313,3043.670347,-2967.100024,-15103.496251
842.295823,-2775.674216,-229.710970,-8805.587168
842.298333,2297.109696,-3235.096155,-7408.178770
842.300843,-1588.834206,-1569.691626,-12691.531070
842.303353,-114.855485,-497.707101,-8441.878133
842.305863,-3024.527766,2431.107762,-7025.327154
842.308373,4555.934230,-3694.518094,-12844.671717
842.310883,-4919.643266,2986.242605,-10356.136213
842.313393,2469.392923,-1761.117434,-3445.664544
842.315903,-1186.840010,-1397.408398,-16615.760134
842.318413,-689.132909,-899.701298,-5761.916821
842.320923,76.570323,-2450.250342,-8748.159426
842.323433,19.142581,-2220.539373,-15352.349802
842.325943,842.273555,-1167.697429,-5608.776174
842.328453,363.709035,-421.136778,-8575.876198
842.330963,-1033.699363,612.562586,-13342.378818
842.333473,-95.712904,76.570323,-5934.200048
842.335983,-1320.838075,803.988394,-12691.531070
842.338494,2507.678085,-3139.383251,-4843.072942
842.341004,-95.712904,-3407.379382,-10126.425243
842.343514,-1875.972918,-784.845813,-16232.908518
842.346024,133.998066,-1263.410333,-5168.496816
842.348534,746.560651,-535.992262,-12002.398162
842.351044,-574.277424,976.271621,-11102.696864
842.353554,-459.421939,1454.836141,-6336.194245
842.356064,38.285162,-19.142581,-10930.413637
842.358574,-1167.697429,-287.138712,-10585.847182
842.361084,-229.710970,-1052.841944,-6202.196179
842.363594,-1761.117434,0.000000,-11619.546546
842.366104,2086.541307,-3943.371645,-8863.014910
842.368614,-1952.543242,-1454.836141,-9571.290400
842.371124,2392.822600,-4192.225195,-8059.026517
842.373634,-1531.406464,555.134843,-16673.187877
842.376144,2373.680019,172.283227,-1052.841944
842.378654,-765.703232,995.414202,-12825.529136
842.381164,-574.277424,0.000000,-13572.089787
842.383674,2124.826469,-1780.260014,-2928.814862
842.386184,-1148.554848,-1837.687757,-14758.929797
842.388694,19.142581,-1703.689691,-11274.980091
842.391156,210.568389,-1627.119368,-5091.926493
842.393617,-306.281293,-842.273555,-13801.800757
842.396079,1301.695494,-1818.545176,-8441.878133
842.398541,95.712904,-1225.125171,-8480.163294
842.401002,363.709035,-631.705166,-16213.765938
842.403464,-1933.400661,2431.107762,-5666.203917
842.405926,1339.980656,-401.994197,-8595.018779
842.408387,-1339.980656,555.134843,-13016.954944
842.410849,-229.710970,-899.701298,-7121.040058
842.413311,593.420005,-3081.955509,-8920.442653
842.415772,-1761.117434,-1741.974853,-13074.382686
842.418234,440.279358,-1646.261949,-8346.165229
842.420696,574.277424,-1741.974853,-6987.041992
842.423157,-191.425808,-1167.697429,-12614.960747
842.425619,2124.826469,-1569.691626,-8958.727814
842.428081,-1378.265818,1244.267752,-5532.205851
842.430542,-1454.836141,1282.552914,-14395.220762
842.433004,3292.523898,-2469.392923,-8307.880067
842.435466,-2048.256146,842.273555,-5627.918755
842.437927,727.418070,-2947.957443,-16922.041427
842.440389,593.420005,-2029.113565,-5953.342629
842.442851,-421.136778,-1225.125171,-9399.007173
842.445312,535.992262,-1014.556782,-14184.652373
842.447774,-1799.402595,976.271621,-7446.463931
842.450236,2105.683888,-1091.127106,-12997.812363
842.452697,-344.566454,-114.855485,-6029.912952
842.455159,401.994197,-1416.550979,-8193.024582
842.457621,-3235.096155,689.132909,-13227.523333
842.460082,2699.103893,-3081.955509,-8518.448456
842.462544,-1148.554848,-803.988394,-5953.342629
842.465006,-344.566454,-1895.115499,-15256.636898
842.467468,440.279358,-1722.832272,-6489.334891
842.469929,-1091.127106,-842.273555,-8020.741355
842.472391,-689.132909,-1071.984525,-9820.143950
842.474853,248.853550,-1244.267752,-16366.906584
842.477314,823.130974,421.136778,-918.843878
842.479776,-1205.982590,631.705166,-11887.542677
842.482238,4517.649069,-3713.660675,-13572.089787
842.484699,-5723.631659,2067.398726,-2641.676150
842.487161,3349.951640,-3771.088418,-14854.642701
842.489653,-191.425808,-1722.832272,-10432.706536
842.492145,-1473.978722,-306.281293,-4957.928427
842.494637,727.418070,-1837.687757,-12442.677520
842.497129,-325.423874,-1320.838075,-10317.851051
842.499621,-4651.647134,1359.123237,-2048.256146
842.502113,1531.406464,-3273.381317,-20329.420810
842.504606,7197.610381,-3771.088418,-10145.567824
842.507098,-4077.369710,5053.641331,4670.789715
842.509590,-3809.373579,3809.373579,-10356.136213
842.512082,2392.822600,-4919.643266,-22990.239541
842.514574,-2852.244539,-248.853550,1339.980656
842.517066,4345.365842,-5589.633594,-5647.061336
842.519558,-2737.389054,-3273.381317,-24311.077616
842.522050,1684.547110,-1837.687757,6278.766502
842.524542,995.414202,-267.996131,-14261.222696
842.527034,-2105.683888,2565.105827,-20865.413072
842.529526,3464.807125,382.851616,4287.938099
842.532018,1550.549045,555.134843,-11906.685258
842.534511,-3943.371645,1186.840010,-17840.885306
842.537003,1359.123237,-2967.100024,2928.814862
842.539495,3560.520029,-6049.055533,-13495.519464
842.541987,-7331.608446,1339.980656,-18759.729184
842.544479,4383.651003,-3751.945837,4766.502619
842.546971,-0.000000,-401.994197,-17534.604013
842.549463,-4881.358104,4039.084549,-14778.072378
842.551955,3617.947771,-1550.549045,-2622.533570
842.554447,306.281293,-57.427742,-8135.596840
842.556939,-3579.662610,1167.697429,-17400.605947
842.559431,3388.236802,-3962.514226,-2163.111630
842.561923,-2067.398726,-1244.267752,-10068.997501
842.564416,1186.840010,-3981.656806,-18759.729184
842.566908,4862.215523,-4287.938099,6814.758765
842.569400,-7695.317482,3483.949706,-26282.763438
842.571892,1186.840010,1091.127106,-6661.618118
842.574384,4919.643266,-1761.117434,-2239.681954
842.576876,-3905.086483,3158.525832,-15486.347867
842.579368,-555.134843,-1607.976787,-20042.282098
842.581860,2297.109696,-2507.678085,6776.473603
842.584352,-4555.934230,1895.115499,-17534.604013
842.586844,5111.069074,-5398.207786,-13055.240106
842.589358,-497.707101,-2297.109696,1646.261949
842.591873,-2775.674216,229.710970,-14701.502054
842.594387,3847.658741,-2048.256146,-12691.531070
842.596901,-2450.250342,3196.810994,-325.423874
842.599415,1435.693560,-1780.260014,-24043.081485
842.601929,-1684.547110,229.710970,-1339.980656
842.604444,1761.117434,-1856.830338,-3177.668413
842.606958,-1990.828403,-2450.250342,-22396.819536
842.609472,191.425808,-1703.689691,-2603.390989
842.611986,-1186.840010,-1167.697429,-7810.172966
842.614500,1320.838075,-1952.543242,-17592.031755
842.617014,-306.281293,-363.709035,-3522.234867
842.619529,-861.416136,727.418070,-7274.180704
842.622043,-478.564520,-1282.552914,-17113.467235
842.624557,459.421939,-229.710970,-3694.518094
842.627071,3617.947771,-2660.818731,-13093.525267
842.629585,-2182.254211,76.570323,-8307.880067
842.632100,-114.855485,-842.273555,-8920.442653
842.634614,-287.138712,-784.845813,-7944.171032
842.637128,516.849682,-1378.265818,-8250.452325
842.639642,-2928.814862,861.416136,-13055.240106
842.642156,3330.809059,-3483.949706,-7905.885870
842.644670,-2947.957443,823.130974,-7274.180704
842.647185,995.414202,-2258.824534,-13074.382686
842.649699,-287.138712,-1761.117434,-10432.706536
842.652213,1493.121302,-1359.123237,-6527.620053
842.654727,-1091.127106,-287.138712,-12174.681389
842.657241,727.418070,-325.423874,-8327.022648
842.659756,114.855485,-1320.838075,-8709.874264
842.662270,-95.712904,-497.707101,-10030.712339
842.664784,267.996131,-1875.972918,-9016.155557
842.667298,-306.281293,-1397.408398,-9226.723946
842.669812,172.283227,267.996131,-12098.111066
842.672326,1378.265818,2201.396792,-10030.712339
842.674841,1990.828403,1205.982590,-9322.436850
842.677355,-2488.535504,5761.916821,-10049.854920
842.679869,2794.816797,2545.963246,-8958.727814
842.682383,-1435.693560,4862.215523,-5283.352301
842.684897,421.136778,3215.953574,-17898.313048
842.687412,-382.851616,535.992262,-4977.071008
842.689943,210.568389,-2679.961312,-7063.612315
842.692475,153.140646,1339.980656,-17400.605947
842.695007,-1397.408398,2622.533570,-5972.485210
842.697539,1110.269686,631.705166,-7140.182638
842.700070,-708.275490,3522.234867,-14280.365277
842.702602,-363.709035,6068.198114,-7886.743290
842.705134,1339.980656,2009.970984,-7714.460062
842.707666,-1856.830338,2928.814862,-14031.511726
842.710197,1148.554848,267.996131,-5781.059402
842.712729,-937.986459,1454.836141,-10930.413637
842.715261,-95.712904,784.845813,-11140.982026
842.717792,267.996131,1052.841944,-7886.743290
842.720324,-267.996131,2163.111630,-10509.276859
842.722856,-57.427742,1914.258080,-10911.271056
842.725388,287.138712,-708.275490,-7331.608446
842.727919,-440.279358,-325.423874,-12002.398162
842.730451,-133.998066,-746.560651,-9686.145885
842.732983,-57.427742,689.132909,-7886.743290
842.735515,229.710970,4383.651003,-11696.116869
842.738046,-478.564520,7408.178770,-9265.009107
842.740578,440.279358,10815.558152,-9131.011042
842.743110,19.142581,7178.467800,-9667.003304
842.745642,153.140646,2890.529701,-8250.452325
842.748173,516.849682,-3273.381317,-8365.307810
842.750705,-1205.982590,-2411.965181,-13074.382686
842.753237,57.427742,-4881.358104,-6987.041992
842.755769,669.990328,-918.843878,-10700.702667
842.758300,-995.414202,3560.520029,-10356.136213
842.760832,784.845813,6719.045861,-10279.565890
842.763364,-172.283227,8882.157491,-9494.720077
842.765896,-440.279358,4957.928427,-9934.999435
842.768427,1167.697429,1493.121302,-8193.024582
842.770959,-191.425808,325.423874,-7982.456194
842.773491,-574.277424,-2297.109696,-14797.214958
842.776023,-2565.105827,-2909.672282,-5130.211654
842.778554,3426.521963,-3101.098090,-12270.394293
842.781086,-2718.246474,3139.383251,-8671.589102
842.783618,2718.246474,382.851616,-9705.288466
842.786150,-382.851616,1454.836141,-9111.868461
842.788681,-937.986459,861.416136,-11772.687192
842.791225,1627.119368,-2507.678085,-8135.596840
842.793769,-1033.699363,-3464.807125,-8901.300072
842.796313,1818.545176,-4900.500685,-12748.958813
842.798857,-918.843878,-2067.398726,-7312.465866
842.801401,784.845813,-1320.838075,-11179.267187
842.803945,-382.851616,459.421939,-10336.993632
842.806489,1186.840010,2852.244539,-8671.589102
842.809033,-2947.957443,3445.664544,-7580.461997
842.811577,1320.838075,-344.566454,-14069.796888
842.814121,-363.709035,-1167.697429,-5015.356170
842.816665,-1301.695494,-1895.115499,-13093.525267
842.819209,-1607.976787,-2545.963246,-11466.405899
842.821753,6872.186507,-7408.178770,-8461.020714
842.824297,-4804.787781,918.843878,-11715.259450
842.826841,153.140646,669.990328,-8690.731683
842.829385,1895.115499,421.136778,-8116.454259
842.831929,-2833.101958,3139.383251,-11734.402030
842.834473,5283.352301,-2469.392923,-8729.016845
842.837017,-6259.623922,1875.972918,-6336.194245
842.839561,2794.816797,-4977.071008,-15333.207221
842.842105,650.847747,-4421.936165,-6240.481341
842.844649,-1416.550979,-823.130974,-8422.735552
842.847193,2048.256146,-3292.523898,-14203.794954
842.849737,-2201.396792,2660.818731,-7044.469734
842.852281,937.986459,1033.699363,-9533.005238
842.854825,516.849682,689.132909,-9207.581365
842.857369,-95.712904,-325.423874,-9054.440718
842.859913,229.710970,-1703.689691,-10011.569758
842.862457,3005.385186,-3732.803256,-9035.298138
842.865001,-5532.205851,306.281293,-6412.764568
842.867545,1167.697429,-4249.652938,-19219.151123
842.870089,1569.691626,-2852.244539,-5072.783912
842.872633,-1646.261949,842.273555,-5245.067139
842.875177,248.853550,-669.990328,-16826.328523
842.877721,153.140646,555.134843,-7637.889739
842.880265,-5379.065205,2641.676150,-4287.938099
842.882809,6451.049730,-5130.211654,-22243.678890
842.885353,-918.843878,-957.129040,5417.350366
842.887897,-1148.554848,-497.707101,-14088.939469
842.890441,2526.820666,-4709.074877,-18108.881437
842.892994,-2584.248408,995.414202,-2852.244539
842.895546,2297.109696,-3311.666478,-13859.228499
842.898099,-3254.238736,1895.115499,-15735.201418
842.900651,1741.974853,-593.420005,-1186.840010
842.903203,497.707101,-38.285162,-8633.303941
842.905756,-2565.105827,229.710970,-19008.582734
842.908308,-689.132909,-555.134843,-2794.816797
842.910861,2603.390989,-3139.383251,-13189.238171
842.913413,-3560.520029,1588.834206,-10011.569758
842.915966,3349.951640,-3407.379382,-3828.516160
842.918518,-267.996131,-1990.828403,-13170.095590
842.921071,421.136778,-2737.389054,-5340.780043
842.923623,-2603.390989,-516.849682,-18644.873699
842.926175,-1091.127106,1703.689691,-1071.984525
842.928728,1167.697429,-76.570323,-7484.749093
842.931280,-2450.250342,1646.261949,-15237.494317
842.933833,2258.824534,-2373.680019,-3809.373579
842.936385,-2756.531635,-555.134843,-10930.413637
842.938938,1454.836141,-4785.645200,-17419.748528
842.941490,-3483.949706,2258.824534,-4039.084549
842.944043,516.849682,-593.420005,-3464.807125
842.946595,6144.768437,-5379.065205,-19448.862093
842.949147,-6010.770371,2737.389054,-8480.163294
842.951700,-76.570323,1225.125171,-3273.381317
842.954252,3330.809059,-2048.256146,-14376.078181
842.956805,-3847.658741,3426.521963,-10107.282662
842.959357,1952.543242,-2220.539373,-6910.471669
842.961910,-1014.556782,-880.558717,-11772.687192
842.964462,-2048.256146,-1052.841944,-10298.708470
842.967015,3656.232933,-4441.078746,-9207.581365
842.969567,-1741.974853,-382.851616,-8059.026517
842.972119,478.564520,-784.845813,-12653.245909
842.974672,133.998066,382.851616,-6604.190376
842.977224,1014.556782,-1550.549045,-12480.962682
842.979777,-1052.841944,172.283227,-8537.591037
842.982329,937.986459,-2009.970984,-9475.577496
842.984882,459.421939,-1952.543242,-11006.983960
842.987434,497.707101,-2143.969050,-9628.718142
842.989987,-976.271621,-19.142581,-10604.989763
842.992539,-248.853550,-1627.119368,-9131.011042
842.995099,995.414202,-937.986459,-12940.384621
842.997658,669.990328,0.000000,-5819.344563
843.000218,-325.423874,1703.689691,-11408.978157
843.002778,-1646.261949,363.709035,-9437.292334
843.005337,1512.263883,-1588.834206,-11140.982026
843.007897,-344.566454,-2048.256146,-5742.774240
843.010457,497.707101,-2909.672282,-11562.118803
843.013016,-957.129040,-1225.125171,-7867.600709
843.015576,-842.273555,133.998066,-7618.747158
843.018136,440.279358,-574.277424,-11964.113000
843.020695,-2009.970984,995.414202,-6317.051664
843.023255,2488.535504,-3062.812928,-10604.989763
843.025815,650.847747,-1799.402595,-9705.288466
843.028374,-1837.687757,727.418070,-8346.165229
843.030934,2507.678085,-2220.539373,-11351.550414
843.033493,-1091.127106,191.425808,-8748.159426
843.036053,1761.117434,-4307.080680,-8403.592971
843.038613,-4096.512291,210.568389,-17151.752397
843.041172,1607.976787,344.566454,-918.843878
843.043732,1741.974853,-631.705166,-13859.228499
843.046292,-1473.978722,1684.547110,-12040.683323
843.048851,1014.556782,-842.273555,76.570323
843.051411,-708.275490,-2048.256146,-17592.031755
843.053971,669.990328,-2086.541307,-9360.722011
843.056530,-2545.963246,612.562586,-669.990328
843.059090,3656.232933,-4632.504554,-16481.762069
843.061650,-2431.107762,401.994197,-10202.995566
843.064209,-1282.552914,957.129040,-325.423874
843.066769,2182.254211,-2890.529701,-19372.291770
843.069329,-3598.805190,2124.826469,-4747.360038
843.071888,3177.668413,-2048.256146,-4249.652938
843.074448,-2488.535504,-937.986459,-18912.869830
843.077008,1014.556782,-1167.697429,-5015.356170
843.079567,-1741.974853,-2277.967115,-5704.489078
843.082127,2067.398726,-3885.943902,-20616.559522
843.084687,-2545.963246,1244.267752,1148.554848
843.087246,3732.803256,-2086.541307,-15811.771741
843.089806,-1684.547110,1799.402595,-12978.669782
843.092366,-1875.972918,3235.096155,2277.967115
843.094925,2048.256146,-2871.387120,-17898.313048
843.097489,-1741.974853,-842.273555,-11657.831707
843.100053,918.843878,-2756.531635,-2488.535504
843.102618,-899.701298,-1282.552914,-14203.794954
843.105182,-325.423874,-1741.974853,-13418.949141
843.107746,-2335.394858,612.562586,-2584.248408
843.110310,2201.396792,-1952.543242,-17649.459498
843.112874,-765.703232,1473.978722,-6891.329088
843.115438,-516.849682,1014.556782,-4000.799387
843.118002,2718.246474,-3196.810994,-18912.869830
843.120566,-4173.082614,1569.691626,-4268.795518
843.123130,3732.803256,-4977.071008,-13342.378818
843.125694,-1875.972918,-1129.412267,-13476.376883
843.128259,382.851616,-1952.543242,-5264.209720
843.130823,765.703232,-1225.125171,-9188.438784
843.133387,-1148.554848,-382.851616,-15964.912387
843.135951,1493.121302,478.564520,-3790.230998
843.138515,-976.271621,1359.123237,-9513.862658
843.141079,-267.996131,842.273555,-16022.340130
843.143643,6776.473603,-5972.485210,8537.591037
843.146207,-2852.244539,-2048.256146,-24349.362778
843.148771,-3120.240670,-918.843878,-11734.402030
843.151336,3464.807125,-861.416136,10700.702667
843.153900,-2947.957443,1761.117434,-24291.935035
843.156464,1071.984525,-803.988394,-20597.416941
843.159028,-1244.267752,1837.687757,1971.685822
843.161592,555.134843,-3177.668413,-21650.258885
843.164156,-363.709035,-1818.545176,-13399.806560
843.166720,-95.712904,-2143.969050,9743.573627
843.169284,-842.273555,-1741.974853,-29804.998306
843.171848,-306.281293,287.138712,-1033.699363
843.174412,4823.930362,-4096.512291,-2871.387120
843.176977,-1512.263883,-650.847747,-21190.836946
843.179544,-1971.685822,2431.107762,-10566.704602
843.182111,2871.387120,-1512.263883,3101.098090
843.184677,-3081.955509,1416.550979,-24636.501490
843.187244,1225.125171,-1607.976787,-2679.961312
843.189811,38.285162,-1378.265818,-3962.514226
843.192378,-1339.980656,-2584.248408,-20961.125976
843.194945,1052.841944,-1684.547110,-9934.999435
843.197512,-918.843878,1129.412267,-10509.276859
843.200079,-1531.406464,516.849682,-21267.407269
843.202646,2258.824534,-1244.267752,10336.993632
843.205213,3541.377448,-3426.521963,-18989.440154
843.207780,-6546.762634,1263.410333,-17343.178205
843.210347,2660.818731,-3407.379382,6106.483275
843.212914,880.558717,-2986.242605,-12959.527202
843.215481,-4977.071008,363.709035,-16922.041427
843.218048,6374.479406,-4402.793584,-4058.227130
843.220615,-3637.090352,3445.664544,-2335.394858
843.223182,459.421939,-248.853550,-26971.896347
843.225749,1875.972918,-765.703232,1607.976787
843.228316,-1244.267752,306.281293,-7408.178770
843.230882,516.849682,-4077.369710,-22243.678890
843.233449,401.994197,-937.986459,-899.701298
843.236016,-1665.404530,-957.129040,-13189.238171
843.238583,-2679.961312,478.564520,-18108.881437
843.241150,3120.240670,-2277.967115,-267.996131
843.243717,-1895.115499,1301.695494,-9092.725880
843.246284,-153.140646,-1052.841944,-20099.709840
843.248851,555.134843,-38.285162,-1091.127106
843.251418,-248.853550,-803.988394,-6891.329088
843.253985,-669.990328,-2373.680019,-21784.256950
843.256552,4651.647134,-4766.502619,2392.822600
843.259119,-2622.533570,-823.130974,-11906.685258
843.261686,-1914.258080,-593.420005,-20865.413072
843.264253,5321.637462,-976.271621,4804.787781
843.266820,-8039.883936,4823.930362,-13916.656242
843.269387,2622.533570,-5245.067139,-18147.166598
843.271954,1052.841944,-2239.681954,2450.250342
843.274521,-133.998066,-2163.111630,-19314.864027
843.277087,-1033.699363,-1799.402595,-24023.938904
843.279654,-1320.838075,1607.976787,11562.118803
843.282174,6948.756830,-4058.227130,-15945.769806
843.284693,-5398.207786,4019.941968,-12921.242040
843.287213,4517.649069,-2411.965181,-6144.768437
843.289732,-3656.232933,1933.400661,-7733.602643
843.292252,-382.851616,-1148.554848,-14624.931731
843.294771,1129.412267,-2641.676150,-2660.818731
843.297291,-1914.258080,-555.134843,-13610.374949
843.299810,325.423874,-2354.537438,-12232.109131
843.302330,-57.427742,-593.420005,-4307.080680
843.304849,-1722.832272,306.281293,-12691.531070
843.307369,861.416136,-2603.390989,-10777.272990
843.309888,-0.000000,-344.566454,-7848.458128
843.312407,765.703232,-1263.410333,-9858.429112
843.314927,114.855485,-650.847747,-14682.359474
843.317446,401.994197,-957.129040,-4115.654872
843.319966,1091.127106,-2622.533570,-11083.554283
843.322485,-3349.951640,-401.994197,-16232.908518
843.325005,2373.680019,-1493.121302,-631.705166
843.327524,-1397.408398,-440.279358,-15888.342064
843.330044,-306.281293,-650.847747,-11121.839445
843.332563,1933.400661,-3905.086483,-363.709035
843.335083,-3081.955509,-4517.649069,-18778.871765
843.337602,3598.805190,-9839.286531,-9150.153622
843.340122,-2622.533570,-4709.074877,2354.537438
843.342641,2067.398726,-6431.907149,-23449.661480
843.345160,-650.847747,-478.564520,-5130.211654
843.347680,153.140646,401.994197,-10547.562021
843.350199,-363.709035,-4498.506488,-17936.598210
843.352719,-555.134843,-4498.506488,2201.396792
843.355238,1339.980656,-4594.219392,-15333.207221
843.357758,-1091.127106,-4709.074877,-14433.505923
843.360277,-0.000000,-5053.641331,-306.281293
843.362797,861.416136,-5781.059402,-12327.822035
843.365316,-784.845813,-3101.098090,-13495.519464
843.367836,38.285162,-1493.121302,-5206.781978
843.370355,-95.712904,-3790.230998,-9743.573627
843.372875,19.142581,-3311.666478,-12902.099459
843.375394,344.566454,-3541.377448,-5474.778109
