#time,accel_x,accel_y,accel_z
249.005142,2528.115143,-148.041188,9474.636058
249.005450,2681.334243,-74.020594,9770.718434
249.005759,2451.505594,-148.041188,9844.739029
249.006067,3140.991542,-74.020594,9696.697840
249.006375,2911.162892,-0.000000,9622.677246
249.006684,3064.381992,296.082377,9474.636058
249.006992,3370.820191,740.205942,9474.636058
249.007300,3524.039291,592.164754,9622.677246
249.007609,3753.867940,592.164754,9474.636058
249.007917,3600.648841,518.144159,8882.471304
249.008225,3677.258390,1036.288319,9030.512492
249.008534,3753.867940,1406.391290,9178.553681
249.008842,3217.601092,814.226536,9326.594869
249.009150,3600.648841,1332.370696,9252.574275
249.009459,3217.601092,1036.288319,9104.533087
249.009767,2987.772442,518.144159,9326.594869
249.010075,2757.943793,-74.020594,10362.883188
249.010384,2528.115143,-592.164754,10732.986159
249.010692,2221.676944,-1110.308913,11251.130318
249.011000,1838.629195,-1110.308913,11399.171507
249.011309,2068.457845,-1332.370696,11399.171507
249.011617,2528.115143,-1258.350101,10955.047942
249.011925,2987.772442,-518.144159,10510.924376
249.012234,3677.258390,-222.061783,9918.759623
249.012542,3677.258390,-148.041188,9474.636058
249.012850,3907.087040,-444.123565,9548.656652
249.013159,4213.525239,-296.082377,9474.636058
249.013467,4443.353888,-370.102971,9104.533087
249.013775,4519.963438,-0.000000,8956.491898
249.014084,4443.353888,-0.000000,9030.512492
249.014392,4366.744339,-74.020594,9104.533087
249.014700,4673.182538,-0.000000,8956.491898
249.015009,4673.182538,148.041188,9030.512492
249.015317,4596.572988,-0.000000,8438.347739
249.015625,5286.058936,-0.000000,9104.533087
249.015934,5209.449386,666.185348,8956.491898
249.016242,5439.278036,666.185348,8364.327145
249.016550,5592.497135,1258.350101,8512.368333
249.016859,5515.887586,1480.411884,8512.368333
249.017167,5515.887586,1554.432478,8660.409521
249.017475,5515.887586,1554.432478,8364.327145
249.017784,5286.058936,1554.432478,8660.409521
249.018092,4979.620737,1480.411884,9104.533087
249.018400,5362.668486,1554.432478,8882.471304
249.018709,3983.696590,1036.288319,9178.553681
249.019017,3983.696590,1184.329507,10362.883188
249.019325,3370.820191,666.185348,10584.944971
249.019634,2528.115143,-74.020594,11325.150913
249.019942,2298.286494,-74.020594,11251.130318
249.020250,1991.848295,-1110.308913,11917.315666
249.020559,2374.896044,-1036.288319,11621.233289
249.020867,2145.067394,-1258.350101,11473.192101
249.021175,2834.553343,-1184.329507,11621.233289
249.021484,2528.115143,-666.185348,10881.027347
249.021792,3370.820191,-592.164754,10436.903782
249.022100,3830.477490,-296.082377,9918.759623
249.022409,4366.744339,-222.061783,9622.677246
249.022717,4903.011187,-0.000000,9474.636058
249.023025,4443.353888,-0.000000,9696.697840
249.023334,4673.182538,-444.123565,9770.718434
249.023642,4903.011187,-370.102971,8882.471304
249.023950,4826.401637,-0.000000,9030.512492
249.024259,4903.011187,-296.082377,9400.615463
249.024567,4749.792088,-0.000000,9400.615463
249.024875,4673.182538,-74.020594,9474.636058
249.025184,4749.792088,-518.144159,9178.553681
249.025492,4903.011187,-148.041188,9104.533087
249.025800,4673.182538,296.082377,8734.430116
249.026109,4596.572988,296.082377,8364.327145
249.026417,4596.572988,1184.329507,8438.347739
249.026725,4596.572988,2146.597232,8068.244768
249.027034,4826.401637,2516.700203,7698.141797
249.027342,4673.182538,3182.885551,7698.141797
249.027650,3907.087040,2960.823768,7846.182985
249.027959,3753.867940,3627.009116,8438.347739
249.028267,3064.381992,2590.720797,9030.512492
249.028575,2757.943793,1036.288319,9992.780217
249.028884,1762.019645,-296.082377,11251.130318
249.029192,383.047749,-1332.370696,11695.253884
249.029500,-459.657299,-2812.782580,12953.603985
249.029809,-689.485948,-3849.070898,14508.036463
249.030117,-459.657299,-3997.112087,14137.933492
249.030425,383.047749,-3701.029710,12953.603985
249.030734,1915.238745,-2812.782580,11769.274478
249.031042,3447.429741,-1110.308913,10584.944971
249.031350,4903.011187,296.082377,8438.347739
249.031659,6281.983084,1702.473667,7105.977043
249.031967,7048.078582,2812.782580,6143.709319
249.032275,6971.469032,3849.070898,5625.565159
249.032584,6818.249932,3923.091493,5181.441594
249.032892,5592.497135,4219.173869,5699.585753
249.033200,4060.306139,3552.988522,6365.771101
249.033509,2681.334243,2886.803174,6513.812290
249.033817,1762.019645,2368.659014,8142.265362
249.034125,536.266849,1184.329507,9178.553681
249.034434,153.219100,-0.000000,10881.027347
249.034742,-842.705048,-1406.391290,10955.047942
249.035050,-1762.019645,-2368.659014,11769.274478
249.035359,-1149.143247,-4071.132681,14434.015869
249.035667,-2068.457845,-4293.194464,14211.954086
249.035975,-1991.848295,-4441.235652,13841.851115
249.036284,-1072.533697,-4441.235652,13175.665768
249.036592,0.000000,-3923.091493,12731.542202
249.036900,689.485948,-3034.844362,11843.295072
249.037209,2145.067394,-2146.597232,10658.965565
249.037517,2604.724693,-1036.288319,8956.491898
249.037825,3370.820191,814.226536,7698.141797
249.038134,4519.963438,1998.556043,6513.812290
249.038442,4903.011187,3330.926739,5773.606348
249.038750,4979.620737,4663.297435,4737.318029
249.039059,4826.401637,5403.503377,4293.194464
249.039367,4443.353888,4663.297435,4885.359217
249.039675,3140.991542,3182.885551,6143.709319
249.039984,1762.019645,2072.576638,7920.203579
249.040292,689.485948,-74.020594,9918.759623
249.040600,-1149.143247,-1924.535449,12213.398043
249.040909,-2528.115143,-3256.906145,13841.851115
249.041217,-3064.381992,-3552.988522,14582.057057
249.041525,-2451.505594,-3404.947333,14359.995275
249.041834,-1378.971896,-2590.720797,12731.542202
249.042142,383.047749,-1258.350101,11177.109724
249.042450,2145.067394,-0.000000,8882.471304
249.042759,2757.943793,1776.494261,7254.018232
249.043067,4903.011187,3478.967927,6439.791695
249.043375,4596.572988,4959.379811,5995.668130
249.043684,4596.572988,5477.523971,5921.647536
249.043992,3447.429741,4219.173869,7031.956449
249.044300,1762.019645,2590.720797,8808.450710
249.044609,459.657299,296.082377,10140.821405
249.044917,-2681.334243,-1776.494261,12509.480420
249.045225,-3830.477490,-4811.338623,15026.180623
249.045534,-4136.915689,-5699.585753,15470.304188
249.045842,-3447.429741,-5329.482782,15470.304188
249.046150,-1991.848295,-4811.338623,14359.995275
249.046459,76.609550,-2738.761985,11695.253884
249.046767,1991.848295,-0.000000,8438.347739
249.047075,4136.915689,1850.514855,6217.729913
249.047384,5669.106685,3849.070898,5329.482782
249.047692,6128.763984,5921.647536,4071.132681
249.048000,6511.811733,6291.750507,3256.906145
249.048309,6052.154434,5699.585753,3108.864956
249.048617,3447.429741,4145.153275,5255.462188
249.048925,1532.190996,592.164754,9178.553681
249.049234,-1608.800546,-3330.926739,12139.377449
249.049542,-3217.601092,-5773.606348,14952.160028
249.049850,-5592.497135,-7254.018232,16580.613101
249.050159,-5592.497135,-8956.491898,17172.777854
249.050467,-2987.772442,-6587.832884,16284.530724
249.050775,-536.266849,-3849.070898,13101.645173
249.051084,2374.896044,-740.205942,9178.553681
249.051392,4673.182538,3182.885551,5699.585753
249.051700,6741.640382,5921.647536,4293.194464
249.052009,8350.440928,8438.347739,2886.803174
249.052317,8427.050478,9400.615463,1702.473667
249.052625,8044.002729,9474.636058,2516.700203
249.052933,6128.763984,6735.874072,3923.091493
249.053241,2528.115143,1850.514855,8364.327145
249.053549,-1225.752797,-2812.782580,12731.542202
249.053857,-4903.011187,-5477.523971,15322.262999
249.054165,-6741.640382,-8142.265362,17246.798449
249.054473,-7737.564530,-9770.718434,19689.478057
249.054781,-4903.011187,-7254.018232,17320.819043
249.055089,-2528.115143,-4589.276840,14434.015869
249.055397,919.314598,-1110.308913,11103.089130
249.055705,3064.381992,3108.864956,6587.832884
249.056013,5209.449386,6513.812290,4811.338623
249.056320,7124.688131,8956.491898,3552.988522
249.056628,7660.954980,10214.842000,1554.432478
249.056936,6971.469032,10066.800811,1332.370696
249.057244,5592.497135,6513.812290,4589.276840
249.057552,2145.067394,1554.432478,8512.368333
249.057860,-1991.848295,-3182.885551,13101.645173
249.058168,-6358.592633,-7698.141797,16506.592507
249.058476,-9269.755526,-10362.883188,17838.963202
249.058784,-8656.879127,-11547.212695,18949.272115
249.059092,-5515.887586,-7994.224174,17098.757260
249.059400,-1762.019645,-4737.318029,12657.521608
249.059708,2757.943793,-222.061783,7179.997637
249.060015,6741.640382,4885.359217,3182.885551
249.060323,8656.879127,8586.388927,1258.350101
249.060631,8733.488677,10807.006753,1110.308913
249.060939,8963.317327,10807.006753,1628.453072
249.061247,6741.640382,10584.944971,962.267725
249.061555,3524.039291,5625.565159,5699.585753
249.061863,-536.266849,-666.185348,11325.150913
249.062171,-4290.134789,-5551.544565,16062.468941
249.062479,-9806.022374,-9770.718434,19097.313304
249.062787,-12640.575717,-14063.912898,20947.828159
249.063095,-11261.603821,-13471.748144,22650.301825
249.063403,-7277.907231,-9474.636058,19245.354492
249.063710,-2834.553343,-4293.194464,12657.521608
249.064018,1991.848295,444.123565,6957.935855
249.064326,4903.011187,5625.565159,3108.864956
249.064634,8044.002729,10066.800811,1554.432478
249.064942,9576.193725,11177.109724,1406.391290
249.065250,9193.145976,12583.501014,-296.082377
249.065558,7201.297681,12065.356855,-1406.391290
249.065866,3983.696590,7624.121203,2812.782580
249.066174,689.485948,-0.000000,11251.130318
249.066482,-4136.915689,-5181.441594,16210.510130
249.066790,-8733.488677,-9104.533087,17838.963202
249.067098,-11338.213370,-11991.336260,19319.375086
249.067405,-10265.679673,-12065.356855,19467.416275
249.067713,-6128.763984,-7920.203579,17764.942608
249.068021,-919.314598,-3552.988522,12139.377449
249.068329,4213.525239,1258.350101,5699.585753
249.068637,7201.297681,6735.874072,1850.514855
249.068945,10418.898773,10881.027347,1850.514855
249.069253,10878.556072,10807.006753,888.247130
249.069561,8810.098227,11473.192101,-1480.411884
249.069869,6511.811733,9770.718434,2072.576638
249.070177,2681.334243,3330.926739,7698.141797
249.070485,-1608.800546,-3034.844362,14434.015869
249.070793,-5362.668486,-7624.121203,18875.251521
249.071100,-9806.022374,-10955.047942,19171.333898
249.071408,-11797.870669,-14508.036463,20799.786970
249.071716,-10955.165621,-13989.892304,22354.219448
249.072024,-6511.811733,-9474.636058,19319.375086
249.072332,-153.219100,-2738.761985,11103.089130
249.072640,4673.182538,3108.864956,3627.009116
249.072948,8197.221829,8364.327145,518.144159
249.073256,11874.480219,11547.212695,0.000000
249.073564,11338.213370,12139.377449,-888.247130
249.073872,9499.584175,13101.645173,-1554.432478
249.074180,8197.221829,9844.739029,1258.350101
249.074488,2911.162892,4589.276840,5033.400406
249.074795,-1149.143247,-2368.659014,12805.562797
249.075103,-4060.306139,-7105.977043,17987.004391
249.075411,-9346.365076,-9992.780217,17394.839637
249.075719,-11414.822920,-13175.665768,20059.581028
249.076027,-9576.193725,-12435.459826,20873.807564
249.076335,-4903.011187,-6883.915261,17172.777854
249.076643,76.609550,-1554.432478,10214.842000
249.076951,5362.668486,3923.091493,4071.132681
249.077259,9346.365076,9992.780217,222.061783
249.077567,11338.213370,11399.171507,962.267725
249.077875,12180.918418,13175.665768,962.267725
249.078183,9116.536426,12065.356855,-1628.453072
249.078490,5286.058936,8216.285956,2886.803174
249.078798,1149.143247,814.226536,9918.759623
249.079106,-3140.991542,-4367.215058,16654.633695
249.079414,-7201.297681,-10436.903782,19837.519246
249.079722,-10418.898773,-11917.315666,19393.395680
249.080030,-10265.679673,-14063.912898,21243.910535
249.080338,-9193.145976,-12879.583391,21539.992912
249.080646,-3983.696590,-7105.977043,17024.736666
249.080954,1915.238745,-0.000000,9178.553681
249.081262,6205.373534,5551.544565,2664.741391
249.081570,10572.117872,10510.924376,518.144159
249.081878,13023.623466,11177.109724,370.102971
249.082185,11414.822920,13545.768739,-4145.153275
249.082493,9959.241474,12731.542202,-1924.535449
249.082801,6971.469032,7846.182985,3108.864956
249.083109,1072.533697,1110.308913,8512.368333
249.083417,-2604.724693,-4811.338623,16432.571912
249.083725,-7660.954980,-9400.615463,18357.107362
249.084033,-11797.870669,-12287.418637,18653.189738
249.084341,-11031.775171,-14730.098246,21688.034101
249.084649,-8656.879127,-11251.130318,20725.766376
249.084957,-3217.601092,-5551.544565,14952.160028
249.085265,2221.676944,148.041188,7698.141797
249.085573,6818.249932,6291.750507,1850.514855
249.085880,10418.898773,10510.924376,370.102971
249.086188,11874.480219,10955.047942,814.226536
249.086496,11108.384721,12065.356855,-1702.473667
249.086804,8580.269578,11695.253884,-222.061783
249.087112,3294.210641,5625.565159,5921.647536
249.087420,-1378.971896,-1110.308913,11843.295072
249.087728,-4519.963438,-6661.853478,19023.292709
249.088036,-8963.317327,-10140.821405,19911.539840
249.088344,-11874.480219,-12657.521608,19467.416275
249.088652,-11031.775171,-14285.974681,22132.157666
249.088960,-7814.174080,-10881.027347,20429.683999
249.089268,-3064.381992,-4737.318029,14211.954086
249.089575,3677.258390,1702.473667,6735.874072
249.089883,6818.249932,7550.100608,592.164754
249.090191,11184.994271,11917.315666,888.247130
249.090499,12487.356617,12287.418637,-814.226536
249.090807,10112.460574,13323.706956,-2812.782580
249.091115,8733.488677,11621.233289,-592.164754
249.091423,3370.820191,5625.565159,5181.441594
249.091731,-1225.752797,-1036.288319,11843.295072
249.092039,-5286.058936,-6809.894666,18209.066173
249.092347,-9269.755526,-10140.821405,18949.272115
249.092655,-12027.699319,-12657.521608,19171.333898
249.092962,-11414.822920,-13693.809927,21539.992912
249.093270,-7354.516781,-9326.594869,19245.354492
249.093578,-1915.238745,-3552.988522,13027.624579
249.093886,3524.039291,2368.659014,6217.729913
249.094194,7354.516781,7254.018232,962.267725
249.094502,11261.603821,12213.398043,0.000000
249.094810,11721.261119,11991.336260,-592.164754
249.095118,10342.289223,12065.356855,-1110.308913
249.095426,7584.345430,10436.903782,666.185348
249.095734,2451.505594,3923.091493,6809.894666
249.096042,-2528.115143,-3034.844362,14582.057057
249.096350,-5669.106685,-9104.533087,19837.519246
249.096657,-10725.336972,-11843.295072,20577.725188
249.096965,-12947.013916,-14211.954086,20725.766376
249.097273,-11184.994271,-14063.912898,22206.178260
249.097581,-6818.249932,-9178.553681,18949.272115
249.097889,-1149.143247,-2072.576638,11177.109724
249.098197,5056.230287,4145.153275,4293.194464
249.098505,8197.221829,9696.697840,-1332.370696
249.098813,11568.042020,11843.295072,0.000000
249.099121,12563.966167,13619.789333,-888.247130
249.099429,10418.898773,13323.706956,-2960.823768
249.099737,7584.345430,9474.636058,740.205942
249.100045,3140.991542,4145.153275,6069.688724
249.100352,-2451.505594,-3108.864956,13101.645173
249.100660,-5745.716235,-9030.512492,18431.127956
249.100968,-10725.336972,-11843.295072,18579.169144
249.101276,-11031.775171,-13471.748144,20503.704593
249.101584,-9193.145976,-12435.459826,20133.601622
249.101892,-4596.572988,-6883.915261,16876.695478
249.102200,1072.533697,-444.123565,9844.739029
249.102508,6588.421283,4515.256246,3552.988522
249.102816,9652.803275,9474.636058,-148.041188
249.103124,12104.308868,11399.171507,0.000000
249.103432,12180.918418,12509.480420,-740.205942
249.103740,9193.145976,12435.459826,-444.123565
249.104047,5132.839837,7105.977043,3701.029710
249.104355,689.485948,444.123565,10510.924376
249.104663,-3983.696590,-4885.359217,17246.798449
249.104971,-6971.469032,-10066.800811,20577.725188
249.105279,-11261.603821,-12509.480420,19911.539840
249.105587,-11184.994271,-14285.974681,21243.910535
249.105895,-9576.193725,-12361.439231,20577.725188
249.106203,-3830.477490,-6439.791695,16728.654289
249.106511,2221.676944,592.164754,8882.471304
249.106819,6894.859482,5773.606348,2294.638420
249.107127,9576.193725,10510.924376,-1258.350101
249.107435,12104.308868,11991.336260,0.000000
249.107742,11721.261119,13175.665768,-962.267725
249.108050,9193.145976,11991.336260,-1184.329507
249.108358,5439.278036,7179.997637,2886.803174
249.108666,919.314598,1776.494261,8290.306550
249.108974,-3140.991542,-4663.297435,16062.468941
249.109282,-6511.811733,-9178.553681,18579.169144
249.109590,-10572.117872,-11103.089130,18209.066173
249.109898,-10342.289223,-12657.521608,20577.725188
249.110206,-8197.221829,-10140.821405,19467.416275
249.110514,-1762.019645,-4145.153275,14730.098246
249.110822,2604.724693,1258.350101,8142.265362
249.111130,6741.640382,5403.503377,1850.514855
249.111437,10265.679673,10436.903782,888.247130
249.111745,11261.603821,11103.089130,888.247130
249.112053,10265.679673,11843.295072,0.000000
249.112361,7967.393179,10955.047942,740.205942
249.112669,3830.477490,5773.606348,5329.482782
249.112977,-1149.143247,-1850.514855,12361.439231
249.113285,-4903.011187,-7179.997637,19467.416275
249.113593,-8733.488677,-10584.944971,21836.075289
249.113901,-11874.480219,-13249.686362,20355.663405
249.114209,-10955.165621,-14211.954086,21614.013506
249.114517,-8197.221829,-10584.944971,19985.560434
249.114825,-2528.115143,-4367.215058,14211.954086
249.115132,3447.429741,2886.803174,6143.709319
249.115440,7737.564530,8882.471304,0.000000
249.115748,11108.384721,10955.047942,222.061783
249.116056,12180.918418,13101.645173,-222.061783
249.116364,10495.508323,13101.645173,-2442.679609
249.116672,8044.002729,10732.986159,0.000000
249.116980,3983.696590,5329.482782,5551.544565
249.117288,-842.705048,-962.267725,11325.150913
249.117596,-4213.525239,-6365.771101,17468.860231
249.117904,-9039.926876,-9622.677246,17690.922014
249.118212,-11568.042020,-12139.377449,18801.230927
249.118520,-10878.556072,-12583.501014,21021.848753
249.118827,-7354.516781,-9178.553681,18653.189738
249.119135,-1072.533697,-3108.864956,12805.562797
249.119443,4136.915689,2960.823768,5625.565159
249.119751,7737.564530,8364.327145,-666.185348
249.120059,10342.289223,10807.006753,0.000000
249.120367,10878.556072,12065.356855,740.205942
249.120675,10112.460574,12139.377449,-444.123565
249.120983,6205.373534,8808.450710,1554.432478
249.121291,1072.533697,2442.679609,8142.265362
249.121599,-3600.648841,-4293.194464,15396.283594
249.121907,-7201.297681,-9030.512492,20355.663405
249.122215,-11338.213370,-12731.542202,20503.704593
249.122522,-12410.747068,-14211.954086,21095.869347
249.122830,-10342.289223,-13323.706956,21317.931130
249.123138,-5822.325785,-8882.471304,17394.839637
249.123446,766.095498,-740.205942,10510.924376
249.123754,6205.373534,5033.400406,3108.864956
249.124062,9269.755526,9992.780217,-444.123565
249.124370,12180.918418,10436.903782,-296.082377
249.124678,12257.527968,13323.706956,-2886.803174
249.124986,10035.851024,13323.706956,-3108.864956
249.125294,7584.345430,8660.409521,1998.556043
249.125602,2221.676944,3256.906145,6957.935855
249.125910,-2068.457845,-3182.885551,14730.098246
249.126217,-5898.935335,-8142.265362,19097.313304
249.126525,-10418.898773,-10955.047942,18357.107362
249.126833,-11184.994271,-12213.398043,20059.581028
249.127141,-9269.755526,-10658.965565,19393.395680
249.127449,-4136.915689,-6735.874072,16876.695478
249.127757,1149.143247,-148.041188,10362.883188
249.128065,6128.763984,4589.276840,3478.967927
249.128373,8733.488677,8734.430116,444.123565
249.128681,11031.775171,10288.862594,1110.308913
249.128989,10572.117872,11769.274478,0.000000
249.129297,8197.221829,11177.109724,0.000000
249.129605,4366.744339,6365.771101,4885.359217
249.129912,-306.438199,-888.247130,11325.150913
249.130220,-4060.306139,-6661.853478,18875.251521
249.130528,-7431.126331,-10584.944971,21095.869347
249.130836,-10572.117872,-13101.645173,20059.581028
249.131144,-11031.775171,-13323.706956,20947.828159
249.131452,-8350.440928,-11695.253884,20207.622217
249.131760,-2528.115143,-7031.956449,15322.262999
249.132068,2911.162892,3256.906145,5847.626942
249.132376,7584.345430,7994.224174,-370.102971
249.132684,11184.994271,10807.006753,518.144159
249.132992,12180.918418,12139.377449,-518.144159
249.133300,10801.946522,12731.542202,-2590.720797
249.133607,9729.412825,11843.295072,-888.247130
249.133915,5515.887586,7179.997637,3627.009116
249.134223,306.438199,1110.308913,8882.471304
249.134531,-2987.772442,-4959.379811,16876.695478
249.134839,-8197.221829,-9178.553681,19171.333898
249.135147,-11568.042020,-12509.480420,19985.560434
249.135455,-11108.384721,-12953.603985,21614.013506
249.135763,-7890.783629,-10140.821405,19837.519246
249.136071,-2987.772442,-4959.379811,14656.077652
249.136379,2528.115143,1924.535449,7179.997637
249.136687,7737.564530,7254.018232,1480.411884
249.136995,9422.974625,8808.450710,1628.453072
249.137302,11338.213370,12953.603985,-296.082377
249.137610,10035.851024,13101.645173,-814.226536
249.137918,7201.297681,9770.718434,2294.638420
249.138226,2451.505594,4367.215058,6883.915261
249.138534,-1762.019645,-2368.659014,14285.974681
249.138842,-4749.792088,-7476.080014,20207.622217
249.139150,-9806.022374,-11769.274478,19541.436869
249.139458,-10725.336972,-13767.830521,20503.704593
249.139766,-10265.679673,-13175.665768,20873.807564
249.140074,-7277.907231,-10362.883188,18579.169144
249.140382,-153.219100,-3330.926739,12509.480420
249.140690,4136.915689,3478.967927,4441.235652
249.140997,8197.221829,7920.203579,1332.370696
249.141305,12180.918418,10066.800811,-222.061783
249.141613,12563.966167,14211.954086,-4441.235652
249.141921,10725.336972,13767.830521,-3108.864956
249.142229,8580.269578,9696.697840,1480.411884
249.142537,3447.429741,4885.359217,5921.647536
249.142845,-1991.848295,-1998.556043,13175.665768
249.143153,-4596.572988,-6661.853478,18653.189738
249.143461,-10035.851024,-10881.027347,18357.107362
249.143769,-11568.042020,-12879.583391,19763.498651
249.144077,-10955.165621,-11917.315666,20133.601622
249.144385,-6511.811733,-9104.533087,18135.045579
249.144692,-919.314598,-2146.597232,11843.295072
249.145000,4673.182538,3923.091493,4737.318029
249.145308,8580.269578,7772.162391,814.226536
249.145616,10572.117872,9474.636058,296.082377
249.145924,11338.213370,12287.418637,-1924.535449
249.146232,9652.803275,12213.398043,-518.144159
249.146540,6128.763984,8068.244768,3627.009116
249.146848,1149.143247,2294.638420,8586.388927
249.147156,-2834.553343,-4515.256246,16432.571912
249.147464,-5975.544884,-9400.615463,20429.683999
249.147772,-11874.480219,-12287.418637,19467.416275
249.148080,-11184.994271,-14434.015869,21317.931130
249.148388,-9806.022374,-12287.418637,19763.498651
249.148695,-5286.058936,-7624.121203,16728.654289
249.149003,1225.752797,-222.061783,9474.636058
249.149311,6281.983084,6587.832884,1184.329507
249.149619,8810.098227,9104.533087,740.205942
249.149927,12180.918418,11325.150913,370.102971
249.150235,11797.870669,12805.562797,-3182.885551
249.150543,9806.022374,12361.439231,-2294.638420
249.150851,7124.688131,7772.162391,2812.782580
249.151159,1225.752797,3034.844362,7105.977043
249.151467,-2681.334243,-3775.050304,15248.242405
249.151775,-6971.469032,-8512.368333,19023.292709
249.152083,-10955.165621,-11473.192101,19541.436869
249.152391,-11644.651570,-12879.583391,20799.786970
249.152698,-9269.755526,-10658.965565,19245.354492
249.153006,-4673.182538,-6809.894666,16580.613101
249.153314,1685.410096,-74.020594,8808.450710
249.153622,6435.202183,6291.750507,1924.535449
249.153930,8810.098227,8068.244768,1998.556043
249.154238,11568.042020,12287.418637,-592.164754
249.154546,10648.727422,13471.748144,-1554.432478
249.154854,8733.488677,10881.027347,1850.514855
249.155162,4366.744339,5107.421000,5699.585753
249.155470,-689.485948,-740.205942,11991.336260
249.155778,-4366.744339,-6587.832884,18801.230927
249.156086,-9039.926876,-11103.089130,20059.581028
249.156393,-11261.603821,-12953.603985,20355.663405
249.156701,-11414.822920,-13027.624579,21169.889941
249.157009,-8350.440928,-11473.192101,19985.560434
249.157317,-2757.943793,-5551.544565,14359.995275
249.157625,3447.429741,2664.741391,6291.750507
249.157933,8733.488677,6883.915261,1924.535449
249.158241,10725.336972,9030.512492,296.082377
249.158549,12717.185267,12657.521608,-2442.679609
249.158857,10725.336972,14211.954086,-4071.132681
249.159165,9576.193725,10288.862594,1776.494261
249.159473,4673.182538,6069.688724,4293.194464
249.159781,-229.828649,1110.308913,11177.109724
249.160089,-3677.258390,-5625.565159,17394.839637
249.160396,-9039.926876,-10362.883188,18505.148550
249.160704,-11644.651570,-12065.356855,20207.622217
249.161012,-11797.870669,-11917.315666,20355.663405
249.161320,-8273.831378,-10288.862594,20133.601622
249.161628,-2068.457845,-3997.112087,13397.727550
249.161936,3447.429741,4589.276840,5107.421000
249.162244,8427.050478,6439.791695,1850.514855
249.162552,10878.556072,9770.718434,666.185348
249.162860,12180.918418,13101.645173,-1258.350101
249.163168,9729.412825,12583.501014,-1998.556043
249.163476,7584.345430,8956.491898,2886.803174
249.163784,2451.505594,3478.967927,7994.224174
249.164092,-2374.896044,-2368.659014,13101.645173
249.164399,-6205.373534,-8364.327145,19319.375086
249.164707,-10418.898773,-12361.439231,21021.848753
249.165015,-12104.308868,-12879.583391,21391.951724
249.165323,-10725.336972,-13175.665768,21021.848753
249.165631,-6971.469032,-10140.821405,18875.251521
249.165939,0.000000,-1554.432478,11103.089130
249.166247,5669.106685,5329.482782,2368.659014
249.166555,8733.488677,6883.915261,1406.391290
249.166863,12640.575717,11547.212695,-814.226536
249.167171,12257.527968,14211.954086,-4293.194464
249.167479,11568.042020,12657.521608,-1332.370696
249.167787,8963.317327,9030.512492,2220.617826
249.168094,3600.648841,5033.400406,5847.626942
249.168402,-1072.533697,-1184.329507,12435.459826
249.168710,-5898.935335,-7550.100608,17024.736666
249.169018,-10189.070123,-10732.986159,19615.457463
249.169326,-12104.308868,-12287.418637,20503.704593
249.169634,-10648.727422,-11769.274478,20429.683999
249.169942,-5592.497135,-8068.244768,17912.983796
249.170250,0.000000,-1480.411884,10362.883188
249.170558,5439.278036,4145.153275,3997.112087
249.170866,8427.050478,7920.203579,518.144159
249.171174,11874.480219,11029.068536,222.061783
249.171482,11721.261119,13101.645173,-814.226536
249.171790,9422.974625,11843.295072,-296.082377
249.172097,5209.449386,6809.894666,5181.441594
249.172405,153.219100,962.267725,10584.944971
249.172713,-4136.915689,-5255.462188,16580.613101
249.173021,-7890.783629,-9770.718434,19763.498651
249.173329,-11721.261119,-12435.459826,20429.683999
249.173637,-11338.213370,-13545.768739,21688.034101
249.173945,-9729.412825,-12287.418637,19615.457463
249.174253,-4060.306139,-7179.997637,16210.510130
249.174561,2451.505594,888.247130,7698.141797
249.174869,7048.078582,5921.647536,888.247130
249.175177,10495.508323,9918.759623,222.061783
249.175485,12793.794817,11991.336260,-1480.411884
249.175792,11491.432470,13989.892304,-2960.823768
249.176100,9652.803275,11991.336260,-1258.350101
249.176408,6052.154434,7254.018232,4367.215058
249.176716,612.876398,1850.514855,8512.368333
249.177024,-3217.601092,-4219.173869,14878.139434
249.177332,-7584.345430,-8364.327145,18949.272115
249.177640,-10955.165621,-12139.377449,20429.683999
249.177948,-12180.918418,-12879.583391,21539.992912
249.178256,-9729.412825,-11325.150913,20577.725188
249.178564,-2987.772442,-5773.606348,15618.345376
249.178872,2221.676944,1702.473667,6957.935855
249.179180,7354.516781,5847.626942,1998.556043
249.179488,10189.070123,9252.574275,888.247130
249.179795,11491.432470,12213.398043,-1554.432478
249.180103,10572.117872,12953.603985,-444.123565
249.180411,7814.174080,10658.965565,1554.432478
249.180719,3370.820191,4737.318029,7105.977043
249.181027,-1991.848295,-1776.494261,13249.686362
249.181335,-4903.011187,-6217.729913,18727.210333
249.181643,-9729.412825,-11177.109724,19615.457463
249.181951,-11797.870669,-13767.830521,20799.786970
249.182259,-10878.556072,-12953.603985,21688.034101
249.182567,-7814.174080,-10955.047942,19911.539840
249.182875,-1225.752797,-3627.009116,13027.624579
249.183183,4060.306139,3182.885551,4737.318029
249.183491,8656.879127,7105.977043,1628.453072
249.183798,11568.042020,9474.636058,-444.123565
249.184106,12870.404366,12805.562797,-3256.906145
249.184414,11338.213370,13249.686362,-2368.659014
249.184722,9346.365076,9474.636058,1258.350101
249.185030,4443.353888,5551.544565,4959.379811
249.185338,-842.705048,-592.164754,11547.212695
249.185646,-4136.915689,-5995.668130,17098.757260
249.185954,-10035.851024,-9770.718434,18061.024985
249.186262,-11261.603821,-12509.480420,20651.745782
249.186570,-10648.727422,-11769.274478,21021.848753
249.186878,-5822.325785,-9104.533087,18505.148550
249.187186,0.000000,-2738.761985,11399.171507
249.187493,4979.620737,3330.926739,4293.194464
249.187801,9269.755526,7920.203579,1628.453072
249.188109,11031.775171,10362.883188,0.000000
249.188417,11874.480219,12879.583391,-518.144159
249.188725,9576.193725,12213.398043,-370.102971
249.189033,6435.202183,8364.327145,3923.091493
249.189341,1225.752797,1554.432478,9474.636058
249.189649,-3524.039291,-4441.235652,15248.242405
249.189957,-6435.202183,-8068.244768,19541.436869
249.190265,-11031.775171,-11843.295072,19467.416275
249.190573,-11568.042020,-13323.706956,21317.931130
249.190881,-10035.851024,-12361.439231,21021.848753
249.191189,-4979.620737,-7994.224174,17394.839637
249.191496,1225.752797,-962.267725,9178.553681
249.191804,5209.449386,4145.153275,3034.844362
249.192112,9039.926876,9104.533087,370.102971
249.192420,11491.432470,10436.903782,0.000000
249.192728,12180.918418,13397.727550,-2220.617826
249.193036,9806.022374,12509.480420,-1628.453072
249.193344,6818.249932,7846.182985,2886.803174
249.193652,1685.410096,2738.761985,7105.977043
249.193960,-2374.896044,-3034.844362,14508.036463
249.194268,-6128.763984,-7550.100608,18431.127956
249.194576,-10495.508323,-10807.006753,18579.169144
249.194884,-11414.822920,-13175.665768,20355.663405
249.195192,-9729.412825,-11695.253884,19837.519246
249.195499,-4213.525239,-6217.729913,15692.365970
249.195807,1532.190996,222.061783,8660.409521
249.196115,6281.983084,5699.585753,2220.617826
249.196423,8963.317327,8808.450710,1480.411884
249.196731,11338.213370,11843.295072,444.123565
249.197039,10878.556072,12953.603985,-370.102971
249.197347,8044.002729,10436.903782,0.000000
249.197655,4290.134789,5551.544565,5847.626942
249.197963,-689.485948,-740.205942,12361.439231
249.198271,-4519.963438,-5403.503377,17394.839637
249.198579,-9039.926876,-10140.821405,19615.457463
249.198887,-11184.994271,-12953.603985,20133.601622
249.199194,-10648.727422,-13027.624579,21465.972318
249.199502,-8580.269578,-11843.295072,20725.766376
249.199810,-3294.210641,-4811.338623,13323.706956
249.200118,3370.820191,1332.370696,7328.038826
249.200426,7431.126331,6143.709319,2368.659014
249.200734,9882.631924,8882.471304,148.041188
249.201042,12410.747068,11695.253884,-1332.370696
249.201350,11261.603821,13323.706956,-3404.947333
249.201658,9346.365076,10510.924376,370.102971
249.201966,5515.887586,6661.853478,3775.050304
249.202274,0.000000,1554.432478,9992.780217
249.202582,-3064.381992,-4589.276840,16432.571912
249.202890,-8580.269578,-8956.491898,17616.901420
249.203197,-10725.336972,-11843.295072,19837.519246
249.203505,-10955.165621,-12065.356855,20577.725188
249.203813,-8197.221829,-9918.759623,19467.416275
249.204121,-2451.505594,-4145.153275,13619.789333
249.204429,3370.820191,2960.823768,6587.832884
249.204737,6818.249932,5773.606348,2738.761985
249.205045,9729.412825,9474.636058,740.205942
249.205353,11797.870669,12287.418637,-518.144159
249.205661,10035.851024,12657.521608,-1554.432478
249.205969,7431.126331,9030.512492,1850.514855
249.206277,2451.505594,3256.906145,7550.100608
249.206585,-1532.190996,-2294.638420,13101.645173
249.206893,-5209.449386,-7105.977043,18431.127956
249.207200,-10112.460574,-11103.089130,18875.251521
249.207508,-11491.432470,-12509.480420,20281.642811
249.207816,-10342.289223,-12361.439231,20947.828159
249.208124,-6971.469032,-9326.594869,18653.189738
249.208432,-612.876398,-2146.597232,11917.315666
249.208740,4596.572988,3256.906145,5107.421000
249.209048,7814.174080,7402.059420,1480.411884
249.209356,10648.727422,9104.533087,148.041188
249.209664,12334.137518,12287.418637,-1924.535449
249.209972,10342.289223,12509.480420,-2146.597232
249.210280,8120.612279,9400.615463,1258.350101
249.210588,3677.258390,4663.297435,5255.462188
249.210895,-919.314598,-1406.391290,11917.315666
249.211203,-4596.572988,-6735.874072,17838.963202
249.211511,-9346.365076,-10288.862594,18283.086767
249.211819,-11184.994271,-13027.624579,20429.683999
249.212127,-10189.070123,-12139.377449,20799.786970
249.212435,-6358.592633,-8216.285956,17542.880825
249.212743,-459.657299,-1554.432478,10955.047942
249.213051,4903.011187,4515.256246,4737.318029
249.213359,7660.954980,7920.203579,1924.535449
249.213667,11031.775171,11325.150913,444.123565
249.213975,11108.384721,12213.398043,-370.102971
249.214283,9269.755526,11177.109724,-1184.329507
249.214591,5898.935335,7105.977043,3775.050304
249.214898,842.705048,1480.411884,9474.636058
249.215206,-3064.381992,-4219.173869,15544.324782
249.215514,-7277.907231,-8142.265362,19171.333898
249.215822,-10189.070123,-11769.274478,19615.457463
249.216130,-10878.556072,-13027.624579,21243.910535
249.216438,-9729.412825,-11695.253884,20725.766376
249.216746,-4519.963438,-7179.997637,17246.798449
249.217054,1302.362347,-222.061783,9844.739029
249.217362,5515.887586,5033.400406,3404.947333
249.217670,8963.317327,7846.182985,1480.411884
249.217978,11797.870669,11843.295072,-1110.308913
249.218286,11874.480219,12731.542202,-2146.597232
249.218593,10725.336972,11325.150913,-740.205942
249.218901,6205.373534,7994.224174,2960.823768
249.219209,2451.505594,2590.720797,7994.224174
249.219517,-2068.457845,-3256.906145,14359.995275
249.219825,-6511.811733,-8290.306550,18505.148550
249.220133,-9652.803275,-11769.274478,18949.272115
249.220441,-11031.775171,-12435.459826,20799.786970
249.220749,-8886.707777,-11399.171507,19467.416275
249.221057,-3677.258390,-5995.668130,15840.407159
249.221365,2145.067394,2220.617826,8512.368333
249.221673,6511.811733,5255.462188,3404.947333
249.221981,9806.022374,9178.553681,1406.391290
249.222289,11568.042020,11843.295072,-740.205942
249.222596,10572.117872,12509.480420,-1776.494261
249.222904,8350.440928,9992.780217,1554.432478
249.223212,4443.353888,4737.318029,6069.688724
249.223520,-766.095498,-962.267725,11769.274478
249.223828,-4366.744339,-5477.523971,17394.839637
249.224136,-8810.098227,-10214.842000,19393.395680
249.224444,-11414.822920,-12657.521608,20503.704593
249.224752,-10878.556072,-12139.377449,21169.889941
249.225060,-8580.269578,-11029.068536,20207.622217
249.225368,-2911.162892,-4737.318029,14508.036463
249.225676,2068.457845,1998.556043,6661.853478
249.225984,7507.735880,5699.585753,2368.659014
249.226292,10035.851024,9030.512492,740.205942
249.226599,11951.089769,12361.439231,-1702.473667
249.226907,11031.775171,12953.603985,-2294.638420
249.227215,8886.707777,10658.965565,0.000000
249.227523,4903.011187,6217.729913,3997.112087
249.227831,0.000000,518.144159,10140.821405
249.228139,-3217.601092,-5107.421000,16654.633695
249.228447,-8350.440928,-9844.739029,18357.107362
249.228755,-11031.775171,-13175.665768,19615.457463
249.229063,-10572.117872,-12805.562797,21021.848753
249.229371,-7814.174080,-9548.656652,18209.066173
249.229679,-1991.848295,-2590.720797,13101.645173
249.229987,3524.039291,3775.050304,5033.400406
249.230294,7048.078582,7179.997637,1924.535449
249.230602,10495.508323,11325.150913,74.020594
249.230910,11951.089769,12435.459826,-1554.432478
249.231218,9652.803275,11695.253884,-1998.556043
249.231526,6971.469032,8808.450710,2368.659014
249.231834,1991.848295,3256.906145,8068.244768
249.232142,-2681.334243,-2886.803174,13989.892304
249.232450,-6358.592633,-7994.224174,18505.148550
249.232758,-10112.460574,-11547.212695,20207.622217
249.233066,-11874.480219,-13693.809927,21762.054695
249.233374,-10878.556072,-13175.665768,21762.054695
249.233682,-7431.126331,-9400.615463,18653.189738
249.233990,-1149.143247,-2220.617826,11991.336260
249.234297,4136.915689,4441.235652,4663.297435
249.234605,7967.393179,8512.368333,666.185348
249.234913,11108.384721,10288.862594,0.000000
249.235221,12563.966167,13249.686362,-1998.556043
249.235529,10572.117872,13027.624579,-2960.823768
249.235837,7584.345430,9030.512492,1406.391290
249.236145,2987.772442,4219.173869,6069.688724
249.236453,-1762.019645,-2516.700203,12879.583391
249.236761,-5439.278036,-7254.018232,17690.922014
249.237069,-9729.412825,-11621.233289,19097.313304
249.237377,-11184.994271,-13471.748144,21317.931130
249.237685,-9806.022374,-11251.130318,20133.601622
249.237993,-4979.620737,-6735.874072,16432.571912
249.238300,306.438199,-296.082377,9992.780217
249.238608,6128.763984,4737.318029,4293.194464
249.238916,8733.488677,8142.265362,1554.432478
249.239224,11721.261119,12065.356855,-1628.453072
249.239532,11108.384721,12583.501014,-1332.370696
249.239840,8810.098227,10584.944971,666.185348
249.240148,4979.620737,6661.853478,4811.338623
249.240456,-306.438199,592.164754,12213.398043
249.240764,-3753.867940,-4811.338623,17246.798449
249.241072,-8120.612279,-9400.615463,19023.292709
249.241380,-10801.946522,-12583.501014,21243.910535
249.241688,-11797.870669,-13027.624579,21984.116477
249.241995,-9806.022374,-11547.212695,20429.683999
249.242303,-4366.744339,-5995.668130,16432.571912
249.242611,919.314598,814.226536,8068.244768
249.242919,7277.907231,5995.668130,2960.823768
249.243227,9882.631924,9104.533087,740.205942
249.243535,12487.356617,11991.336260,-2442.679609
249.243843,11874.480219,13249.686362,-2886.803174
249.244151,9806.022374,11547.212695,-740.205942
249.244459,6205.373534,7254.018232,3775.050304
249.244767,1455.581446,1850.514855,9326.594869
249.245075,-1685.410096,-3775.050304,15618.345376
249.245383,-7354.516781,-8956.491898,18209.066173
249.245691,-10265.679673,-11843.295072,19763.498651
249.245999,-11108.384721,-12805.562797,21317.931130
249.246307,-9193.145976,-10140.821405,19763.498651
249.246615,-3447.429741,-4589.276840,14878.139434
249.246923,2298.286494,1702.473667,7846.182985
249.247231,7354.516781,6513.812290,2516.700203
249.247539,9806.022374,9548.656652,0.000000
249.247847,12180.918418,11473.192101,-1554.432478
249.248156,10648.727422,12361.439231,-2294.638420
249.248464,7890.783629,9770.718434,1628.453072
249.248772,3983.696590,5107.421000,6883.915261
249.249080,-1455.581446,-1628.453072,13323.706956
249.249388,-4903.011187,-6957.935855,18061.024985
249.249696,-9269.755526,-10955.047942,19541.436869
249.250004,-11031.775171,-13175.665768,21243.910535
249.250312,-10418.898773,-13101.645173,21317.931130
249.250620,-8810.098227,-10288.862594,19541.436869
249.250928,-1685.410096,-3627.009116,13767.830521
249.251236,3447.429741,3997.112087,4885.359217
249.251544,7890.783629,6661.853478,1776.494261
249.251852,10725.336972,10288.862594,-518.144159
249.252160,12563.966167,12583.501014,-2886.803174
249.252468,10801.946522,13175.665768,-3627.009116
249.252776,8886.707777,10288.862594,666.185348
249.253084,5439.278036,5699.585753,5477.523971
249.253392,-383.047749,-444.123565,10807.006753
249.253700,-4673.182538,-6661.853478,17246.798449
249.254008,-9193.145976,-11251.130318,18949.272115
249.254316,-11797.870669,-13323.706956,21169.889941
249.254624,-11414.822920,-12213.398043,20947.828159
249.254932,-7967.393179,-9178.553681,18283.086767
249.255240,-1072.533697,-1924.535449,12805.562797
249.255548,4749.792088,3701.029710,5255.462188
249.255856,8273.831378,6587.832884,1332.370696
249.256164,11108.384721,10658.965565,-1628.453072
249.256472,12104.308868,12805.562797,-2960.823768
249.256780,9882.631924,12139.377449,0.000000
249.257088,6128.763984,8290.306550,3034.844362
249.257396,1455.581446,2442.679609,9252.574275
249.257704,-3294.210641,-3775.050304,15174.221811
249.258012,-7124.688131,-9178.553681,18505.148550
249.258320,-9959.241474,-11843.295072,20799.786970
249.258628,-11721.261119,-12509.480420,21391.951724
249.258937,-10878.556072,-12213.398043,21169.889941
249.259245,-6818.249932,-8068.244768,18579.169144
249.259553,0.000000,222.061783,10140.821405
249.259861,5056.230287,3923.091493,4071.132681
249.260169,8733.488677,7846.182985,1480.411884
249.260477,12027.699319,11695.253884,-2664.741391
249.260785,12104.308868,12879.583391,-3256.906145
249.261093,10265.679673,11991.336260,-962.267725
249.261401,7354.516781,8660.409521,1850.514855
249.261709,2911.162892,3923.091493,7328.038826
249.262017,-1685.410096,-3256.906145,14137.933492
249.262325,-6205.373534,-9326.594869,18061.024985
249.262633,-10418.898773,-11769.274478,20503.704593
249.262941,-11644.651570,-12731.542202,21910.095883
249.263249,-10189.070123,-11029.068536,20503.704593
249.263557,-4979.620737,-5921.647536,16876.695478
249.263865,1838.629195,1406.391290,9474.636058
249.264173,6741.640382,4367.215058,2812.782580
249.264481,10265.679673,9104.533087,-296.082377
249.264789,11951.089769,11843.295072,-2738.761985
249.265097,11031.775171,12065.356855,-222.061783
249.265405,8656.879127,10288.862594,1702.473667
249.265713,4596.572988,5625.565159,5921.647536
249.266021,-153.219100,370.102971,12213.398043
249.266329,-4673.182538,-5921.647536,16654.633695
249.266637,-8427.050478,-10214.842000,19837.519246
249.266945,-11568.042020,-11991.336260,20651.745782
249.267253,-11568.042020,-12805.562797,21614.013506
249.267561,-10112.460574,-11399.171507,20799.786970
249.267869,-3370.820191,-5181.441594,15988.448347
249.268177,2911.162892,2146.597232,6957.935855
249.268485,7737.564530,4885.359217,2072.576638
249.268793,10189.070123,9770.718434,-1702.473667
249.269101,12180.918418,12805.562797,-3330.926739
249.269409,11644.651570,12731.542202,-1998.556043
249.269718,9193.145976,10955.047942,-148.041188
249.270026,5745.716235,5995.668130,4737.318029
249.270334,995.924147,1258.350101,10362.883188
249.270642,-3140.991542,-6735.874072,15840.407159
249.270950,-8120.612279,-10436.903782,19023.292709
249.271258,-11338.213370,-11843.295072,19763.498651
249.271566,-11261.603821,-12583.501014,21021.848753
249.271874,-9193.145976,-9992.780217,19023.292709
249.272182,-2145.067394,-2960.823768,13397.727550
249.272490,3370.820191,1924.535449,7846.182985
249.272798,8886.707777,7179.997637,1554.432478
249.273106,11031.775171,11029.068536,-1850.514855
249.273414,12180.918418,11843.295072,-1850.514855
249.273722,10725.336972,11991.336260,-370.102971
249.274030,7737.564530,9696.697840,2146.597232
249.274338,3830.477490,4663.297435,7179.997637
249.274646,-1685.410096,-2590.720797,12435.459826
249.274954,-4903.011187,-8216.285956,17764.942608
249.275262,-10035.851024,-11843.295072,20503.704593
249.275570,-12334.137518,-13471.748144,21095.869347
249.275878,-11797.870669,-12583.501014,21614.013506
249.276186,-8886.707777,-9770.718434,20133.601622
249.276494,-1225.752797,-2294.638420,13545.768739
249.276802,3753.867940,3330.926739,4737.318029
249.277110,8963.317327,6809.894666,148.041188
249.277418,11491.432470,11769.274478,-2516.700203
249.277726,12793.794817,12657.521608,-1850.514855
249.278034,10801.946522,12287.418637,-814.226536
249.278342,8197.221829,9696.697840,1480.411884
249.278650,3907.087040,4441.235652,7105.977043
249.278958,-1455.581446,-2294.638420,11991.336260
249.279266,-5822.325785,-8512.368333,17024.736666
249.279574,-10035.851024,-11325.150913,19837.519246
249.279882,-12104.308868,-12361.439231,21243.910535
249.280190,-10189.070123,-11769.274478,21317.931130
249.280499,-5439.278036,-6957.935855,17394.839637
249.280807,-306.438199,-1776.494261,11991.336260
249.281115,5822.325785,4367.215058,4071.132681
249.281423,9729.412825,8808.450710,0.000000
249.281731,11951.089769,11695.253884,-2220.617826
249.282039,12257.527968,12287.418637,-1258.350101
249.282347,10189.070123,11843.295072,740.205942
249.282655,6741.640382,7920.203579,3627.009116
249.282963,1838.629195,1406.391290,9474.636058
249.283271,-3140.991542,-4515.256246,16062.468941
249.283579,-7967.393179,-9696.697840,19319.375086
249.283887,-11721.261119,-11769.274478,21243.910535
249.284195,-12487.356617,-12805.562797,23168.445985
249.284503,-11338.213370,-12139.377449,21614.013506
249.284811,-5132.839837,-6587.832884,18135.045579
249.285119,995.924147,-222.061783,9326.594869
249.285427,6205.373534,5329.482782,2294.638420
249.285735,10342.289223,9400.615463,444.123565
249.286043,11797.870669,12583.501014,-2294.638420
249.286351,11874.480219,12953.603985,-1480.411884
249.286659,9959.241474,12139.377449,222.061783
249.286967,5898.935335,7698.141797,3404.947333
249.287275,919.314598,740.205942,9030.512492
249.287583,-2451.505594,-5329.482782,15248.242405
249.287891,-7277.907231,-9178.553681,18505.148550
249.288199,-11184.994271,-11621.233289,18949.272115
249.288507,-11568.042020,-12065.356855,21243.910535
249.288815,-9116.536426,-10066.800811,19615.457463
249.289123,-3677.258390,-5255.462188,15322.262999
249.289431,2374.896044,1628.453072,8882.471304
249.289739,7814.174080,5995.668130,2146.597232
249.290047,9959.241474,10140.821405,-1110.308913
249.290355,12257.527968,11769.274478,-1184.329507
249.290663,10801.946522,12139.377449,0.000000
249.290971,8580.269578,10214.842000,1554.432478
249.291280,4136.915689,5477.523971,5847.626942
249.291588,-459.657299,-1480.411884,11843.295072
249.291896,-5132.839837,-7328.038826,16876.695478
249.292204,-9576.193725,-10436.903782,19467.416275
249.292512,-12563.966167,-12731.542202,21465.972318
249.292820,-12410.747068,-12953.603985,21614.013506
249.293128,-9269.755526,-9548.656652,19467.416275
249.293436,-2451.505594,-4589.276840,14063.912898
249.293744,3064.381992,1850.514855,6143.709319
249.294052,7277.907231,6069.688724,888.247130
249.294360,10035.851024,10288.862594,-1480.411884
249.294668,12487.356617,11991.336260,-1702.473667
249.294976,10801.946522,12657.521608,-1406.391290
249.295284,9652.803275,10214.842000,-222.061783
249.295592,5209.449386,5699.585753,4663.297435
249.295900,612.876398,-888.247130,10362.883188
249.296208,-4366.744339,-6735.874072,15988.448347
249.296516,-8963.317327,-10066.800811,18653.189738
249.296824,-11568.042020,-11991.336260,20355.663405
249.297132,-11414.822920,-11843.295072,20873.807564
249.297440,-8656.879127,-8216.285956,18801.230927
249.297748,-1302.362347,-2886.803174,12509.480420
249.298056,4060.306139,2368.659014,5477.523971
249.298364,8120.612279,7179.997637,518.144159
249.298672,10648.727422,10881.027347,-888.247130
249.298980,11491.432470,11769.274478,148.041188
249.299288,9806.022374,11769.274478,148.041188
249.299596,6971.469032,8586.388927,2442.679609
249.299904,2145.067394,3404.947333,7846.182985
249.300212,-2528.115143,-3849.070898,14211.954086
249.300520,-6588.421283,-7772.162391,18357.107362
249.300828,-10801.946522,-10732.986159,20429.683999
249.301136,-11951.089769,-12287.418637,21762.054695
249.301444,-10878.556072,-11917.315666,20947.828159
249.301752,-6741.640382,-8734.430116,18727.210333
249.302061,-459.657299,-2368.659014,10732.986159
249.302369,5362.668486,3775.050304,4515.256246
249.302677,8503.660028,7994.224174,592.164754
249.302985,10955.165621,11473.192101,-1406.391290
249.303293,12334.137518,12657.521608,-370.102971
249.303601,10572.117872,12435.459826,-1406.391290
249.303909,7890.783629,8956.491898,1332.370696
249.304217,3983.696590,3330.926739,6365.771101
249.304525,-1378.971896,-2294.638420,12657.521608
249.304833,-6052.154434,-7105.977043,16802.674883
249.305141,-9652.803275,-10732.986159,18949.272115
249.305449,-11414.822920,-11621.233289,21095.869347
249.305757,-9806.022374,-10732.986159,20503.704593
249.306065,-4979.620737,-6883.915261,16876.695478
249.306373,689.485948,-888.247130,10214.842000
249.306681,5439.278036,4071.132681,4071.132681
249.306989,9193.145976,7698.141797,1184.329507
249.307297,10265.679673,10658.965565,222.061783
249.307605,11184.994271,11621.233289,814.226536
249.307913,8810.098227,10807.006753,814.226536
249.308221,5592.497135,7476.080014,3849.070898
249.308529,919.314598,962.267725,9622.677246
249.308837,-3524.039291,-4071.132681,15544.324782
249.309145,-7431.126331,-8364.327145,19171.333898
249.309453,-10572.117872,-11325.150913,20059.581028
249.309761,-11031.775171,-11843.295072,21391.951724
249.310069,-9959.241474,-11473.192101,20355.663405
249.310377,-4673.182538,-6661.853478,16284.530724
249.310685,1072.533697,-370.102971,9474.636058
249.310993,6281.983084,4663.297435,2960.823768
249.311301,9039.926876,9104.533087,0.000000
249.311609,11491.432470,11547.212695,-296.082377
249.311917,12640.575717,12139.377449,-1036.288319
249.312225,9652.803275,11325.150913,-1258.350101
249.312533,6358.592633,6809.894666,2590.720797
249.312842,2451.505594,1332.370696,7920.203579
249.313150,-2298.286494,-3997.112087,13915.871710
249.313458,-7354.516781,-7994.224174,17246.798449
249.313766,-9806.022374,-10584.944971,18801.230927
249.314074,-10725.336972,-11769.274478,20799.786970
249.314382,-9346.365076,-9622.677246,19171.333898
249.314690,-3140.991542,-5625.565159,14952.160028
249.314998,2068.457845,888.247130,8216.285956
249.315306,5898.935335,5033.400406,1850.514855
249.315614,9039.926876,8956.491898,666.185348
249.315922,10495.508323,10436.903782,1258.350101
249.316230,10342.289223,11029.068536,814.226536
249.316538,7814.174080,9400.615463,1110.308913
249.316846,4826.401637,5329.482782,5773.606348
249.317154,-229.828649,-814.226536,10881.027347
249.317462,-4903.011187,-5551.544565,16432.571912
249.317770,-9039.926876,-9844.739029,19689.478057
249.318078,-12180.918418,-12139.377449,20355.663405
249.318386,-11874.480219,-12583.501014,21910.095883
249.318694,-8120.612279,-9844.739029,19689.478057
249.319002,-2528.115143,-4811.338623,13989.892304
249.319310,2681.334243,1554.432478,7179.997637
249.319618,7354.516781,6069.688724,1406.391290
249.319926,9116.536426,9474.636058,148.041188
249.320234,11568.042020,11103.089130,222.061783
249.320542,11108.384721,12213.398043,-1480.411884
249.320850,8963.317327,10288.862594,148.041188
249.321158,5132.839837,5255.462188,4441.235652
249.321466,383.047749,-0.000000,9474.636058
249.321774,-4290.134789,-5329.482782,15840.407159
249.322082,-8886.707777,-9548.656652,18209.066173
249.322390,-10801.946522,-10658.965565,19837.519246
249.322698,-10418.898773,-10732.986159,20577.725188
249.323006,-6665.030833,-8142.265362,18357.107362
249.323314,-919.314598,-2590.720797,12435.459826
249.323623,3217.601092,2146.597232,5921.647536
249.323931,7507.735880,6217.729913,2738.761985
249.324239,9729.412825,9770.718434,1036.288319
249.324547,10725.336972,11695.253884,1480.411884
249.324855,9652.803275,11843.295072,518.144159
249.325163,6971.469032,8956.491898,1924.535449
249.325471,2681.334243,3552.988522,7402.059420
249.325779,-2068.457845,-1924.535449,13397.727550
249.326087,-5822.325785,-7402.059420,18801.230927
249.326395,-9806.022374,-10807.006753,20133.601622
249.326703,-11644.651570,-12509.480420,21243.910535
249.327011,-10648.727422,-11769.274478,22132.157666
249.327319,-6435.202183,-8512.368333,18061.024985
249.327627,-383.047749,-2368.659014,11695.253884
249.327935,4596.572988,2886.803174,4737.318029
249.328243,8580.269578,7698.141797,444.123565
249.328551,10801.946522,10510.924376,-148.041188
249.328859,12487.356617,12065.356855,-740.205942
249.329167,11644.651570,11991.336260,-1628.453072
249.329475,8044.002729,8586.388927,1184.329507
249.329783,3447.429741,3923.091493,6365.771101
249.330091,-1072.533697,-1924.535449,12065.356855
249.330399,-5362.668486,-6661.853478,17246.798449
249.330707,-8886.707777,-9326.594869,18505.148550
249.331015,-11031.775171,-11177.109724,19837.519246
249.331323,-9576.193725,-11251.130318,20725.766376
249.331631,-5669.106685,-7105.977043,17024.736666
249.331939,-459.657299,-1480.411884,11177.109724
249.332247,4826.401637,3552.988522,4663.297435
249.332555,8503.660028,8216.285956,518.144159
249.332863,10418.898773,10436.903782,222.061783
249.333171,10878.556072,11325.150913,592.164754
249.333479,8810.098227,10510.924376,296.082377
249.333787,6052.154434,7402.059420,3182.885551
249.334095,1149.143247,2146.597232,9326.594869
249.334404,-3064.381992,-4219.173869,15322.262999
249.334712,-7814.174080,-9104.533087,19171.333898
249.335020,-11338.213370,-11769.274478,19911.539840
249.335328,-11874.480219,-13323.706956,21243.910535
249.335636,-9576.193725,-12361.439231,21021.848753
249.335944,-4290.134789,-5921.647536,15544.324782
249.336252,1685.410096,-740.205942,9030.512492
249.336560,6741.640382,4367.215058,2738.761985
249.336868,9269.755526,9474.636058,0.000000
249.337176,11644.651570,11177.109724,-1036.288319
249.337484,12257.527968,12287.418637,-2072.576638
249.337792,10342.289223,12213.398043,-1554.432478
249.338100,6894.859482,7179.997637,2442.679609
249.338408,2374.896044,2368.659014,7105.977043
249.338716,-2374.896044,-3997.112087,13767.830521
249.339024,-6818.249932,-8512.368333,18061.024985
249.339332,-10801.946522,-10658.965565,18727.210333
249.339640,-11261.603821,-11917.315666,20873.807564
249.339948,-9269.755526,-10066.800811,19985.560434
249.340256,-3447.429741,-5255.462188,15100.201217
249.340564,1225.752797,296.082377,8068.244768
249.340872,5439.278036,4885.359217,3108.864956
249.341180,9499.584175,9030.512492,1702.473667
249.341488,9806.022374,11843.295072,296.082377
249.341796,10495.508323,11621.233289,1332.370696
249.342104,7814.174080,10214.842000,1036.288319
249.342412,3524.039291,5625.565159,6365.771101
249.342720,-1302.362347,-1036.288319,12731.542202
249.343028,-5286.058936,-5847.626942,17098.757260
249.343336,-9269.755526,-10584.944971,21317.931130
249.343644,-11721.261119,-12139.377449,20355.663405
249.343952,-10725.336972,-13101.645173,21465.972318
249.344260,-8120.612279,-9844.739029,19245.354492
249.344568,-2221.676944,-4737.318029,13915.871710
249.344876,2987.772442,1998.556043,6587.832884
249.345185,7584.345430,6439.791695,1258.350101
249.345492,10648.727422,10214.842000,-962.267725
249.345800,12793.794817,12657.521608,-1554.432478
249.346108,13023.623466,12509.480420,-1776.494261
249.346416,8886.707777,11251.130318,-1110.308913
249.346724,5362.668486,5551.544565,4293.194464
249.347032,689.485948,370.102971,10214.842000
249.347340,-4213.525239,-4885.359217,15840.407159
249.347648,-8656.879127,-9696.697840,19467.416275
249.347956,-11108.384721,-11991.336260,20725.766376
249.348264,-11261.603821,-11991.336260,21614.013506
249.348572,-7431.126331,-9474.636058,19097.313304
249.348880,-1991.848295,-3404.947333,13101.645173
249.349188,2757.943793,2368.659014,5921.647536
249.349496,7201.297681,6513.812290,2072.576638
249.349804,9806.022374,10362.883188,296.082377
249.350112,11261.603821,11769.274478,592.164754
249.350420,10418.898773,11621.233289,74.020594
249.350728,7201.297681,9030.512492,2294.638420
249.351036,2145.067394,3256.906145,8068.244768
249.351344,-2911.162892,-3108.864956,14804.118840
249.351652,-7048.078582,-7846.182985,19467.416275
249.351960,-10648.727422,-11547.212695,20651.745782
249.352268,-11874.480219,-13027.624579,21317.931130
249.352576,-10725.336972,-12213.398043,20725.766376
249.352884,-5515.887586,-8734.430116,17838.963202
249.353192,306.438199,-1850.514855,10881.027347
249.353500,5286.058936,3404.947333,4293.194464
249.353808,8810.098227,8364.327145,-444.123565
249.354116,12257.527968,11547.212695,-1554.432478
249.354424,13100.233016,12657.521608,-1332.370696
249.354731,11261.603821,12879.583391,-2072.576638
249.355039,8427.050478,9178.553681,814.226536
249.355347,4366.744339,3627.009116,6513.812290
249.355655,-1149.143247,-2146.597232,12731.542202
249.355963,-5439.278036,-7105.977043,17246.798449
249.356271,-9729.412825,-10881.027347,19171.333898
249.356579,-11491.432470,-12287.418637,21021.848753
249.356887,-10035.851024,-11325.150913,20281.642811
249.357195,-5439.278036,-7328.038826,16728.654289
249.357503,0.000000,-1332.370696,9548.656652
249.357811,5822.325785,3552.988522,3627.009116
249.358119,8580.269578,8364.327145,1184.329507
249.358427,11338.213370,10955.047942,0.000000
249.358735,11568.042020,11843.295072,0.000000
249.359043,9499.584175,11029.068536,-222.061783
249.359351,5439.278036,7402.059420,3849.070898
249.359659,306.438199,1110.308913,10288.862594
249.359967,-3830.477490,-4959.379811,16432.571912
249.360275,-8120.612279,-9696.697840,19393.395680
249.360583,-10955.165621,-12361.439231,20873.807564
249.360891,-11491.432470,-13767.830521,21539.992912
249.361199,-10189.070123,-12139.377449,20651.745782
249.361507,-4596.572988,-6513.812290,16210.510130
249.361815,1608.800546,-0.000000,8364.327145
249.362123,6052.154434,5255.462188,2368.659014
249.362431,9729.412825,9400.615463,444.123565
249.362739,12410.747068,11843.295072,-1998.556043
249.363047,12717.185267,12805.562797,-2516.700203
249.363355,10725.336972,11843.295072,-1184.329507
249.363662,6741.640382,7254.018232,2812.782580
249.363970,1225.752797,1554.432478,8956.491898
249.364278,-3140.991542,-4145.153275,15322.262999
249.364586,-7814.174080,-8956.491898,18283.086767
249.364894,-11644.651570,-11843.295072,19911.539840
249.365202,-11491.432470,-13027.624579,22502.260637
249.365510,-9652.803275,-10510.924376,19023.292709
249.365818,-2604.724693,-5403.503377,14952.160028
249.366126,2911.162892,888.247130,7550.100608
249.366434,6281.983084,6217.729913,1406.391290
249.366742,9806.022374,9770.718434,1036.288319
249.367050,12257.527968,12139.377449,0.000000
249.367358,11338.213370,12953.603985,-1110.308913
249.367666,8503.660028,10732.986159,1332.370696
249.367974,4136.915689,5551.544565,6735.874072
249.368282,-1685.410096,-1258.350101,13101.645173
249.368590,-6205.373534,-6587.832884,18949.272115
249.368898,-9652.803275,-11029.068536,20873.807564
249.369206,-11797.870669,-12953.603985,21836.075289
249.369514,-11338.213370,-12879.583391,21391.951724
249.369822,-8120.612279,-10584.944971,19023.292709
249.370130,-1762.019645,-3849.070898,13767.830521
249.370438,3294.210641,2368.659014,5847.626942
249.370746,7890.783629,6513.812290,1850.514855
249.371054,10495.508323,10510.924376,-740.205942
249.371362,12793.794817,12509.480420,-1184.329507
249.371670,12027.699319,13101.645173,-2442.679609
249.371978,9116.536426,11029.068536,0.000000
249.372286,3830.477490,5477.523971,5773.606348
249.372594,-1378.971896,-592.164754,12139.377449
249.372901,-4903.011187,-5477.523971,17320.819043
249.373209,-8886.707777,-9992.780217,19319.375086
249.373517,-11031.775171,-11991.336260,20281.642811
249.373825,-10035.851024,-11769.274478,20577.725188
249.374133,-7277.907231,-8882.471304,17764.942608
249.374441,-995.924147,-2072.576638,11103.089130
249.374749,4366.744339,3108.864956,5107.421000
249.375057,8350.440928,7105.977043,1480.411884
249.375365,10955.165621,10807.006753,-222.061783
249.375673,12180.918418,11843.295072,-666.185348
249.375981,10418.898773,11621.233289,-592.164754
249.376289,6511.811733,8660.409521,2368.659014
249.376597,1915.238745,2960.823768,8956.491898
249.376905,-2834.553343,-3775.050304,15396.283594
249.377213,-7584.345430,-8660.409521,18653.189738
249.377521,-11261.603821,-12583.501014,20799.786970
249.377829,-11721.261119,-14211.954086,22132.157666
249.378137,-10648.727422,-13545.768739,20651.745782
249.378445,-4979.620737,-8216.285956,17024.736666
249.378753,612.876398,-740.205942,8882.471304
249.379061,6052.154434,3701.029710,3701.029710
249.379369,9499.584175,8142.265362,74.020594
249.379677,12257.527968,11547.212695,-1776.494261
249.379985,13023.623466,12435.459826,-2368.659014
249.380293,11031.775171,12065.356855,-2072.576638
249.380601,7967.393179,8734.430116,2220.617826
249.380909,2681.334243,3256.906145,7402.059420
249.381217,-2451.505594,-2664.741391,13249.686362
249.381525,-6818.249932,-7698.141797,17764.942608
249.381833,-10418.898773,-11473.192101,20207.622217
249.382140,-11797.870669,-12509.480420,21391.951724
249.382448,-10342.289223,-11251.130318,20281.642811
249.382756,-4443.353888,-6069.688724,16580.613101
249.383064,459.657299,370.102971,8660.409521
249.383372,5056.230287,4885.359217,3552.988522
249.383680,9269.755526,9400.615463,592.164754
249.383988,11644.651570,12139.377449,-962.267725
249.384296,11568.042020,13249.686362,-888.247130
249.384604,8810.098227,11251.130318,666.185348
249.384912,4213.525239,6957.935855,5625.565159
249.385220,-995.924147,-444.123565,13175.665768
249.385528,-5286.058936,-5847.626942,17838.963202
249.385836,-9269.755526,-10510.924376,20281.642811
249.386144,-11721.261119,-13027.624579,21391.951724
249.386452,-11414.822920,-13397.727550,21465.972318
249.386760,-8963.317327,-10881.027347,19541.436869
249.387068,-2681.334243,-4811.338623,14211.954086
249.387376,2757.943793,1776.494261,6439.791695
249.387684,7737.564530,6069.688724,2220.617826
249.387992,10878.556072,10362.883188,-740.205942
249.388300,12870.404366,12435.459826,-1776.494261
249.388608,12793.794817,12879.583391,-2738.761985
249.388916,9729.412825,11843.295072,-1184.329507
249.389224,4979.620737,6439.791695,4441.235652
249.389532,689.485948,296.082377,10658.965565
249.389840,-4060.306139,-4885.359217,16358.551318
249.390148,-8427.050478,-10288.862594,19837.519246
249.390456,-11414.822920,-12805.562797,20873.807564
249.390764,-11951.089769,-12657.521608,21317.931130
249.391071,-8886.707777,-9992.780217,19023.292709
249.391379,-1915.238745,-3330.926739,13471.748144
249.391687,3064.381992,2294.638420,6587.832884
249.391995,7201.297681,7179.997637,1332.370696
249.392303,10801.946522,10436.903782,-148.041188
249.392611,12487.356617,12509.480420,-518.144159
249.392919,10955.165621,12435.459826,-666.185348
249.393227,7277.907231,9992.780217,1924.535449
249.393535,2068.457845,4441.235652,8216.285956
249.393843,-2681.334243,-2960.823768,14730.098246
249.394151,-7354.516781,-7476.080014,18209.066173
249.394459,-10112.460574,-12065.356855,20577.725188
249.394767,-11338.213370,-13841.851115,21095.869347
249.395075,-11031.775171,-13249.686362,21169.889941
249.395383,-6741.640382,-9474.636058,18061.024985
249.395691,-689.485948,-1924.535449,10436.903782
249.395999,5286.058936,3404.947333,5033.400406
249.396307,8810.098227,6883.915261,0.000000
249.396615,11491.432470,11251.130318,-1924.535449
249.396923,14172.766713,11769.274478,-1924.535449
249.397231,11491.432470,12213.398043,-2738.761985
249.397539,8044.002729,9474.636058,1110.308913
249.397847,3677.258390,3627.009116,6661.853478
249.398155,-1225.752797,-2072.576638,12435.459826
249.398463,-5898.935335,-7254.018232,17394.839637
249.398771,-9882.631924,-11473.192101,19171.333898
249.399079,-12257.527968,-12731.542202,21317.931130
249.399387,-10265.679673,-12139.377449,21317.931130
249.399695,-5286.058936,-7550.100608,17542.880825
249.400003,0.000000,-888.247130,10066.800811
249.400310,5056.230287,3997.112087,4737.318029
249.400618,9422.974625,8882.471304,444.123565
249.400926,11874.480219,11991.336260,-888.247130
249.401234,12257.527968,12953.603985,-1184.329507
249.401542,10035.851024,11399.171507,0.000000
249.401850,5745.716235,7772.162391,4441.235652
249.402158,306.438199,1184.329507,10140.821405
249.402466,-3830.477490,-5403.503377,16506.592507
249.402774,-7660.954980,-9770.718434,19837.519246
249.403082,-11721.261119,-12657.521608,20651.745782
249.403390,-12027.699319,-13027.624579,21317.931130
249.403698,-10342.289223,-11325.150913,20503.704593
249.404006,-3294.210641,-6365.771101,17320.819043
249.404314,1532.190996,666.185348,7772.162391
249.404622,6741.640382,5033.400406,2516.700203
249.404930,10725.336972,8364.327145,0.000000
249.405238,12334.137518,11843.295072,-1850.514855
249.405546,12870.404366,12583.501014,-1258.350101
249.405854,10495.508323,12361.439231,-1702.473667
249.406162,6128.763984,7772.162391,3108.864956
249.406470,1685.410096,1702.473667,9104.533087
249.406778,-2911.162892,-3997.112087,14730.098246
249.407086,-8044.002729,-9178.553681,18653.189738
249.407394,-10725.336972,-12435.459826,20059.581028
249.407702,-11184.994271,-12435.459826,21465.972318
249.408010,-9422.974625,-10214.842000,19985.560434
249.408318,-2911.162892,-5107.421000,15396.283594
249.408626,1762.019645,1480.411884,7105.977043
249.408934,7277.907231,5995.668130,2368.659014
249.409241,9806.022374,9622.677246,74.020594
249.409549,11338.213370,12361.439231,-740.205942
249.409857,11261.603821,13027.624579,-518.144159
249.410165,8656.879127,11029.068536,814.226536
249.410473,3294.210641,5329.482782,6513.812290
249.410781,-1378.971896,-1258.350101,12879.583391
249.411089,-5745.716235,-6365.771101,17690.922014
249.411397,-10035.851024,-11547.212695,20207.622217
249.411705,-12027.699319,-13101.645173,21465.972318
249.412013,-11261.603821,-12805.562797,21984.116477
249.412321,-9193.145976,-10955.047942,19985.560434
249.412629,-2528.115143,-4959.379811,14211.954086
249.412937,3140.991542,2220.617826,5773.606348
249.413245,7584.345430,5995.668130,1480.411884
249.413553,11184.994271,10066.800811,-888.247130
249.413861,12717.185267,12287.418637,-1924.535449
249.414169,12410.747068,12509.480420,-1924.535449
249.414477,9039.926876,10955.047942,-148.041188
249.414785,4136.915689,5921.647536,4737.318029
249.415093,-306.438199,-370.102971,10066.800811
249.415401,-4596.572988,-5329.482782,15914.427753
249.415709,-9039.926876,-10066.800811,18949.272115
249.416017,-11951.089769,-12287.418637,20207.622217
249.416325,-11568.042020,-11991.336260,21391.951724
249.416633,-8350.440928,-8734.430116,18875.251521
249.416941,-1455.581446,-2886.803174,13175.665768
249.417249,4290.134789,2738.761985,6439.791695
249.417557,7584.345430,7624.121203,370.102971
249.417865,10342.289223,10584.944971,0.000000
249.418173,12334.137518,12213.398043,-444.123565
249.418480,10035.851024,12583.501014,-592.164754
249.418788,6511.811733,8586.388927,2738.761985
249.419096,1991.848295,2960.823768,7846.182985
249.419404,-2834.553343,-3182.885551,14285.974681
249.419712,-6358.592633,-8438.347739,18653.189738
249.420020,-10648.727422,-11843.295072,20207.622217
249.420328,-12027.699319,-13545.768739,21465.972318
249.420636,-10955.165621,-12435.459826,21095.869347
249.420944,-6818.249932,-8660.409521,18727.210333
249.421252,0.000000,-2368.659014,11547.212695
249.421560,5056.230287,3478.967927,3478.967927
249.421868,9346.365076,7254.018232,148.041188
249.422176,11874.480219,11103.089130,-2146.597232
249.422484,13713.109414,12509.480420,-1554.432478
249.422792,11261.603821,12583.501014,-2368.659014
249.423100,8350.440928,9770.718434,518.144159
249.423408,3600.648841,3997.112087,6291.750507
249.423716,-995.924147,-2294.638420,12213.398043
249.424024,-5745.716235,-7698.141797,17394.839637
249.424332,-10112.460574,-11621.233289,19245.354492
249.424640,-11951.089769,-12805.562797,20725.766376
249.424948,-10495.508323,-11029.068536,20947.828159
249.425256,-5898.935335,-6883.915261,17690.922014
249.425564,76.609550,-962.267725,10955.047942
249.425872,5209.449386,4293.194464,4145.153275
249.426180,9576.193725,8660.409521,592.164754
249.426488,11491.432470,11029.068536,-518.144159
249.426796,12180.918418,12139.377449,-1110.308913
249.427104,9576.193725,11251.130318,74.020594
249.427411,5515.887586,6957.935855,4441.235652
249.427719,306.438199,740.205942,9844.739029
249.428027,-4213.525239,-5107.421000,15988.448347
249.428335,-8120.612279,-9844.739029,19615.457463
249.428643,-11184.994271,-12657.521608,20873.807564
249.428951,-11338.213370,-12435.459826,21910.095883
249.429259,-9729.412825,-11843.295072,21391.951724
249.429567,-4213.525239,-6365.771101,16432.571912
249.429875,1762.019645,148.041188,8512.368333
249.430183,6971.469032,5403.503377,2368.659014
249.430491,9806.022374,8956.491898,-370.102971
249.430799,12640.575717,12213.398043,-1554.432478
249.431107,13483.280765,13619.789333,-1776.494261
249.431415,10265.679673,11917.315666,-1258.350101
249.431723,6205.373534,7624.121203,2812.782580
249.432031,2068.457845,1406.391290,8216.285956
249.432339,-2757.943793,-4219.173869,14656.077652
249.432647,-7814.174080,-9178.553681,18579.169144
249.432955,-11261.603821,-12287.418637,20207.622217
249.433263,-11721.261119,-11917.315666,21836.075289
249.433571,-9346.365076,-10140.821405,20577.725188
249.433879,-3753.867940,-4663.297435,15248.242405
249.434187,2221.676944,1406.391290,7994.224174
249.434495,6665.030833,5551.544565,1850.514855
249.434803,9806.022374,9918.759623,0.000000
249.435111,12257.527968,11769.274478,0.000000
249.435419,11338.213370,12805.562797,-444.123565
249.435727,8120.612279,10066.800811,1702.473667
249.436035,3830.477490,4589.276840,6883.915261
249.436343,-1685.410096,-1406.391290,12213.398043
249.436650,-5745.716235,-7031.956449,18209.066173
249.436958,-10265.679673,-11325.150913,20503.704593
249.437266,-12027.699319,-11917.315666,21243.910535
249.437574,-11414.822920,-11769.274478,21465.972318
249.437882,-7890.783629,-10066.800811,19319.375086
249.438190,-2145.067394,-4145.153275,13471.748144
249.438498,3524.039291,1850.514855,6217.729913
249.438806,7584.345430,5921.647536,1110.308913
249.439114,10265.679673,9918.759623,-962.267725
249.439422,12640.575717,12287.418637,-1554.432478
249.439730,12027.699319,13027.624579,-1850.514855
249.440038,8963.317327,10955.047942,-518.144159
249.440346,4826.401637,5403.503377,4737.318029
249.440654,-536.266849,-518.144159,10881.027347
249.440962,-4673.182538,-6439.791695,16728.654289
249.441270,-9346.365076,-11177.109724,19541.436869
249.441578,-11874.480219,-12879.583391,20651.745782
249.441886,-11951.089769,-11917.315666,21465.972318
249.442194,-7660.954980,-8956.491898,19319.375086
249.442502,-919.314598,-2590.720797,12583.501014
249.442810,3370.820191,3478.967927,4663.297435
249.443118,8350.440928,7105.977043,1184.329507
249.443426,11184.994271,10955.047942,-148.041188
249.443734,11644.651570,12657.521608,-1110.308913
249.444042,11184.994271,12657.521608,0.000000
249.444350,7431.126331,9178.553681,2146.597232
249.444658,2298.286494,2368.659014,8216.285956
249.444966,-2604.724693,-3478.967927,14434.015869
249.445274,-7124.688131,-8364.327145,18801.230927
249.445582,-10495.508323,-12435.459826,20503.704593
249.445889,-12257.527968,-12879.583391,21317.931130
249.446197,-11797.870669,-12139.377449,20799.786970
249.446505,-5515.887586,-9178.553681,19171.333898
249.446813,76.609550,-1776.494261,10214.842000
249.447121,4903.011187,4811.338623,2960.823768
249.447429,9422.974625,7402.059420,666.185348
249.447737,11414.822920,11843.295072,-2368.659014
249.448045,12410.747068,12657.521608,-1554.432478
249.448353,11338.213370,12139.377449,-1036.288319
249.448661,7431.126331,8660.409521,962.267725
249.448969,2604.724693,2294.638420,7772.162391
249.449277,-2145.067394,-3034.844362,13545.768739
249.449585,-7201.297681,-8586.388927,18579.169144
249.449893,-11874.480219,-12435.459826,20281.642811
249.450201,-12563.966167,-12361.439231,21688.034101
249.450509,-10265.679673,-11103.089130,21243.910535
249.450817,-3983.696590,-6513.812290,16654.633695
249.451125,689.485948,-0.000000,8290.306550
249.451433,6894.859482,5033.400406,2738.761985
249.451741,9729.412825,9252.574275,222.061783
249.452049,12410.747068,11843.295072,-1110.308913
249.452357,12410.747068,13323.706956,-2072.576638
249.452665,10572.117872,11547.212695,222.061783
249.452973,5822.325785,6291.750507,4663.297435
249.453281,459.657299,-0.000000,10436.903782
249.453589,-4366.744339,-5773.606348,17468.860231
249.453897,-9193.145976,-10140.821405,19985.560434
249.454205,-12410.747068,-12583.501014,21836.075289
249.454513,-12257.527968,-11917.315666,21836.075289
249.454821,-9882.631924,-10881.027347,20873.807564
249.455129,-3830.477490,-5847.626942,16284.530724
249.455437,2298.286494,962.267725,7550.100608
249.455745,7354.516781,5773.606348,2294.638420
249.456053,9729.412825,9622.677246,-1110.308913
249.456361,12257.527968,11843.295072,-444.123565
249.456668,12180.918418,12953.603985,-1776.494261
249.456976,9346.365076,11843.295072,-444.123565
249.457284,5515.887586,6365.771101,4071.132681
249.457592,-306.438199,962.267725,9178.553681
249.457900,-4060.306139,-5403.503377,16802.674883
249.458208,-8963.317327,-9918.759623,18431.127956
249.458516,-11261.603821,-11695.253884,21095.869347
249.458824,-12104.308868,-11843.295072,20873.807564
249.459132,-8733.488677,-10066.800811,19615.457463
249.459440,-1838.629195,-4219.173869,14285.974681
249.459748,2757.943793,2220.617826,5477.523971
249.460056,8197.221829,5699.585753,1628.453072
249.460364,10418.898773,10288.862594,-444.123565
249.460672,12410.747068,11769.274478,-1258.350101
249.460980,11721.261119,11769.274478,-1480.411884
249.461288,8963.317327,10214.842000,1406.391290
249.461596,4060.306139,3478.967927,6587.832884
249.461904,-1762.019645,-2146.597232,12509.480420
249.462212,-5822.325785,-7328.038826,18431.127956
249.462520,-10572.117872,-11843.295072,20503.704593
249.462828,-12027.699319,-12805.562797,21391.951724
249.463136,-11108.384721,-12139.377449,21391.951724
249.463444,-7660.954980,-10362.883188,19171.333898
249.463752,-1608.800546,-3256.906145,12583.501014
249.464060,4290.134789,3552.988522,4663.297435
249.464368,8197.221829,7105.977043,740.205942
249.464676,10955.165621,11103.089130,-1258.350101
249.464984,12640.575717,12731.542202,-1554.432478
249.465292,11797.870669,12953.603985,-2146.597232
249.465600,9039.926876,10732.986159,592.164754
249.465908,4136.915689,4737.318029,5699.585753
249.466216,-1378.971896,-1776.494261,12287.418637
249.466524,-6052.154434,-7179.997637,17616.901420
249.466832,-10495.508323,-10881.027347,20059.581028
249.467140,-12257.527968,-12139.377449,21021.848753
249.467448,-10342.289223,-11399.171507,20725.766376
249.467756,-5822.325785,-7328.038826,17320.819043
249.468063,612.876398,-1184.329507,11103.089130
249.468371,5822.325785,3256.906145,4515.256246
249.468679,9422.974625,7476.080014,296.082377
249.468987,12104.308868,11325.150913,-1406.391290
249.469295,13176.842566,12509.480420,-1702.473667
249.469603,10955.165621,11843.295072,-296.082377
249.469911,6665.030833,7550.100608,3256.906145
249.470219,1762.019645,1258.350101,9474.636058
249.470527,-3830.477490,-4441.235652,15988.448347
249.470835,-7890.783629,-9770.718434,19763.498651
249.471143,-11338.213370,-12805.562797,21539.992912
249.471451,-12180.918418,-12509.480420,22502.260637
249.471759,-11261.603821,-11769.274478,21021.848753
249.472067,-5209.449386,-7994.224174,17764.942608
249.472375,689.485948,-222.061783,9178.553681
249.472683,6205.373534,4811.338623,2442.679609
249.472991,9346.365076,8438.347739,222.061783
249.473299,12027.699319,11917.315666,-2294.638420
249.473607,12947.013916,12657.521608,-1924.535449
249.473915,10495.508323,12361.439231,-1258.350101
249.474223,7354.516781,8068.244768,1998.556043
249.474531,1608.800546,2072.576638,8068.244768
249.474839,-2834.553343,-3404.947333,14582.057057
249.475147,-7660.954980,-8734.430116,18431.127956
249.475455,-11338.213370,-12213.398043,19911.539840
249.475763,-11797.870669,-11991.336260,21391.951724
249.476071,-9499.584175,-10658.965565,20355.663405
249.476379,-3830.477490,-5847.626942,15988.448347
249.476687,1762.019645,814.226536,7994.224174
249.476995,6894.859482,5329.482782,2294.638420
249.477303,9959.241474,9178.553681,444.123565
249.477611,12180.918418,12287.418637,-1480.411884
249.477919,11797.870669,12435.459826,-1036.288319
249.478227,8963.317327,10881.027347,1924.535449
249.478535,4060.306139,4737.318029,6291.750507
249.478843,-1608.800546,-222.061783,12287.418637
249.479150,-5822.325785,-6143.709319,18357.107362
249.479458,-10112.460574,-11399.171507,20799.786970
249.479766,-12640.575717,-12879.583391,22206.178260
249.480074,-12334.137518,-12509.480420,22280.198854
249.480382,-9576.193725,-11473.192101,20133.601622
249.480690,-2451.505594,-4737.318029,14804.118840
249.480998,2451.505594,2886.803174,6217.729913
249.481306,7277.907231,6365.771101,1406.391290
249.481614,10418.898773,10510.924376,-740.205942
249.481922,12793.794817,13323.706956,-2368.659014
249.482230,12563.966167,13693.809927,-2738.761985
249.482538,9499.584175,11843.295072,-666.185348
249.482846,5362.668486,5847.626942,4737.318029
249.483154,383.047749,-592.164754,11399.171507
249.483462,-4596.572988,-5625.565159,16506.592507
249.483770,-9652.803275,-10955.047942,19837.519246
249.484078,-12180.918418,-13027.624579,21391.951724
249.484386,-11568.042020,-11991.336260,21095.869347
249.484694,-8503.660028,-9474.636058,18653.189738
249.485002,-383.047749,-2886.803174,13101.645173
249.485310,4213.525239,3256.906145,4737.318029
249.485618,9039.926876,6291.750507,666.185348
249.485926,11874.480219,10362.883188,-1036.288319
249.486234,13100.233016,12213.398043,-1776.494261
249.486542,11874.480219,12361.439231,-666.185348
249.486850,8197.221829,9474.636058,1480.411884
249.487158,2528.115143,2960.823768,8586.388927
249.487466,-2911.162892,-3775.050304,14582.057057
249.487774,-7124.688131,-8290.306550,19171.333898
249.488082,-11414.822920,-12731.542202,21169.889941
249.488390,-11951.089769,-14063.912898,22058.137072
249.488698,-11491.432470,-12435.459826,20947.828159
249.489006,-7201.297681,-9178.553681,18505.148550
249.489314,-153.219100,-1998.556043,11103.089130
249.489622,4673.182538,4737.318029,3182.885551
249.489930,9422.974625,7920.203579,296.082377
249.490238,12104.308868,11991.336260,-2516.700203
249.490545,13789.718964,14063.912898,-2516.700203
249.490853,11721.261119,13323.706956,-2072.576638
249.491161,8197.221829,9992.780217,1036.288319
249.491469,2757.943793,2960.823768,8142.265362
249.491777,-2604.724693,-3034.844362,14063.912898
249.492085,-7967.393179,-8216.285956,18431.127956
249.492393,-11874.480219,-13027.624579,21317.931130
249.492701,-13789.718964,-12139.377449,22280.198854
249.493009,-11568.042020,-10881.027347,20577.725188
249.493317,-4673.182538,-7550.100608,17024.736666
249.493625,995.924147,-74.020594,9178.553681
249.493933,6588.421283,4737.318029,2294.638420
249.494241,10112.460574,8438.347739,74.020594
249.494549,13176.842566,12139.377449,-2516.700203
249.494857,12793.794817,12879.583391,-2368.659014
249.495165,11261.603821,11843.295072,148.041188
249.495473,6741.640382,6957.935855,4737.318029
249.495781,0.000000,370.102971,11399.171507
249.496089,-4519.963438,-4811.338623,17024.736666
249.496397,-8733.488677,-9918.759623,20281.642811
249.496705,-12257.527968,-12435.459826,22354.219448
249.497013,-12640.575717,-12435.459826,22502.260637
249.497321,-10878.556072,-11103.089130,20725.766376
249.497629,-4979.620737,-6143.709319,16728.654289
249.497937,1225.752797,1258.350101,8068.244768
249.498245,6435.202183,5921.647536,2072.576638
249.498553,10418.898773,10066.800811,-518.144159
249.498861,12563.966167,12953.603985,-2294.638420
249.499169,12257.527968,13989.892304,-3330.926739
249.499477,10725.336972,11769.274478,-740.205942
249.499785,5669.106685,6587.832884,4071.132681
249.500093,-536.266849,-0.000000,11325.150913
249.500401,-4903.011187,-5403.503377,16876.695478
249.500709,-10035.851024,-10732.986159,19763.498651
249.501017,-12180.918418,-12509.480420,21317.931130
249.501325,-12257.527968,-11991.336260,21317.931130
249.501632,-9652.803275,-10584.944971,19319.375086
249.501940,-1838.629195,-4367.215058,14878.139434
249.502248,3140.991542,2442.679609,5847.626942
249.502556,8350.440928,5921.647536,1406.391290
249.502864,12334.137518,10362.883188,-666.185348
249.503172,13330.061665,12583.501014,-2590.720797
249.503480,12640.575717,12731.542202,-1998.556043
249.503788,10112.460574,10732.986159,0.000000
249.504096,4596.572988,3849.070898,6809.894666
249.504404,-1378.971896,-1924.535449,13101.645173
249.504712,-5898.935335,-7550.100608,17764.942608
249.505020,-10265.679673,-12879.583391,21317.931130
249.505328,-12947.013916,-14211.954086,22502.260637
249.505636,-12563.966167,-12657.521608,21465.972318
249.505944,-8350.440928,-10362.883188,19319.375086
249.506252,-1072.533697,-2664.741391,12731.542202
249.506560,3524.039291,3478.967927,4145.153275
249.506868,9039.926876,6883.915261,1258.350101
249.507176,12257.527968,11325.150913,-2294.638420
249.507484,12563.966167,13249.686362,-3182.885551
249.507792,12180.918418,13027.624579,-2516.700203
249.508100,9499.584175,10288.862594,0.000000
249.508408,4060.306139,4071.132681,6587.832884
249.508716,-1762.019645,-2072.576638,13027.624579
249.509024,-6894.859482,-7476.080014,17246.798449
249.509332,-10648.727422,-12139.377449,20281.642811
249.509640,-12334.137518,-12953.603985,21688.034101
249.509948,-11338.213370,-11177.109724,20355.663405
249.510256,-6665.030833,-8290.306550,17764.942608
249.510564,76.609550,-1036.288319,10881.027347
249.510872,5822.325785,4145.153275,3552.988522
249.511180,9652.803275,7698.141797,740.205942
249.511488,12563.966167,11769.274478,-1924.535449
249.511796,12793.794817,12435.459826,-1702.473667
249.512104,11491.432470,11843.295072,0.000000
249.512412,7431.126331,7846.182985,3034.844362
249.512720,1685.410096,1554.432478,10066.800811
249.513027,-3830.477490,-4293.194464,15840.407159
249.513335,-7967.393179,-9400.615463,19245.354492
249.513643,-11874.480219,-12731.542202,21688.034101
249.513951,-12180.918418,-12953.603985,22576.281231
249.514259,-10648.727422,-11843.295072,20577.725188
249.514567,-6052.154434,-7402.059420,17912.983796
249.514875,689.485948,-370.102971,10362.883188
249.515183,5669.106685,4811.338623,3404.947333
249.515491,9346.365076,9104.533087,592.164754
249.515799,12563.966167,12213.398043,-2368.659014
249.516107,12487.356617,13545.768739,-3404.947333
249.516415,11644.651570,12435.459826,-740.205942
249.516723,7354.516781,8216.285956,2368.659014
249.517031,1225.752797,1480.411884,9030.512492
249.517339,-3217.601092,-3034.844362,15100.201217
249.517647,-8120.612279,-9030.512492,18061.024985
249.517955,-11797.870669,-11843.295072,21243.910535
249.518263,-12563.966167,-11695.253884,21836.075289
249.518571,-9729.412825,-10584.944971,19911.539840
249.518879,-3983.696590,-5181.441594,15692.365970
249.519187,1378.971896,1110.308913,8216.285956
249.519495,7277.907231,5181.441594,3182.885551
249.519803,10112.460574,9326.594869,370.102971
249.520111,12410.747068,12361.439231,-1998.556043
249.520419,11951.089769,12435.459826,-1110.308913
249.520727,9806.022374,11103.089130,592.164754
249.521035,4673.182538,5477.523971,5773.606348
249.521343,-612.876398,-444.123565,12361.439231
249.521651,-5286.058936,-5847.626942,17246.798449
249.521959,-9652.803275,-11029.068536,20947.828159
249.522267,-12257.527968,-13175.665768,22132.157666
249.522575,-12410.747068,-12731.542202,21984.116477
249.522883,-9806.022374,-11251.130318,20281.642811
249.523191,-3294.210641,-4959.379811,14730.098246
249.523499,1991.848295,1554.432478,6217.729913
249.523807,6971.469032,5625.565159,2294.638420
249.524114,10955.165621,9696.697840,-1184.329507
249.524422,12104.308868,12953.603985,-3256.906145
249.524730,12180.918418,12657.521608,-2368.659014
249.525038,9882.631924,11473.192101,-740.205942
249.525346,5056.230287,5551.544565,4515.256246
249.525654,-689.485948,-370.102971,11029.068536
249.525962,-4749.792088,-5551.544565,15692.365970
249.526270,-9729.412825,-10658.965565,19319.375086
249.526578,-12334.137518,-12213.398043,21021.848753
249.526886,-11874.480219,-11695.253884,20429.683999
249.527194,-7890.783629,-8956.491898,18579.169144
249.527502,-1072.533697,-2664.741391,12953.603985
249.527810,4136.915689,3108.864956,5033.400406
249.528118,8656.879127,6365.771101,1406.391290
249.528426,11874.480219,10807.006753,-1480.411884
249.528734,12334.137518,11843.295072,-2146.597232
249.529042,11797.870669,11769.274478,-592.164754
249.529350,9193.145976,9030.512492,1998.556043
249.529658,2757.943793,3627.009116,7550.100608
249.529966,-2451.505594,-2368.659014,14063.912898
249.530274,-6358.592633,-8142.265362,18357.107362
249.530582,-10955.165621,-11991.336260,21910.095883
249.530890,-12487.356617,-13397.727550,22354.219448
249.531198,-11797.870669,-11695.253884,20725.766376
249.531506,-7048.078582,-9770.718434,19097.313304
249.531814,76.609550,-1924.535449,11695.253884
249.532122,4366.744339,3701.029710,3849.070898
249.532430,8886.707777,6883.915261,1628.453072
249.532738,11797.870669,11399.171507,-2442.679609
249.533046,12793.794817,12509.480420,-2146.597232
249.533354,11644.651570,12287.418637,-1702.473667
249.533662,8963.317327,9474.636058,1110.308913
249.533970,3140.991542,3701.029710,7846.182985
249.534278,-2451.505594,-1924.535449,13471.748144
249.534586,-6665.030833,-7402.059420,17616.901420
249.534894,-11261.603821,-11547.212695,20503.704593
249.535201,-12717.185267,-11547.212695,21539.992912
249.535509,-10725.336972,-9844.739029,19689.478057
249.535817,-5822.325785,-6439.791695,16728.654289
249.536125,995.924147,-518.144159,10584.944971
249.536433,5362.668486,4515.256246,2960.823768
249.536741,9882.631924,7846.182985,1110.308913
249.537049,12870.404366,10955.047942,-1258.350101
249.537357,12334.137518,12509.480420,-1924.535449
249.537665,11414.822920,11177.109724,888.247130
249.537973,6971.469032,7179.997637,3256.906145
249.538281,919.314598,1036.288319,10807.006753
249.538589,-4136.915689,-4663.297435,15914.427753
249.538897,-8273.831378,-9844.739029,19763.498651
249.539205,-11951.089769,-13545.768739,23094.425390
249.539513,-12640.575717,-13471.748144,21910.095883
249.539821,-10878.556072,-11843.295072,19689.478057
249.540129,-4979.620737,-7846.182985,17542.880825
249.540437,1149.143247,-74.020594,8734.430116
249.540745,5822.325785,5033.400406,2812.782580
249.541053,10189.070123,9030.512492,148.041188
249.541361,12257.527968,12435.459826,-2812.782580
249.541669,13176.842566,12805.562797,-2442.679609
249.541977,10725.336972,12139.377449,-962.267725
249.542285,6435.202183,7772.162391,3182.885551
249.542593,459.657299,1850.514855,9474.636058
249.542901,-4213.525239,-3552.988522,15100.201217
249.543209,-8273.831378,-8882.471304,18949.272115
249.543517,-12104.308868,-11251.130318,20873.807564
249.543825,-12717.185267,-11621.233289,20947.828159
249.544133,-10112.460574,-10214.842000,18801.230927
249.544441,-3524.039291,-4959.379811,15174.221811
249.544749,2221.676944,1406.391290,8290.306550
249.545057,6741.640382,5551.544565,1924.535449
249.545365,10189.070123,8734.430116,370.102971
249.545673,12257.527968,10881.027347,-1850.514855
249.545981,12027.699319,11473.192101,-1110.308913
249.546289,10495.508323,9474.636058,962.267725
249.546596,5822.325785,5329.482782,4959.379811
249.546904,-459.657299,-888.247130,12583.501014
249.547212,-5669.106685,-6069.688724,17024.736666
249.547520,-9576.193725,-11251.130318,21762.054695
249.547828,-12334.137518,-13397.727550,22650.301825
249.548136,-12180.918418,-12361.439231,20725.766376
249.548444,-9652.803275,-10881.027347,19467.416275
249.548752,-2145.067394,-4071.132681,14359.995275
249.549060,3524.039291,2590.720797,5847.626942
249.549368,7354.516781,5847.626942,1998.556043
249.549676,10878.556072,10140.821405,-1406.391290
249.549984,12640.575717,12213.398043,-2664.741391
249.550292,12104.308868,12731.542202,-2294.638420
249.550600,10342.289223,11251.130318,-148.041188
249.550908,5669.106685,5773.606348,4663.297435
249.551216,-459.657299,-148.041188,11695.253884
249.551524,-5592.497135,-5329.482782,16876.695478
249.551832,-10112.460574,-9770.718434,20133.601622
249.552140,-12487.356617,-11843.295072,22058.137072
249.552448,-11338.213370,-10214.842000,20207.622217
249.552756,-8273.831378,-8216.285956,17468.860231
249.553064,-689.485948,-2516.700203,13101.645173
249.553372,4366.744339,2960.823768,6069.688724
249.553680,8273.831378,6291.750507,1406.391290
249.553988,10955.165621,10140.821405,-370.102971
249.554296,11951.089769,10807.006753,-1258.350101
249.554604,11184.994271,11621.233289,0.000000
249.554912,8580.269578,8956.491898,2146.597232
249.555220,3064.381992,3404.947333,8364.327145
249.555528,-2221.676944,-2590.720797,14582.057057
249.555836,-6588.421283,-7846.182985,18209.066173
249.556144,-10572.117872,-11917.315666,21910.095883
249.556452,-12257.527968,-13323.706956,21762.054695
249.556759,-10955.165621,-11621.233289,20799.786970
249.557067,-6818.249932,-9178.553681,17764.942608
249.557375,-459.657299,-1998.556043,10881.027347
249.557683,5132.839837,3404.947333,4885.359217
249.557991,8810.098227,7402.059420,740.205942
249.558299,12257.527968,11473.192101,-2294.638420
249.558607,12334.137518,11621.233289,-2220.617826
249.558915,11261.603821,11843.295072,-1776.494261
249.559223,8197.221829,8734.430116,1480.411884
249.559531,2681.334243,2960.823768,7698.141797
249.559839,-2604.724693,-2368.659014,13471.748144
249.560147,-6741.640382,-6957.935855,17098.757260
249.560455,-10725.336972,-10881.027347,21021.848753
249.560763,-12257.527968,-11547.212695,21317.931130
249.561071,-10265.679673,-9844.739029,19171.333898
249.561379,-5592.497135,-6735.874072,16802.674883
249.561687,689.485948,-444.123565,9474.636058
249.561995,5209.449386,5033.400406,3701.029710
249.562303,9422.974625,7328.038826,1628.453072
249.562611,11644.651570,10436.903782,-1850.514855
249.562919,11797.870669,11251.130318,-1184.329507
249.563227,10648.727422,10807.006753,0.000000
249.563535,6665.030833,7994.224174,3849.070898
249.563843,995.924147,1924.535449,11473.192101
249.564151,-4136.915689,-4071.132681,15988.448347
249.564459,-8503.660028,-9252.574275,19985.560434
249.564767,-12027.699319,-12509.480420,22650.301825
249.565075,-12563.966167,-12879.583391,21984.116477
249.565383,-10572.117872,-10732.986159,19689.478057
249.565691,-4673.182538,-6883.915261,16802.674883
249.565999,612.876398,-0.000000,9178.553681
249.566307,6511.811733,4515.256246,3701.029710
249.566614,9422.974625,8882.471304,296.082377
249.566922,11491.432470,11325.150913,-2590.720797
249.567230,12257.527968,11917.315666,-1332.370696
249.567538,11031.775171,11917.315666,-1036.288319
249.567846,7124.688131,7550.100608,2812.782580
249.568154,1532.190996,1850.514855,10362.883188
249.568462,-3600.648841,-3256.906145,14211.954086
249.568770,-7660.954980,-7846.182985,18357.107362
249.569078,-11184.994271,-11029.068536,21169.889941
249.569386,-11414.822920,-10658.965565,20429.683999
249.569694,-8503.660028,-8216.285956,17320.819043
249.570002,-2911.162892,-4293.194464,13545.768739
249.570310,3370.820191,1776.494261,7105.977043
249.570618,7584.345430,4737.318029,2738.761985
249.570926,9806.022374,8364.327145,222.061783
249.571234,11874.480219,9844.739029,-1554.432478
249.571542,10878.556072,10658.965565,-962.267725
249.571850,9269.755526,9696.697840,1184.329507
249.572158,4366.744339,4589.276840,6735.874072
249.572466,-919.314598,-814.226536,12879.583391
249.572774,-5209.449386,-5699.585753,17098.757260
249.573082,-8350.440928,-10807.006753,20725.766376
249.573390,-12180.918418,-13323.706956,21465.972318
249.573698,-11414.822920,-12805.562797,20429.683999
249.574006,-8273.831378,-10436.903782,18061.024985
249.574314,-1608.800546,-4367.215058,12879.583391
249.574622,3370.820191,1776.494261,6069.688724
249.574930,7201.297681,5107.421000,2294.638420
249.575238,10495.508323,9252.574275,-518.144159
249.575546,11721.261119,10732.986159,-1924.535449
249.575854,11721.261119,10881.027347,-1406.391290
249.576162,9422.974625,10436.903782,370.102971
249.576469,4519.963438,5107.421000,5773.606348
249.576777,-612.876398,-222.061783,11843.295072
249.577085,-5132.839837,-4663.297435,15396.283594
249.577393,-9346.365076,-8956.491898,19689.478057
249.577701,-12027.699319,-11473.192101,21317.931130
249.578009,-10801.946522,-9326.594869,19023.292709
249.578317,-7201.297681,-7179.997637,16802.674883
249.578625,-689.485948,-888.247130,11843.295072
249.578933,3064.381992,3849.070898,4885.359217
249.579241,8197.221829,6217.729913,3256.906145
249.579549,10265.679673,10436.903782,-1332.370696
249.579857,11261.603821,11029.068536,-1184.329507
249.580165,10878.556072,10436.903782,888.247130
249.580473,7354.516781,9104.533087,3256.906145
249.580781,2451.505594,2294.638420,10214.842000
249.581089,-2451.505594,-2516.700203,14582.057057
249.581397,-6281.983084,-7624.121203,18949.272115
249.581705,-10112.460574,-12213.398043,22428.240043
249.582013,-12257.527968,-13101.645173,21317.931130
249.582321,-10572.117872,-11399.171507,20059.581028
249.582629,-5286.058936,-8660.409521,17172.777854
249.582937,229.828649,-1036.288319,10436.903782
249.583245,5056.230287,3034.844362,5033.400406
249.583553,8350.440928,6809.894666,1702.473667
249.583861,10725.336972,10362.883188,-2146.597232
249.584169,11644.651570,11399.171507,-1110.308913
249.584477,11261.603821,11769.274478,-444.123565
249.584785,7354.516781,9104.533087,2146.597232
249.585093,2451.505594,3034.844362,9326.594869
249.585401,-2604.724693,-2294.638420,13915.871710
249.585709,-6665.030833,-6069.688724,16950.716072
249.586017,-10342.289223,-10288.862594,21317.931130
249.586324,-12717.185267,-11177.109724,20873.807564
249.586632,-9882.631924,-9178.553681,18579.169144
249.586940,-4673.182538,-5329.482782,14508.036463
249.587248,842.705048,1554.432478,7846.182985
249.587556,6741.640382,3627.009116,4515.256246
249.587864,9039.926876,8068.244768,1110.308913
249.588172,10648.727422,9770.718434,-1406.391290
249.588480,11874.480219,10510.924376,-740.205942
249.588788,10189.070123,11103.089130,0.000000
249.589096,5975.544884,6069.688724,5181.441594
249.589404,842.705048,666.185348,11251.130318
249.589712,-4136.915689,-3923.091493,16358.551318
249.590020,-7737.564530,-9326.594869,20725.766376
249.590328,-11108.384721,-12731.542202,21910.095883
249.590636,-12027.699319,-12509.480420,20873.807564
249.590944,-9422.974625,-10955.047942,18801.230927
249.591252,-3294.210641,-5181.441594,14137.933492
249.591560,1685.410096,1110.308913,7624.121203
249.591868,7354.516781,3849.070898,4293.194464
249.592176,9499.584175,8438.347739,-814.226536
249.592484,11261.603821,10214.842000,-1628.453072
249.592792,11721.261119,10807.006753,-666.185348
249.593100,10265.679673,10658.965565,-444.123565
249.593408,6281.983084,6291.750507,4959.379811
249.593716,842.705048,1036.288319,9992.780217
249.594024,-3294.210641,-2812.782580,14359.995275
249.594332,-7890.783629,-7772.162391,18505.148550
249.594640,-11108.384721,-11325.150913,21021.848753
249.594948,-11338.213370,-11103.089130,19985.560434
249.595256,-9576.193725,-8438.347739,16876.695478
249.595564,-2528.115143,-3330.926739,13249.686362
249.595872,3064.381992,1776.494261,6661.853478
249.596179,6894.859482,5107.421000,3182.885551
249.596487,9652.803275,8734.430116,-592.164754
249.596795,11568.042020,9770.718434,-1554.432478
249.597103,10878.556072,10214.842000,0.000000
249.597411,8656.879127,9696.697840,2072.576638
249.597719,4673.182538,4071.132681,8586.388927
249.598027,-842.705048,-1332.370696,13101.645173
249.598335,-5286.058936,-5403.503377,16728.654289
249.598643,-8810.098227,-10436.903782,20799.786970
249.598951,-11721.261119,-12583.501014,21391.951724
249.599259,-11261.603821,-11843.295072,20503.704593
249.599567,-8044.002729,-9252.574275,17616.901420
249.599875,-1455.581446,-3478.967927,12879.583391
249.600183,3064.381992,1776.494261,6439.791695
249.600491,7354.516781,4959.379811,3701.029710
249.600799,10189.070123,8734.430116,0.000000
249.601107,11031.775171,10436.903782,-1554.432478
249.601415,11874.480219,10807.006753,-370.102971
249.601723,8810.098227,10362.883188,518.144159
249.602031,4443.353888,4811.338623,7105.977043
249.602339,-459.657299,-296.082377,12065.356855
249.602647,-4903.011187,-3849.070898,16062.468941
249.602955,-9422.974625,-9178.553681,19985.560434
249.603263,-11108.384721,-10955.047942,20725.766376
249.603571,-10878.556072,-8808.450710,18727.210333
249.603879,-6435.202183,-5921.647536,15988.448347
249.604187,-383.047749,148.041188,9474.636058
249.604495,4519.963438,4145.153275,5995.668130
249.604803,7354.516781,6365.771101,2738.761985
249.605111,10112.460574,9696.697840,-814.226536
249.605419,11261.603821,10066.800811,222.061783
249.605727,10342.289223,9844.739029,592.164754
249.606034,6741.640382,6883.915261,3997.112087
249.606342,2068.457845,1628.453072,10066.800811
249.606650,-2528.115143,-2664.741391,14285.974681
249.606958,-6741.640382,-7031.956449,18357.107362
249.607266,-9576.193725,-11177.109724,21021.848753
249.607574,-10955.165621,-11843.295072,21243.910535
249.607882,-10265.679673,-11103.089130,18949.272115
249.608190,-5286.058936,-7846.182985,15988.448347
249.608498,0.000000,-962.267725,9918.759623
249.608806,4443.353888,2590.720797,5403.503377
249.609114,7737.564530,5921.647536,2368.659014
249.609422,9806.022374,8956.491898,-888.247130
249.609730,11108.384721,9992.780217,-370.102971
249.610038,10265.679673,10214.842000,148.041188
249.610346,6894.859482,8142.265362,2664.741391
249.610654,2681.334243,2368.659014,8734.430116
249.610962,-2068.457845,-1406.391290,12361.439231
249.611270,-5975.544884,-5329.482782,15988.448347
249.611578,-9499.584175,-9400.615463,19393.395680
249.611886,-10725.336972,-10288.862594,19319.375086
249.612194,-9269.755526,-7994.224174,17468.860231
249.612502,-3983.696590,-4071.132681,13397.727550
249.612810,1991.848295,1554.432478,7772.162391
249.613118,5515.887586,4367.215058,5329.482782
249.613426,8273.831378,7105.977043,1628.453072
249.613734,10035.851024,8956.491898,0.000000
249.614042,10955.165621,9548.656652,518.144159
249.614350,9882.631924,8808.450710,888.247130
249.614658,5745.716235,4811.338623,5921.647536
249.614966,612.876398,-0.000000,11399.171507
249.615274,-3064.381992,-3701.029710,15692.365970
249.615582,-7354.516781,-8364.327145,18801.230927
249.615890,-10342.289223,-11251.130318,20503.704593
249.616197,-10878.556072,-11695.253884,20207.622217
249.616505,-8733.488677,-9178.553681,17616.901420
249.616813,-3600.648841,-4959.379811,13619.789333
249.617121,2068.457845,-0.000000,8660.409521
249.617429,5056.230287,3330.926739,4663.297435
249.617737,8503.660028,6661.853478,1406.391290
249.618045,9652.803275,9030.512492,-222.061783
249.618353,10648.727422,9474.636058,370.102971
249.618661,8733.488677,9400.615463,962.267725
249.618969,4903.011187,6217.729913,4737.318029
249.619277,1378.971896,962.267725,10214.842000
249.619585,-2911.162892,-2220.617826,12953.603985
249.619893,-6741.640382,-6513.812290,17098.757260
249.620201,-9806.022374,-9474.636058,19023.292709
249.620509,-9806.022374,-8734.430116,18357.107362
249.620817,-7354.516781,-6291.750507,15692.365970
249.621125,-2298.286494,-1628.453072,11251.130318
249.621433,2604.724693,2294.638420,7328.038826
249.621741,6281.983084,4885.359217,3923.091493
249.622049,8810.098227,7624.121203,1776.494261
249.622357,10265.679673,8216.285956,666.185348
249.622665,10035.851024,8956.491898,1258.350101
249.622973,7431.126331,7698.141797,3182.885551
249.623281,3677.258390,2960.823768,8142.265362
249.623589,-306.438199,-1480.411884,13027.624579
249.623897,-4519.963438,-4589.276840,15766.386565
249.624205,-7967.393179,-8882.471304,19393.395680
249.624513,-9882.631924,-10955.047942,20429.683999
249.624821,-9806.022374,-10288.862594,19393.395680
249.625129,-6741.640382,-7550.100608,16580.613101
249.625437,-1532.190996,-2738.761985,11843.295072
249.625745,2374.896044,1110.308913,7920.203579
249.626052,5975.544884,3997.112087,4589.276840
249.626360,8197.221829,7254.018232,1850.514855
249.626668,9346.365076,8660.409521,518.144159
249.626976,9652.803275,9400.615463,740.205942
249.627284,8044.002729,8586.388927,1998.556043
249.627592,4136.915689,4219.173869,6587.832884
249.627900,0.000000,-0.000000,10732.986159
249.628208,-4060.306139,-2886.803174,14137.933492
249.628516,-7660.954980,-7105.977043,17690.922014
249.628824,-9576.193725,-8808.450710,18801.230927
249.629132,-9422.974625,-7846.182985,17764.942608
249.629440,-4903.011187,-4589.276840,14582.057057
249.629748,0.000000,148.041188,9474.636058
249.630056,3907.087040,2738.761985,5847.626942
249.630364,7201.297681,5551.544565,3775.050304
249.630672,8656.879127,8068.244768,1628.453072
249.630980,9806.022374,8216.285956,1258.350101
249.631288,9116.536426,8216.285956,1554.432478
249.631596,6358.592633,5403.503377,4737.318029
249.631904,2911.162892,1480.411884,9548.656652
249.632212,-1072.533697,-2516.700203,12879.583391
249.632520,-5056.230287,-5773.606348,16580.613101
249.632828,-8427.050478,-9548.656652,18949.272115
249.633136,-9806.022374,-10658.965565,19541.436869
249.633444,-8733.488677,-9622.677246,18357.107362
249.633752,-4596.572988,-6143.709319,14656.077652
249.634060,0.000000,-1480.411884,10362.883188
249.634368,3524.039291,1554.432478,6291.750507
249.634676,6665.030833,4441.235652,3775.050304
249.634984,7967.393179,6735.874072,1776.494261
249.635292,9652.803275,8512.368333,1036.288319
249.635600,9039.926876,9030.512492,1258.350101
249.635907,6128.763984,6587.832884,3701.029710
249.636215,2604.724693,2442.679609,7846.182985
249.636523,-1685.410096,-814.226536,11991.336260
249.636831,-6052.154434,-4515.256246,15100.201217
249.637139,-8580.269578,-7550.100608,18283.086767
249.637447,-9959.241474,-8290.306550,18209.066173
249.637755,-7737.564530,-6883.915261,16876.695478
249.638063,-3524.039291,-2886.803174,12805.562797
249.638371,612.876398,962.267725,8438.347739
249.638679,4366.744339,3701.029710,5625.565159
249.638987,6511.811733,6661.853478,3330.926739
249.639295,8120.612279,7698.141797,2442.679609
249.639603,9806.022374,8734.430116,2146.597232
249.639911,8273.831378,7920.203579,2220.617826
249.640219,4903.011187,4811.338623,6439.791695
249.640527,1302.362347,518.144159,10584.944971
249.640835,-2604.724693,-2442.679609,13915.871710
249.641143,-5822.325785,-6809.894666,17246.798449
249.641451,-8120.612279,-9400.615463,19319.375086
249.641759,-8963.317327,-10066.800811,19245.354492
249.642067,-7124.688131,-8068.244768,17468.860231
249.642375,-3447.429741,-4367.215058,13323.706956
249.642683,842.705048,-518.144159,9400.615463
249.642991,3907.087040,2368.659014,5847.626942
249.643299,6741.640382,4959.379811,3775.050304
249.643607,7967.393179,7698.141797,2294.638420
249.643915,9806.022374,8734.430116,1480.411884
249.644223,8427.050478,8364.327145,2220.617826
249.644531,5592.497135,5625.565159,5107.421000
249.644839,1838.629195,1702.473667,8956.491898
249.645147,-2451.505594,-1776.494261,12731.542202
249.645455,-5898.935335,-5033.400406,16136.489536
249.645762,-8427.050478,-7772.162391,17987.004391
249.646070,-8044.002729,-7772.162391,18357.107362
249.646378,-5822.325785,-5181.441594,15396.283594
249.646686,-1915.238745,-1036.288319,10955.047942
249.646994,2374.896044,1702.473667,7105.977043
249.647302,5898.935335,4515.256246,4589.276840
249.647610,7967.393179,6809.894666,2516.700203
249.647918,8810.098227,7920.203579,1406.391290
249.648227,9806.022374,8290.306550,1406.391290
249.648535,7048.078582,6587.832884,4219.173869
249.648843,4060.306139,2368.659014,8068.244768
249.649151,612.876398,-814.226536,11103.089130
249.649459,-3677.258390,-4441.235652,14878.139434
249.649767,-6281.983084,-7994.224174,18579.169144
249.650075,-8810.098227,-9622.677246,19319.375086
249.650383,-8503.660028,-9178.553681,18801.230927
249.650691,-5362.668486,-6587.832884,15322.262999
249.650999,-1225.752797,-3034.844362,11177.109724
249.651307,2298.286494,444.123565,8660.409521
249.651615,5745.716235,3034.844362,5033.400406
249.651923,6665.030833,5551.544565,2220.617826
249.652231,8656.879127,7698.141797,2220.617826
249.652539,8810.098227,8956.491898,1702.473667
249.652847,6128.763984,7254.018232,3404.947333
249.653155,3294.210641,3775.050304,6809.894666
249.653463,-229.828649,-0.000000,10658.965565
249.653771,-3983.696590,-3108.864956,13693.809927
249.654079,-5669.106685,-6809.894666,16654.633695
249.654387,-7967.393179,-7698.141797,17764.942608
249.654695,-7354.516781,-7105.977043,17024.736666
249.655003,-3983.696590,-3923.091493,12805.562797
249.655311,306.438199,592.164754,8882.471304
249.655619,3524.039291,2442.679609,6217.729913
249.655927,5669.106685,5255.462188,3256.906145
249.656235,7507.735880,7550.100608,2738.761985
249.656544,9193.145976,8216.285956,2220.617826
249.656852,7967.393179,7920.203579,2072.576638
249.657160,5669.106685,5477.523971,5625.565159
249.657468,2681.334243,1184.329507,9548.656652
249.657776,-1532.190996,-1850.514855,12435.459826
249.658084,-4979.620737,-5403.503377,16580.613101
249.658392,-6971.469032,-9104.533087,19467.416275
249.658700,-9652.803275,-9770.718434,18949.272115
249.659008,-7507.735880,-9104.533087,17468.860231
249.659316,-3677.258390,-4959.379811,13397.727550
249.659624,229.828649,-1406.391290,9178.553681
249.659932,2834.553343,1406.391290,6809.894666
249.660240,5745.716235,3923.091493,4145.153275
249.660548,6818.249932,6143.709319,2664.741391
249.660856,8580.269578,7550.100608,2294.638420
249.661164,7507.735880,7772.162391,2294.638420
249.661472,4443.353888,5477.523971,5625.565159
249.661780,1378.971896,888.247130,9104.533087
249.662088,-2451.505594,-1776.494261,12287.418637
249.662396,-5515.887586,-4737.318029,15396.283594
249.662704,-7507.735880,-7179.997637,17468.860231
249.663012,-8427.050478,-7179.997637,17246.798449
249.663320,-5898.935335,-5403.503377,15100.201217
249.663628,-1608.800546,-1702.473667,10955.047942
249.663936,2145.067394,1554.432478,7698.141797
249.664244,4366.744339,3701.029710,4737.318029
249.664552,6818.249932,7105.977043,2886.803174
249.664861,8656.879127,8068.244768,2442.679609
249.665169,9116.536426,8586.388927,1480.411884
249.665477,7201.297681,7179.997637,3849.070898
249.665785,4443.353888,3330.926739,7772.162391
249.666093,766.095498,296.082377,10807.006753
249.666401,-3294.210641,-3404.947333,14804.118840
249.666709,-5975.544884,-7328.038826,18431.127956
249.667017,-7814.174080,-9104.533087,19393.395680
249.667325,-8427.050478,-8882.471304,18653.189738
249.667633,-4903.011187,-6809.894666,15396.283594
249.667941,-1225.752797,-2442.679609,11325.150913
249.668249,1532.190996,-0.000000,8734.430116
249.668557,4903.011187,2664.741391,6291.750507
249.668865,7048.078582,5699.585753,3404.947333
249.669173,7660.954980,6883.915261,2368.659014
249.669481,8733.488677,8290.306550,2294.638420
249.669789,6741.640382,7179.997637,3552.988522
249.670097,3064.381992,3701.029710,7402.059420
249.670405,0.000000,-296.082377,10955.047942
249.670713,-3830.477490,-2146.597232,14137.933492
249.671021,-6435.202183,-6217.729913,17320.819043
249.671329,-7967.393179,-7624.121203,17246.798449
249.671637,-7354.516781,-6661.853478,16728.654289
249.671945,-3830.477490,-3997.112087,13471.748144
249.672253,76.609550,-0.000000,8586.388927
249.672561,3447.429741,2664.741391,6661.853478
249.672869,5822.325785,4737.318029,3849.070898
249.673178,7814.174080,7550.100608,2442.679609
249.673486,8810.098227,9178.553681,2442.679609
249.673794,8350.440928,8068.244768,2516.700203
249.674102,5975.544884,5625.565159,5181.441594
249.674410,2451.505594,1406.391290,9474.636058
249.674718,-995.924147,-1776.494261,12361.439231
249.675026,-4826.401637,-5033.400406,16062.468941
249.675334,-6435.202183,-8512.368333,18727.210333
249.675642,-7890.783629,-9178.553681,18357.107362
249.675950,-6511.811733,-8142.265362,16654.633695
249.676258,-3217.601092,-4959.379811,13175.665768
249.676566,766.095498,-740.205942,9178.553681
249.676874,3447.429741,1184.329507,7105.977043
249.677182,5286.058936,3849.070898,4367.215058
249.677490,6665.030833,6291.750507,2590.720797
249.677798,7584.345430,7328.038826,2294.638420
249.678106,7660.954980,7698.141797,2886.803174
249.678414,4596.572988,5329.482782,5107.421000
249.678722,1762.019645,1110.308913,9474.636058
249.679030,-2451.505594,-1924.535449,12657.521608
249.679338,-5822.325785,-4589.276840,14952.160028
249.679646,-7660.954980,-7328.038826,17912.983796
249.679954,-7967.393179,-6809.894666,16802.674883
249.680262,-5669.106685,-5329.482782,15248.242405
249.680570,-1455.581446,-1554.432478,11177.109724
249.680878,2221.676944,1406.391290,6513.812290
249.681187,4749.792088,3256.906145,5107.421000
249.681495,6281.983084,6217.729913,3108.864956
249.681803,7584.345430,8068.244768,2738.761985
249.682111,8427.050478,8290.306550,2220.617826
249.682419,6894.859482,7105.977043,3775.050304
249.682727,3294.210641,3701.029710,7624.121203
249.683035,-153.219100,-518.144159,11177.109724
249.683343,-3447.429741,-2960.823768,14211.954086
249.683651,-6665.030833,-7328.038826,17764.942608
249.683959,-7584.345430,-9400.615463,19615.457463
249.684267,-8350.440928,-8660.409521,17468.860231
249.684575,-4749.792088,-7031.956449,15766.386565
249.684883,-612.876398,-2812.782580,10955.047942
249.685191,1838.629195,148.041188,7031.956449
249.685499,4749.792088,2516.700203,5699.585753
249.685807,6818.249932,5551.544565,3330.926739
249.686115,7967.393179,7550.100608,2516.700203
249.686423,7890.783629,8290.306550,2146.597232
249.686731,7048.078582,7105.977043,3997.112087
249.687039,3064.381992,3478.967927,7179.997637
249.687347,-536.266849,-592.164754,11769.274478
249.687655,-4136.915689,-3478.967927,14582.057057
249.687963,-7201.297681,-6513.812290,17542.880825
249.688271,-8656.879127,-8364.327145,18949.272115
249.688579,-7890.783629,-6587.832884,15914.427753
249.688887,-3294.210641,-4071.132681,14063.912898
249.689195,612.876398,444.123565,8586.388927
249.689504,3753.867940,2960.823768,5477.523971
249.689812,5822.325785,4959.379811,3997.112087
249.690120,7814.174080,7624.121203,2516.700203
249.690428,8810.098227,9030.512492,2442.679609
249.690736,8273.831378,8956.491898,3182.885551
249.691044,6052.154434,6069.688724,5847.626942
249.691352,1838.629195,2294.638420,9178.553681
249.691660,-1532.190996,-1628.453072,12805.562797
249.691968,-4903.011187,-5107.421000,16876.695478
249.692276,-7660.954980,-8734.430116,19393.395680
249.692584,-8427.050478,-10066.800811,18949.272115
249.692892,-6741.640382,-8142.265362,16876.695478
249.693200,-2374.896044,-5625.565159,13693.809927
249.693508,1685.410096,-888.247130,8660.409521
249.693816,4826.401637,1998.556043,5699.585753
249.694124,6511.811733,4589.276840,3330.926739
249.694432,7584.345430,7105.977043,1776.494261
249.694740,8350.440928,8438.347739,2220.617826
249.695048,8580.269578,7920.203579,2590.720797
249.695356,5056.230287,5699.585753,4885.359217
249.695664,1915.238745,814.226536,9030.512492
249.695972,-1991.848295,-2812.782580,13249.686362
249.696280,-6435.202183,-5847.626942,16358.551318
249.696588,-8733.488677,-9326.594869,19615.457463
249.696896,-9269.755526,-8068.244768,17690.922014
249.697204,-6818.249932,-6513.812290,15396.283594
249.697512,-1072.533697,-2886.803174,11621.233289
249.697821,2451.505594,1924.535449,6291.750507
249.698129,5898.935335,3627.009116,4145.153275
249.698437,7124.688131,5995.668130,2294.638420
249.698745,8656.879127,8438.347739,1702.473667
249.699053,8503.660028,9326.594869,2072.576638
249.699361,7431.126331,8364.327145,3552.988522
249.699669,3677.258390,5181.441594,6957.935855
249.699977,-306.438199,-148.041188,10807.006753
249.700285,-3524.039291,-3627.009116,14582.057057
249.700593,-7201.297681,-7105.977043,18505.148550
249.700901,-9116.536426,-9992.780217,20281.642811
249.701209,-9193.145976,-9178.553681,17468.860231
249.701517,-5898.935335,-7179.997637,15914.427753
249.701825,-919.314598,-3404.947333,11695.253884
249.702133,2604.724693,1184.329507,6217.729913
249.702441,6052.154434,2738.761985,4515.256246
249.702749,7431.126331,5699.585753,2072.576638
249.703057,7967.393179,8142.265362,1406.391290
249.703365,8120.612279,8364.327145,2738.761985
249.703673,7048.078582,7402.059420,3849.070898
249.703981,2528.115143,3775.050304,7254.018232
249.704289,-1072.533697,-1406.391290,11547.212695
249.704597,-4673.182538,-4663.297435,15026.180623
249.704905,-8197.221829,-8586.388927,18949.272115
249.705213,-10189.070123,-9770.718434,19763.498651
249.705521,-8656.879127,-8068.244768,16728.654289
249.705829,-5209.449386,-5329.482782,14804.118840
249.706138,766.095498,-222.061783,9918.759623
249.706446,4749.792088,3552.988522,5033.400406
249.706754,7277.907231,5329.482782,2368.659014
249.707062,8810.098227,8290.306550,814.226536
249.707370,9346.365076,10140.821405,740.205942
249.707678,9269.755526,8956.491898,2072.576638
249.707986,6052.154434,7254.018232,4885.359217
249.708294,1991.848295,2516.700203,9178.553681
249.708602,-2145.067394,-2220.617826,13323.706956
249.708910,-5515.887586,-5551.544565,16580.613101
249.709218,-8580.269578,-10066.800811,20799.786970
249.709526,-9806.022374,-10732.986159,20281.642811
249.709834,-8733.488677,-9030.512492,17024.736666
249.710142,-3753.867940,-5773.606348,15322.262999
249.710450,1608.800546,-962.267725,9326.594869
249.710758,5439.278036,2664.741391,4811.338623
249.711066,7890.783629,4885.359217,2738.761985
249.711374,9652.803275,8290.306550,148.041188
249.711682,9959.241474,9992.780217,148.041188
249.711990,8886.707777,9326.594869,1998.556043
249.712298,5669.106685,7105.977043,5033.400406
249.712606,1685.410096,1998.556043,9474.636058
249.712914,-3140.991542,-2590.720797,13841.851115
249.713222,-6588.421283,-6587.832884,17172.777854
249.713530,-9959.241474,-10140.821405,20799.786970
249.713838,-10725.336972,-10140.821405,19985.560434
249.714147,-8810.098227,-7698.141797,16580.613101
249.714455,-3140.991542,-4589.276840,13471.748144
249.714763,1915.238745,1184.329507,8290.306550
249.715071,6052.154434,4367.215058,3849.070898
249.715379,8273.831378,7328.038826,1850.514855
249.715687,10035.851024,9770.718434,0.000000
249.715995,10418.898773,11177.109724,-370.102971
249.716303,8810.098227,10066.800811,2368.659014
249.716611,5056.230287,5625.565159,6291.750507
249.716919,153.219100,1110.308913,10288.862594
249.717227,-3677.258390,-3701.029710,14804.118840
249.717535,-7354.516781,-8068.244768,18431.127956
249.717843,-10342.289223,-11547.212695,21465.972318
249.718151,-10495.508323,-10436.903782,19689.478057
249.718459,-7890.783629,-8512.368333,16580.613101
249.718767,-1685.410096,-4515.256246,12805.562797
249.719075,3447.429741,1110.308913,6513.812290
249.719383,7814.174080,3923.091493,3108.864956
249.719691,9729.412825,6661.853478,518.144159
249.719999,10572.117872,9622.677246,-592.164754
249.720307,10878.556072,10584.944971,518.144159
249.720615,8580.269578,8734.430116,2146.597232
249.720923,4213.525239,5329.482782,6143.709319
249.721231,-1072.533697,-74.020594,11029.068536
249.721539,-4673.182538,-4071.132681,15322.262999
249.721847,-9039.926876,-8512.368333,19245.354492
249.722155,-11031.775171,-11251.130318,21021.848753
249.722464,-11108.384721,-9992.780217,19097.313304
249.722772,-7431.126331,-7846.182985,16358.551318
249.723080,-1762.019645,-2738.761985,11917.315666
249.723388,3294.210641,2146.597232,6661.853478
249.723696,6665.030833,4515.256246,3182.885551
249.724004,8656.879127,8068.244768,740.205942
249.724312,10265.679673,10436.903782,-666.185348
249.724620,9882.631924,10288.862594,592.164754
249.724928,7814.174080,8660.409521,3108.864956
249.725236,3370.820191,4145.153275,7031.956449
249.725544,-1838.629195,-1036.288319,12139.377449
249.725852,-5745.716235,-4663.297435,16284.530724
249.726160,-9039.926876,-9104.533087,20133.601622
249.726468,-10572.117872,-11251.130318,21243.910535
249.726776,-10112.460574,-10140.821405,18135.045579
249.727084,-6281.983084,-7698.141797,15766.386565
249.727392,459.657299,-2146.597232,11325.150913
249.727700,4749.792088,2368.659014,5625.565159
249.728008,7737.564530,4885.359217,2590.720797
249.728316,9806.022374,8290.306550,-74.020594
249.728624,11644.651570,10436.903782,-962.267725
249.728932,10495.508323,10288.862594,222.061783
249.729240,8350.440928,7920.203579,2886.803174
249.729548,3370.820191,3404.947333,7105.977043
249.729856,-1915.238745,-1924.535449,12361.439231
249.730164,-6435.202183,-5921.647536,16654.633695
249.730472,-9959.241474,-10066.800811,20873.807564
249.730781,-12257.527968,-11399.171507,21465.972318
249.731089,-10725.336972,-9770.718434,19245.354492
249.731397,-5439.278036,-7105.977043,16284.530724
249.731705,76.609550,-74.020594,9622.677246
249.732013,5056.230287,2442.679609,4885.359217
249.732321,7814.174080,5773.606348,2664.741391
249.732629,10112.460574,8956.491898,0.000000
249.732937,11261.603821,11399.171507,-370.102971
249.733245,10648.727422,10732.986159,1036.288319
249.733553,6818.249932,8586.388927,3775.050304
249.733861,2451.505594,2738.761985,8586.388927
249.734169,-1915.238745,-1554.432478,13841.851115
249.734477,-7048.078582,-5625.565159,17690.922014
249.734785,-9729.412825,-10436.903782,21614.013506
249.735093,-11261.603821,-11473.192101,21317.931130
249.735401,-9729.412825,-9992.780217,18505.148550
249.735709,-4979.620737,-6291.750507,15470.304188
249.736017,1532.190996,-222.061783,9104.533087
249.736325,5898.935335,2960.823768,4515.256246
249.736633,8580.269578,6069.688724,1850.514855
249.736941,10878.556072,9104.533087,-518.144159
249.737249,11951.089769,11843.295072,-888.247130
249.737557,10189.070123,10214.842000,370.102971
249.737865,6665.030833,7994.224174,3330.926739
249.738173,1991.848295,1924.535449,8882.471304
249.738481,-2911.162892,-2220.617826,13397.727550
249.738789,-6588.421283,-6217.729913,16802.674883
249.739098,-9959.241474,-10436.903782,21317.931130
249.739406,-10648.727422,-10955.047942,20503.704593
249.739714,-9116.536426,-9400.615463,18653.189738
249.740022,-4060.306139,-5921.647536,15100.201217
249.740330,1915.238745,222.061783,8216.285956
249.740638,5515.887586,3256.906145,4071.132681
249.740946,8656.879127,5995.668130,2294.638420
249.741254,10418.898773,9252.574275,-296.082377
249.741562,10648.727422,10288.862594,-666.185348
249.741870,9652.803275,9770.718434,1554.432478
249.742178,5209.449386,6587.832884,5551.544565
249.742486,0.000000,370.102971,10436.903782
249.742794,-3983.696590,-3108.864956,14582.057057
249.743102,-8044.002729,-7328.038826,18431.127956
249.743410,-11108.384721,-11251.130318,21984.116477
249.743718,-11491.432470,-11251.130318,21169.889941
249.744026,-9882.631924,-9178.553681,17987.004391
249.744334,-3064.381992,-4737.318029,14285.974681
249.744642,1915.238745,1628.453072,7402.059420
249.744950,6435.202183,4737.318029,3478.967927
249.745258,9422.974625,7624.121203,814.226536
249.745566,10878.556072,10436.903782,-1850.514855
249.745874,11644.651570,11399.171507,-888.247130
249.746182,9499.584175,9770.718434,444.123565
249.746490,5209.449386,6217.729913,4219.173869
249.746798,459.657299,-0.000000,10214.842000
249.747107,-3983.696590,-3404.947333,14359.995275
249.747415,-8350.440928,-8364.327145,18653.189738
249.747723,-10572.117872,-11325.150913,21465.972318
249.748031,-11261.603821,-9992.780217,19541.436869
249.748339,-7660.954980,-8512.368333,17912.983796
249.748647,-1838.629195,-3701.029710,13175.665768
249.748955,3294.210641,1776.494261,7328.038826
249.749263,6052.154434,4145.153275,2960.823768
249.749571,9499.584175,6735.874072,2886.803174
249.749879,10418.898773,9474.636058,0.000000
249.750187,10495.508323,9992.780217,962.267725
249.750495,7967.393179,8068.244768,3182.885551
249.750803,2451.505594,4737.318029,6809.894666
249.751111,-1302.362347,-1776.494261,13175.665768
249.751419,-5745.716235,-4367.215058,15988.448347
249.751727,-9193.145976,-9030.512492,20651.745782
249.752035,-11108.384721,-11547.212695,21317.931130
249.752343,-11031.775171,-9844.739029,19393.395680
249.752651,-6358.592633,-7772.162391,17987.004391
249.752959,-383.047749,-1998.556043,9844.739029
249.753267,4060.306139,3330.926739,5329.482782
249.753575,8044.002729,5329.482782,2960.823768
249.753884,9806.022374,8882.471304,-518.144159
249.754192,11414.822920,11769.274478,-1184.329507
249.754500,11644.651570,11103.089130,-888.247130
249.754808,8656.879127,9474.636058,666.185348
249.755116,3830.477490,4515.256246,5995.668130
249.755424,-766.095498,-888.247130,12287.418637
249.755732,-5286.058936,-5033.400406,15396.283594
249.756040,-9269.755526,-9178.553681,19615.457463
249.756348,-10955.165621,-10732.986159,20947.828159
249.756656,-9652.803275,-9622.677246,19245.354492
249.756964,-5669.106685,-7105.977043,16580.613101
249.757272,76.609550,-888.247130,9844.739029
249.757580,4673.182538,2442.679609,5477.523971
249.757888,7584.345430,4885.359217,3108.864956
249.758196,9729.412825,8660.409521,518.144159
249.758504,11261.603821,10584.944971,296.082377
249.758812,10189.070123,9326.594869,1258.350101
249.759120,5669.106685,6883.915261,4589.276840
249.759428,1608.800546,1480.411884,9548.656652
249.759736,-3294.210641,-3404.947333,14804.118840
249.760045,-7124.688131,-7254.018232,18283.086767
249.760353,-10801.946522,-11547.212695,22206.178260
249.760661,-11491.432470,-11843.295072,21317.931130
249.760969,-10112.460574,-10436.903782,18431.127956
249.761277,-4903.011187,-6291.750507,15174.221811
249.761585,1915.238745,-0.000000,7846.182985
