#time,accel_x,accel_y,accel_z
442.952962,-401.994197,172.283227,-10164.710405
442.955636,-114.855485,2909.672282,-9877.571693
442.958310,-114.855485,4402.793584,-9035.298138
442.960984,38.285162,4957.928427,-10202.995566
442.963658,421.136778,5570.491013,-9820.143950
442.966332,-612.562586,2660.818731,-8250.452325
442.969006,76.570323,-1244.267752,-10202.995566
442.971680,-76.570323,-5934.200048,-9073.583299
442.974354,-153.140646,-11064.411702,-9896.714274
442.977028,-248.853550,-11925.827838,-10260.423309
442.979702,1378.265818,-3177.668413,-11006.983960
442.982376,-2450.250342,2852.244539,-6948.756830
442.985050,1531.406464,-2239.681954,-11294.122672
442.987724,-631.705166,-210.568389,-10796.415571
442.990398,382.851616,-1627.119368,-6623.332957
442.993072,-344.566454,-1110.269686,-11619.546546
442.995697,-555.134843,-823.130974,-8384.450390
442.998321,-114.855485,19.142581,-8499.305875
443.000946,-172.283227,-842.273555,-10509.276859
443.003570,-19.142581,-1186.840010,-10604.989763
443.006194,-133.998066,-899.701298,-7580.461997
443.008819,153.140646,-1205.982590,-11102.696864
443.011443,-229.710970,-995.414202,-10068.997501
443.014067,-57.427742,-880.558717,-7867.600709
443.016692,-57.427742,-1339.980656,-10834.700733
443.019316,-153.140646,-1091.127106,-9839.286531
443.021940,-57.427742,-1186.840010,-8346.165229
443.024565,-95.712904,-1148.554848,-10815.558152
443.027189,-172.283227,-1091.127106,-10107.282662
443.029813,-0.000000,-957.129040,-8556.733618
443.032438,-153.140646,-689.132909,-10298.708470
443.035062,-95.712904,-535.992262,-9590.432981
443.037686,-0.000000,-516.849682,-8671.589102
443.040311,-172.283227,-689.132909,-10604.989763
443.042935,-57.427742,-1110.269686,-9724.431046
443.045559,-76.570323,-1091.127106,-8575.876198
443.048184,-153.140646,-1148.554848,-10719.845248
443.050808,-172.283227,-880.558717,-9839.286531
443.053432,-38.285162,-880.558717,-8595.018779
443.056057,-95.712904,-995.414202,-10279.565890
443.058681,-114.855485,-880.558717,-9686.145885
443.061305,-0.000000,-823.130974,-8958.727814
443.063930,-95.712904,-861.416136,-10088.140082
443.066554,-133.998066,-842.273555,-9973.284597
443.069178,-19.142581,-937.986459,-8882.157491
443.071803,-172.283227,-976.271621,-10336.993632
443.074427,-57.427742,-1033.699363,-9494.720077
443.077051,-95.712904,-937.986459,-9035.298138
443.079639,-114.855485,-1071.984525,-10317.851051
443.082227,-133.998066,-1071.984525,-9533.005238
443.084815,-38.285162,-937.986459,-9150.153622
443.087403,-114.855485,-861.416136,-10260.423309
443.089991,-95.712904,-746.560651,-9533.005238
443.092578,-0.000000,-708.275490,-9207.581365
443.095166,-38.285162,-861.416136,-10068.997501
443.097754,-76.570323,-880.558717,-9686.145885
443.100342,-0.000000,-1014.556782,-9188.438784
443.102930,-114.855485,-899.701298,-10164.710405
443.105518,-172.283227,-689.132909,-9686.145885
443.108105,-57.427742,-957.129040,-9303.294269
443.110693,-57.427742,-1033.699363,-10011.569758
443.113281,-57.427742,-937.986459,-9494.720077
443.115869,-19.142581,-899.701298,-9456.434915
443.118457,-114.855485,-918.843878,-10088.140082
443.121045,-0.000000,-1014.556782,-9360.722011
443.123632,-95.712904,-842.273555,-9494.720077
443.126220,-153.140646,-727.418070,-10298.708470
443.128808,-95.712904,-995.414202,-9092.725880
443.131396,-19.142581,-1110.269686,-9265.009107
443.133984,-95.712904,-803.988394,-10145.567824
443.136572,-153.140646,-746.560651,-9705.288466
443.139159,-133.998066,-976.271621,-9399.007173
443.141747,-38.285162,-823.130974,-9954.142016
443.144335,-133.998066,-650.847747,-9743.573627
443.146923,-95.712904,-746.560651,-9667.003304
443.149511,-133.998066,-880.558717,-9820.143950
443.152099,-95.712904,-957.129040,-9475.577496
443.154686,-38.285162,-937.986459,-9513.862658
443.157274,-133.998066,-861.416136,-9992.427178
443.159862,-133.998066,-842.273555,-9571.290400
443.162450,-76.570323,-842.273555,-9360.722011
443.165038,-38.285162,-957.129040,-10049.854920
443.167626,-38.285162,-861.416136,-9456.434915
443.170213,-76.570323,-937.986459,-9667.003304
443.172801,-38.285162,-1033.699363,-9820.143950
443.175389,-114.855485,-995.414202,-9590.432981
443.177977,-76.570323,-937.986459,-9686.145885
443.180565,-133.998066,-1014.556782,-9705.288466
443.183135,-95.712904,-1110.269686,-9533.005238
443.185705,-57.427742,-995.414202,-9647.860723
443.188275,-114.855485,-937.986459,-9858.429112
443.190844,-76.570323,-823.130974,-9609.575562
443.193414,-95.712904,-612.562586,-9628.718142
443.195984,-133.998066,-669.990328,-9820.143950
443.198554,-153.140646,-708.275490,-9590.432981
443.201124,-114.855485,-746.560651,-9781.858789
443.203694,-172.283227,-995.414202,-9686.145885
443.206264,-95.712904,-1110.269686,-9628.718142
443.208834,-57.427742,-1148.554848,-9533.005238
443.211404,-95.712904,-957.129040,-9762.716208
443.213973,-57.427742,-823.130974,-9609.575562
443.216543,-133.998066,-823.130974,-9647.860723
443.219113,-57.427742,-823.130974,-9877.571693
443.221683,-76.570323,-899.701298,-9686.145885
443.224253,-95.712904,-937.986459,-9647.860723
443.226823,-114.855485,-995.414202,-9686.145885
443.229393,-133.998066,-918.843878,-9513.862658
443.231963,-76.570323,-880.558717,-9686.145885
443.234532,-95.712904,-899.701298,-9705.288466
443.237102,-57.427742,-976.271621,-9475.577496
443.239672,-133.998066,-918.843878,-9781.858789
443.242242,-76.570323,-765.703232,-9801.001370
443.244812,-76.570323,-784.845813,-9513.862658
443.247382,-57.427742,-918.843878,-9628.718142
443.249952,-57.427742,-899.701298,-9667.003304
443.252522,-57.427742,-918.843878,-9647.860723
443.255092,-76.570323,-842.273555,-9724.431046
443.257661,-114.855485,-918.843878,-9743.573627
443.260231,-114.855485,-918.843878,-9667.003304
443.262801,-95.712904,-995.414202,-9628.718142
443.265371,-133.998066,-976.271621,-9686.145885
443.267941,-95.712904,-957.129040,-9647.860723
443.270511,-76.570323,-880.558717,-9609.575562
443.273081,-114.855485,-823.130974,-9628.718142
443.275651,-95.712904,-995.414202,-9686.145885
443.278220,-38.285162,-976.271621,-9552.147819
443.280790,-133.998066,-937.986459,-9456.434915
443.283360,-133.998066,-899.701298,-9801.001370
443.285914,-38.285162,-1129.412267,-9590.432981
443.288468,-57.427742,-1033.699363,-9724.431046
443.291021,-76.570323,-823.130974,-9667.003304
443.293575,-95.712904,-803.988394,-9647.860723
443.296129,-95.712904,-708.275490,-9571.290400
443.298683,-133.998066,-708.275490,-9686.145885
443.301236,-76.570323,-880.558717,-9667.003304
443.303790,-95.712904,-899.701298,-9724.431046
443.306344,-133.998066,-918.843878,-9533.005238
443.308898,-133.998066,-918.843878,-9667.003304
443.311451,-38.285162,-765.703232,-9858.429112
443.314005,-114.855485,-880.558717,-9475.577496
443.316559,-57.427742,-976.271621,-9781.858789
443.319113,-57.427742,-937.986459,-9552.147819
443.321666,-76.570323,-842.273555,-9705.288466
443.324220,-133.998066,-803.988394,-9667.003304
443.326774,-114.855485,-1033.699363,-9705.288466
443.329328,-114.855485,-937.986459,-9628.718142
443.331881,-0.000000,-1014.556782,-9628.718142
443.334435,-95.712904,-899.701298,-9743.573627
443.336989,-19.142581,-976.271621,-9303.294269
443.339543,-114.855485,-803.988394,-9839.286531
443.342096,-153.140646,-746.560651,-9839.286531
443.344650,-114.855485,-823.130974,-9399.007173
443.347204,-95.712904,-937.986459,-9743.573627
443.349758,-38.285162,-1014.556782,-9590.432981
443.352311,-76.570323,-899.701298,-9609.575562
443.354865,-95.712904,-918.843878,-9647.860723
443.357419,-76.570323,-937.986459,-9647.860723
443.359973,-95.712904,-957.129040,-9609.575562
443.362526,-114.855485,-918.843878,-9801.001370
443.365080,-57.427742,-842.273555,-9552.147819
443.367634,-38.285162,-899.701298,-9724.431046
443.370188,-114.855485,-899.701298,-9762.716208
443.372741,-133.998066,-1033.699363,-9705.288466
443.375295,-57.427742,-1110.269686,-9609.575562
443.377849,-133.998066,-1052.841944,-9647.860723
443.380403,-133.998066,-957.129040,-9552.147819
443.382956,-95.712904,-937.986459,-9686.145885
443.385510,-76.570323,-976.271621,-9705.288466
443.388052,-95.712904,-899.701298,-9667.003304
443.390593,-114.855485,-784.845813,-9820.143950
443.393135,-76.570323,-823.130974,-9647.860723
443.395677,-76.570323,-746.560651,-9533.005238
443.398219,-114.855485,-823.130974,-9743.573627
443.400760,-133.998066,-976.271621,-9743.573627
443.403302,-133.998066,-976.271621,-9513.862658
443.405844,-95.712904,-899.701298,-9628.718142
443.408386,-153.140646,-861.416136,-9686.145885
443.410927,-114.855485,-880.558717,-9667.003304
443.413469,-57.427742,-880.558717,-9628.718142
443.416011,-114.855485,-861.416136,-9667.003304
443.418552,-114.855485,-937.986459,-9628.718142
443.421094,-57.427742,-899.701298,-9647.860723
443.423636,-114.855485,-937.986459,-9686.145885
443.426178,-95.712904,-899.701298,-9762.716208
443.428719,-114.855485,-1033.699363,-9533.005238
443.431261,-76.570323,-957.129040,-9552.147819
443.433803,-76.570323,-899.701298,-9762.716208
443.436344,-76.570323,-899.701298,-9571.290400
443.438886,-57.427742,-937.986459,-9571.290400
443.441428,-57.427742,-937.986459,-9743.573627
443.443970,-76.570323,-880.558717,-9667.003304
443.446511,-133.998066,-803.988394,-9609.575562
443.449053,-95.712904,-842.273555,-9667.003304
443.451595,-76.570323,-842.273555,-9801.001370
443.454137,-172.283227,-937.986459,-9552.147819
443.456678,-133.998066,-957.129040,-9743.573627
443.459220,-172.283227,-842.273555,-9590.432981
443.461762,-95.712904,-899.701298,-9494.720077
443.464303,-0.000000,-995.414202,-9686.145885
443.466845,-38.285162,-995.414202,-9609.575562
443.469387,-95.712904,-899.701298,-9743.573627
443.471929,-76.570323,-880.558717,-9628.718142
443.474470,-76.570323,-937.986459,-9590.432981
443.477012,-133.998066,-899.701298,-9858.429112
443.479554,-114.855485,-823.130974,-9647.860723
443.482095,-57.427742,-1033.699363,-9513.862658
443.484637,-57.427742,-937.986459,-9590.432981
443.487179,-57.427742,-995.414202,-9628.718142
443.489567,-133.998066,-803.988394,-9647.860723
443.491955,-114.855485,-823.130974,-9667.003304
443.494344,-76.570323,-918.843878,-9609.575562
443.496732,-76.570323,-784.845813,-9724.431046
443.499120,-133.998066,-746.560651,-9705.288466
443.501508,-57.427742,-861.416136,-9609.575562
443.503896,-95.712904,-918.843878,-9858.429112
443.506285,-114.855485,-823.130974,-9552.147819
443.508673,-38.285162,-880.558717,-9533.005238
443.511061,-114.855485,-746.560651,-9801.001370
443.513449,-95.712904,-957.129040,-9571.290400
443.515838,-76.570323,-1033.699363,-9705.288466
443.518226,-57.427742,-899.701298,-9743.573627
443.520614,-57.427742,-957.129040,-9533.005238
443.523002,-76.570323,-918.843878,-9667.003304
443.525390,-57.427742,-842.273555,-9801.001370
443.527779,-172.283227,-880.558717,-9571.290400
443.530167,-19.142581,-957.129040,-9590.432981
443.532555,-95.712904,-957.129040,-9743.573627
443.534943,-76.570323,-1129.412267,-9418.149754
443.537332,-95.712904,-957.129040,-9801.001370
443.539720,-57.427742,-765.703232,-9724.431046
443.542108,-76.570323,-689.132909,-9686.145885
443.544496,-95.712904,-631.705166,-9743.573627
443.546885,-38.285162,-842.273555,-9743.573627
443.549273,-114.855485,-1014.556782,-9360.722011
443.551661,-153.140646,-918.843878,-9667.003304
443.554049,-172.283227,-957.129040,-9762.716208
443.556437,-76.570323,-918.843878,-9877.571693
443.558826,-114.855485,-957.129040,-9571.290400
443.561214,-114.855485,-899.701298,-9552.147819
443.563602,-76.570323,-861.416136,-9686.145885
443.565990,-95.712904,-823.130974,-9781.858789
443.568379,-76.570323,-976.271621,-9456.434915
443.570767,-57.427742,-1033.699363,-9590.432981
443.573155,-133.998066,-957.129040,-9743.573627
443.575543,-95.712904,-995.414202,-9628.718142
443.577931,-38.285162,-1014.556782,-9647.860723
443.580320,-114.855485,-976.271621,-9781.858789
443.582708,-95.712904,-937.986459,-9628.718142
443.585147,-114.855485,-880.558717,-9705.288466
443.587586,-38.285162,-823.130974,-9705.288466
443.590025,-76.570323,-689.132909,-9533.005238
443.592464,-114.855485,-727.418070,-9820.143950
443.594902,-172.283227,-823.130974,-9686.145885
443.597341,-95.712904,-957.129040,-9437.292334
443.599780,-76.570323,-899.701298,-9686.145885
443.602219,-95.712904,-842.273555,-9724.431046
443.604658,-57.427742,-880.558717,-9667.003304
443.607097,-76.570323,-995.414202,-9628.718142
443.609536,-76.570323,-957.129040,-9628.718142
443.611975,-57.427742,-899.701298,-9686.145885
443.614414,-114.855485,-842.273555,-9686.145885
443.616853,-95.712904,-880.558717,-9628.718142
443.619291,-76.570323,-957.129040,-9724.431046
443.621730,-57.427742,-1033.699363,-9590.432981
443.624169,-133.998066,-1014.556782,-9533.005238
443.626608,-133.998066,-842.273555,-9801.001370
443.629047,-95.712904,-765.703232,-9781.858789
443.631486,-76.570323,-823.130974,-9437.292334
443.633925,-38.285162,-899.701298,-9552.147819
443.636364,-38.285162,-861.416136,-9801.001370
443.638803,-133.998066,-823.130974,-9609.575562
443.641242,-114.855485,-823.130974,-9647.860723
443.643680,-172.283227,-842.273555,-9686.145885
443.646119,-38.285162,-803.988394,-9743.573627
443.648558,-95.712904,-976.271621,-9475.577496
443.650997,-95.712904,-957.129040,-9781.858789
443.653436,-133.998066,-899.701298,-9590.432981
443.655875,-38.285162,-976.271621,-9743.573627
443.658314,-76.570323,-899.701298,-9820.143950
443.660753,-76.570323,-1014.556782,-9475.577496
443.663192,-95.712904,-1014.556782,-9552.147819
443.665631,-133.998066,-1033.699363,-9743.573627
443.668070,-95.712904,-899.701298,-9667.003304
443.670508,-114.855485,-842.273555,-9552.147819
443.672947,-133.998066,-995.414202,-9590.432981
443.675386,-114.855485,-995.414202,-9571.290400
443.677825,-76.570323,-957.129040,-9762.716208
443.680264,-114.855485,-899.701298,-9667.003304
443.682738,-76.570323,-918.843878,-9667.003304
443.685212,-95.712904,-899.701298,-9724.431046
443.687685,-76.570323,-803.988394,-9628.718142
443.690159,-76.570323,-823.130974,-9628.718142
443.692633,-172.283227,-880.558717,-9647.860723
443.695107,-133.998066,-650.847747,-9686.145885
443.697580,-38.285162,-803.988394,-9705.288466
443.700054,-38.285162,-918.843878,-9743.573627
443.702528,-76.570323,-995.414202,-9571.290400
443.705002,-76.570323,-957.129040,-9647.860723
443.707475,-133.998066,-1052.841944,-9647.860723
443.709949,-133.998066,-823.130974,-9781.858789
443.712423,-19.142581,-957.129040,-9590.432981
443.714897,-95.712904,-803.988394,-9896.714274
443.717370,-38.285162,-918.843878,-9552.147819
443.719844,-95.712904,-976.271621,-9552.147819
443.722318,-114.855485,-937.986459,-9858.429112
443.724792,-153.140646,-957.129040,-9552.147819
443.727265,-76.570323,-1110.269686,-9533.005238
443.729739,-76.570323,-976.271621,-9858.429112
443.732213,-133.998066,-689.132909,-9590.432981
443.734687,-57.427742,-631.705166,-9686.145885
443.737160,-38.285162,-957.129040,-9781.858789
443.739634,-57.427742,-1014.556782,-9571.290400
443.742108,-76.570323,-1014.556782,-9647.860723
443.744582,-57.427742,-995.414202,-9781.858789
443.747055,-133.998066,-880.558717,-9571.290400
443.749529,-57.427742,-937.986459,-9667.003304
443.752003,-114.855485,-842.273555,-9820.143950
443.754477,-57.427742,-803.988394,-9609.575562
443.756950,-95.712904,-861.416136,-9571.290400
443.759424,-95.712904,-899.701298,-9781.858789
443.761898,-0.000000,-1014.556782,-9552.147819
443.764372,-95.712904,-995.414202,-9628.718142
443.766845,-95.712904,-1014.556782,-9686.145885
443.769319,-95.712904,-1033.699363,-9418.149754
443.771793,-114.855485,-899.701298,-9571.290400
443.774267,-133.998066,-803.988394,-9724.431046
443.776740,-19.142581,-918.843878,-9475.577496
443.779214,-76.570323,-784.845813,-9839.286531
443.781711,-38.285162,-823.130974,-9705.288466
443.784208,-57.427742,-784.845813,-9475.577496
443.786706,-114.855485,-746.560651,-9781.858789
443.789203,-114.855485,-784.845813,-9724.431046
443.791700,-114.855485,-861.416136,-9437.292334
443.794197,-76.570323,-880.558717,-9609.575562
443.796694,-95.712904,-784.845813,-9724.431046
443.799191,-95.712904,-918.843878,-9552.147819
443.801688,-76.570323,-918.843878,-9628.718142
443.804185,-38.285162,-861.416136,-9743.573627
443.806682,-95.712904,-937.986459,-9686.145885
443.809179,-95.712904,-861.416136,-9571.290400
443.811676,-76.570323,-937.986459,-9743.573627
443.814174,-114.855485,-937.986459,-9494.720077
443.816671,-95.712904,-842.273555,-9781.858789
443.819168,-76.570323,-976.271621,-9590.432981
443.821665,-57.427742,-976.271621,-9533.005238
443.824162,-57.427742,-746.560651,-9705.288466
443.826659,-153.140646,-689.132909,-9609.575562
443.829156,-95.712904,-803.988394,-9667.003304
443.831653,-172.283227,-842.273555,-9705.288466
443.834150,-76.570323,-880.558717,-9743.573627
443.836647,-76.570323,-976.271621,-9571.290400
443.839144,-0.000000,-861.416136,-9609.575562
443.841642,-76.570323,-880.558717,-9609.575562
443.844139,-133.998066,-957.129040,-9494.720077
443.846636,-95.712904,-842.273555,-9801.001370
443.849133,-95.712904,-823.130974,-9686.145885
443.851630,-76.570323,-1033.699363,-9494.720077
443.854127,-38.285162,-1014.556782,-9628.718142
443.856624,-114.855485,-842.273555,-9858.429112
443.859121,-95.712904,-976.271621,-9590.432981
443.861618,-133.998066,-1014.556782,-9628.718142
443.864115,-95.712904,-976.271621,-9686.145885
443.866613,-76.570323,-861.416136,-9533.005238
443.869110,-95.712904,-976.271621,-9781.858789
443.871607,-133.998066,-1014.556782,-9628.718142
443.874104,-95.712904,-899.701298,-9667.003304
443.876601,-76.570323,-937.986459,-9743.573627
443.879098,-153.140646,-842.273555,-9686.145885
443.881610,-38.285162,-803.988394,-9705.288466
443.884123,-95.712904,-842.273555,-9724.431046
443.886635,-95.712904,-957.129040,-9571.290400
443.889147,-114.855485,-842.273555,-9705.288466
443.891660,-57.427742,-784.845813,-9801.001370
443.894172,-172.283227,-765.703232,-9456.434915
443.896684,-38.285162,-727.418070,-9762.716208
443.899197,-133.998066,-937.986459,-9590.432981
443.901709,-133.998066,-880.558717,-9705.288466
443.904221,-153.140646,-880.558717,-9762.716208
443.906734,-114.855485,-937.986459,-9647.860723
443.909246,-57.427742,-1052.841944,-9456.434915
443.911758,-0.000000,-784.845813,-9858.429112
443.914271,-172.283227,-803.988394,-9647.860723
443.916783,-76.570323,-1091.127106,-9341.579430
443.919295,-76.570323,-918.843878,-9743.573627
443.921808,-76.570323,-899.701298,-9781.858789
443.924320,-57.427742,-708.275490,-9839.286531
443.926832,-57.427742,-899.701298,-9513.862658
443.929345,-76.570323,-880.558717,-9494.720077
443.931857,-76.570323,-765.703232,-9896.714274
443.934369,-172.283227,-727.418070,-9609.575562
443.936882,-114.855485,-899.701298,-9628.718142
443.939394,-38.285162,-995.414202,-9609.575562
443.941906,-38.285162,-1052.841944,-9609.575562
443.944419,-133.998066,-861.416136,-9686.145885
443.946931,-133.998066,-842.273555,-9667.003304
443.949443,-76.570323,-899.701298,-9762.716208
443.951956,-38.285162,-918.843878,-9590.432981
443.954468,-95.712904,-918.843878,-9743.573627
443.956980,-95.712904,-880.558717,-9686.145885
443.959493,-76.570323,-937.986459,-9686.145885
443.962005,-133.998066,-937.986459,-9743.573627
443.964517,-133.998066,-899.701298,-9743.573627
443.967030,-133.998066,-1110.269686,-9609.575562
443.969542,-76.570323,-1071.984525,-9533.005238
443.972054,-38.285162,-957.129040,-9801.001370
443.974567,-38.285162,-1014.556782,-9590.432981
443.977079,-114.855485,-899.701298,-9667.003304
443.979591,-114.855485,-746.560651,-9724.431046
443.982023,-76.570323,-784.845813,-9456.434915
443.984455,-133.998066,-803.988394,-9724.431046
443.986887,-95.712904,-803.988394,-9590.432981
443.989319,-114.855485,-784.845813,-9609.575562
443.991751,-76.570323,-937.986459,-9590.432981
443.994183,-76.570323,-995.414202,-9686.145885
443.996615,-95.712904,-899.701298,-9724.431046
443.999047,-114.855485,-899.701298,-9628.718142
444.001479,-76.570323,-918.843878,-9552.147819
444.003911,-95.712904,-957.129040,-9801.001370
444.006343,-0.000000,-1014.556782,-9552.147819
444.008775,-95.712904,-1014.556782,-9590.432981
444.011207,-57.427742,-937.986459,-9686.145885
444.013639,-114.855485,-823.130974,-9609.575562
444.016071,-95.712904,-823.130974,-9686.145885
444.018503,-19.142581,-976.271621,-9686.145885
444.020935,-95.712904,-861.416136,-9552.147819
444.023367,-114.855485,-842.273555,-9781.858789
444.025799,-76.570323,-918.843878,-9686.145885
444.028231,-38.285162,-861.416136,-9628.718142
444.030663,-95.712904,-995.414202,-9686.145885
444.033095,-76.570323,-1014.556782,-9647.860723
444.035527,-57.427742,-937.986459,-9686.145885
444.037959,-57.427742,-861.416136,-9590.432981
444.040392,-38.285162,-918.843878,-9609.575562
444.042824,-57.427742,-918.843878,-9667.003304
444.045256,-76.570323,-899.701298,-9667.003304
444.047688,-114.855485,-880.558717,-9686.145885
444.050120,-95.712904,-976.271621,-9705.288466
444.052552,-57.427742,-899.701298,-9686.145885
444.054984,-133.998066,-957.129040,-9743.573627
444.057416,-19.142581,-1052.841944,-9667.003304
444.059848,-114.855485,-899.701298,-9667.003304
444.062280,-114.855485,-823.130974,-9667.003304
444.064712,-172.283227,-995.414202,-9628.718142
444.067144,-38.285162,-1014.556782,-9609.575562
444.069576,-57.427742,-995.414202,-9667.003304
444.072008,-57.427742,-899.701298,-9686.145885
444.074440,-95.712904,-918.843878,-9686.145885
444.076872,-57.427742,-861.416136,-9590.432981
444.079340,-95.712904,-784.845813,-9705.288466
444.081808,-133.998066,-842.273555,-9743.573627
444.084276,-133.998066,-823.130974,-9667.003304
444.086744,-38.285162,-899.701298,-9322.436850
444.089212,-95.712904,-689.132909,-9915.856854
444.091680,-95.712904,-823.130974,-9724.431046
444.094149,-76.570323,-957.129040,-9494.720077
444.096617,-38.285162,-976.271621,-9743.573627
444.099085,-57.427742,-995.414202,-9781.858789
444.101553,-133.998066,-918.843878,-9571.290400
444.104021,-95.712904,-957.129040,-9533.005238
444.106489,-76.570323,-880.558717,-9801.001370
444.108957,-114.855485,-823.130974,-9667.003304
444.111426,-133.998066,-899.701298,-9628.718142
444.113894,-76.570323,-976.271621,-9762.716208
444.116362,-38.285162,-937.986459,-9533.005238
444.118830,-76.570323,-823.130974,-9686.145885
444.121298,-95.712904,-861.416136,-9686.145885
444.123766,-19.142581,-784.845813,-9494.720077
444.126234,-133.998066,-803.988394,-9781.858789
444.128703,-95.712904,-995.414202,-9456.434915
444.131171,-133.998066,-1071.984525,-9628.718142
444.133639,-133.998066,-918.843878,-9628.718142
444.136107,-114.855485,-957.129040,-9667.003304
444.138575,-38.285162,-823.130974,-9705.288466
444.141043,-76.570323,-861.416136,-9858.429112
444.143511,-133.998066,-957.129040,-9552.147819
444.145980,-76.570323,-957.129040,-9590.432981
444.148448,-133.998066,-861.416136,-9839.286531
444.150916,-95.712904,-1033.699363,-9494.720077
444.153384,-114.855485,-937.986459,-9552.147819
444.155852,-76.570323,-918.843878,-9762.716208
444.158320,-153.140646,-861.416136,-9628.718142
444.160788,-76.570323,-976.271621,-9533.005238
444.163257,-133.998066,-1014.556782,-9705.288466
444.165725,-153.140646,-861.416136,-9686.145885
444.168193,-76.570323,-899.701298,-9686.145885
444.170661,-133.998066,-918.843878,-9820.143950
444.173129,-76.570323,-918.843878,-9628.718142
444.175597,-114.855485,-842.273555,-9571.290400
444.178090,-133.998066,-861.416136,-9743.573627
444.180584,-95.712904,-880.558717,-9609.575562
444.183077,-38.285162,-669.990328,-9571.290400
444.185571,-114.855485,-918.843878,-9667.003304
444.188065,-76.570323,-937.986459,-9571.290400
444.190558,-57.427742,-899.701298,-9667.003304
444.193052,-38.285162,-957.129040,-9762.716208
444.195546,-133.998066,-957.129040,-9628.718142
444.198039,-133.998066,-899.701298,-9743.573627
444.200533,-57.427742,-918.843878,-9743.573627
444.203027,-95.712904,-1014.556782,-9609.575562
444.205520,-57.427742,-995.414202,-9552.147819
444.208014,-153.140646,-861.416136,-9743.573627
444.210507,-76.570323,-957.129040,-9647.860723
444.213001,-114.855485,-976.271621,-9628.718142
444.215495,-76.570323,-803.988394,-9705.288466
444.217988,-57.427742,-880.558717,-9667.003304
444.220482,-114.855485,-880.558717,-9686.145885
444.222976,-38.285162,-803.988394,-9705.288466
444.225469,-38.285162,-823.130974,-9705.288466
444.227963,-95.712904,-880.558717,-9743.573627
444.230457,-57.427742,-899.701298,-9647.860723
444.232950,-133.998066,-861.416136,-9667.003304
444.235444,-153.140646,-803.988394,-9647.860723
444.237938,-95.712904,-957.129040,-9762.716208
444.240431,-114.855485,-861.416136,-9571.290400
444.242925,-172.283227,-937.986459,-9571.290400
444.245418,-114.855485,-861.416136,-9686.145885
444.247912,-133.998066,-937.986459,-9667.003304
444.250406,-172.283227,-1033.699363,-9590.432981
444.252899,-133.998066,-957.129040,-9801.001370
444.255393,-172.283227,-823.130974,-9705.288466
444.257887,-38.285162,-976.271621,-9456.434915
444.260380,-76.570323,-861.416136,-9705.288466
444.262874,-133.998066,-880.558717,-9762.716208
444.265368,-95.712904,-1014.556782,-9609.575562
444.267861,-95.712904,-957.129040,-9686.145885
444.270355,-95.712904,-823.130974,-9724.431046
444.272848,-76.570323,-823.130974,-9609.575562
444.275342,-114.855485,-899.701298,-9667.003304
444.277780,-76.570323,-880.558717,-9705.288466
444.280218,-153.140646,-689.132909,-9743.573627
444.282655,-57.427742,-1014.556782,-9341.579430
444.285093,-57.427742,-976.271621,-9647.860723
444.287531,-76.570323,-669.990328,-9820.143950
444.289969,-57.427742,-727.418070,-9686.145885
444.292407,-153.140646,-995.414202,-9609.575562
444.294844,-57.427742,-1148.554848,-9456.434915
444.297282,-57.427742,-880.558717,-9647.860723
444.299720,-95.712904,-842.273555,-9973.284597
444.302158,-76.570323,-976.271621,-9475.577496
444.304595,-38.285162,-918.843878,-9494.720077
444.307033,-114.855485,-842.273555,-9992.427178
444.309471,-114.855485,-842.273555,-9571.290400
444.311909,-19.142581,-1148.554848,-9245.866526
444.314347,-172.283227,-727.418070,-10107.282662
444.316784,-172.283227,-784.845813,-9724.431046
444.319222,-133.998066,-708.275490,-9341.579430
444.321660,-57.427742,-880.558717,-9686.145885
444.324098,-76.570323,-727.418070,-9647.860723
444.326535,-133.998066,-842.273555,-9571.290400
444.328973,-76.570323,-937.986459,-9724.431046
444.331411,-172.283227,-918.843878,-9533.005238
444.333849,-95.712904,-976.271621,-9590.432981
444.336287,-38.285162,-957.129040,-9743.573627
444.338724,-76.570323,-899.701298,-9647.860723
444.341162,-133.998066,-861.416136,-9513.862658
444.343600,-133.998066,-803.988394,-9820.143950
444.346038,-114.855485,-1033.699363,-9418.149754
444.348475,-57.427742,-995.414202,-9743.573627
444.350913,-57.427742,-1071.984525,-9724.431046
444.353351,-153.140646,-957.129040,-9494.720077
444.355789,-95.712904,-1014.556782,-9743.573627
444.358227,-76.570323,-1052.841944,-9820.143950
444.360664,-95.712904,-899.701298,-9552.147819
444.363102,-38.285162,-861.416136,-9820.143950
444.365540,-38.285162,-861.416136,-9667.003304
444.367978,-38.285162,-765.703232,-9590.432981
444.370415,-153.140646,-746.560651,-9724.431046
444.372853,-57.427742,-784.845813,-9724.431046
444.375326,-38.285162,-880.558717,-9418.149754
444.377800,-76.570323,-765.703232,-9724.431046
444.380273,-133.998066,-899.701298,-9762.716208
444.382746,-57.427742,-899.701298,-9705.288466
444.385219,-76.570323,-880.558717,-9686.145885
444.387693,-38.285162,-842.273555,-9743.573627
444.390166,-133.998066,-976.271621,-9437.292334
444.392639,-133.998066,-880.558717,-9781.858789
444.395112,-114.855485,-842.273555,-9667.003304
444.397586,-133.998066,-842.273555,-9571.290400
444.400059,-95.712904,-995.414202,-9609.575562
444.402532,-95.712904,-995.414202,-9609.575562
444.405005,-57.427742,-937.986459,-9667.003304
444.407479,-76.570323,-918.843878,-9609.575562
444.409952,-76.570323,-880.558717,-9686.145885
444.412425,-114.855485,-880.558717,-9686.145885
444.414898,-95.712904,-784.845813,-9686.145885
444.417372,-38.285162,-765.703232,-9609.575562
444.419845,-38.285162,-708.275490,-9647.860723
444.422318,-57.427742,-937.986459,-9647.860723
444.424791,-133.998066,-1014.556782,-9628.718142
444.427265,-19.142581,-1033.699363,-9628.718142
444.429738,-57.427742,-937.986459,-9667.003304
444.432211,-0.000000,-976.271621,-9705.288466
444.434684,-95.712904,-957.129040,-9609.575562
444.437158,-95.712904,-823.130974,-9647.860723
444.439631,-76.570323,-765.703232,-9705.288466
444.442104,-133.998066,-918.843878,-9513.862658
444.444578,-38.285162,-1033.699363,-9686.145885
444.447051,-57.427742,-803.988394,-9743.573627
444.449524,-76.570323,-880.558717,-9628.718142
444.451997,-76.570323,-1071.984525,-9533.005238
444.454471,-19.142581,-995.414202,-9781.858789
444.456944,-76.570323,-880.558717,-9686.145885
444.459417,-38.285162,-976.271621,-9552.147819
444.461890,-76.570323,-918.843878,-9667.003304
444.464364,-76.570323,-861.416136,-9686.145885
444.466837,-114.855485,-784.845813,-9590.432981
444.469310,-57.427742,-918.843878,-9647.860723
444.471783,-133.998066,-957.129040,-9513.862658
444.474283,-114.855485,-880.558717,-9590.432981
444.476782,-57.427742,-765.703232,-9839.286531
444.479282,-57.427742,-918.843878,-9437.292334
444.481781,-95.712904,-784.845813,-9686.145885
444.484281,-153.140646,-708.275490,-10049.854920
444.486780,-133.998066,-957.129040,-9437.292334
444.489280,-38.285162,-1071.984525,-9705.288466
444.491779,-38.285162,-937.986459,-9571.290400
444.494279,-153.140646,-784.845813,-9743.573627
444.496778,-38.285162,-1014.556782,-9418.149754
444.499278,-76.570323,-957.129040,-9686.145885
444.501777,-76.570323,-803.988394,-9724.431046
444.504277,-172.283227,-937.986459,-9686.145885
444.506776,-76.570323,-1225.125171,-9475.577496
444.509275,-114.855485,-937.986459,-9609.575562
444.511775,-0.000000,-765.703232,-9762.716208
444.514274,-95.712904,-689.132909,-9686.145885
444.516774,-57.427742,-918.843878,-9743.573627
444.519273,-76.570323,-1052.841944,-9513.862658
444.521773,-38.285162,-861.416136,-9781.858789
444.524272,-76.570323,-918.843878,-9724.431046
444.526772,-38.285162,-957.129040,-9552.147819
444.529271,-57.427742,-899.701298,-9896.714274
444.531771,-76.570323,-823.130974,-9609.575562
444.534270,-114.855485,-861.416136,-9686.145885
444.536770,-95.712904,-861.416136,-9743.573627
444.539269,-172.283227,-861.416136,-9667.003304
444.541769,-114.855485,-937.986459,-9686.145885
444.544268,-114.855485,-880.558717,-9686.145885
444.546768,-95.712904,-995.414202,-9667.003304
444.549267,-76.570323,-1148.554848,-9513.862658
444.551767,-133.998066,-1014.556782,-9647.860723
444.554266,-114.855485,-899.701298,-9858.429112
444.556766,-38.285162,-899.701298,-9571.290400
444.559265,-38.285162,-880.558717,-9743.573627
444.561765,-76.570323,-803.988394,-9647.860723
444.564264,-95.712904,-708.275490,-9667.003304
444.566763,-57.427742,-823.130974,-9686.145885
444.569263,-19.142581,-880.558717,-9724.431046
444.571762,-114.855485,-976.271621,-9533.005238
444.574283,-133.998066,-899.701298,-9667.003304
444.576803,-153.140646,-976.271621,-9743.573627
444.579323,-57.427742,-937.986459,-9647.860723
444.581843,-133.998066,-899.701298,-9743.573627
444.584363,-114.855485,-880.558717,-9647.860723
444.586883,-133.998066,-861.416136,-9590.432981
444.589404,-95.712904,-899.701298,-9762.716208
444.591924,-114.855485,-803.988394,-9533.005238
444.594444,-76.570323,-957.129040,-9762.716208
444.596964,-0.000000,-957.129040,-9724.431046
444.599484,-57.427742,-1033.699363,-9513.862658
444.602004,-95.712904,-861.416136,-9781.858789
444.604525,-76.570323,-784.845813,-9667.003304
444.607045,-95.712904,-861.416136,-9494.720077
444.609565,-133.998066,-842.273555,-9781.858789
444.612085,-133.998066,-784.845813,-9686.145885
444.614605,-95.712904,-803.988394,-9513.862658
444.617126,-95.712904,-842.273555,-9762.716208
444.619646,-95.712904,-918.843878,-9743.573627
444.622166,-114.855485,-880.558717,-9647.860723
444.624686,-95.712904,-995.414202,-9686.145885
444.627206,-76.570323,-937.986459,-9628.718142
444.629726,-57.427742,-880.558717,-9686.145885
444.632247,-76.570323,-823.130974,-9667.003304
444.634767,-95.712904,-861.416136,-9762.716208
444.637287,-76.570323,-957.129040,-9647.860723
444.639807,-76.570323,-957.129040,-9437.292334
444.642327,-76.570323,-937.986459,-9781.858789
444.644847,-114.855485,-880.558717,-9609.575562
444.647368,-172.283227,-861.416136,-9571.290400
444.649888,-38.285162,-1014.556782,-9781.858789
444.652408,-95.712904,-937.986459,-9762.716208
444.654928,-114.855485,-937.986459,-9647.860723
444.657448,-95.712904,-918.843878,-9820.143950
444.659968,-133.998066,-899.701298,-9552.147819
444.662489,-95.712904,-823.130974,-9820.143950
444.665009,-95.712904,-746.560651,-9705.288466
444.667529,-133.998066,-746.560651,-9609.575562
444.670049,-114.855485,-880.558717,-9571.290400
444.672569,-76.570323,-823.130974,-9781.858789
444.675104,-114.855485,-784.845813,-9705.288466
444.677639,-57.427742,-899.701298,-9647.860723
444.680174,-38.285162,-918.843878,-9724.431046
444.682709,-38.285162,-861.416136,-9743.573627
444.685244,-95.712904,-746.560651,-9667.003304
444.687779,-95.712904,-1033.699363,-9705.288466
444.690314,-95.712904,-995.414202,-9341.579430
444.692849,-133.998066,-823.130974,-9915.856854
444.695384,-57.427742,-899.701298,-9667.003304
444.697919,-38.285162,-976.271621,-9513.862658
444.700454,-95.712904,-899.701298,-9743.573627
444.702988,-76.570323,-803.988394,-9934.999435
444.705523,-76.570323,-976.271621,-9590.432981
444.708058,-19.142581,-1091.127106,-9686.145885
444.710593,-38.285162,-823.130974,-9647.860723
444.713128,-133.998066,-612.562586,-9762.716208
444.715663,-153.140646,-708.275490,-9628.718142
444.718198,-76.570323,-1033.699363,-9590.432981
444.720733,-133.998066,-1014.556782,-9590.432981
444.723268,-133.998066,-995.414202,-9820.143950
444.725803,-95.712904,-957.129040,-9456.434915
444.728338,-38.285162,-976.271621,-9743.573627
444.730873,-76.570323,-823.130974,-9686.145885
444.733408,-38.285162,-823.130974,-9724.431046
444.735943,-95.712904,-899.701298,-9743.573627
444.738478,-114.855485,-995.414202,-9571.290400
444.741013,-172.283227,-918.843878,-9571.290400
444.743547,-57.427742,-995.414202,-9820.143950
444.746082,-95.712904,-995.414202,-9647.860723
444.748617,-38.285162,-1014.556782,-9533.005238
444.751152,-95.712904,-1033.699363,-9781.858789
444.753687,-57.427742,-1033.699363,-9647.860723
444.756222,-133.998066,-918.843878,-9552.147819
444.758757,-95.712904,-861.416136,-9858.429112
444.761292,-114.855485,-823.130974,-9647.860723
444.763827,-133.998066,-803.988394,-9513.862658
444.766362,-76.570323,-784.845813,-9724.431046
444.768897,-76.570323,-803.988394,-9552.147819
444.771432,-133.998066,-823.130974,-9667.003304
444.773967,-95.712904,-899.701298,-9743.573627
444.776512,-57.427742,-937.986459,-9571.290400
444.779057,-114.855485,-899.701298,-9762.716208
444.781602,-57.427742,-899.701298,-9628.718142
444.784147,-133.998066,-861.416136,-9686.145885
444.786692,-133.998066,-861.416136,-9552.147819
444.789237,-133.998066,-861.416136,-9686.145885
444.791782,-133.998066,-957.129040,-9571.290400
444.794327,-133.998066,-861.416136,-9743.573627
444.796872,-172.283227,-937.986459,-9667.003304
444.799417,-76.570323,-1033.699363,-9494.720077
444.801962,-57.427742,-976.271621,-9705.288466
444.804507,-95.712904,-861.416136,-9820.143950
444.807052,-114.855485,-880.558717,-9686.145885
444.809597,-133.998066,-842.273555,-9762.716208
444.812142,-114.855485,-842.273555,-9590.432981
444.814687,-133.998066,-823.130974,-9667.003304
444.817232,-57.427742,-880.558717,-9705.288466
444.819777,-95.712904,-880.558717,-9571.290400
444.822322,-114.855485,-899.701298,-9667.003304
444.824867,-76.570323,-937.986459,-9628.718142
444.827412,-76.570323,-937.986459,-9686.145885
444.829957,-38.285162,-765.703232,-9705.288466
444.832502,-133.998066,-861.416136,-9762.716208
444.835047,-76.570323,-937.986459,-9590.432981
444.837592,-95.712904,-861.416136,-9743.573627
444.840137,-95.712904,-976.271621,-9571.290400
444.842682,-133.998066,-1110.269686,-9590.432981
444.845227,-133.998066,-976.271621,-9437.292334
444.847772,-76.570323,-918.843878,-9801.001370
444.850317,-153.140646,-918.843878,-9647.860723
444.852862,-57.427742,-1129.412267,-9571.290400
444.855407,-38.285162,-957.129040,-9801.001370
444.857952,-57.427742,-937.986459,-9667.003304
444.860497,-114.855485,-784.845813,-9609.575562
444.863042,-95.712904,-650.847747,-9743.573627
444.865587,-76.570323,-708.275490,-9475.577496
444.868132,-57.427742,-880.558717,-9628.718142
444.870677,-133.998066,-842.273555,-9858.429112
444.873222,-57.427742,-861.416136,-9628.718142
444.875767,-57.427742,-842.273555,-9628.718142
444.878321,-0.000000,-976.271621,-9705.288466
444.880874,-114.855485,-937.986459,-9571.290400
444.883428,-38.285162,-1014.556782,-9743.573627
444.885981,-57.427742,-1033.699363,-9724.431046
444.888534,-76.570323,-957.129040,-9399.007173
444.891088,-114.855485,-746.560651,-9877.571693
444.893641,-38.285162,-861.416136,-9647.860723
444.896194,-0.000000,-1014.556782,-9494.720077
444.898748,-133.998066,-937.986459,-9762.716208
444.901301,-76.570323,-995.414202,-9724.431046
444.903855,-38.285162,-1071.984525,-9533.005238
444.906408,-133.998066,-957.129040,-9839.286531
444.908961,-57.427742,-823.130974,-9667.003304
444.911515,-133.998066,-708.275490,-9399.007173
444.914068,-57.427742,-631.705166,-9877.571693
444.916622,-153.140646,-765.703232,-9533.005238
444.919175,-38.285162,-976.271621,-9513.862658
444.921728,-153.140646,-861.416136,-9877.571693
444.924282,-76.570323,-1014.556782,-9418.149754
444.926835,-0.000000,-1014.556782,-9743.573627
444.929388,-76.570323,-861.416136,-9820.143950
444.931942,-76.570323,-880.558717,-9399.007173
444.934495,-95.712904,-784.845813,-9801.001370
444.937049,-114.855485,-861.416136,-9667.003304
444.939602,-76.570323,-957.129040,-9475.577496
444.942155,-76.570323,-899.701298,-9762.716208
444.944709,-76.570323,-1033.699363,-9781.858789
444.947262,-95.712904,-957.129040,-9456.434915
444.949815,-19.142581,-1052.841944,-9667.003304
444.952369,-76.570323,-1091.127106,-9781.858789
444.954922,-133.998066,-918.843878,-9628.718142
444.957476,-114.855485,-918.843878,-9552.147819
444.960029,-57.427742,-784.845813,-9724.431046
444.962582,-133.998066,-669.990328,-9513.862658
444.965136,-76.570323,-823.130974,-9647.860723
444.967689,-38.285162,-861.416136,-9743.573627
444.970243,-133.998066,-823.130974,-9647.860723
444.972796,-76.570323,-784.845813,-9781.858789
444.975349,-76.570323,-957.129040,-9686.145885
444.977903,-38.285162,-957.129040,-9513.862658
444.980405,-76.570323,-899.701298,-9801.001370
444.982907,-114.855485,-899.701298,-9456.434915
444.985409,-133.998066,-918.843878,-9686.145885
444.987910,-57.427742,-957.129040,-9705.288466
444.990412,-76.570323,-937.986459,-9667.003304
444.992914,-133.998066,-937.986459,-9628.718142
444.995416,-114.855485,-880.558717,-9609.575562
444.997918,-76.570323,-880.558717,-9667.003304
445.000420,-0.000000,-861.416136,-9609.575562
445.002922,-19.142581,-937.986459,-9724.431046
445.005424,-57.427742,-937.986459,-9667.003304
445.007926,-76.570323,-765.703232,-9590.432981
445.010428,-114.855485,-823.130974,-9743.573627
445.012930,-95.712904,-823.130974,-9628.718142
445.015432,-76.570323,-880.558717,-9571.290400
445.017934,-133.998066,-861.416136,-9781.858789
445.020436,-114.855485,-918.843878,-9628.718142
445.022938,-57.427742,-899.701298,-9686.145885
445.025440,-76.570323,-880.558717,-9609.575562
445.027942,-76.570323,-995.414202,-9628.718142
445.030444,-95.712904,-899.701298,-9705.288466
445.032946,-76.570323,-937.986459,-9743.573627
445.035448,-133.998066,-1014.556782,-9590.432981
445.037950,-76.570323,-995.414202,-9590.432981
445.040452,-76.570323,-899.701298,-9667.003304
445.042954,-95.712904,-995.414202,-9571.290400
445.045456,-76.570323,-1071.984525,-9705.288466
445.047957,-95.712904,-995.414202,-9609.575562
445.050459,-114.855485,-880.558717,-9743.573627
445.052961,-38.285162,-1071.984525,-9628.718142
445.055463,-95.712904,-995.414202,-9628.718142
445.057965,-76.570323,-823.130974,-9705.288466
445.060467,-153.140646,-689.132909,-9647.860723
445.062969,-95.712904,-842.273555,-9571.290400
445.065471,-0.000000,-861.416136,-9609.575562
445.067973,-114.855485,-784.845813,-9896.714274
445.070475,-57.427742,-784.845813,-9801.001370
445.072977,-95.712904,-880.558717,-9456.434915
445.075479,-38.285162,-708.275490,-9820.143950
445.077981,-133.998066,-861.416136,-9628.718142
445.080501,-172.283227,-899.701298,-9533.005238
445.083021,-38.285162,-1014.556782,-9724.431046
445.085540,-95.712904,-861.416136,-9667.003304
445.088060,-114.855485,-842.273555,-9571.290400
445.090580,-95.712904,-842.273555,-9762.716208
445.093100,-38.285162,-1014.556782,-9609.575562
445.095620,-76.570323,-880.558717,-9667.003304
445.098139,-114.855485,-918.843878,-9762.716208
445.100659,-114.855485,-918.843878,-9686.145885
445.103179,-57.427742,-957.129040,-9341.579430
445.105699,-76.570323,-803.988394,-10011.569758
445.108218,-76.570323,-669.990328,-9724.431046
445.110738,-76.570323,-765.703232,-9475.577496
445.113258,-57.427742,-784.845813,-9781.858789
445.115778,-38.285162,-937.986459,-9456.434915
445.118298,-114.855485,-918.843878,-9686.145885
445.120817,-114.855485,-918.843878,-9858.429112
445.123337,-133.998066,-957.129040,-9456.434915
445.125857,-38.285162,-899.701298,-9686.145885
445.128377,-57.427742,-784.845813,-9877.571693
445.130897,-133.998066,-765.703232,-9437.292334
445.133416,-114.855485,-823.130974,-9647.860723
445.135936,-133.998066,-861.416136,-9762.716208
445.138456,-57.427742,-880.558717,-9571.290400
445.140976,-172.283227,-995.414202,-9667.003304
445.143495,-76.570323,-1052.841944,-9781.858789
445.146015,-38.285162,-937.986459,-9513.862658
445.148535,-57.427742,-937.986459,-9743.573627
445.151055,-38.285162,-1052.841944,-9705.288466
445.153575,-76.570323,-957.129040,-9456.434915
445.156094,-76.570323,-899.701298,-9762.716208
445.158614,-133.998066,-842.273555,-9686.145885
445.161134,-57.427742,-746.560651,-9533.005238
445.163654,-76.570323,-784.845813,-9724.431046
445.166174,-114.855485,-880.558717,-9686.145885
445.168693,-153.140646,-803.988394,-9590.432981
445.171213,-38.285162,-784.845813,-9686.145885
445.173733,-95.712904,-899.701298,-9686.145885
445.176253,-95.712904,-937.986459,-9571.290400
445.178773,-76.570323,-861.416136,-9820.143950
445.181304,-95.712904,-861.416136,-9686.145885
445.183837,-153.140646,-861.416136,-9456.434915
445.186370,-38.285162,-937.986459,-9762.716208
445.188902,-95.712904,-957.129040,-9571.290400
445.191435,-76.570323,-1033.699363,-9513.862658
445.193968,-114.855485,-1033.699363,-9724.431046
445.196500,-57.427742,-899.701298,-9743.573627
445.199033,-95.712904,-899.701298,-9552.147819
445.201566,-76.570323,-957.129040,-9858.429112
445.204099,-76.570323,-880.558717,-9609.575562
445.206631,-114.855485,-784.845813,-9609.575562
445.209164,-95.712904,-746.560651,-9724.431046
445.211697,-133.998066,-746.560651,-9628.718142
445.214229,-57.427742,-861.416136,-9705.288466
445.216762,-57.427742,-823.130974,-9686.145885
445.219295,-0.000000,-861.416136,-9475.577496
445.221828,-95.712904,-880.558717,-9686.145885
445.224360,-95.712904,-918.843878,-9667.003304
445.226893,-133.998066,-1014.556782,-9533.005238
445.229426,-133.998066,-957.129040,-9743.573627
445.231958,-114.855485,-842.273555,-9781.858789
445.234491,-76.570323,-937.986459,-9379.864592
445.237024,-38.285162,-1014.556782,-9590.432981
445.239557,-76.570323,-918.843878,-9762.716208
445.242089,-76.570323,-880.558717,-9667.003304
445.244622,-76.570323,-1071.984525,-9533.005238
445.247155,-38.285162,-1014.556782,-9647.860723
445.249687,-114.855485,-803.988394,-9858.429112
445.252220,-76.570323,-995.414202,-9667.003304
445.254753,-133.998066,-976.271621,-9552.147819
445.257286,-57.427742,-861.416136,-9647.860723
445.259818,-133.998066,-861.416136,-9743.573627
445.262351,-95.712904,-899.701298,-9552.147819
445.264884,-57.427742,-880.558717,-9494.720077
445.267416,-114.855485,-765.703232,-9762.716208
445.269949,-38.285162,-842.273555,-9858.429112
445.272482,-57.427742,-918.843878,-9513.862658
445.275015,-0.000000,-842.273555,-9686.145885
445.277547,-95.712904,-727.418070,-9686.145885
445.280080,-95.712904,-957.129040,-9475.577496
445.282623,-76.570323,-918.843878,-9820.143950
445.285167,-76.570323,-918.843878,-9590.432981
445.287710,-114.855485,-1014.556782,-9513.862658
445.290253,-133.998066,-937.986459,-9877.571693
445.292797,-38.285162,-842.273555,-9743.573627
445.295340,-38.285162,-861.416136,-9628.718142
445.297883,-114.855485,-918.843878,-9647.860723
445.300427,-76.570323,-957.129040,-9743.573627
445.302970,-76.570323,-957.129040,-9571.290400
445.305513,-114.855485,-861.416136,-9801.001370
445.308056,-57.427742,-842.273555,-9609.575562
445.310600,-76.570323,-784.845813,-9533.005238
445.313143,-0.000000,-880.558717,-9628.718142
445.315686,-95.712904,-765.703232,-9705.288466
445.318230,-114.855485,-880.558717,-9647.860723
445.320773,-114.855485,-937.986459,-9647.860723
445.323316,-0.000000,-1014.556782,-9743.573627
445.325860,-95.712904,-918.843878,-9628.718142
445.328403,-76.570323,-823.130974,-9801.001370
445.330946,-38.285162,-918.843878,-9628.718142
445.333489,-114.855485,-937.986459,-9628.718142
445.336033,-38.285162,-976.271621,-9743.573627
445.338576,-76.570323,-823.130974,-9628.718142
445.341119,-38.285162,-899.701298,-9743.573627
445.343663,-95.712904,-1167.697429,-9494.720077
445.346206,-114.855485,-957.129040,-9590.432981
445.348749,-153.140646,-918.843878,-9820.143950
445.351293,-114.855485,-937.986459,-9743.573627
445.353836,-19.142581,-1033.699363,-9590.432981
445.356379,-57.427742,-899.701298,-9686.145885
445.358923,-133.998066,-746.560651,-9724.431046
445.361466,-133.998066,-765.703232,-9552.147819
445.364009,-38.285162,-784.845813,-9743.573627
445.366552,-114.855485,-918.843878,-9647.860723
445.369096,-114.855485,-861.416136,-9437.292334
445.371639,-57.427742,-784.845813,-9705.288466
445.374182,-95.712904,-861.416136,-9762.716208
445.376726,-114.855485,-861.416136,-9667.003304
445.379269,-133.998066,-880.558717,-9667.003304
445.381812,-57.427742,-976.271621,-9571.290400
445.384363,-57.427742,-918.843878,-9647.860723
445.386914,-153.140646,-937.986459,-9590.432981
445.389465,-133.998066,-976.271621,-9762.716208
445.392016,-76.570323,-880.558717,-9724.431046
445.394567,-38.285162,-976.271621,-9513.862658
445.397118,-76.570323,-1014.556782,-9609.575562
445.399669,-172.283227,-918.843878,-9686.145885
445.402220,-114.855485,-880.558717,-9801.001370
445.404771,-0.000000,-995.414202,-9552.147819
445.407322,-95.712904,-918.843878,-9513.862658
445.409873,-95.712904,-784.845813,-9762.716208
445.412424,-133.998066,-746.560651,-9609.575562
445.414975,-133.998066,-880.558717,-9628.718142
445.417526,-95.712904,-957.129040,-9724.431046
445.420077,-57.427742,-880.558717,-9743.573627
445.422628,-95.712904,-784.845813,-9533.005238
445.425179,-114.855485,-880.558717,-9858.429112
445.427730,-95.712904,-957.129040,-9571.290400
445.430281,-114.855485,-880.558717,-9552.147819
445.432832,-153.140646,-957.129040,-9820.143950
445.435383,-133.998066,-957.129040,-9667.003304
445.437934,-133.998066,-976.271621,-9494.720077
445.440485,-133.998066,-957.129040,-9781.858789
445.443036,-76.570323,-918.843878,-9686.145885
445.445587,-95.712904,-957.129040,-9475.577496
445.448138,-172.283227,-1033.699363,-9724.431046
445.450689,-57.427742,-937.986459,-9686.145885
445.453240,-114.855485,-880.558717,-9686.145885
445.455791,-172.283227,-937.986459,-9667.003304
445.458342,-114.855485,-995.414202,-9609.575562
445.460893,-76.570323,-842.273555,-9552.147819
445.463444,-114.855485,-918.843878,-9686.145885
445.465994,-57.427742,-899.701298,-9609.575562
445.468545,-133.998066,-784.845813,-9724.431046
445.471096,-76.570323,-708.275490,-9801.001370
445.473647,-153.140646,-803.988394,-9667.003304
445.476198,-153.140646,-899.701298,-9437.292334
445.478749,-95.712904,-899.701298,-9934.999435
445.481300,-172.283227,-803.988394,-9743.573627
445.483851,-38.285162,-1071.984525,-9533.005238
445.486407,-95.712904,-976.271621,-9667.003304
445.488963,-95.712904,-765.703232,-9705.288466
445.491519,-38.285162,-957.129040,-9647.860723
445.494075,-19.142581,-1186.840010,-9456.434915
445.496631,-38.285162,-918.843878,-9743.573627
445.499187,-172.283227,-784.845813,-9801.001370
445.501743,-95.712904,-861.416136,-9743.573627
445.504299,-38.285162,-1148.554848,-9360.722011
445.506854,-57.427742,-842.273555,-9954.142016
445.509410,-133.998066,-650.847747,-9571.290400
445.511966,-95.712904,-765.703232,-9475.577496
445.514522,-95.712904,-899.701298,-9667.003304
445.517078,-38.285162,-861.416136,-9762.716208
445.519634,-133.998066,-937.986459,-9571.290400
445.522190,-133.998066,-937.986459,-9609.575562
445.524746,-133.998066,-1071.984525,-9628.718142
445.527302,-76.570323,-937.986459,-9686.145885
445.529858,-153.140646,-803.988394,-9705.288466
445.532413,-76.570323,-880.558717,-9494.720077
445.534969,-76.570323,-861.416136,-9571.290400
445.537525,-76.570323,-880.558717,-9552.147819
445.540081,-76.570323,-861.416136,-9743.573627
445.542637,-57.427742,-937.986459,-9686.145885
445.545193,-95.712904,-1091.127106,-9590.432981
445.547749,-76.570323,-1014.556782,-9628.718142
445.550305,-0.000000,-1014.556782,-9762.716208
445.552861,-0.000000,-1071.984525,-9858.429112
445.555417,-114.855485,-918.843878,-9571.290400
445.557972,-76.570323,-746.560651,-9724.431046
445.560528,-76.570323,-727.418070,-9724.431046
445.563084,-76.570323,-689.132909,-9571.290400
445.565640,-38.285162,-803.988394,-9647.860723
445.568196,-153.140646,-823.130974,-9705.288466
445.570752,-133.998066,-861.416136,-9571.290400
445.573308,-76.570323,-1014.556782,-9667.003304
445.575864,-76.570323,-995.414202,-9724.431046
445.578420,-133.998066,-880.558717,-9686.145885
445.580976,-114.855485,-880.558717,-9705.288466
445.583531,-114.855485,-957.129040,-9571.290400
445.586087,-76.570323,-899.701298,-9667.003304
445.588647,-95.712904,-899.701298,-9667.003304
445.591207,-172.283227,-880.558717,-9667.003304
445.593767,-153.140646,-861.416136,-9762.716208
445.596327,-95.712904,-1033.699363,-9781.858789
445.598887,-19.142581,-1071.984525,-9686.145885
445.601447,-76.570323,-976.271621,-9686.145885
445.604007,-95.712904,-842.273555,-9705.288466
445.606567,-76.570323,-861.416136,-9647.860723
445.609127,-76.570323,-880.558717,-9647.860723
445.611687,-95.712904,-842.273555,-9609.575562
445.614247,-38.285162,-823.130974,-9686.145885
445.616807,-114.855485,-823.130974,-9609.575562
445.619367,-38.285162,-899.701298,-9571.290400
445.621927,-38.285162,-918.843878,-9820.143950
445.624487,-76.570323,-937.986459,-9667.003304
445.627047,-95.712904,-899.701298,-9647.860723
445.629607,-133.998066,-823.130974,-9705.288466
445.632167,-133.998066,-899.701298,-9590.432981
445.634727,-95.712904,-880.558717,-9628.718142
445.637287,-95.712904,-880.558717,-9743.573627
445.639847,-95.712904,-1033.699363,-9494.720077
445.642407,-38.285162,-957.129040,-9533.005238
445.644967,-133.998066,-957.129040,-9762.716208
445.647527,-57.427742,-937.986459,-9628.718142
445.650087,-38.285162,-995.414202,-9647.860723
445.652647,-95.712904,-1071.984525,-9667.003304
445.655207,-133.998066,-957.129040,-9820.143950
445.657767,-133.998066,-861.416136,-9743.573627
445.660327,-95.712904,-861.416136,-9628.718142
445.662887,-95.712904,-784.845813,-9820.143950
445.665447,-76.570323,-784.845813,-9647.860723
445.668007,-95.712904,-823.130974,-9686.145885
445.670567,-114.855485,-937.986459,-9552.147819
445.673127,-153.140646,-861.416136,-9475.577496
445.675687,-76.570323,-746.560651,-9724.431046
445.678247,-57.427742,-861.416136,-9743.573627
445.680807,-133.998066,-1071.984525,-9552.147819
445.683367,-38.285162,-937.986459,-9667.003304
445.685927,-133.998066,-880.558717,-9820.143950
445.688487,-95.712904,-995.414202,-9379.864592
445.691049,-38.285162,-918.843878,-9475.577496
445.693611,-95.712904,-765.703232,-10011.569758
445.696173,-76.570323,-899.701298,-9456.434915
445.698735,-133.998066,-1071.984525,-9609.575562
445.701297,-38.285162,-957.129040,-9801.001370
445.703859,-114.855485,-880.558717,-9762.716208
445.706421,-38.285162,-1091.127106,-9437.292334
445.708983,-19.142581,-1033.699363,-9686.145885
445.711545,-38.285162,-823.130974,-9533.005238
445.714107,-76.570323,-708.275490,-9647.860723
445.716669,-133.998066,-765.703232,-9647.860723
445.719231,-133.998066,-803.988394,-9724.431046
445.721793,-95.712904,-1091.127106,-9418.149754
445.724355,-95.712904,-1071.984525,-9667.003304
445.726917,-57.427742,-937.986459,-9609.575562
445.729479,-133.998066,-842.273555,-9571.290400
445.732041,-172.283227,-880.558717,-9877.571693
445.734603,-19.142581,-937.986459,-9494.720077
445.737165,-57.427742,-899.701298,-9877.571693
445.739727,-76.570323,-957.129040,-9686.145885
445.742289,-95.712904,-957.129040,-9494.720077
445.744851,-114.855485,-995.414202,-9686.145885
445.747413,-114.855485,-976.271621,-9801.001370
445.749975,-76.570323,-1033.699363,-9494.720077
445.752537,-114.855485,-1091.127106,-9743.573627
445.755099,-133.998066,-937.986459,-9820.143950
445.757661,-38.285162,-899.701298,-9437.292334
445.760223,-95.712904,-899.701298,-9781.858789
445.762785,-114.855485,-746.560651,-9801.001370
445.765347,-95.712904,-784.845813,-9418.149754
445.767909,-153.140646,-803.988394,-9705.288466
445.770471,-133.998066,-899.701298,-9743.573627
445.773033,-57.427742,-937.986459,-9571.290400
445.775595,-95.712904,-957.129040,-9686.145885
445.778157,-133.998066,-861.416136,-9743.573627
445.780719,-57.427742,-937.986459,-9628.718142
445.783281,-95.712904,-823.130974,-9552.147819
445.785843,-133.998066,-784.845813,-9781.858789
445.788405,-76.570323,-823.130974,-9686.145885
445.790967,-172.283227,-1033.699363,-9494.720077
445.793530,-95.712904,-976.271621,-9647.860723
445.796092,-114.855485,-899.701298,-9628.718142
445.798655,-133.998066,-861.416136,-9743.573627
445.801218,-76.570323,-918.843878,-9628.718142
445.803781,-57.427742,-937.986459,-9628.718142
445.806343,-114.855485,-880.558717,-9667.003304
445.808906,-76.570323,-823.130974,-9705.288466
445.811469,-133.998066,-842.273555,-9743.573627
445.814032,-133.998066,-842.273555,-9628.718142
445.816594,-133.998066,-823.130974,-9647.860723
445.819157,-76.570323,-918.843878,-9647.860723
445.821720,-95.712904,-918.843878,-9609.575562
445.824283,-153.140646,-803.988394,-9686.145885
445.826845,-133.998066,-918.843878,-9628.718142
445.829408,-114.855485,-784.845813,-9724.431046
445.831971,-57.427742,-861.416136,-9705.288466
445.834534,-95.712904,-976.271621,-9571.290400
445.837096,-133.998066,-842.273555,-9705.288466
445.839659,-76.570323,-880.558717,-9743.573627
445.842222,-133.998066,-995.414202,-9609.575562
445.844785,-57.427742,-1091.127106,-9647.860723
445.847347,-133.998066,-995.414202,-9647.860723
445.849910,-76.570323,-823.130974,-9724.431046
445.852473,-153.140646,-995.414202,-9628.718142
445.855036,-38.285162,-1071.984525,-9705.288466
445.857598,-19.142581,-957.129040,-9781.858789
445.860161,-76.570323,-918.843878,-9571.290400
445.862724,-172.283227,-784.845813,-9533.005238
445.865287,-38.285162,-880.558717,-9724.431046
445.867850,-95.712904,-803.988394,-9647.860723
445.870412,-133.998066,-803.988394,-9647.860723
445.872975,-76.570323,-880.558717,-9609.575562
445.875538,-38.285162,-765.703232,-9667.003304
445.878101,-19.142581,-784.845813,-9609.575562
445.880663,-38.285162,-861.416136,-9743.573627
445.883226,-57.427742,-1033.699363,-9781.858789
445.885789,-95.712904,-995.414202,-9686.145885
445.888352,-0.000000,-937.986459,-9705.288466
445.890914,-76.570323,-937.986459,-9743.573627
445.893477,-153.140646,-861.416136,-9533.005238
445.896041,-57.427742,-918.843878,-9571.290400
445.898605,-76.570323,-803.988394,-9724.431046
445.901168,-57.427742,-899.701298,-9743.573627
445.903732,-133.998066,-976.271621,-9571.290400
445.906296,-133.998066,-1071.984525,-9705.288466
445.908860,-76.570323,-861.416136,-9858.429112
445.911424,-114.855485,-784.845813,-9609.575562
445.913987,-114.855485,-803.988394,-9494.720077
445.916551,-133.998066,-765.703232,-9686.145885
445.919115,-19.142581,-880.558717,-9781.858789
445.921679,-57.427742,-995.414202,-9647.860723
445.924243,-19.142581,-899.701298,-9667.003304
445.926806,-76.570323,-899.701298,-9667.003304
445.929370,-133.998066,-995.414202,-9628.718142
445.931934,-133.998066,-957.129040,-9456.434915
445.934498,-114.855485,-803.988394,-9801.001370
445.937062,-57.427742,-861.416136,-9839.286531
445.939625,-38.285162,-899.701298,-9628.718142
445.942189,-38.285162,-1014.556782,-9513.862658
445.944753,-114.855485,-976.271621,-9743.573627
445.947317,-38.285162,-1014.556782,-9667.003304
445.949881,-114.855485,-1033.699363,-9552.147819
445.952444,-114.855485,-1014.556782,-9705.288466
445.955008,-76.570323,-976.271621,-9533.005238
445.957572,-114.855485,-823.130974,-9609.575562
445.960136,-76.570323,-861.416136,-9647.860723
445.962700,-57.427742,-880.558717,-9686.145885
445.965263,-95.712904,-803.988394,-9647.860723
445.967827,-57.427742,-784.845813,-9552.147819
445.970391,-38.285162,-918.843878,-9743.573627
445.972955,-57.427742,-861.416136,-9609.575562
445.975519,-57.427742,-823.130974,-9552.147819
445.978082,-114.855485,-918.843878,-9609.575562
445.980646,-76.570323,-937.986459,-9609.575562
445.983210,-57.427742,-899.701298,-9647.860723
445.985774,-57.427742,-937.986459,-9686.145885
445.988338,-133.998066,-861.416136,-9667.003304
445.990901,-133.998066,-918.843878,-9743.573627
445.993465,-114.855485,-918.843878,-9762.716208
445.996029,-76.570323,-1071.984525,-9667.003304
445.998593,-57.427742,-899.701298,-9667.003304
446.001156,-133.998066,-803.988394,-9705.288466
446.003720,-76.570323,-880.558717,-9667.003304
446.006284,-19.142581,-976.271621,-9609.575562
446.008847,-95.712904,-861.416136,-9686.145885
446.011411,-19.142581,-899.701298,-9686.145885
446.013974,-133.998066,-899.701298,-9647.860723
446.016538,-153.140646,-803.988394,-9724.431046
446.019102,-76.570323,-803.988394,-9667.003304
446.021665,-38.285162,-861.416136,-9762.716208
446.024229,-95.712904,-842.273555,-9609.575562
446.026793,-76.570323,-880.558717,-9590.432981
446.029356,-38.285162,-842.273555,-9743.573627
446.031920,-76.570323,-880.558717,-9686.145885
446.034483,-76.570323,-995.414202,-9590.432981
446.037047,-95.712904,-823.130974,-9705.288466
446.039611,-38.285162,-880.558717,-9801.001370
446.042174,-114.855485,-899.701298,-9590.432981
446.044738,-95.712904,-899.701298,-9667.003304
446.047302,-76.570323,-976.271621,-9724.431046
446.049865,-114.855485,-1033.699363,-9456.434915
446.052429,-19.142581,-1052.841944,-9571.290400
446.054992,-114.855485,-842.273555,-9839.286531
446.057556,-172.283227,-1033.699363,-9494.720077
446.060120,-57.427742,-1033.699363,-9533.005238
446.062683,-57.427742,-976.271621,-9724.431046
446.065247,-76.570323,-899.701298,-9743.573627
446.067811,-133.998066,-861.416136,-9667.003304
446.070374,-76.570323,-765.703232,-9705.288466
446.072938,-95.712904,-803.988394,-9609.575562
446.075502,-57.427742,-727.418070,-9724.431046
446.078065,-19.142581,-880.558717,-9533.005238
446.080629,-133.998066,-861.416136,-9571.290400
446.083192,-153.140646,-765.703232,-9801.001370
446.085756,-95.712904,-1033.699363,-9609.575562
446.088320,-95.712904,-937.986459,-9590.432981
446.090883,-114.855485,-784.845813,-9820.143950
446.093447,-114.855485,-803.988394,-9647.860723
446.096011,-95.712904,-1014.556782,-9686.145885
446.098574,-76.570323,-976.271621,-9762.716208
446.101137,-133.998066,-823.130974,-9705.288466
446.103699,-95.712904,-957.129040,-9513.862658
446.106262,-133.998066,-1071.984525,-9647.860723
446.108825,-38.285162,-976.271621,-9705.288466
446.111387,-172.283227,-689.132909,-9743.573627
446.113950,-133.998066,-803.988394,-9724.431046
446.116512,-133.998066,-880.558717,-9494.720077
446.119075,-57.427742,-842.273555,-9571.290400
446.121638,-133.998066,-669.990328,-9973.284597
446.124200,-172.283227,-880.558717,-9418.149754
446.126763,-133.998066,-1091.127106,-9647.860723
446.129326,-38.285162,-1014.556782,-9705.288466
446.131888,-0.000000,-918.843878,-9686.145885
446.134451,-133.998066,-708.275490,-9590.432981
446.137013,-133.998066,-842.273555,-9820.143950
446.139576,-153.140646,-995.414202,-9456.434915
446.142139,-38.285162,-995.414202,-9839.286531
446.144701,-76.570323,-1071.984525,-9571.290400
446.147264,-57.427742,-976.271621,-9628.718142
446.149826,-114.855485,-957.129040,-9686.145885
446.152389,-133.998066,-803.988394,-9647.860723
446.154952,-38.285162,-995.414202,-9590.432981
446.157514,-76.570323,-1071.984525,-9724.431046
446.160077,-76.570323,-842.273555,-9781.858789
446.162640,-38.285162,-957.129040,-9628.718142
446.165202,-76.570323,-823.130974,-9647.860723
446.167765,-114.855485,-823.130974,-9571.290400
446.170327,-76.570323,-746.560651,-9667.003304
446.172890,-114.855485,-880.558717,-9686.145885
446.175453,-95.712904,-880.558717,-9628.718142
446.178015,-76.570323,-746.560651,-9781.858789
446.180578,-76.570323,-880.558717,-9762.716208
446.183140,-114.855485,-880.558717,-9552.147819
446.185703,-38.285162,-823.130974,-9628.718142
446.188266,-38.285162,-899.701298,-9686.145885
446.190828,-95.712904,-995.414202,-9705.288466
446.193391,-57.427742,-880.558717,-9743.573627
446.195953,-38.285162,-995.414202,-9724.431046
446.198516,-114.855485,-1033.699363,-9705.288466
446.201079,-57.427742,-899.701298,-9667.003304
446.203640,-95.712904,-918.843878,-9743.573627
446.206203,-114.855485,-861.416136,-9647.860723
446.208765,-114.855485,-861.416136,-9667.003304
446.211327,-95.712904,-976.271621,-9552.147819
446.213890,-76.570323,-823.130974,-9705.288466
446.216452,-95.712904,-803.988394,-9609.575562
446.219014,-95.712904,-784.845813,-9724.431046
446.221576,-114.855485,-784.845813,-9647.860723
446.224139,-133.998066,-784.845813,-9801.001370
446.226701,-76.570323,-918.843878,-9590.432981
446.229263,-76.570323,-899.701298,-9571.290400
446.231826,-95.712904,-861.416136,-9667.003304
446.234388,-153.140646,-861.416136,-9743.573627
446.236950,-76.570323,-1033.699363,-9590.432981
446.239512,-57.427742,-899.701298,-9667.003304
446.242075,-38.285162,-861.416136,-9686.145885
446.244637,-76.570323,-803.988394,-9647.860723
446.247199,-114.855485,-880.558717,-9628.718142
446.249762,-38.285162,-899.701298,-9743.573627
446.252324,-114.855485,-899.701298,-9762.716208
446.254886,-95.712904,-1052.841944,-9647.860723
446.257449,-133.998066,-1091.127106,-9820.143950
446.260011,-114.855485,-1033.699363,-9781.858789
446.262573,-76.570323,-1033.699363,-9513.862658
446.265135,-95.712904,-823.130974,-9667.003304
446.267698,-76.570323,-765.703232,-9686.145885
446.270260,-153.140646,-784.845813,-9475.577496
446.272822,-76.570323,-842.273555,-9705.288466
446.275385,-38.285162,-784.845813,-9724.431046
446.277947,-133.998066,-708.275490,-9781.858789
446.280509,-76.570323,-823.130974,-9743.573627
446.283071,-76.570323,-1110.269686,-9475.577496
446.285592,-57.427742,-957.129040,-9801.001370
446.288112,-114.855485,-842.273555,-9667.003304
446.290632,-38.285162,-1071.984525,-9667.003304
446.293152,-95.712904,-976.271621,-9609.575562
446.295672,-38.285162,-842.273555,-9513.862658
446.298192,-114.855485,-746.560651,-9724.431046
446.300712,-133.998066,-976.271621,-9552.147819
446.303232,-57.427742,-957.129040,-9667.003304
446.305753,-76.570323,-957.129040,-9762.716208
446.308273,-114.855485,-976.271621,-9609.575562
446.310793,-38.285162,-1167.697429,-9379.864592
446.313313,-133.998066,-842.273555,-9896.714274
446.315833,-57.427742,-650.847747,-9609.575562
446.318353,-114.855485,-574.277424,-9743.573627
446.320873,-0.000000,-842.273555,-9552.147819
446.323393,-133.998066,-1033.699363,-9628.718142
446.325914,-172.283227,-976.271621,-9667.003304
446.328434,-114.855485,-957.129040,-9820.143950
446.330954,-76.570323,-918.843878,-9609.575562
446.333474,-95.712904,-995.414202,-9667.003304
446.335994,-133.998066,-861.416136,-9667.003304
446.338514,-38.285162,-842.273555,-9820.143950
446.341034,-153.140646,-823.130974,-9475.577496
446.343554,-95.712904,-918.843878,-9743.573627
446.346074,-38.285162,-1033.699363,-9571.290400
446.348595,-76.570323,-995.414202,-9647.860723
446.351115,-95.712904,-1052.841944,-9647.860723
446.353635,-19.142581,-1033.699363,-9609.575562
446.356155,-95.712904,-1014.556782,-9628.718142
446.358675,-76.570323,-918.843878,-9858.429112
446.361195,-57.427742,-937.986459,-9552.147819
446.363715,-114.855485,-842.273555,-9743.573627
446.366235,-38.285162,-861.416136,-9743.573627
446.368756,-133.998066,-803.988394,-9571.290400
446.371276,-114.855485,-746.560651,-9705.288466
446.373796,-38.285162,-842.273555,-9820.143950
446.376316,-95.712904,-957.129040,-9571.290400
446.378836,-76.570323,-842.273555,-9705.288466
446.381356,-76.570323,-803.988394,-9686.145885
446.383876,-133.998066,-842.273555,-9686.145885
446.386405,-95.712904,-842.273555,-9571.290400
446.388935,-133.998066,-937.986459,-9609.575562
446.391464,-133.998066,-937.986459,-9628.718142
446.393993,-38.285162,-995.414202,-9705.288466
446.396522,-114.855485,-880.558717,-9609.575562
446.399051,-57.427742,-937.986459,-9628.718142
446.401580,-57.427742,-918.843878,-9667.003304
446.404109,-76.570323,-937.986459,-9628.718142
446.406638,-76.570323,-918.843878,-9743.573627
446.409167,-76.570323,-880.558717,-9705.288466
446.411696,-76.570323,-880.558717,-9705.288466
446.414226,-133.998066,-861.416136,-9667.003304
446.416755,-114.855485,-899.701298,-9743.573627
446.419284,-76.570323,-823.130974,-9628.718142
446.421813,-38.285162,-823.130974,-9609.575562
446.424342,-153.140646,-842.273555,-9743.573627
446.426871,-95.712904,-861.416136,-9724.431046
446.429400,-76.570323,-880.558717,-9494.720077
446.431929,-38.285162,-899.701298,-9858.429112
446.434458,-76.570323,-1014.556782,-9686.145885
446.436987,-57.427742,-957.129040,-9513.862658
446.439516,-133.998066,-823.130974,-9858.429112
446.442046,-19.142581,-899.701298,-9609.575562
446.444575,-76.570323,-995.414202,-9552.147819
446.447104,-153.140646,-957.129040,-9801.001370
446.449633,-76.570323,-880.558717,-9686.145885
446.452162,-114.855485,-899.701298,-9494.720077
446.454691,-38.285162,-1110.269686,-9609.575562
446.457220,-133.998066,-937.986459,-9781.858789
446.459749,-95.712904,-899.701298,-9686.145885
446.462278,-76.570323,-880.558717,-9667.003304
446.464807,-172.283227,-880.558717,-9609.575562
446.467337,-76.570323,-727.418070,-9781.858789
446.469866,-95.712904,-765.703232,-9590.432981
446.472395,-95.712904,-765.703232,-9667.003304
446.474924,-57.427742,-823.130974,-9667.003304
446.477453,-95.712904,-823.130974,-9628.718142
446.479982,-19.142581,-976.271621,-9533.005238
446.482511,-76.570323,-995.414202,-9743.573627
446.485040,-133.998066,-899.701298,-9781.858789
446.487576,-76.570323,-1033.699363,-9533.005238
446.490111,-133.998066,-861.416136,-9743.573627
446.492647,-76.570323,-899.701298,-9724.431046
446.495182,-57.427742,-995.414202,-9609.575562
446.497718,-57.427742,-899.701298,-9571.290400
446.500254,-0.000000,-823.130974,-9781.858789
446.502789,-95.712904,-880.558717,-9590.432981
446.505325,-95.712904,-957.129040,-9743.573627
446.507860,-76.570323,-861.416136,-9628.718142
446.510396,-95.712904,-1033.699363,-9647.860723
446.512931,-172.283227,-918.843878,-9647.860723
446.515467,-76.570323,-784.845813,-9705.288466
446.518003,-133.998066,-555.134843,-9533.005238
446.520538,-76.570323,-689.132909,-9628.718142
446.523074,-57.427742,-918.843878,-9705.288466
446.525609,-76.570323,-937.986459,-9513.862658
446.528145,-133.998066,-880.558717,-9724.431046
446.530680,-95.712904,-899.701298,-9647.860723
446.533216,-133.998066,-995.414202,-9705.288466
446.535752,-76.570323,-861.416136,-9590.432981
446.538287,-38.285162,-803.988394,-9705.288466
446.540823,-95.712904,-880.558717,-9743.573627
446.543358,-57.427742,-899.701298,-9705.288466
446.545894,-153.140646,-1052.841944,-9628.718142
446.548429,-57.427742,-995.414202,-9686.145885
446.550965,-38.285162,-957.129040,-9743.573627
446.553500,-76.570323,-976.271621,-9456.434915
446.556036,-38.285162,-976.271621,-9781.858789
446.558572,-95.712904,-899.701298,-9609.575562
446.561107,-38.285162,-842.273555,-9437.292334
446.563643,-133.998066,-842.273555,-9743.573627
446.566178,-133.998066,-823.130974,-9647.860723
446.568714,-76.570323,-823.130974,-9667.003304
446.571249,-57.427742,-746.560651,-9705.288466
446.573785,-76.570323,-861.416136,-9762.716208
446.576321,-76.570323,-937.986459,-9667.003304
446.578856,-76.570323,-937.986459,-9686.145885
446.581392,-57.427742,-880.558717,-9686.145885
446.583927,-133.998066,-861.416136,-9571.290400
446.586463,-57.427742,-918.843878,-9609.575562
446.588964,-38.285162,-861.416136,-9743.573627
446.591465,-0.000000,-1014.556782,-9494.720077
446.593966,-76.570323,-957.129040,-9686.145885
446.596467,-133.998066,-937.986459,-9820.143950
446.598967,-114.855485,-957.129040,-9667.003304
446.601468,-153.140646,-918.843878,-9743.573627
446.603969,-57.427742,-1052.841944,-9609.575562
446.606470,-114.855485,-880.558717,-9590.432981
446.608971,-19.142581,-880.558717,-9781.858789
446.611472,-57.427742,-842.273555,-9494.720077
446.613973,-0.000000,-861.416136,-9609.575562
446.616474,-76.570323,-842.273555,-9552.147819
446.618975,-95.712904,-842.273555,-9743.573627
446.621476,-57.427742,-937.986459,-9743.573627
446.623977,-133.998066,-861.416136,-9743.573627
446.626478,-114.855485,-880.558717,-9686.145885
446.628979,-95.712904,-937.986459,-9571.290400
446.631479,-95.712904,-995.414202,-9647.860723
446.633980,-57.427742,-957.129040,-9552.147819
446.636481,-57.427742,-937.986459,-9647.860723
446.638982,-38.285162,-957.129040,-9781.858789
446.641483,-76.570323,-918.843878,-9628.718142
446.643984,-133.998066,-1014.556782,-9609.575562
446.646485,-95.712904,-918.843878,-9667.003304
446.648986,-95.712904,-937.986459,-9513.862658
446.651487,-95.712904,-899.701298,-9686.145885
446.653988,-76.570323,-918.843878,-9628.718142
446.656489,-38.285162,-1033.699363,-9667.003304
446.658990,-57.427742,-937.986459,-9628.718142
446.661491,-57.427742,-1033.699363,-9705.288466
446.663991,-57.427742,-880.558717,-9628.718142
446.666492,-38.285162,-842.273555,-9686.145885
446.668993,-95.712904,-708.275490,-9686.145885
446.671494,-133.998066,-823.130974,-9647.860723
446.673995,-76.570323,-937.986459,-9571.290400
446.676496,-95.712904,-842.273555,-9858.429112
446.678997,-38.285162,-765.703232,-9667.003304
446.681498,-0.000000,-957.129040,-9590.432981
446.683999,-133.998066,-918.843878,-9686.145885
446.686500,-38.285162,-976.271621,-9590.432981
446.689014,-38.285162,-1091.127106,-9762.716208
446.691528,-95.712904,-899.701298,-9552.147819
446.694042,-76.570323,-746.560651,-9533.005238
446.696556,-114.855485,-880.558717,-9705.288466
446.699070,-76.570323,-1014.556782,-9667.003304
446.701584,-19.142581,-1052.841944,-9609.575562
446.704098,-76.570323,-861.416136,-9877.571693
446.706612,-76.570323,-976.271621,-9839.286531
446.709126,-95.712904,-976.271621,-9437.292334
446.711640,-19.142581,-1033.699363,-9743.573627
446.714154,-95.712904,-669.990328,-9686.145885
446.716668,-133.998066,-555.134843,-9705.288466
446.719182,-95.712904,-803.988394,-9647.860723
446.721696,38.285162,-918.843878,-9705.288466
446.724210,-0.000000,-918.843878,-9667.003304
446.726724,-114.855485,-937.986459,-9705.288466
446.729238,-95.712904,-937.986459,-9686.145885
446.731752,-38.285162,-976.271621,-9418.149754
446.734266,-76.570323,-899.701298,-9801.001370
446.736780,-57.427742,-937.986459,-9686.145885
446.739294,-76.570323,-918.843878,-9590.432981
446.741808,-172.283227,-899.701298,-9686.145885
446.744322,-57.427742,-957.129040,-9609.575562
446.746836,-133.998066,-995.414202,-9667.003304
446.749350,-114.855485,-937.986459,-9686.145885
446.751864,-57.427742,-995.414202,-9628.718142
446.754378,-95.712904,-1071.984525,-9724.431046
446.756892,-57.427742,-918.843878,-9743.573627
446.759406,-0.000000,-957.129040,-9609.575562
446.761920,-133.998066,-880.558717,-9686.145885
446.764434,-114.855485,-803.988394,-9647.860723
446.766948,-76.570323,-842.273555,-9552.147819
446.769462,-38.285162,-823.130974,-9647.860723
446.771976,-114.855485,-784.845813,-9590.432981
446.774490,-76.570323,-708.275490,-9705.288466
446.777005,-172.283227,-880.558717,-9705.288466
446.779519,-133.998066,-861.416136,-9743.573627
446.782033,-57.427742,-899.701298,-9762.716208
446.784547,-76.570323,-957.129040,-9437.292334
446.787061,-114.855485,-976.271621,-9820.143950
446.789585,-133.998066,-918.843878,-9590.432981
446.792109,-57.427742,-995.414202,-9533.005238
446.794633,-76.570323,-861.416136,-9762.716208
446.797157,-57.427742,-899.701298,-9647.860723
446.799681,-114.855485,-880.558717,-9686.145885
446.802205,-95.712904,-937.986459,-9647.860723
446.804729,-133.998066,-1014.556782,-9628.718142
446.807253,-114.855485,-899.701298,-9609.575562
446.809777,-95.712904,-861.416136,-9743.573627
446.812301,-76.570323,-784.845813,-9533.005238
446.814825,-95.712904,-823.130974,-9686.145885
446.817349,-114.855485,-823.130974,-9686.145885
446.819874,-76.570323,-842.273555,-9571.290400
446.822398,-114.855485,-880.558717,-9590.432981
446.824922,-95.712904,-803.988394,-9724.431046
446.827446,-172.283227,-880.558717,-9609.575562
446.829970,-38.285162,-918.843878,-9743.573627
446.832494,-76.570323,-842.273555,-9801.001370
446.835018,-57.427742,-842.273555,-9686.145885
446.837542,-133.998066,-899.701298,-9494.720077
446.840066,-114.855485,-937.986459,-9801.001370
446.842590,-38.285162,-976.271621,-9820.143950
446.845114,-95.712904,-976.271621,-9533.005238
446.847638,-38.285162,-1014.556782,-9705.288466
446.850162,-114.855485,-899.701298,-9686.145885
446.852686,-133.998066,-1014.556782,-9590.432981
446.855211,-38.285162,-1110.269686,-9705.288466
446.857735,-95.712904,-823.130974,-9609.575562
446.860259,-76.570323,-708.275490,-9667.003304
446.862783,-133.998066,-803.988394,-9705.288466
446.865307,-114.855485,-689.132909,-9686.145885
446.867831,-38.285162,-861.416136,-9590.432981
446.870355,-95.712904,-803.988394,-9705.288466
446.872879,-133.998066,-823.130974,-9609.575562
446.875403,-95.712904,-823.130974,-9705.288466
446.877927,-95.712904,-803.988394,-9609.575562
446.880451,-133.998066,-823.130974,-9647.860723
446.882975,-38.285162,-957.129040,-9858.429112
446.885499,-133.998066,-957.129040,-9437.292334
446.888024,-57.427742,-957.129040,-9858.429112
446.890556,-95.712904,-918.843878,-9705.288466
446.893089,-76.570323,-899.701298,-9609.575562
446.895622,-38.285162,-918.843878,-9762.716208
446.898154,-133.998066,-880.558717,-9628.718142
446.900687,-57.427742,-1091.127106,-9494.720077
446.903220,-76.570323,-937.986459,-9686.145885
446.905752,-57.427742,-880.558717,-9590.432981
446.908285,-172.283227,-918.843878,-9686.145885
446.910818,-172.283227,-861.416136,-9667.003304
446.913351,-95.712904,-823.130974,-9552.147819
446.915883,-38.285162,-746.560651,-9667.003304
446.918416,-114.855485,-765.703232,-9686.145885
446.920949,-38.285162,-861.416136,-9552.147819
446.923481,-114.855485,-803.988394,-9858.429112
446.926014,-133.998066,-995.414202,-9705.288466
446.928547,-57.427742,-1033.699363,-9475.577496
446.931080,-57.427742,-842.273555,-9801.001370
446.933612,-172.283227,-880.558717,-9609.575562
446.936145,-57.427742,-918.843878,-9628.718142
446.938678,-76.570323,-918.843878,-9667.003304
446.941210,-57.427742,-842.273555,-9705.288466
446.943743,-133.998066,-957.129040,-9533.005238
446.946276,-95.712904,-995.414202,-9628.718142
446.948808,-114.855485,-937.986459,-9667.003304
446.951341,-133.998066,-995.414202,-9686.145885
446.953874,-57.427742,-1091.127106,-9724.431046
446.956407,-57.427742,-937.986459,-9628.718142
446.958939,-57.427742,-880.558717,-9686.145885
446.961472,-172.283227,-784.845813,-9801.001370
446.964005,-95.712904,-689.132909,-9647.860723
446.966537,-19.142581,-784.845813,-9628.718142
446.969070,-95.712904,-880.558717,-9686.145885
446.971603,-76.570323,-899.701298,-9686.145885
446.974136,-133.998066,-803.988394,-9590.432981
446.976668,-57.427742,-899.701298,-9686.145885
446.979201,-114.855485,-995.414202,-9609.575562
446.981734,-38.285162,-918.843878,-9705.288466
446.984266,-95.712904,-880.558717,-9877.571693
446.986799,-114.855485,-784.845813,-9609.575562
446.989332,-76.570323,-861.416136,-9686.145885
446.991833,-38.285162,-918.843878,-9801.001370
446.994335,-0.000000,-976.271621,-9705.288466
446.996836,-95.712904,-1014.556782,-9647.860723
446.999338,-95.712904,-880.558717,-9686.145885
447.001839,-95.712904,-995.414202,-9609.575562
447.004341,-57.427742,-937.986459,-9609.575562
447.006842,-153.140646,-918.843878,-9781.858789
447.009344,-57.427742,-746.560651,-9475.577496
447.011845,-38.285162,-803.988394,-9628.718142
447.014347,-95.712904,-803.988394,-9647.860723
447.016848,-19.142581,-880.558717,-9590.432981
447.019350,-57.427742,-842.273555,-9762.716208
447.021851,-95.712904,-957.129040,-9686.145885
447.024353,-76.570323,-918.843878,-9571.290400
447.026854,-114.855485,-880.558717,-9667.003304
447.029356,-95.712904,-957.129040,-9705.288466
447.031857,-95.712904,-861.416136,-9437.292334
447.034359,-133.998066,-861.416136,-9686.145885
447.036860,-19.142581,-976.271621,-9743.573627
447.039362,-38.285162,-957.129040,-9475.577496
447.041863,-95.712904,-937.986459,-9667.003304
447.044365,-133.998066,-899.701298,-9877.571693
447.046866,-172.283227,-1071.984525,-9475.577496
447.049368,-95.712904,-1071.984525,-9705.288466
447.051869,-172.283227,-880.558717,-9954.142016
447.054371,-57.427742,-1014.556782,-9475.577496
447.056872,-95.712904,-976.271621,-9475.577496
447.059374,-57.427742,-880.558717,-9686.145885
447.061875,-76.570323,-765.703232,-9647.860723
447.064377,-76.570323,-746.560651,-9609.575562
447.066879,-133.998066,-803.988394,-9667.003304
447.069380,-95.712904,-899.701298,-9628.718142
447.071882,-95.712904,-842.273555,-9667.003304
447.074383,-114.855485,-765.703232,-9724.431046
447.076885,-76.570323,-823.130974,-9705.288466
447.079386,-38.285162,-842.273555,-9533.005238
447.081888,-0.000000,-1014.556782,-9533.005238
447.084389,-114.855485,-861.416136,-9858.429112
447.086891,-114.855485,-976.271621,-9475.577496
447.089392,-57.427742,-995.414202,-9647.860723
447.091907,-76.570323,-899.701298,-9743.573627
447.094422,-19.142581,-937.986459,-9647.860723
447.096937,-38.285162,-918.843878,-9475.577496
447.099452,-38.285162,-823.130974,-9781.858789
447.101967,-76.570323,-976.271621,-9609.575562
447.104481,-19.142581,-1148.554848,-9379.864592
447.106996,-57.427742,-803.988394,-9915.856854
447.109511,-95.712904,-593.420005,-9743.573627
447.112026,-133.998066,-746.560651,-9360.722011
447.114541,-76.570323,-861.416136,-9781.858789
447.117056,-57.427742,-746.560651,-9705.288466
447.119571,-133.998066,-861.416136,-9513.862658
447.122086,-133.998066,-1033.699363,-9724.431046
447.124600,-38.285162,-1071.984525,-9724.431046
447.127115,-95.712904,-957.129040,-9494.720077
447.129630,-76.570323,-842.273555,-9762.716208
447.132145,-172.283227,-861.416136,-9724.431046
447.134660,-153.140646,-918.843878,-9533.005238
447.137175,-76.570323,-937.986459,-9628.718142
447.139690,-76.570323,-957.129040,-9686.145885
447.142205,-76.570323,-995.414202,-9743.573627
447.144720,-114.855485,-1110.269686,-9590.432981
447.147234,-95.712904,-957.129040,-9686.145885
447.149749,-76.570323,-823.130974,-9724.431046
447.152264,-114.855485,-957.129040,-9647.860723
447.154779,-57.427742,-957.129040,-9667.003304
447.157294,-76.570323,-899.701298,-9667.003304
447.159809,-95.712904,-842.273555,-9781.858789
447.162324,-76.570323,-861.416136,-9762.716208
447.164839,-57.427742,-880.558717,-9609.575562
447.167353,-57.427742,-784.845813,-9762.716208
447.169868,-153.140646,-823.130974,-9475.577496
447.172383,-114.855485,-746.560651,-9762.716208
447.174898,-76.570323,-880.558717,-9609.575562
447.177413,-114.855485,-899.701298,-9667.003304
447.179928,-57.427742,-918.843878,-9743.573627
447.182443,-114.855485,-918.843878,-9609.575562
447.184958,-114.855485,-1014.556782,-9533.005238
447.187473,-76.570323,-899.701298,-9743.573627
447.189987,-95.712904,-842.273555,-9724.431046
447.192476,-95.712904,-937.986459,-9552.147819
447.194965,-38.285162,-1071.984525,-9705.288466
447.197454,-57.427742,-861.416136,-9781.858789
447.199943,-172.283227,-861.416136,-9609.575562
447.202432,-57.427742,-976.271621,-9743.573627
447.204921,-95.712904,-995.414202,-9590.432981
447.207410,-95.712904,-842.273555,-9475.577496
447.209899,-95.712904,-689.132909,-9954.142016
447.212388,-114.855485,-612.562586,-9628.718142
447.214877,-76.570323,-765.703232,-9456.434915
447.217366,-38.285162,-918.843878,-9762.716208
447.219855,-114.855485,-861.416136,-9667.003304
447.222344,-38.285162,-976.271621,-9533.005238
447.224833,-114.855485,-937.986459,-9686.145885
447.227322,-114.855485,-995.414202,-9647.860723
447.229811,38.285162,-918.843878,-9647.860723
447.232300,-38.285162,-823.130974,-9724.431046
447.234788,-114.855485,-899.701298,-9705.288466
447.237277,-38.285162,-957.129040,-9513.862658
447.239766,-133.998066,-861.416136,-9801.001370
447.242255,-95.712904,-918.843878,-9647.860723
447.244744,-38.285162,-976.271621,-9552.147819
447.247233,-95.712904,-1110.269686,-9609.575562
447.249722,-133.998066,-918.843878,-9781.858789
447.252211,-114.855485,-995.414202,-9667.003304
447.254700,-133.998066,-1014.556782,-9609.575562
447.257189,-57.427742,-880.558717,-9686.145885
447.259678,-95.712904,-803.988394,-9628.718142
447.262167,-133.998066,-803.988394,-9609.575562
447.264656,-76.570323,-689.132909,-9667.003304
447.267145,-153.140646,-689.132909,-9686.145885
447.269634,-38.285162,-861.416136,-9705.288466
447.272123,-57.427742,-937.986459,-9494.720077
447.274612,-95.712904,-957.129040,-9667.003304
447.277100,-153.140646,-727.418070,-9954.142016
447.279589,-76.570323,-957.129040,-9571.290400
447.282078,-95.712904,-1129.412267,-9456.434915
447.284567,-19.142581,-1110.269686,-9590.432981
447.287056,-95.712904,-612.562586,-9934.999435
447.289545,-133.998066,-784.845813,-9590.432981
447.292051,-76.570323,-1282.552914,-9437.292334
447.294557,-38.285162,-880.558717,-9820.143950
447.297062,-38.285162,-803.988394,-9858.429112
447.299568,-38.285162,-1148.554848,-9513.862658
447.302074,-0.000000,-1205.982590,-9552.147819
447.304579,-133.998066,-765.703232,-9896.714274
447.307085,-38.285162,-727.418070,-9667.003304
447.309591,-0.000000,-803.988394,-9628.718142
447.312097,-57.427742,-593.420005,-9705.288466
447.314602,-133.998066,-842.273555,-9781.858789
447.317108,-95.712904,-995.414202,-9609.575562
447.319614,-38.285162,-957.129040,-9686.145885
447.322119,-114.855485,-899.701298,-9647.860723
447.324625,-95.712904,-861.416136,-9552.147819
447.327131,-114.855485,-899.701298,-9667.003304
447.329636,-95.712904,-823.130974,-9475.577496
447.332142,-76.570323,-842.273555,-9820.143950
447.334648,-95.712904,-880.558717,-9628.718142
447.337154,-19.142581,-937.986459,-9705.288466
447.339659,-133.998066,-976.271621,-9628.718142
447.342165,-57.427742,-976.271621,-9705.288466
447.344671,-76.570323,-1033.699363,-9686.145885
447.347176,-133.998066,-823.130974,-9705.288466
447.349682,-153.140646,-803.988394,-9667.003304
447.352188,-19.142581,-880.558717,-9513.862658
447.354693,-38.285162,-861.416136,-9801.001370
447.357199,-114.855485,-880.558717,-9628.718142
447.359705,-114.855485,-880.558717,-9686.145885
447.362211,-114.855485,-727.418070,-9781.858789
447.364716,-76.570323,-861.416136,-9571.290400
447.367222,-57.427742,-918.843878,-9667.003304
447.369728,-38.285162,-823.130974,-9609.575562
447.372233,-114.855485,-823.130974,-9609.575562
447.374739,-76.570323,-995.414202,-9647.860723
447.377245,-57.427742,-918.843878,-9647.860723
447.379750,-57.427742,-899.701298,-9686.145885
447.382256,-38.285162,-976.271621,-9762.716208
447.384762,-114.855485,-976.271621,-9590.432981
447.387268,-114.855485,-880.558717,-9743.573627
447.389773,-133.998066,-861.416136,-9820.143950
447.392292,-114.855485,-823.130974,-9647.860723
447.394811,-76.570323,-995.414202,-9647.860723
447.397330,-95.712904,-918.843878,-9667.003304
447.399849,-57.427742,-918.843878,-9705.288466
447.402368,-133.998066,-995.414202,-9513.862658
447.404887,-114.855485,-918.843878,-9801.001370
447.407406,-95.712904,-899.701298,-9628.718142
447.409925,-114.855485,-823.130974,-9628.718142
447.412444,-76.570323,-823.130974,-9609.575562
447.414963,-114.855485,-708.275490,-9667.003304
447.417482,-38.285162,-803.988394,-9743.573627
447.420001,-38.285162,-1110.269686,-9628.718142
447.422520,-133.998066,-937.986459,-9647.860723
447.425039,-57.427742,-899.701298,-9609.575562
447.427558,-114.855485,-918.843878,-9628.718142
447.430077,-133.998066,-995.414202,-9705.288466
447.432596,-95.712904,-1014.556782,-9628.718142
447.435115,-95.712904,-957.129040,-9513.862658
447.437634,-38.285162,-1014.556782,-9590.432981
447.440153,-57.427742,-899.701298,-9743.573627
447.442672,-172.283227,-746.560651,-9609.575562
447.445190,-114.855485,-1071.984525,-9590.432981
447.447709,-95.712904,-1014.556782,-9590.432981
447.450228,-95.712904,-957.129040,-9781.858789
447.452747,-95.712904,-976.271621,-9590.432981
447.455266,-95.712904,-995.414202,-9533.005238
447.457785,-95.712904,-823.130974,-9762.716208
447.460304,-57.427742,-631.705166,-9686.145885
447.462823,-95.712904,-708.275490,-9667.003304
447.465342,-57.427742,-708.275490,-9647.860723
447.467861,-76.570323,-708.275490,-9647.860723
447.470380,-95.712904,-708.275490,-9686.145885
447.472899,-76.570323,-1014.556782,-9609.575562
447.475418,-19.142581,-1186.840010,-9379.864592
447.477937,-95.712904,-803.988394,-9858.429112
447.480456,-172.283227,-784.845813,-9858.429112
447.482975,-57.427742,-1014.556782,-9475.577496
447.485494,-38.285162,-861.416136,-9686.145885
447.488013,-76.570323,-861.416136,-9820.143950
447.490532,-114.855485,-1148.554848,-9399.007173
447.493026,-133.998066,-1033.699363,-9743.573627
447.495521,-133.998066,-861.416136,-9820.143950
447.498015,-76.570323,-937.986459,-9628.718142
447.500509,-76.570323,-1129.412267,-9609.575562
447.503003,-95.712904,-746.560651,-9762.716208
447.505498,-57.427742,-689.132909,-9647.860723
447.507992,-133.998066,-689.132909,-9647.860723
447.510486,-95.712904,-765.703232,-9743.573627
447.512981,-38.285162,-823.130974,-9667.003304
447.515475,-172.283227,-899.701298,-9743.573627
447.517969,-95.712904,-1052.841944,-9628.718142
447.520464,-95.712904,-899.701298,-9494.720077
447.522958,-57.427742,-880.558717,-9839.286531
447.525452,-76.570323,-803.988394,-9590.432981
447.527947,-38.285162,-861.416136,-9475.577496
447.530441,-114.855485,-899.701298,-9724.431046
447.532935,-133.998066,-880.558717,-9513.862658
447.535430,-133.998066,-1071.984525,-9609.575562
447.537924,-57.427742,-1071.984525,-9724.431046
447.540418,-76.570323,-1033.699363,-9781.858789
447.542913,-114.855485,-1052.841944,-9667.003304
447.545407,-114.855485,-937.986459,-9609.575562
447.547901,-57.427742,-899.701298,-9743.573627
447.550396,-114.855485,-880.558717,-9609.575562
447.552890,-133.998066,-784.845813,-9724.431046
447.555384,-114.855485,-880.558717,-9647.860723
447.557879,-114.855485,-899.701298,-9609.575562
447.560373,-76.570323,-899.701298,-9667.003304
447.562867,-133.998066,-803.988394,-9647.860723
447.565362,-95.712904,-842.273555,-9628.718142
447.567856,-95.712904,-880.558717,-9609.575562
447.570350,-57.427742,-727.418070,-9820.143950
447.572845,-38.285162,-995.414202,-9667.003304
447.575339,-57.427742,-937.986459,-9552.147819
447.577833,-38.285162,-976.271621,-9743.573627
447.580327,-57.427742,-880.558717,-9762.716208
447.582822,-95.712904,-957.129040,-9552.147819
447.585316,-95.712904,-1071.984525,-9628.718142
447.587810,-133.998066,-861.416136,-9686.145885
447.590305,-57.427742,-918.843878,-9609.575562
447.592816,-95.712904,-1014.556782,-9590.432981
447.595327,-172.283227,-995.414202,-9686.145885
447.597838,-95.712904,-803.988394,-9628.718142
447.600349,-133.998066,-842.273555,-9571.290400
447.602860,-76.570323,-918.843878,-9743.573627
447.605371,-114.855485,-803.988394,-9628.718142
447.607882,-76.570323,-765.703232,-9743.573627
447.610393,-95.712904,-803.988394,-9609.575562
447.612904,-76.570323,-976.271621,-9513.862658
447.615415,-114.855485,-823.130974,-9667.003304
447.617926,-0.000000,-995.414202,-9667.003304
447.620437,-95.712904,-899.701298,-9686.145885
447.622948,-114.855485,-995.414202,-9647.860723
447.625460,-95.712904,-1014.556782,-9609.575562
447.627971,-76.570323,-861.416136,-9743.573627
447.630482,-114.855485,-937.986459,-9686.145885
447.632993,-76.570323,-976.271621,-9533.005238
447.635504,-57.427742,-1014.556782,-9647.860723
447.638015,-76.570323,-1014.556782,-9571.290400
447.640526,-114.855485,-842.273555,-9686.145885
447.643037,-133.998066,-1091.127106,-9456.434915
447.645548,-38.285162,-1110.269686,-9647.860723
447.648059,-133.998066,-957.129040,-9801.001370
447.650570,-95.712904,-880.558717,-9686.145885
447.653081,-95.712904,-957.129040,-9437.292334
447.655592,-38.285162,-861.416136,-9628.718142
447.658103,-133.998066,-746.560651,-9781.858789
447.660614,-38.285162,-746.560651,-9667.003304
447.663125,-76.570323,-880.558717,-9686.145885
447.665636,-76.570323,-842.273555,-9647.860723
447.668147,-133.998066,-689.132909,-9724.431046
447.670658,-133.998066,-823.130974,-9724.431046
447.673170,-114.855485,-937.986459,-9667.003304
447.675681,-76.570323,-823.130974,-9667.003304
447.678192,-114.855485,-861.416136,-9781.858789
447.680703,-95.712904,-1033.699363,-9590.432981
447.683214,-95.712904,-995.414202,-9533.005238
447.685725,-153.140646,-689.132909,-9896.714274
447.688236,-0.000000,-918.843878,-9513.862658
447.690747,-38.285162,-1110.269686,-9418.149754
447.693271,-76.570323,-1014.556782,-9609.575562
447.695796,-114.855485,-784.845813,-9762.716208
447.698320,-172.283227,-918.843878,-9647.860723
447.700845,-57.427742,-976.271621,-9571.290400
447.703369,-172.283227,-689.132909,-9628.718142
447.705893,-133.998066,-612.562586,-9762.716208
447.708418,-38.285162,-708.275490,-9590.432981
447.710942,-114.855485,-784.845813,-9609.575562
447.713467,-95.712904,-918.843878,-9513.862658
447.715991,-38.285162,-1033.699363,-9667.003304
447.718515,-76.570323,-976.271621,-9628.718142
447.721040,-76.570323,-937.986459,-9667.003304
447.723564,-95.712904,-880.558717,-9686.145885
447.726089,-57.427742,-918.843878,-9743.573627
447.728613,-114.855485,-937.986459,-9628.718142
447.731137,-38.285162,-1014.556782,-9667.003304
447.733662,-133.998066,-1052.841944,-9743.573627
447.736186,-38.285162,-1014.556782,-9609.575562
447.738711,-57.427742,-880.558717,-9686.145885
447.741235,-76.570323,-937.986459,-9667.003304
447.743760,-76.570323,-937.986459,-9647.860723
447.746284,-76.570323,-1014.556782,-9647.860723
447.748808,-153.140646,-1014.556782,-9590.432981
447.751333,-76.570323,-861.416136,-9781.858789
447.753857,-133.998066,-899.701298,-9667.003304
447.756382,-95.712904,-861.416136,-9571.290400
447.758906,-114.855485,-880.558717,-9686.145885
447.761430,-76.570323,-746.560651,-9647.860723
447.763955,-38.285162,-746.560651,-9590.432981
447.766479,-114.855485,-880.558717,-9667.003304
447.769004,-133.998066,-880.558717,-9590.432981
447.771528,-133.998066,-861.416136,-9781.858789
447.774052,-76.570323,-957.129040,-9494.720077
447.776577,-76.570323,-899.701298,-9609.575562
447.779101,-95.712904,-957.129040,-9781.858789
447.781626,-133.998066,-880.558717,-9571.290400
447.784150,-76.570323,-1014.556782,-9590.432981
447.786675,-38.285162,-918.843878,-9743.573627
447.789199,-95.712904,-765.703232,-9705.288466
447.791723,-114.855485,-823.130974,-9571.290400
447.794224,-114.855485,-995.414202,-9647.860723
447.796724,-114.855485,-880.558717,-9628.718142
447.799225,-114.855485,-727.418070,-9705.288466
447.801725,-38.285162,-765.703232,-9781.858789
447.804226,-38.285162,-842.273555,-9552.147819
447.806726,-172.283227,-842.273555,-9743.573627
447.809227,-114.855485,-1033.699363,-9533.005238
447.811727,-95.712904,-842.273555,-9724.431046
447.814228,-38.285162,-861.416136,-9705.288466
447.816728,-95.712904,-823.130974,-9647.860723
447.819229,-38.285162,-803.988394,-9724.431046
447.821729,-114.855485,-880.558717,-9609.575562
447.824229,-19.142581,-957.129040,-9628.718142
447.826730,-76.570323,-937.986459,-9628.718142
447.829230,-38.285162,-918.843878,-9781.858789
447.831731,-57.427742,-899.701298,-9724.431046
447.834231,-76.570323,-995.414202,-9609.575562
447.836732,-38.285162,-1071.984525,-9533.005238
447.839232,-95.712904,-1033.699363,-9762.716208
447.841733,-114.855485,-957.129040,-9820.143950
447.844233,-114.855485,-1091.127106,-9513.862658
447.846734,-38.285162,-995.414202,-9705.288466
447.849234,-133.998066,-899.701298,-9743.573627
447.851735,-133.998066,-842.273555,-9456.434915
447.854235,-114.855485,-784.845813,-9762.716208
447.856736,-38.285162,-746.560651,-9628.718142
447.859236,-95.712904,-823.130974,-9628.718142
447.861736,-114.855485,-880.558717,-9877.571693
447.864237,-153.140646,-765.703232,-9533.005238
447.866737,-114.855485,-918.843878,-9647.860723
447.869238,-76.570323,-1033.699363,-9609.575562
447.871738,-114.855485,-803.988394,-9858.429112
447.874239,-95.712904,-842.273555,-9877.571693
447.876739,-95.712904,-1052.841944,-9418.149754
447.879240,-38.285162,-918.843878,-9552.147819
447.881740,-133.998066,-708.275490,-9839.286531
447.884241,-172.283227,-880.558717,-9705.288466
447.886741,-133.998066,-880.558717,-9609.575562
447.889242,-57.427742,-899.701298,-9647.860723
447.891742,-57.427742,-937.986459,-9686.145885
447.894259,-38.285162,-1071.984525,-9647.860723
447.896775,-153.140646,-995.414202,-9762.716208
447.899292,-95.712904,-803.988394,-9667.003304
447.901809,-38.285162,-708.275490,-9609.575562
447.904325,-38.285162,-555.134843,-9533.005238
447.906842,-76.570323,-708.275490,-9647.860723
447.909359,-38.285162,-823.130974,-9705.288466
447.911875,-133.998066,-976.271621,-9628.718142
447.914392,-114.855485,-995.414202,-9762.716208
447.916909,-95.712904,-899.701298,-9513.862658
447.919426,-57.427742,-899.701298,-9877.571693
447.921942,-76.570323,-918.843878,-9533.005238
447.924459,-76.570323,-899.701298,-9571.290400
447.926976,-95.712904,-957.129040,-9820.143950
447.929492,-133.998066,-899.701298,-9552.147819
447.932009,-76.570323,-976.271621,-9724.431046
447.934526,-114.855485,-937.986459,-9705.288466
447.937042,-114.855485,-880.558717,-9552.147819
447.939559,-38.285162,-1071.984525,-9667.003304
447.942076,-76.570323,-1014.556782,-9724.431046
447.944592,-0.000000,-957.129040,-9533.005238
447.947109,-133.998066,-957.129040,-9513.862658
447.949626,-57.427742,-823.130974,-9686.145885
447.952142,-95.712904,-669.990328,-9552.147819
447.954659,-0.000000,-727.418070,-9686.145885
447.957176,-95.712904,-842.273555,-9781.858789
447.959692,-76.570323,-842.273555,-9437.292334
447.962209,-133.998066,-861.416136,-9762.716208
447.964726,-76.570323,-880.558717,-9571.290400
447.967242,-57.427742,-861.416136,-9667.003304
447.969759,-95.712904,-861.416136,-9781.858789
447.972276,-114.855485,-899.701298,-9647.860723
447.974792,-133.998066,-957.129040,-9513.862658
447.977309,-114.855485,-976.271621,-9724.431046
447.979826,-57.427742,-1033.699363,-9609.575562
447.982342,-114.855485,-937.986459,-9609.575562
447.984859,-19.142581,-957.129040,-9628.718142
447.987376,-0.000000,-957.129040,-9628.718142
447.989893,-95.712904,-803.988394,-9781.858789
447.992409,-57.427742,-995.414202,-9743.573627
447.994939,-76.570323,-957.129040,-9475.577496
447.997468,-76.570323,-842.273555,-9877.571693
447.999998,-133.998066,-784.845813,-9686.145885
448.002528,-95.712904,-880.558717,-9494.720077
448.005057,-57.427742,-842.273555,-9724.431046
448.007587,-76.570323,-880.558717,-9724.431046
448.010116,-38.285162,-957.129040,-9533.005238
448.012646,-172.283227,-784.845813,-9724.431046
448.015176,-95.712904,-823.130974,-9724.431046
448.017705,-133.998066,-842.273555,-9801.001370
448.020235,-19.142581,-976.271621,-9647.860723
448.022764,-133.998066,-1071.984525,-9456.434915
448.025294,-19.142581,-842.273555,-9877.571693
448.027824,-114.855485,-880.558717,-9743.573627
448.030353,-133.998066,-1014.556782,-9513.862658
448.032883,-95.712904,-1014.556782,-9820.143950
448.035412,-114.855485,-880.558717,-9686.145885
448.037942,-76.570323,-1129.412267,-9379.864592
448.040472,-95.712904,-1052.841944,-9743.573627
448.043001,-76.570323,-957.129040,-9820.143950
448.045531,-114.855485,-918.843878,-9686.145885
448.048060,-95.712904,-746.560651,-9647.860723
448.050590,-19.142581,-784.845813,-9743.573627
448.053120,-57.427742,-650.847747,-9628.718142
448.055649,-38.285162,-803.988394,-9609.575562
448.058179,-57.427742,-842.273555,-9418.149754
448.060708,-57.427742,-823.130974,-9801.001370
448.063238,-76.570323,-880.558717,-9513.862658
448.065768,-76.570323,-899.701298,-9571.290400
448.068297,-95.712904,-937.986459,-9877.571693
448.070827,-114.855485,-784.845813,-9552.147819
448.073356,-19.142581,-937.986459,-9781.858789
448.075886,-0.000000,-937.986459,-9609.575562
448.078416,-95.712904,-995.414202,-9552.147819
448.080945,-95.712904,-899.701298,-9934.999435
448.083475,-153.140646,-995.414202,-9628.718142
448.086004,-172.283227,-937.986459,-9705.288466
448.088534,-95.712904,-957.129040,-9781.858789
448.091064,-172.283227,-937.986459,-9647.860723
448.093593,-38.285162,-1014.556782,-9590.432981
448.096134,-114.855485,-746.560651,-9820.143950
448.098674,-133.998066,-669.990328,-9590.432981
448.101214,-0.000000,-823.130974,-9513.862658
448.103755,-57.427742,-765.703232,-9762.716208
448.106295,-76.570323,-708.275490,-9705.288466
448.108836,-172.283227,-861.416136,-9590.432981
448.111376,-95.712904,-937.986459,-9686.145885
448.113917,-76.570323,-995.414202,-9494.720077
448.116457,-133.998066,-861.416136,-9705.288466
448.118997,-95.712904,-823.130974,-9801.001370
448.121538,-38.285162,-957.129040,-9590.432981
448.124078,-133.998066,-918.843878,-9686.145885
448.126619,-95.712904,-957.129040,-9858.429112
448.129159,-133.998066,-957.129040,-9513.862658
448.131700,-133.998066,-899.701298,-9552.147819
448.134240,-133.998066,-1052.841944,-9456.434915
448.136780,-76.570323,-1014.556782,-9647.860723
448.139321,-114.855485,-976.271621,-9781.858789
448.141861,-133.998066,-1014.556782,-9724.431046
448.144402,-38.285162,-1014.556782,-9533.005238
448.146942,-114.855485,-823.130974,-9743.573627
448.149483,-76.570323,-842.273555,-9724.431046
448.152023,-57.427742,-823.130974,-9552.147819
448.154563,-114.855485,-823.130974,-9762.716208
448.157104,-76.570323,-784.845813,-9647.860723
448.159644,-38.285162,-803.988394,-9743.573627
448.162185,-114.855485,-727.418070,-9724.431046
448.164725,-76.570323,-784.845813,-9609.575562
448.167266,-76.570323,-880.558717,-9686.145885
448.169806,-76.570323,-842.273555,-9724.431046
448.172346,-114.855485,-937.986459,-9686.145885
448.174887,-95.712904,-1014.556782,-9705.288466
448.177427,-133.998066,-918.843878,-9571.290400
448.179968,-19.142581,-957.129040,-9724.431046
448.182508,-95.712904,-803.988394,-9686.145885
448.185049,-95.712904,-1052.841944,-9533.005238
448.187589,-38.285162,-880.558717,-9628.718142
448.190129,-76.570323,-842.273555,-9820.143950
448.192670,-95.712904,-880.558717,-9647.860723
448.195210,-38.285162,-976.271621,-9456.434915
448.197759,-76.570323,-842.273555,-9858.429112
448.200307,-38.285162,-803.988394,-9609.575562
448.202856,-38.285162,-803.988394,-9647.860723
448.205405,-133.998066,-765.703232,-9705.288466
448.207954,-76.570323,-823.130974,-9686.145885
448.210502,-133.998066,-803.988394,-9705.288466
448.213051,-38.285162,-861.416136,-9628.718142
448.215600,-57.427742,-918.843878,-9667.003304
448.218148,-76.570323,-937.986459,-9743.573627
448.220697,-57.427742,-918.843878,-9590.432981
448.223246,-133.998066,-861.416136,-9571.290400
448.225794,-114.855485,-976.271621,-9571.290400
448.228343,-57.427742,-918.843878,-9686.145885
448.230892,-57.427742,-995.414202,-9647.860723
448.233441,-38.285162,-937.986459,-9647.860723
448.235989,-76.570323,-842.273555,-9609.575562
448.238538,-38.285162,-1052.841944,-9609.575562
448.241087,-76.570323,-861.416136,-9743.573627
448.243635,-133.998066,-1014.556782,-9705.288466
448.246184,-76.570323,-937.986459,-9647.860723
448.248733,-76.570323,-937.986459,-9667.003304
448.251282,-76.570323,-765.703232,-9667.003304
448.253830,-95.712904,-784.845813,-9647.860723
448.256379,-95.712904,-708.275490,-9609.575562
448.258928,-133.998066,-842.273555,-9743.573627
448.261476,-57.427742,-765.703232,-9647.860723
448.264025,-95.712904,-880.558717,-9820.143950
448.266574,-133.998066,-995.414202,-9571.290400
448.269122,-38.285162,-861.416136,-9743.573627
448.271671,-114.855485,-803.988394,-9609.575562
448.274220,-57.427742,-1091.127106,-9456.434915
448.276769,-38.285162,-937.986459,-9762.716208
448.279317,-133.998066,-803.988394,-9609.575562
448.281866,-76.570323,-976.271621,-9647.860723
448.284415,-19.142581,-976.271621,-9494.720077
448.286963,-38.285162,-918.843878,-9743.573627
448.289512,-95.712904,-880.558717,-9762.716208
448.292061,-76.570323,-823.130974,-9571.290400
448.294609,-57.427742,-1148.554848,-9513.862658
448.297158,-114.855485,-899.701298,-9801.001370
448.299680,-76.570323,-574.277424,-9686.145885
448.302201,-95.712904,-708.275490,-9590.432981
448.304723,-133.998066,-708.275490,-9705.288466
448.307244,-0.000000,-957.129040,-9533.005238
448.309766,-57.427742,-861.416136,-9609.575562
448.312287,-95.712904,-899.701298,-9781.858789
448.314809,-76.570323,-842.273555,-9475.577496
448.317331,-57.427742,-937.986459,-9762.716208
448.319852,-114.855485,-937.986459,-9686.145885
448.322374,-76.570323,-918.843878,-9456.434915
448.324895,-38.285162,-957.129040,-9839.286531
448.327417,-114.855485,-880.558717,-9437.292334
448.329938,-95.712904,-976.271621,-9552.147819
448.332460,-114.855485,-937.986459,-9686.145885
448.334981,-95.712904,-957.129040,-9571.290400
448.337503,-38.285162,-1014.556782,-9513.862658
448.340025,-95.712904,-976.271621,-9724.431046
448.342546,-133.998066,-957.129040,-9667.003304
448.345068,-76.570323,-1071.984525,-9475.577496
448.347589,-114.855485,-880.558717,-9877.571693
448.350111,-76.570323,-880.558717,-9609.575562
448.352632,-95.712904,-784.845813,-9609.575562
448.355154,-153.140646,-784.845813,-9724.431046
448.357675,-95.712904,-803.988394,-9513.862658
448.360197,-95.712904,-708.275490,-9667.003304
448.362719,-76.570323,-803.988394,-9647.860723
448.365240,-76.570323,-880.558717,-9686.145885
448.367762,-57.427742,-937.986459,-9686.145885
448.370283,-38.285162,-918.843878,-9762.716208
448.372805,-133.998066,-899.701298,-9552.147819
448.375326,-76.570323,-976.271621,-9762.716208
448.377848,-114.855485,-995.414202,-9609.575562
448.380369,-76.570323,-880.558717,-9686.145885
448.382891,-95.712904,-842.273555,-9762.716208
448.385413,-57.427742,-937.986459,-9437.292334
448.387934,-19.142581,-1052.841944,-9686.145885
448.390456,-57.427742,-861.416136,-9801.001370
448.392977,-76.570323,-861.416136,-9647.860723
448.395499,-38.285162,-842.273555,-9552.147819
448.398020,-153.140646,-861.416136,-9743.573627
448.400554,-57.427742,-727.418070,-9456.434915
448.403088,-57.427742,-650.847747,-9647.860723
448.405622,-76.570323,-765.703232,-9609.575562
448.408156,-76.570323,-784.845813,-9571.290400
448.410690,-153.140646,-899.701298,-9647.860723
448.413224,-57.427742,-1033.699363,-9590.432981
448.415758,-95.712904,-880.558717,-9667.003304
448.418291,-76.570323,-823.130974,-9647.860723
448.420825,-133.998066,-899.701298,-9552.147819
448.423359,-95.712904,-880.558717,-9762.716208
448.425893,-95.712904,-842.273555,-9571.290400
448.428427,-153.140646,-1014.556782,-9628.718142
448.430961,-95.712904,-957.129040,-9628.718142
448.433495,-19.142581,-1014.556782,-9609.575562
448.436029,-95.712904,-823.130974,-9724.431046
448.438563,-0.000000,-976.271621,-9705.288466
448.441097,-133.998066,-1091.127106,-9456.434915
448.443630,-133.998066,-957.129040,-9781.858789
448.446164,-38.285162,-957.129040,-9820.143950
448.448698,-76.570323,-842.273555,-9456.434915
448.451232,-76.570323,-631.705166,-9858.429112
448.453766,-114.855485,-516.849682,-9571.290400
448.456300,-153.140646,-746.560651,-9628.718142
448.458834,-38.285162,-1052.841944,-9609.575562
448.461368,-114.855485,-957.129040,-9609.575562
448.463902,-114.855485,-784.845813,-9801.001370
448.466435,-114.855485,-899.701298,-9705.288466
448.468969,-133.998066,-1033.699363,-9590.432981
448.471503,-38.285162,-1129.412267,-9590.432981
448.474037,-133.998066,-746.560651,-9896.714274
448.476571,-38.285162,-957.129040,-9513.862658
448.479105,-57.427742,-918.843878,-9590.432981
448.481639,-76.570323,-1033.699363,-9724.431046
448.484173,-133.998066,-1014.556782,-9379.864592
448.486707,-95.712904,-995.414202,-9801.001370
448.489241,-76.570323,-880.558717,-9686.145885
448.491774,-38.285162,-918.843878,-9552.147819
448.494308,-95.712904,-918.843878,-9743.573627
448.496842,-57.427742,-784.845813,-9781.858789
448.499376,-38.285162,-669.990328,-9552.147819
448.501920,-114.855485,-689.132909,-9686.145885
448.504463,-114.855485,-823.130974,-9877.571693
448.507006,-38.285162,-918.843878,-9628.718142
448.509550,-114.855485,-823.130974,-9571.290400
448.512093,-19.142581,-1052.841944,-9571.290400
448.514637,-95.712904,-899.701298,-9341.579430
448.517180,-153.140646,-784.845813,-9915.856854
448.519724,-95.712904,-689.132909,-9647.860723
448.522267,-76.570323,-995.414202,-9647.860723
448.524810,-95.712904,-1033.699363,-9743.573627
448.527354,-133.998066,-823.130974,-9609.575562
448.529897,-114.855485,-995.414202,-9647.860723
448.532441,-76.570323,-1071.984525,-9724.431046
448.534984,-95.712904,-957.129040,-9571.290400
448.537528,-95.712904,-995.414202,-9705.288466
448.540071,-38.285162,-1014.556782,-9724.431046
448.542614,-76.570323,-880.558717,-9647.860723
448.545158,-76.570323,-899.701298,-9647.860723
448.547701,-57.427742,-880.558717,-9667.003304
448.550245,-76.570323,-918.843878,-9571.290400
448.552788,-95.712904,-899.701298,-9743.573627
448.555332,-95.712904,-784.845813,-9705.288466
448.557875,-76.570323,-803.988394,-9590.432981
448.560418,-95.712904,-918.843878,-9743.573627
448.562962,-0.000000,-918.843878,-9590.432981
448.565505,-114.855485,-784.845813,-9724.431046
448.568049,-133.998066,-861.416136,-9820.143950
448.570592,-76.570323,-957.129040,-9475.577496
448.573136,-76.570323,-918.843878,-9820.143950
448.575679,-95.712904,-880.558717,-9667.003304
448.578222,-133.998066,-957.129040,-9552.147819
448.580766,-95.712904,-995.414202,-9724.431046
448.583318,-133.998066,-957.129040,-9667.003304
448.585869,-133.998066,-823.130974,-9647.860723
448.588421,-133.998066,-1014.556782,-9609.575562
448.590972,-57.427742,-1052.841944,-9533.005238
448.593524,-95.712904,-842.273555,-9743.573627
448.596076,-114.855485,-880.558717,-9762.716208
448.598627,-76.570323,-880.558717,-9667.003304
448.601179,-57.427742,-746.560651,-9609.575562
448.603731,-76.570323,-823.130974,-9667.003304
448.606282,-38.285162,-746.560651,-9609.575562
448.608834,-95.712904,-823.130974,-9724.431046
448.611385,-133.998066,-746.560651,-9494.720077
448.613937,-57.427742,-918.843878,-9609.575562
448.616489,-38.285162,-842.273555,-9801.001370
448.619040,-95.712904,-899.701298,-9628.718142
448.621592,-95.712904,-937.986459,-9686.145885
448.624144,-76.570323,-1071.984525,-9609.575562
448.626695,-95.712904,-937.986459,-9743.573627
448.629247,-133.998066,-899.701298,-9743.573627
448.631799,-57.427742,-976.271621,-9533.005238
448.634350,-57.427742,-899.701298,-9590.432981
448.636902,-57.427742,-784.845813,-9820.143950
448.639453,-76.570323,-957.129040,-9552.147819
448.642005,-19.142581,-1091.127106,-9571.290400
448.644557,-133.998066,-861.416136,-9762.716208
448.647108,-133.998066,-803.988394,-9590.432981
448.649660,-76.570323,-784.845813,-9590.432981
448.652212,-76.570323,-727.418070,-9647.860723
448.654763,-38.285162,-708.275490,-9513.862658
448.657315,-38.285162,-746.560651,-9724.431046
448.659866,-172.283227,-918.843878,-9494.720077
448.662418,-95.712904,-976.271621,-9667.003304
448.664970,-114.855485,-842.273555,-9801.001370
448.667521,-114.855485,-918.843878,-9686.145885
448.670073,-38.285162,-1110.269686,-9552.147819
448.672625,-95.712904,-823.130974,-9628.718142
448.675176,-153.140646,-765.703232,-9781.858789
448.677728,-114.855485,-765.703232,-9571.290400
448.680279,-76.570323,-957.129040,-9552.147819
448.682831,-95.712904,-842.273555,-9609.575562
448.685389,-133.998066,-746.560651,-9743.573627
448.687946,-57.427742,-1014.556782,-9456.434915
448.690504,-95.712904,-1110.269686,-9705.288466
448.693061,-57.427742,-899.701298,-9705.288466
448.695619,-133.998066,-861.416136,-9801.001370
448.698176,-38.285162,-746.560651,-9667.003304
448.700734,-114.855485,-784.845813,-9628.718142
448.703292,-133.998066,-689.132909,-9724.431046
448.705849,-0.000000,-803.988394,-9571.290400
448.708407,-114.855485,-995.414202,-9571.290400
448.710964,-38.285162,-976.271621,-9896.714274
448.713522,-57.427742,-995.414202,-9571.290400
448.716079,-38.285162,-1014.556782,-9724.431046
448.718637,-133.998066,-899.701298,-9820.143950
448.721194,-19.142581,-784.845813,-9571.290400
448.723752,-95.712904,-918.843878,-9686.145885
448.726310,-38.285162,-918.843878,-9609.575562
448.728867,-95.712904,-765.703232,-9724.431046
448.731425,-76.570323,-937.986459,-9877.571693
448.733982,-57.427742,-937.986459,-9571.290400
448.736540,-76.570323,-995.414202,-9533.005238
448.739097,-95.712904,-976.271621,-9743.573627
448.741655,-133.998066,-957.129040,-9647.860723
448.744212,-114.855485,-823.130974,-9667.003304
448.746770,-57.427742,-937.986459,-9647.860723
448.749328,-114.855485,-133.998066,-10030.712339
448.751885,-38.285162,0.000000,-9322.436850
448.754443,-172.283227,-478.564520,-9628.718142
448.757000,-95.712904,-1033.699363,-9896.714274
448.759558,-95.712904,-937.986459,-9265.009107
448.762115,-57.427742,-918.843878,-9915.856854
448.764673,-76.570323,-823.130974,-9667.003304
448.767230,-172.283227,-784.845813,-9418.149754
448.769788,-172.283227,-784.845813,-10011.569758
448.772346,-38.285162,-899.701298,-9379.864592
448.774903,-57.427742,-937.986459,-9724.431046
448.777461,-172.283227,-899.701298,-9743.573627
448.780018,-76.570323,-880.558717,-9590.432981
448.782576,-57.427742,-899.701298,-9686.145885
448.785133,-38.285162,-899.701298,-9781.858789
448.787695,-114.855485,-880.558717,-9494.720077
448.790257,-95.712904,-861.416136,-9533.005238
448.792818,-133.998066,-803.988394,-9915.856854
448.795380,-38.285162,-899.701298,-9513.862658
448.797942,-76.570323,-995.414202,-9609.575562
448.800503,-133.998066,-861.416136,-9762.716208
448.803065,-57.427742,-842.273555,-9552.147819
448.805627,-19.142581,-937.986459,-9705.288466
448.808188,-95.712904,-823.130974,-9628.718142
448.810750,-0.000000,-957.129040,-9475.577496
448.813312,-95.712904,-708.275490,-9915.856854
448.815873,-76.570323,-669.990328,-9494.720077
448.818435,-133.998066,-803.988394,-9667.003304
448.820997,-95.712904,-708.275490,-9762.716208
448.823558,-114.855485,-727.418070,-9533.005238
448.826120,-153.140646,-689.132909,-9781.858789
448.828682,-76.570323,-1014.556782,-9705.288466
448.831243,-57.427742,-899.701298,-9590.432981
448.833805,-38.285162,-918.843878,-9801.001370
448.836367,-133.998066,-708.275490,-9801.001370
448.838928,-95.712904,-861.416136,-9590.432981
448.841490,-38.285162,-1052.841944,-9513.862658
448.844052,-76.570323,-861.416136,-9571.290400
448.846613,-38.285162,-861.416136,-9762.716208
448.849175,-95.712904,-746.560651,-9609.575562
448.851737,-172.283227,-727.418070,-9705.288466
448.854298,-114.855485,-746.560651,-9552.147819
448.856860,-95.712904,-708.275490,-9705.288466
448.859422,-172.283227,-899.701298,-9609.575562
448.861983,-95.712904,-1014.556782,-9590.432981
448.864545,-133.998066,-957.129040,-9820.143950
448.867107,-76.570323,-1014.556782,-9628.718142
448.869668,-133.998066,-1014.556782,-9647.860723
448.872230,-57.427742,-899.701298,-9743.573627
448.874792,-76.570323,-995.414202,-9667.003304
448.877353,-133.998066,-995.414202,-9667.003304
448.879915,-76.570323,-1014.556782,-9590.432981
448.882477,-133.998066,-918.843878,-9571.290400
448.885038,-38.285162,-842.273555,-9667.003304
448.887600,-95.712904,-861.416136,-9628.718142
448.890165,-57.427742,-880.558717,-9628.718142
448.892730,-76.570323,-669.990328,-9877.571693
448.895296,-0.000000,-842.273555,-9705.288466
448.897861,-76.570323,-880.558717,-9647.860723
448.900426,-76.570323,-957.129040,-9762.716208
448.902992,-133.998066,-823.130974,-9705.288466
448.905557,-57.427742,-823.130974,-9686.145885
448.908122,-95.712904,-937.986459,-9609.575562
448.910687,-76.570323,-918.843878,-9609.575562
448.913253,-38.285162,-899.701298,-9628.718142
448.915818,-38.285162,-861.416136,-9705.288466
448.918383,-114.855485,-976.271621,-9705.288466
448.920948,-133.998066,-937.986459,-9628.718142
448.923514,-57.427742,-1071.984525,-9724.431046
448.926079,-95.712904,-995.414202,-9609.575562
448.928644,-76.570323,-899.701298,-9686.145885
448.931210,-133.998066,-861.416136,-9513.862658
448.933775,-114.855485,-918.843878,-9571.290400
448.936340,-114.855485,-880.558717,-9628.718142
448.938905,-76.570323,-842.273555,-9647.860723
448.941471,-76.570323,-918.843878,-9590.432981
448.944036,-76.570323,-823.130974,-9647.860723
448.946601,-133.998066,-803.988394,-9590.432981
448.949167,-114.855485,-689.132909,-9762.716208
448.951732,-38.285162,-746.560651,-9590.432981
448.954297,-38.285162,-803.988394,-9705.288466
448.956862,-76.570323,-823.130974,-9686.145885
448.959428,-95.712904,-861.416136,-9743.573627
448.961993,-133.998066,-957.129040,-9494.720077
448.964558,-114.855485,-995.414202,-9686.145885
448.967124,-133.998066,-937.986459,-9628.718142
448.969689,-95.712904,-937.986459,-9628.718142
448.972254,-95.712904,-957.129040,-9647.860723
448.974819,-95.712904,-937.986459,-9667.003304
448.977385,-153.140646,-899.701298,-9801.001370
448.979950,-57.427742,-995.414202,-9647.860723
448.982515,-133.998066,-995.414202,-9590.432981
448.985080,-114.855485,-976.271621,-9667.003304
448.987646,-133.998066,-899.701298,-9667.003304
448.990211,-76.570323,-937.986459,-9609.575562
448.992779,-57.427742,-937.986459,-9667.003304
448.995346,-76.570323,-899.701298,-9647.860723
448.997914,-76.570323,-803.988394,-9705.288466
449.000482,-0.000000,-861.416136,-9705.288466
449.003049,-210.568389,-899.701298,-9705.288466
449.005617,-57.427742,-918.843878,-9667.003304
449.008185,-114.855485,-918.843878,-9590.432981
449.010752,-0.000000,-957.129040,-9647.860723
449.013320,-114.855485,-995.414202,-9667.003304
449.015888,-95.712904,-899.701298,-9724.431046
449.018456,-76.570323,-1033.699363,-9590.432981
449.021023,-57.427742,-1129.412267,-9801.001370
449.023591,-38.285162,-1091.127106,-9667.003304
449.026159,-114.855485,-842.273555,-9475.577496
449.028726,-133.998066,-899.701298,-9686.145885
449.031294,-95.712904,-937.986459,-9533.005238
449.033862,-0.000000,-823.130974,-9533.005238
449.036429,-114.855485,-784.845813,-10011.569758
449.038997,-76.570323,-899.701298,-9188.438784
449.041565,-95.712904,-1014.556782,-9552.147819
449.044132,-114.855485,-784.845813,-9762.716208
449.046700,-95.712904,-765.703232,-9571.290400
449.049268,-76.570323,-880.558717,-9628.718142
449.051835,-0.000000,-918.843878,-9743.573627
449.054403,-133.998066,-669.990328,-9628.718142
449.056971,-114.855485,-823.130974,-9628.718142
449.059538,-114.855485,-937.986459,-9647.860723
449.062106,-76.570323,-861.416136,-9743.573627
449.064674,-38.285162,-995.414202,-9571.290400
449.067241,-114.855485,-957.129040,-9705.288466
449.069809,-95.712904,-880.558717,-9647.860723
449.072377,-133.998066,-842.273555,-9743.573627
449.074945,-114.855485,-899.701298,-9686.145885
449.077512,-57.427742,-1052.841944,-9667.003304
449.080080,-57.427742,-880.558717,-9743.573627
449.082648,-95.712904,-861.416136,-9571.290400
449.085215,-76.570323,-937.986459,-9552.147819
449.087783,-95.712904,-976.271621,-9686.145885
449.090351,-133.998066,-823.130974,-9705.288466
449.092918,-76.570323,-957.129040,-9743.573627
449.095487,-133.998066,-842.273555,-9686.145885
449.098056,-76.570323,-823.130974,-9628.718142
449.100625,-133.998066,-746.560651,-9724.431046
449.103194,-76.570323,-880.558717,-9571.290400
449.105763,-133.998066,-823.130974,-9609.575562
449.108333,-95.712904,-880.558717,-9667.003304
449.110902,-114.855485,-918.843878,-9667.003304
449.113471,-133.998066,-976.271621,-9647.860723
449.116040,-114.855485,-1071.984525,-9705.288466
449.118609,-38.285162,-1148.554848,-9647.860723
449.121178,-114.855485,-937.986459,-9667.003304
449.123747,-172.283227,-727.418070,-9781.858789
449.126316,-95.712904,-784.845813,-9590.432981
449.128885,-133.998066,-918.843878,-9628.718142
449.131454,-38.285162,-918.843878,-9743.573627
449.134023,-114.855485,-784.845813,-9552.147819
449.136592,-38.285162,-803.988394,-9647.860723
449.139161,-95.712904,-899.701298,-9686.145885
449.141730,-57.427742,-957.129040,-9571.290400
449.144299,-95.712904,-861.416136,-9743.573627
449.146868,-57.427742,-880.558717,-9686.145885
449.149437,-172.283227,-880.558717,-9571.290400
449.152006,-76.570323,-823.130974,-9667.003304
449.154575,-57.427742,-727.418070,-9724.431046
449.157144,-133.998066,-803.988394,-9609.575562
449.159713,-114.855485,-918.843878,-9667.003304
449.162282,-76.570323,-899.701298,-9724.431046
449.164851,-95.712904,-937.986459,-9590.432981
449.167421,-38.285162,-957.129040,-9667.003304
449.169990,-95.712904,-957.129040,-9743.573627
449.172559,-95.712904,-918.843878,-9667.003304
449.175128,-133.998066,-880.558717,-9609.575562
449.177697,-95.712904,-976.271621,-9781.858789
449.180266,-114.855485,-918.843878,-9609.575562
449.182835,-76.570323,-976.271621,-9686.145885
449.185404,-172.283227,-918.843878,-9667.003304
449.187973,-114.855485,-880.558717,-9686.145885
449.190542,-153.140646,-957.129040,-9494.720077
449.193111,-76.570323,-995.414202,-9647.860723
449.195680,-95.712904,-823.130974,-9686.145885
449.198250,-95.712904,-823.130974,-9571.290400
449.200820,-38.285162,-880.558717,-9743.573627
449.203389,-57.427742,-1071.984525,-9781.858789
449.205959,-153.140646,-842.273555,-9628.718142
449.208528,-133.998066,-937.986459,-9647.860723
449.211098,-114.855485,-823.130974,-9628.718142
449.213667,-38.285162,-784.845813,-9590.432981
449.216236,-38.285162,-918.843878,-9494.720077
449.218806,-95.712904,-1014.556782,-9743.573627
449.221375,-57.427742,-995.414202,-9667.003304
449.223945,-133.998066,-842.273555,-9781.858789
449.226514,-57.427742,-976.271621,-9533.005238
449.229084,-57.427742,-880.558717,-9628.718142
449.231653,-38.285162,-1014.556782,-9705.288466
449.234223,-172.283227,-746.560651,-9590.432981
449.236792,-153.140646,-842.273555,-9858.429112
449.239362,-19.142581,-1033.699363,-9379.864592
449.241931,-133.998066,-823.130974,-9743.573627
449.244500,-57.427742,-937.986459,-9667.003304
449.247070,-114.855485,-880.558717,-9647.860723
449.249639,-114.855485,-957.129040,-9686.145885
449.252209,-172.283227,-823.130974,-9686.145885
449.254778,-38.285162,-1014.556782,-9705.288466
449.257348,-76.570323,-823.130974,-9533.005238
449.259917,-76.570323,-823.130974,-9820.143950
449.262487,-133.998066,-803.988394,-9705.288466
449.265056,-210.568389,-861.416136,-9513.862658
449.267626,-38.285162,-995.414202,-9628.718142
449.270195,-57.427742,-880.558717,-9628.718142
449.272764,-95.712904,-861.416136,-9667.003304
449.275334,-76.570323,-899.701298,-9686.145885
449.277903,-172.283227,-899.701298,-9686.145885
449.280473,-114.855485,-957.129040,-9533.005238
449.283042,-95.712904,-918.843878,-9628.718142
449.285612,-95.712904,-803.988394,-9571.290400
449.288181,-57.427742,-842.273555,-9609.575562
449.290751,-76.570323,-937.986459,-9647.860723
449.293320,-76.570323,-937.986459,-9590.432981
449.295890,-95.712904,-880.558717,-9743.573627
449.298459,-38.285162,-899.701298,-9667.003304
449.301029,-133.998066,-823.130974,-9533.005238
449.303599,-114.855485,-784.845813,-9820.143950
449.306169,-133.998066,-861.416136,-9628.718142
449.308739,-76.570323,-937.986459,-9571.290400
449.311309,-95.712904,-823.130974,-9705.288466
449.313879,-114.855485,-995.414202,-9628.718142
449.316449,-38.285162,-995.414202,-9667.003304
449.319019,-95.712904,-957.129040,-9781.858789
449.321589,-38.285162,-976.271621,-9552.147819
449.324159,-95.712904,-899.701298,-9647.860723
449.326729,-38.285162,-823.130974,-9590.432981
449.329299,-95.712904,-957.129040,-9743.573627
449.331869,-153.140646,-957.129040,-9781.858789
449.334439,-95.712904,-861.416136,-9820.143950
449.337009,-76.570323,-899.701298,-9590.432981
