#time,accel_x,accel_y,accel_z
223.952572,689.485948,-222.061783,9400.615463
223.952880,459.657299,-666.185348,9548.656652
223.953188,689.485948,-814.226536,9992.780217
223.953496,536.266849,-888.247130,9918.759623
223.953804,1149.143247,-888.247130,9992.780217
223.954112,995.924147,-888.247130,9548.656652
223.954420,2068.457845,-666.185348,9696.697840
223.954728,1991.848295,-518.144159,9326.594869
223.955036,2298.286494,-74.020594,9326.594869
223.955344,2528.115143,-444.123565,9326.594869
223.955652,2451.505594,-148.041188,9326.594869
223.955960,2528.115143,-74.020594,9252.574275
223.956268,2757.943793,-296.082377,9178.553681
223.956576,2451.505594,222.061783,8956.491898
223.956884,2757.943793,-0.000000,9326.594869
223.957192,2604.724693,592.164754,9474.636058
223.957500,2681.334243,740.205942,9326.594869
223.957808,2757.943793,888.247130,9400.615463
223.958116,2604.724693,1258.350101,9548.656652
223.958424,2681.334243,1184.329507,9474.636058
223.958733,2757.943793,1110.308913,9844.739029
223.959041,2451.505594,1332.370696,9474.636058
223.959349,2681.334243,1332.370696,9992.780217
223.959657,2068.457845,962.267725,9548.656652
223.959965,1838.629195,1110.308913,9844.739029
223.960273,1762.019645,1036.288319,9844.739029
223.960581,1608.800546,740.205942,9992.780217
223.960889,1762.019645,444.123565,9770.718434
223.961197,1455.581446,296.082377,9992.780217
223.961505,1072.533697,-0.000000,10140.821405
223.961813,1455.581446,888.247130,10140.821405
223.962121,1455.581446,518.144159,9844.739029
223.962429,1838.629195,814.226536,9992.780217
223.962737,1762.019645,666.185348,9548.656652
223.963045,1838.629195,592.164754,9400.615463
223.963353,1685.410096,222.061783,9104.533087
223.963661,1532.190996,518.144159,9326.594869
223.963969,1685.410096,592.164754,9474.636058
223.964277,1915.238745,518.144159,9178.553681
223.964585,1149.143247,444.123565,8734.430116
223.964893,1225.752797,592.164754,8956.491898
223.965201,1378.971896,444.123565,8956.491898
223.965509,919.314598,370.102971,9178.553681
223.965817,612.876398,-222.061783,9548.656652
223.966125,0.000000,-814.226536,9844.739029
223.966433,0.000000,-962.267725,10288.862594
223.966741,-229.828649,-740.205942,10066.800811
223.967049,0.000000,-666.185348,10288.862594
223.967357,0.000000,-444.123565,9844.739029
223.967666,0.000000,-592.164754,9548.656652
223.967974,76.609550,-370.102971,9474.636058
223.968282,153.219100,-370.102971,9178.553681
223.968590,383.047749,-518.144159,9474.636058
223.968898,76.609550,-666.185348,9770.718434
223.969206,0.000000,-888.247130,9696.697840
223.969514,-153.219100,-592.164754,9844.739029
223.969822,-689.485948,-444.123565,9918.759623
223.970130,-459.657299,-592.164754,9992.780217
223.970438,-153.219100,-296.082377,9992.780217
223.970746,-689.485948,-518.144159,9622.677246
223.971054,536.266849,-148.041188,9992.780217
223.971362,612.876398,-0.000000,9696.697840
223.971670,459.657299,-0.000000,9622.677246
223.971978,459.657299,-0.000000,9326.594869
223.972286,459.657299,370.102971,9326.594869
223.972594,459.657299,518.144159,9474.636058
223.972902,306.438199,518.144159,9474.636058
223.973210,842.705048,592.164754,9326.594869
223.973518,459.657299,370.102971,9474.636058
223.973826,689.485948,148.041188,9474.636058
223.974134,536.266849,518.144159,9992.780217
223.974442,919.314598,740.205942,9474.636058
223.974750,995.924147,740.205942,9474.636058
223.975058,1225.752797,814.226536,9474.636058
223.975366,1225.752797,814.226536,9474.636058
223.975674,1302.362347,814.226536,9400.615463
223.975982,1455.581446,814.226536,9548.656652
223.976291,1685.410096,370.102971,9474.636058
223.976599,1608.800546,518.144159,9696.697840
223.976907,1225.752797,592.164754,9918.759623
223.977215,1149.143247,518.144159,10066.800811
223.977523,1149.143247,518.144159,9992.780217
223.977831,1225.752797,592.164754,9992.780217
223.978139,1072.533697,148.041188,9992.780217
223.978447,1455.581446,222.061783,9918.759623
223.978755,1532.190996,-0.000000,9696.697840
223.979063,1455.581446,-0.000000,9770.718434
223.979371,1302.362347,148.041188,9474.636058
223.979679,995.924147,444.123565,9474.636058
223.979987,1149.143247,370.102971,9548.656652
223.980295,1072.533697,222.061783,9474.636058
223.980603,842.705048,296.082377,9622.677246
223.980911,842.705048,-0.000000,9474.636058
223.981219,229.828649,-0.000000,9696.697840
223.981527,383.047749,-0.000000,9770.718434
223.981835,383.047749,222.061783,9474.636058
223.982143,459.657299,-0.000000,9474.636058
223.982451,459.657299,-0.000000,9400.615463
223.982759,153.219100,222.061783,9474.636058
223.983067,-459.657299,-0.000000,9548.656652
223.983375,76.609550,-0.000000,9548.656652
223.983683,-229.828649,-74.020594,9622.677246
223.983991,0.000000,-444.123565,9548.656652
223.984299,0.000000,-222.061783,9474.636058
223.984607,-383.047749,-148.041188,9622.677246
223.984915,-229.828649,-148.041188,9548.656652
223.985224,-383.047749,-0.000000,9548.656652
223.985532,-383.047749,-222.061783,9622.677246
223.985840,76.609550,-74.020594,9844.739029
223.986148,-459.657299,-296.082377,9622.677246
223.986456,-383.047749,-0.000000,9622.677246
223.986764,-383.047749,-0.000000,9622.677246
223.987072,-153.219100,-0.000000,9474.636058
223.987380,-153.219100,-0.000000,9474.636058
223.987688,0.000000,-0.000000,9622.677246
223.987996,76.609550,-296.082377,9622.677246
223.988304,0.000000,-0.000000,9622.677246
223.988612,689.485948,-0.000000,9622.677246
223.988920,153.219100,444.123565,9770.718434
223.989228,689.485948,296.082377,9474.636058
223.989536,919.314598,148.041188,9696.697840
223.989844,1072.533697,222.061783,9326.594869
223.990152,995.924147,222.061783,9400.615463
223.990459,919.314598,222.061783,9474.636058
223.990767,1225.752797,-0.000000,9474.636058
223.991075,1225.752797,370.102971,9474.636058
223.991383,1302.362347,740.205942,9474.636058
223.991691,1225.752797,370.102971,9400.615463
223.991999,1378.971896,222.061783,9474.636058
223.992307,1302.362347,370.102971,9474.636058
223.992615,1225.752797,518.144159,9548.656652
223.992922,995.924147,148.041188,9770.718434
223.993230,1532.190996,222.061783,9918.759623
223.993538,1072.533697,518.144159,9770.718434
223.993846,1378.971896,444.123565,9844.739029
223.994154,1225.752797,370.102971,9918.759623
223.994462,1225.752797,370.102971,9770.718434
223.994770,1225.752797,296.082377,9696.697840
223.995078,1149.143247,444.123565,9548.656652
223.995386,689.485948,444.123565,9918.759623
223.995694,919.314598,444.123565,10214.842000
223.996002,1378.971896,518.144159,9918.759623
223.996310,995.924147,444.123565,9770.718434
223.996617,995.924147,518.144159,9770.718434
223.996925,1072.533697,444.123565,9548.656652
223.997233,842.705048,370.102971,9696.697840
223.997541,612.876398,296.082377,9622.677246
223.997849,612.876398,-0.000000,9992.780217
223.998157,612.876398,148.041188,9622.677246
223.998465,689.485948,-0.000000,9696.697840
223.998773,842.705048,370.102971,9474.636058
223.999081,612.876398,296.082377,9548.656652
223.999389,306.438199,-0.000000,9696.697840
223.999697,306.438199,444.123565,9696.697840
224.000005,153.219100,296.082377,9696.697840
224.000312,153.219100,-0.000000,9474.636058
224.000620,0.000000,-74.020594,9696.697840
224.000928,0.000000,-148.041188,9548.656652
224.001236,153.219100,-148.041188,9548.656652
224.001544,0.000000,-74.020594,9548.656652
224.001852,229.828649,-0.000000,9548.656652
224.002160,306.438199,-0.000000,9918.759623
224.002468,76.609550,-0.000000,9696.697840
224.002776,0.000000,-296.082377,9770.718434
224.003084,995.924147,-0.000000,10066.800811
224.003392,306.438199,-0.000000,9622.677246
224.003700,153.219100,-0.000000,9770.718434
224.004008,229.828649,-0.000000,9474.636058
224.004315,153.219100,-0.000000,9622.677246
224.004623,229.828649,-74.020594,9622.677246
224.004931,383.047749,148.041188,9474.636058
224.005239,306.438199,-74.020594,9548.656652
224.005547,306.438199,-148.041188,9474.636058
224.005855,76.609550,222.061783,9844.739029
224.006163,459.657299,-0.000000,9770.718434
224.006471,536.266849,444.123565,9474.636058
224.006779,689.485948,222.061783,9474.636058
224.007087,612.876398,148.041188,9474.636058
224.007395,689.485948,370.102971,9474.636058
224.007703,919.314598,-0.000000,9548.656652
224.008010,1072.533697,370.102971,9400.615463
224.008318,766.095498,-74.020594,9548.656652
224.008626,919.314598,-0.000000,9548.656652
224.008934,919.314598,370.102971,9474.636058
224.009242,766.095498,370.102971,9474.636058
224.009550,766.095498,148.041188,9548.656652
224.009858,842.705048,370.102971,9548.656652
224.010166,919.314598,-0.000000,9474.636058
224.010474,919.314598,-148.041188,9474.636058
224.010782,842.705048,296.082377,9326.594869
224.011090,612.876398,-0.000000,9696.697840
224.011398,842.705048,222.061783,9548.656652
224.011706,842.705048,370.102971,9696.697840
224.012013,689.485948,296.082377,9696.697840
224.012321,995.924147,222.061783,9770.718434
224.012629,306.438199,592.164754,9918.759623
224.012937,919.314598,296.082377,9770.718434
224.013245,766.095498,-74.020594,9696.697840
224.013553,0.000000,-0.000000,9770.718434
224.013861,612.876398,296.082377,9622.677246
224.014169,766.095498,444.123565,9474.636058
224.014477,536.266849,370.102971,9622.677246
224.014785,995.924147,296.082377,9548.656652
224.015093,766.095498,-0.000000,9696.697840
224.015401,459.657299,370.102971,9918.759623
224.015708,689.485948,-296.082377,9326.594869
224.016016,459.657299,148.041188,9622.677246
224.016324,459.657299,370.102971,9622.677246
224.016632,689.485948,296.082377,9548.656652
224.016940,766.095498,296.082377,9548.656652
224.017248,536.266849,-0.000000,9474.636058
224.017556,153.219100,370.102971,10140.821405
224.017864,842.705048,148.041188,9696.697840
224.018172,229.828649,-0.000000,9770.718434
224.018480,536.266849,-0.000000,9548.656652
224.018788,689.485948,-0.000000,9474.636058
224.019096,459.657299,296.082377,9622.677246
224.019404,459.657299,296.082377,9622.677246
224.019711,76.609550,222.061783,9696.697840
224.020019,612.876398,-0.000000,9622.677246
224.020327,76.609550,148.041188,9548.656652
224.020635,536.266849,296.082377,9770.718434
224.020943,766.095498,-0.000000,9696.697840
224.021251,459.657299,148.041188,9622.677246
224.021559,612.876398,-0.000000,9548.656652
224.021867,459.657299,296.082377,9548.656652
224.022175,536.266849,222.061783,9770.718434
224.022483,612.876398,148.041188,9548.656652
224.022791,536.266849,-0.000000,9474.636058
224.023099,612.876398,222.061783,9770.718434
224.023406,995.924147,148.041188,9326.594869
224.023714,842.705048,370.102971,9696.697840
224.024022,766.095498,148.041188,9326.594869
224.024330,919.314598,222.061783,9474.636058
224.024638,919.314598,296.082377,9474.636058
224.024946,842.705048,222.061783,9474.636058
224.025254,995.924147,518.144159,9696.697840
224.025562,1302.362347,370.102971,9474.636058
224.025870,919.314598,148.041188,9400.615463
224.026178,995.924147,222.061783,9474.636058
224.026486,1072.533697,296.082377,9548.656652
224.026794,689.485948,296.082377,9474.636058
224.027102,306.438199,222.061783,9474.636058
224.027409,689.485948,296.082377,9474.636058
224.027717,766.095498,222.061783,9474.636058
224.028025,995.924147,148.041188,9474.636058
224.028333,689.485948,370.102971,9548.656652
224.028641,689.485948,296.082377,9770.718434
224.028949,459.657299,222.061783,9548.656652
224.029257,689.485948,296.082377,9844.739029
224.029565,383.047749,-0.000000,9770.718434
224.029873,383.047749,148.041188,9844.739029
224.030181,459.657299,-148.041188,9548.656652
224.030489,459.657299,222.061783,9770.718434
224.030797,459.657299,-0.000000,9474.636058
224.031104,459.657299,370.102971,9548.656652
224.031412,229.828649,222.061783,9622.677246
224.031720,306.438199,222.061783,9474.636058
224.032028,766.095498,666.185348,9622.677246
224.032336,842.705048,222.061783,9548.656652
224.032644,536.266849,296.082377,9474.636058
224.032952,383.047749,-0.000000,9548.656652
224.033260,229.828649,-0.000000,9622.677246
224.033568,383.047749,-74.020594,9400.615463
224.033876,229.828649,296.082377,9622.677246
224.034184,153.219100,296.082377,9474.636058
224.034492,612.876398,-0.000000,9400.615463
224.034799,995.924147,148.041188,9696.697840
224.035107,612.876398,-0.000000,9622.677246
224.035415,459.657299,296.082377,9400.615463
224.035723,689.485948,222.061783,9474.636058
224.036031,306.438199,148.041188,9474.636058
224.036339,459.657299,-0.000000,9474.636058
224.036647,536.266849,-0.000000,9400.615463
224.036955,689.485948,-0.000000,9622.677246
224.037263,229.828649,148.041188,9992.780217
224.037571,919.314598,-0.000000,9400.615463
224.037879,536.266849,296.082377,9622.677246
224.038187,842.705048,-0.000000,9696.697840
224.038495,689.485948,-0.000000,9622.677246
224.038802,766.095498,370.102971,9696.697840
224.039110,689.485948,222.061783,9622.677246
224.039418,689.485948,-74.020594,9548.656652
224.039726,1378.971896,222.061783,9548.656652
224.040034,842.705048,148.041188,9622.677246
224.040342,689.485948,148.041188,9548.656652
224.040650,766.095498,296.082377,9548.656652
224.040958,689.485948,148.041188,9474.636058
224.041266,842.705048,222.061783,9474.636058
224.041574,919.314598,296.082377,9400.615463
224.041882,1455.581446,-0.000000,9548.656652
224.042190,1378.971896,-0.000000,9474.636058
224.042497,689.485948,148.041188,9400.615463
224.042805,689.485948,-0.000000,9474.636058
224.043113,842.705048,222.061783,9696.697840
224.043421,536.266849,296.082377,9474.636058
224.043729,766.095498,148.041188,9622.677246
224.044037,689.485948,-0.000000,9548.656652
224.044345,919.314598,-0.000000,9474.636058
224.044653,612.876398,-0.000000,9918.759623
224.044961,766.095498,222.061783,9770.718434
224.045269,1149.143247,148.041188,9548.656652
224.045577,766.095498,222.061783,9548.656652
224.045885,612.876398,518.144159,9696.697840
224.046193,689.485948,370.102971,9622.677246
224.046500,842.705048,296.082377,9622.677246
224.046808,995.924147,370.102971,9992.780217
224.047116,919.314598,-74.020594,9548.656652
224.047424,536.266849,148.041188,9474.636058
224.047732,995.924147,-148.041188,9622.677246
224.048040,689.485948,148.041188,9622.677246
224.048348,612.876398,222.061783,9548.656652
224.048656,612.876398,222.061783,9622.677246
224.048964,612.876398,444.123565,9548.656652
224.049272,612.876398,-0.000000,9770.718434
224.049580,383.047749,-0.000000,9474.636058
224.049888,919.314598,222.061783,9696.697840
224.050195,766.095498,-74.020594,9548.656652
224.050503,306.438199,-0.000000,9770.718434
224.050811,306.438199,370.102971,9622.677246
224.051119,306.438199,-0.000000,9696.697840
224.051427,383.047749,148.041188,9622.677246
224.051735,459.657299,222.061783,9770.718434
224.052043,-229.828649,-296.082377,9400.615463
224.052351,689.485948,-0.000000,9770.718434
224.052659,612.876398,-0.000000,9770.718434
224.052967,612.876398,296.082377,9770.718434
224.053275,459.657299,222.061783,9548.656652
224.053583,612.876398,222.061783,9474.636058
224.053891,383.047749,222.061783,9548.656652
224.054198,459.657299,148.041188,9844.739029
224.054506,229.828649,-0.000000,9992.780217
224.054814,689.485948,-0.000000,9622.677246
224.055122,383.047749,-0.000000,9326.594869
224.055430,536.266849,296.082377,9474.636058
224.055738,536.266849,296.082377,9474.636058
224.056046,612.876398,-0.000000,9474.636058
224.056354,536.266849,148.041188,9696.697840
224.056662,1149.143247,-0.000000,9252.574275
224.056970,995.924147,222.061783,9622.677246
224.057278,306.438199,148.041188,9622.677246
224.057586,842.705048,222.061783,9474.636058
224.057893,842.705048,-0.000000,9474.636058
224.058201,842.705048,-0.000000,9474.636058
224.058509,536.266849,148.041188,9474.636058
224.058817,842.705048,-0.000000,9696.697840
224.059125,612.876398,296.082377,9844.739029
224.059433,689.485948,-148.041188,9622.677246
224.059741,842.705048,370.102971,9474.636058
224.060049,536.266849,-0.000000,9474.636058
224.060357,612.876398,222.061783,9474.636058
224.060665,612.876398,370.102971,9548.656652
224.060973,612.876398,370.102971,9770.718434
224.061281,689.485948,370.102971,9474.636058
224.061588,842.705048,-0.000000,9548.656652
224.061896,919.314598,-0.000000,9696.697840
224.062204,766.095498,222.061783,9622.677246
224.062512,459.657299,-0.000000,9622.677246
224.062820,689.485948,148.041188,9474.636058
224.063128,612.876398,222.061783,9548.656652
224.063436,306.438199,-0.000000,9474.636058
224.063744,842.705048,444.123565,9622.677246
224.064052,612.876398,148.041188,9474.636058
224.064360,229.828649,-0.000000,9548.656652
224.064668,383.047749,-0.000000,9622.677246
224.064976,612.876398,222.061783,9548.656652
224.065284,459.657299,148.041188,9474.636058
224.065591,383.047749,222.061783,9696.697840
224.065899,459.657299,296.082377,9696.697840
224.066207,459.657299,148.041188,9474.636058
224.066515,383.047749,-0.000000,9770.718434
224.066823,612.876398,222.061783,9696.697840
224.067131,229.828649,148.041188,9844.739029
224.067439,383.047749,148.041188,9474.636058
224.067747,383.047749,-0.000000,9548.656652
224.068055,536.266849,-0.000000,9548.656652
224.068363,536.266849,222.061783,9622.677246
224.068671,306.438199,-0.000000,9474.636058
224.068979,536.266849,-0.000000,9696.697840
224.069286,766.095498,-0.000000,9770.718434
224.069594,612.876398,222.061783,9696.697840
224.069902,612.876398,222.061783,9770.718434
224.070210,766.095498,222.061783,9622.677246
224.070518,842.705048,148.041188,9548.656652
224.070826,612.876398,222.061783,9622.677246
224.071134,842.705048,-0.000000,9326.594869
224.071442,0.000000,444.123565,9844.739029
224.071750,842.705048,-0.000000,9844.739029
224.072058,766.095498,148.041188,9622.677246
224.072366,689.485948,222.061783,9622.677246
224.072674,612.876398,222.061783,9696.697840
224.072982,459.657299,148.041188,9474.636058
224.073289,919.314598,296.082377,9696.697840
224.073597,919.314598,-0.000000,9770.718434
224.073905,689.485948,148.041188,9770.718434
224.074213,536.266849,740.205942,9770.718434
224.074521,919.314598,-0.000000,9770.718434
224.074829,919.314598,444.123565,9548.656652
224.075137,459.657299,296.082377,9622.677246
224.075445,612.876398,222.061783,9474.636058
224.075753,766.095498,370.102971,9474.636058
224.076061,995.924147,222.061783,9696.697840
224.076369,612.876398,-0.000000,9474.636058
224.076677,1455.581446,-148.041188,9474.636058
224.076984,536.266849,-0.000000,9326.594869
224.077292,612.876398,-0.000000,9622.677246
224.077600,459.657299,-0.000000,9474.636058
224.077908,919.314598,-0.000000,9474.636058
224.078216,689.485948,148.041188,9474.636058
224.078524,612.876398,148.041188,9696.697840
224.078832,919.314598,-222.061783,9548.656652
224.079140,536.266849,-296.082377,9474.636058
224.079448,842.705048,-74.020594,9474.636058
224.079756,536.266849,-0.000000,9474.636058
224.080064,383.047749,370.102971,9770.718434
224.080372,229.828649,222.061783,9622.677246
224.080680,842.705048,-0.000000,9696.697840
224.080987,383.047749,-0.000000,9770.718434
224.081295,689.485948,222.061783,9622.677246
224.081603,229.828649,-0.000000,9474.636058
224.081911,459.657299,592.164754,9770.718434
224.082219,459.657299,148.041188,9548.656652
224.082527,459.657299,-0.000000,9696.697840
224.082835,153.219100,222.061783,9548.656652
224.083143,536.266849,-0.000000,9622.677246
224.083451,766.095498,222.061783,9770.718434
224.083759,766.095498,444.123565,9844.739029
224.084067,0.000000,-148.041188,9696.697840
224.084375,536.266849,296.082377,9548.656652
224.084682,306.438199,222.061783,9548.656652
224.084990,612.876398,296.082377,9696.697840
224.085298,612.876398,296.082377,9622.677246
224.085606,536.266849,370.102971,9622.677246
224.085914,689.485948,148.041188,9622.677246
224.086222,229.828649,-0.000000,9622.677246
224.086530,842.705048,-0.000000,9548.656652
224.086838,383.047749,222.061783,9622.677246
224.087146,612.876398,296.082377,9622.677246
224.087454,766.095498,296.082377,9622.677246
224.087762,536.266849,296.082377,9548.656652
224.088070,766.095498,296.082377,9696.697840
224.088377,612.876398,296.082377,9474.636058
224.088685,1072.533697,518.144159,9770.718434
224.088993,919.314598,444.123565,9770.718434
224.089301,842.705048,296.082377,9696.697840
224.089609,689.485948,222.061783,9548.656652
224.089917,842.705048,296.082377,9548.656652
224.090225,919.314598,222.061783,9548.656652
224.090533,842.705048,-0.000000,9474.636058
224.090841,689.485948,148.041188,9474.636058
224.091149,1072.533697,148.041188,9474.636058
224.091457,842.705048,296.082377,9622.677246
224.091765,689.485948,148.041188,9696.697840
224.092072,689.485948,296.082377,9474.636058
224.092380,919.314598,296.082377,9474.636058
224.092688,919.314598,-0.000000,9474.636058
224.092996,689.485948,148.041188,9326.594869
224.093304,766.095498,148.041188,9474.636058
224.093612,1225.752797,-0.000000,9474.636058
224.093920,766.095498,-0.000000,9844.739029
224.094228,612.876398,74.020594,9622.677246
224.094536,383.047749,148.041188,9548.656652
224.094843,689.485948,222.061783,9622.677246
224.095151,612.876398,222.061783,9622.677246
224.095459,842.705048,222.061783,9474.636058
224.095767,306.438199,296.082377,9622.677246
224.096075,229.828649,-0.000000,9474.636058
224.096383,842.705048,-0.000000,9474.636058
224.096691,229.828649,222.061783,9696.697840
224.096999,689.485948,-0.000000,9548.656652
224.097307,459.657299,148.041188,9622.677246
224.097614,383.047749,-0.000000,9548.656652
224.097922,383.047749,-74.020594,9844.739029
224.098230,612.876398,-74.020594,9770.718434
224.098538,229.828649,-370.102971,9622.677246
224.098846,306.438199,-222.061783,10140.821405
224.099154,153.219100,-444.123565,9992.780217
224.099462,76.609550,-222.061783,9770.718434
224.099770,306.438199,-74.020594,9992.780217
224.100077,689.485948,-296.082377,10288.862594
224.100385,612.876398,-0.000000,9622.677246
224.100693,842.705048,370.102971,9474.636058
224.101001,1455.581446,296.082377,9474.636058
224.101309,1149.143247,-0.000000,9548.656652
224.101617,1225.752797,370.102971,9474.636058
224.101925,1455.581446,-0.000000,9474.636058
224.102233,1149.143247,-0.000000,9918.759623
224.102541,1072.533697,-444.123565,10214.842000
224.102848,1532.190996,-518.144159,10288.862594
224.103156,2374.896044,-444.123565,9696.697840
224.103464,2374.896044,-444.123565,9696.697840
224.103772,2681.334243,-148.041188,9548.656652
224.104080,2757.943793,-0.000000,9696.697840
224.104388,2834.553343,222.061783,9696.697840
224.104696,2911.162892,518.144159,9474.636058
224.105004,3447.429741,370.102971,9178.553681
224.105312,3753.867940,592.164754,9548.656652
224.105619,3217.601092,888.247130,9474.636058
224.105927,3447.429741,370.102971,9178.553681
224.106235,3830.477490,518.144159,9252.574275
224.106543,3447.429741,518.144159,9474.636058
224.106851,3217.601092,370.102971,9622.677246
224.107159,3294.210641,-0.000000,9696.697840
224.107467,3447.429741,148.041188,9844.739029
224.107775,3370.820191,-0.000000,9992.780217
224.108082,3524.039291,-370.102971,10140.821405
224.108390,4290.134789,-148.041188,10140.821405
224.108698,4136.915689,-0.000000,9770.718434
224.109006,4443.353888,222.061783,9696.697840
224.109314,4443.353888,592.164754,9770.718434
224.109622,4826.401637,592.164754,9474.636058
224.109930,4749.792088,962.267725,9178.553681
224.110238,4903.011187,962.267725,8956.491898
224.110546,5056.230287,962.267725,8882.471304
224.110853,4903.011187,962.267725,9252.574275
224.111161,4903.011187,666.185348,9178.553681
224.111469,4673.182538,888.247130,9030.512492
224.111777,4290.134789,592.164754,9178.553681
224.112085,4213.525239,370.102971,9918.759623
224.112393,4213.525239,296.082377,9622.677246
224.112701,4366.744339,814.226536,9178.553681
224.113009,4290.134789,592.164754,9474.636058
224.113317,4213.525239,1332.370696,8956.491898
224.113624,4443.353888,962.267725,8882.471304
224.113932,4366.744339,1184.329507,9178.553681
224.114240,4213.525239,888.247130,9326.594869
224.114548,3907.087040,888.247130,9400.615463
224.114856,3983.696590,592.164754,9474.636058
224.115164,3140.991542,296.082377,9622.677246
224.115472,3677.258390,-0.000000,9918.759623
224.115780,2987.772442,-148.041188,9770.718434
224.116087,2911.162892,-0.000000,9770.718434
224.116395,2987.772442,148.041188,9844.739029
224.116703,2911.162892,592.164754,9770.718434
224.117011,2374.896044,592.164754,9252.574275
224.117319,2451.505594,666.185348,9474.636058
224.117627,2681.334243,814.226536,9844.739029
224.117935,1838.629195,444.123565,9844.739029
224.118243,1532.190996,296.082377,10658.965565
224.118551,612.876398,-296.082377,10140.821405
224.118858,842.705048,-740.205942,10362.883188
224.119166,306.438199,-1332.370696,10955.047942
224.119474,612.876398,-1850.514855,11547.212695
224.119782,536.266849,-2072.576638,11399.171507
224.120090,766.095498,-2590.720797,11177.109724
224.120398,1685.410096,-1850.514855,11251.130318
224.120706,2528.115143,-2072.576638,10362.883188
224.121014,2681.334243,-1924.535449,10066.800811
224.121322,3677.258390,-814.226536,9474.636058
224.121629,4290.134789,-370.102971,8734.430116
224.121937,4366.744339,370.102971,8216.285956
224.122245,4903.011187,962.267725,7920.203579
224.122553,5745.716235,1258.350101,7846.182985
224.122861,4903.011187,1332.370696,7550.100608
224.123169,4749.792088,888.247130,7698.141797
224.123477,3447.429741,1184.329507,8438.347739
224.123785,2911.162892,814.226536,8956.491898
224.124092,2451.505594,814.226536,9178.553681
224.124400,2068.457845,962.267725,9104.533087
224.124708,2068.457845,1406.391290,9252.574275
224.125016,2068.457845,1554.432478,9178.553681
224.125324,2451.505594,2220.617826,9252.574275
224.125632,2757.943793,2368.659014,9104.533087
224.125940,2451.505594,2146.597232,9252.574275
224.126248,2374.896044,1998.556043,9548.656652
224.126556,1225.752797,1110.308913,9992.780217
224.126863,919.314598,-148.041188,11029.068536
224.127171,536.266849,-962.267725,11695.253884
224.127479,-153.219100,-2368.659014,12731.542202
224.127787,-612.876398,-3701.029710,13101.645173
224.128095,-536.266849,-3404.947333,13619.789333
224.128403,153.219100,-3330.926739,12805.562797
224.128711,1685.410096,-2146.597232,11251.130318
224.129019,2757.943793,-1036.288319,9992.780217
224.129327,4213.525239,296.082377,8512.368333
224.129634,6358.592633,1110.308913,7994.224174
224.129942,7124.688131,2220.617826,6439.791695
224.130250,5898.935335,3552.988522,5477.523971
224.130558,6894.859482,2590.720797,5995.668130
224.130866,5898.935335,2590.720797,6143.709319
224.131174,4596.572988,2738.761985,6069.688724
224.131482,3677.258390,2590.720797,6735.874072
224.131790,2757.943793,2146.597232,7476.080014
224.132097,1685.410096,1480.411884,8364.327145
224.132405,536.266849,1184.329507,9326.594869
224.132713,766.095498,518.144159,10510.924376
224.133021,76.609550,-888.247130,11251.130318
224.133329,153.219100,-1406.391290,10955.047942
224.133637,-459.657299,-1702.473667,11251.130318
224.133945,-229.828649,-3034.844362,13101.645173
224.134253,-766.095498,-3108.864956,13471.748144
224.134561,-842.705048,-2812.782580,12953.603985
224.134868,-689.485948,-2664.741391,12879.583391
224.135176,0.000000,-2442.679609,12287.418637
224.135484,306.438199,-1702.473667,11325.150913
224.135792,1072.533697,-740.205942,10140.821405
224.136100,2374.896044,296.082377,8882.471304
224.136408,2911.162892,1332.370696,7920.203579
224.136716,3983.696590,2516.700203,6735.874072
224.137024,4290.134789,3330.926739,5773.606348
224.137332,4519.963438,4441.235652,4959.379811
224.137639,4673.182538,4737.318029,4737.318029
224.137947,3217.601092,4589.276840,5625.565159
224.138255,2604.724693,3552.988522,6735.874072
224.138563,689.485948,2664.741391,7994.224174
224.138871,0.000000,518.144159,10436.903782
224.139179,-2221.676944,-1628.453072,11843.295072
224.139487,-3983.696590,-3182.885551,13323.706956
224.139795,-3830.477490,-4959.379811,15544.324782
224.140102,-4443.353888,-5329.482782,15470.304188
224.140410,-3983.696590,-5255.462188,14359.995275
224.140718,-1991.848295,-4293.194464,13397.727550
224.141026,0.000000,-2590.720797,11621.233289
224.141334,1225.752797,-888.247130,9474.636058
224.141642,3064.381992,740.205942,8068.244768
224.141950,4060.306139,2146.597232,7254.018232
224.142258,4903.011187,2960.823768,5995.668130
224.142566,4826.401637,3997.112087,5699.585753
224.142873,3907.087040,4219.173869,5773.606348
224.143181,3064.381992,4367.215058,5773.606348
224.143489,2604.724693,2960.823768,7105.977043
224.143797,995.924147,1702.473667,8290.306550
224.144105,0.000000,-296.082377,10362.883188
224.144413,-842.705048,-1850.514855,12287.418637
224.144721,-1378.971896,-2368.659014,12805.562797
224.145029,-2221.676944,-3923.091493,13767.830521
224.145337,-2298.286494,-3627.009116,13471.748144
224.145644,-1225.752797,-2368.659014,12805.562797
224.145952,153.219100,-1480.411884,12287.418637
224.146260,995.924147,-444.123565,10362.883188
224.146568,2145.067394,1110.308913,8512.368333
224.146876,2681.334243,1850.514855,7624.121203
224.147184,3294.210641,2590.720797,7105.977043
224.147492,2374.896044,3330.926739,6883.915261
224.147800,2757.943793,4145.153275,6439.791695
224.148107,2298.286494,3552.988522,7031.956449
224.148415,1378.971896,2886.803174,7550.100608
224.148723,612.876398,1628.453072,8660.409521
224.149031,-306.438199,518.144159,9696.697840
224.149339,-995.924147,-1332.370696,11103.089130
224.149647,-1762.019645,-1776.494261,12879.583391
224.149955,-2374.896044,-2960.823768,13027.624579
224.150263,-2374.896044,-2738.761985,12583.501014
224.150571,-1225.752797,-2220.617826,12065.356855
224.150878,0.000000,-1036.288319,10955.047942
224.151186,1455.581446,-148.041188,9918.759623
224.151494,2221.676944,518.144159,8512.368333
224.151802,3677.258390,1332.370696,6957.935855
224.152110,3600.648841,1628.453072,6661.853478
224.152418,3447.429741,1998.556043,6365.771101
224.152726,3064.381992,1850.514855,6217.729913
224.153034,1991.848295,2664.741391,6735.874072
224.153342,1838.629195,2368.659014,7624.121203
224.153649,612.876398,1554.432478,8142.265362
224.153957,-153.219100,444.123565,9696.697840
224.154265,-689.485948,-1258.350101,11325.150913
224.154573,-2604.724693,-2368.659014,12287.418637
224.154881,-2911.162892,-3627.009116,14434.015869
224.155189,-3600.648841,-4071.132681,14434.015869
224.155497,-3677.258390,-3701.029710,14211.954086
224.155805,-2911.162892,-2960.823768,13027.624579
224.156112,-1455.581446,-1702.473667,11843.295072
224.156420,995.924147,-370.102971,9622.677246
224.156728,1532.190996,814.226536,7994.224174
224.157036,3294.210641,1480.411884,6735.874072
224.157344,3677.258390,2664.741391,5847.626942
224.157652,3294.210641,3182.885551,5477.523971
224.157960,3907.087040,4145.153275,4737.318029
224.158268,3830.477490,4663.297435,4885.359217
224.158576,3370.820191,4515.256246,5699.585753
224.158883,2298.286494,3404.947333,6735.874072
224.159191,459.657299,1702.473667,9104.533087
224.159499,-153.219100,-296.082377,10881.027347
224.159807,-2451.505594,-1998.556043,12213.398043
224.160115,-3830.477490,-3404.947333,13841.851115
224.160423,-4213.525239,-4293.194464,14656.077652
224.160731,-3677.258390,-4145.153275,14508.036463
224.161039,-2681.334243,-3108.864956,13619.789333
224.161347,-1072.533697,-2294.638420,11769.274478
224.161654,536.266849,-740.205942,10584.944971
224.161962,2374.896044,296.082377,9104.533087
224.162270,2987.772442,1480.411884,7402.059420
224.162578,3677.258390,2220.617826,6809.894666
224.162886,3907.087040,2812.782580,6587.832884
224.163194,3370.820191,3478.967927,6143.709319
224.163502,3370.820191,3552.988522,5773.606348
224.163810,3140.991542,2960.823768,6883.915261
224.164117,2374.896044,1480.411884,7994.224174
224.164425,842.705048,-74.020594,10214.842000
224.164733,-995.924147,-1702.473667,11621.233289
224.165041,-2298.286494,-2886.803174,12953.603985
224.165349,-2681.334243,-3849.070898,14137.933492
224.165657,-2604.724693,-3775.050304,14434.015869
224.165965,-1991.848295,-3330.926739,13545.768739
224.166273,-1149.143247,-2368.659014,12361.439231
224.166581,842.705048,-1110.308913,10881.027347
224.166888,2068.457845,370.102971,9326.594869
224.167196,2604.724693,2220.617826,7624.121203
224.167504,3524.039291,2368.659014,6883.915261
224.167812,3907.087040,3552.988522,6291.750507
224.168120,3983.696590,4219.173869,5995.668130
224.168428,3524.039291,4219.173869,5181.441594
224.168736,3294.210641,4293.194464,5921.647536
224.169044,3217.601092,3108.864956,7698.141797
224.169352,1149.143247,1998.556043,8512.368333
224.169659,-153.219100,-148.041188,10510.924376
224.169967,-1225.752797,-1258.350101,11399.171507
224.170275,-2528.115143,-2886.803174,13175.665768
224.170583,-3217.601092,-3478.967927,14359.995275
224.170891,-2528.115143,-3330.926739,14285.974681
224.171199,-1532.190996,-2442.679609,13397.727550
224.171507,459.657299,-1480.411884,11621.233289
224.171815,1915.238745,370.102971,9844.739029
224.172122,3140.991542,1184.329507,8216.285956
224.172430,3907.087040,1850.514855,7550.100608
224.172738,3983.696590,2442.679609,6587.832884
224.173046,3753.867940,2886.803174,6439.791695
224.173354,3600.648841,2516.700203,6513.812290
224.173662,2987.772442,2664.741391,6587.832884
224.173970,2681.334243,2590.720797,7402.059420
224.174278,1915.238745,1036.288319,8290.306550
224.174586,306.438199,-74.020594,9474.636058
224.174893,-1302.362347,-1110.308913,11621.233289
224.175201,-2528.115143,-2368.659014,13027.624579
224.175509,-3677.258390,-3923.091493,14211.954086
224.175817,-4060.306139,-4367.215058,14508.036463
224.176125,-3140.991542,-3775.050304,14434.015869
224.176433,-2757.943793,-3256.906145,12805.562797
224.176741,-612.876398,-2072.576638,11621.233289
224.177049,1302.362347,-222.061783,9104.533087
224.177357,1991.848295,888.247130,7254.018232
224.177664,2911.162892,2220.617826,6883.915261
224.177972,3753.867940,2590.720797,6365.771101
224.178280,3983.696590,3552.988522,5107.421000
224.178588,3753.867940,3552.988522,4589.276840
224.178896,3677.258390,3552.988522,4737.318029
224.179204,2987.772442,3627.009116,6365.771101
224.179512,2068.457845,2294.638420,8216.285956
224.179820,383.047749,592.164754,9474.636058
224.180127,-1762.019645,-888.247130,10807.006753
224.180435,-3524.039291,-2664.741391,12287.418637
224.180743,-3830.477490,-3552.988522,14063.912898
224.181051,-3677.258390,-3997.112087,14285.974681
224.181359,-3447.429741,-3404.947333,14434.015869
224.181667,-1608.800546,-2738.761985,12953.603985
224.181975,-536.266849,-1036.288319,11103.089130
224.182283,1378.971896,444.123565,9400.615463
224.182591,2451.505594,962.267725,8364.327145
224.182898,3294.210641,2220.617826,6365.771101
224.183206,3677.258390,3256.906145,6143.709319
224.183514,3600.648841,3330.926739,6439.791695
224.183822,4213.525239,3404.947333,6439.791695
224.184130,2987.772442,3182.885551,6365.771101
224.184438,2528.115143,2516.700203,7698.141797
224.184746,766.095498,962.267725,8808.450710
224.185054,-766.095498,-592.164754,10881.027347
224.185362,-2221.676944,-2368.659014,12509.480420
224.185669,-3907.087040,-4145.153275,13841.851115
224.185977,-3907.087040,-4589.276840,15100.201217
224.186285,-3524.039291,-4367.215058,14878.139434
224.186593,-2451.505594,-3404.947333,13619.789333
224.186901,-766.095498,-2072.576638,12065.356855
224.187209,536.266849,-518.144159,9548.656652
224.187517,2451.505594,1850.514855,7550.100608
224.187825,3524.039291,2368.659014,7031.956449
224.188132,4366.744339,3330.926739,5921.647536
224.188440,4213.525239,3849.070898,5107.421000
224.188748,4136.915689,4219.173869,5107.421000
224.189056,4136.915689,3478.967927,5403.503377
224.189364,2604.724693,3404.947333,6365.771101
224.189672,1762.019645,2442.679609,7846.182985
224.189980,383.047749,814.226536,9474.636058
224.190288,-766.095498,-740.205942,10807.006753
224.190596,-2145.067394,-1998.556043,11991.336260
224.190903,-2911.162892,-3478.967927,13471.748144
224.191211,-2834.553343,-3552.988522,14508.036463
224.191519,-2221.676944,-2960.823768,14211.954086
224.191827,-1302.362347,-2590.720797,12731.542202
224.192135,153.219100,-518.144159,10807.006753
224.192443,2145.067394,814.226536,9474.636058
224.192751,3140.991542,1332.370696,8290.306550
224.193059,3753.867940,2072.576638,6883.915261
224.193367,3830.477490,2960.823768,6587.832884
224.193675,4136.915689,2368.659014,6513.812290
224.193983,3447.429741,2812.782580,6217.729913
224.194291,3140.991542,3404.947333,6513.812290
224.194599,2451.505594,2960.823768,7179.997637
224.194907,2068.457845,1258.350101,8882.471304
224.195215,0.000000,296.082377,9992.780217
224.195523,-1149.143247,-1332.370696,11843.295072
224.195831,-2451.505594,-3478.967927,13101.645173
224.196139,-3217.601092,-4219.173869,14878.139434
224.196447,-3140.991542,-4737.318029,15026.180623
224.196755,-2911.162892,-3478.967927,13989.892304
224.197063,-1225.752797,-2590.720797,12805.562797
224.197371,229.828649,-1110.308913,10436.903782
224.197679,2068.457845,1184.329507,8512.368333
224.197987,3447.429741,1480.411884,8216.285956
224.198295,3600.648841,2368.659014,6217.729913
224.198603,3907.087040,3330.926739,5551.544565
224.198911,3983.696590,3034.844362,5477.523971
224.199219,3370.820191,3478.967927,5551.544565
224.199527,3064.381992,3923.091493,5477.523971
224.199835,2757.943793,3849.070898,7105.977043
224.200143,1302.362347,1628.453072,8216.285956
224.200451,76.609550,222.061783,9622.677246
224.200759,-2068.457845,-1628.453072,11769.274478
224.201067,-3370.820191,-3256.906145,13027.624579
224.201375,-3677.258390,-3849.070898,14952.160028
224.201683,-3677.258390,-3552.988522,14582.057057
224.201991,-2528.115143,-2960.823768,13767.830521
224.202299,-1532.190996,-1628.453072,11917.315666
224.202607,1072.533697,370.102971,10140.821405
224.202915,2987.772442,888.247130,8586.388927
224.203223,3217.601092,1480.411884,6513.812290
224.203531,3907.087040,3182.885551,6291.750507
224.203839,4136.915689,2886.803174,6143.709319
224.204147,3217.601092,2886.803174,6513.812290
224.204455,3140.991542,3330.926739,6365.771101
224.204763,2834.553343,3701.029710,6809.894666
224.205071,1762.019645,2294.638420,7550.100608
224.205379,76.609550,222.061783,9548.656652
224.205687,-383.047749,-1110.308913,11843.295072
224.205995,-3370.820191,-3775.050304,12805.562797
224.206303,-3677.258390,-4959.379811,14878.139434
224.206611,-4213.525239,-5181.441594,15692.365970
224.206919,-3600.648841,-4219.173869,14508.036463
224.207227,-2068.457845,-3108.864956,13249.686362
224.207535,-383.047749,-1332.370696,11103.089130
224.207843,2374.896044,888.247130,8586.388927
224.208151,3294.210641,1332.370696,7476.080014
224.208459,3600.648841,2590.720797,7105.977043
224.208767,4366.744339,3478.967927,5255.462188
224.209075,4060.306139,3775.050304,4885.359217
224.209383,3217.601092,3330.926739,5181.441594
224.209691,3140.991542,3552.988522,6069.688724
224.209999,2528.115143,3256.906145,6809.894666
224.210307,1072.533697,1776.494261,7624.121203
224.210615,0.000000,-0.000000,10140.821405
224.210923,-1838.629195,-962.267725,11103.089130
224.211232,-3217.601092,-2664.741391,13027.624579
224.211540,-3294.210641,-3701.029710,14063.912898
224.211848,-3370.820191,-3404.947333,14582.057057
224.212156,-2374.896044,-3034.844362,14211.954086
224.212464,-1225.752797,-1406.391290,11843.295072
224.212772,1072.533697,-0.000000,10362.883188
224.213080,2451.505594,-0.000000,9474.636058
224.213388,3294.210641,1554.432478,7031.956449
224.213696,3217.601092,2516.700203,6365.771101
224.214004,3830.477490,2590.720797,6735.874072
224.214312,3217.601092,3034.844362,6291.750507
224.214620,2987.772442,2960.823768,6809.894666
224.214928,2911.162892,3404.947333,7031.956449
224.215236,1685.410096,2368.659014,7994.224174
224.215544,1149.143247,1036.288319,9770.718434
224.215852,-612.876398,-370.102971,11621.233289
224.216160,-2451.505594,-2664.741391,12879.583391
224.216468,-3600.648841,-4515.256246,13989.892304
224.216776,-4060.306139,-4589.276840,15100.201217
224.217084,-3217.601092,-4367.215058,14508.036463
224.217392,-1915.238745,-3404.947333,13397.727550
224.217700,-612.876398,-1184.329507,11251.130318
224.218008,2145.067394,148.041188,9030.512492
224.218316,3600.648841,1332.370696,7920.203579
224.218624,3140.991542,2072.576638,6217.729913
224.218932,4519.963438,2886.803174,6217.729913
224.219240,3524.039291,3330.926739,5847.626942
224.219548,4060.306139,2960.823768,5847.626942
224.219856,2604.724693,3923.091493,5107.421000
224.220164,3217.601092,3256.906145,6661.853478
224.220472,2221.676944,2368.659014,7920.203579
224.220780,76.609550,1258.350101,8068.244768
224.221088,-229.828649,-518.144159,11547.212695
224.221396,-2528.115143,-2442.679609,12065.356855
224.221704,-2987.772442,-3404.947333,14063.912898
224.222012,-3677.258390,-3552.988522,13989.892304
224.222320,-2528.115143,-3552.988522,14211.954086
224.222628,-1838.629195,-2812.782580,13101.645173
224.222936,76.609550,-518.144159,11251.130318
224.223244,1608.800546,370.102971,9992.780217
224.223552,3140.991542,1110.308913,7624.121203
224.223860,3753.867940,2812.782580,6513.812290
224.224168,3677.258390,3034.844362,6217.729913
224.224476,3524.039291,2812.782580,6587.832884
224.224784,3140.991542,3552.988522,6365.771101
224.225092,2987.772442,3627.009116,6513.812290
224.225400,2221.676944,3034.844362,7105.977043
224.225708,995.924147,1480.411884,9178.553681
224.226016,0.000000,-74.020594,11177.109724
224.226324,-2451.505594,-2368.659014,12435.459826
224.226632,-3370.820191,-3997.112087,14063.912898
224.226940,-4060.306139,-4737.318029,14804.118840
224.227248,-3600.648841,-4885.359217,15174.221811
224.227556,-2451.505594,-4145.153275,13619.789333
224.227864,-536.266849,-2294.638420,11917.315666
224.228172,1608.800546,-666.185348,9770.718434
224.228480,2221.676944,962.267725,8142.265362
224.228788,3600.648841,2220.617826,6661.853478
224.229096,3677.258390,3330.926739,5477.523971
224.229405,4213.525239,3552.988522,5551.544565
224.229713,3907.087040,3775.050304,5255.462188
224.230021,3064.381992,3849.070898,5625.565159
224.230329,2911.162892,3627.009116,5921.647536
224.230637,2221.676944,2442.679609,6883.915261
224.230945,1225.752797,1036.288319,8882.471304
224.231253,-306.438199,-814.226536,10362.883188
224.231561,-1378.971896,-1924.535449,11843.295072
224.231869,-2757.943793,-2812.782580,12805.562797
224.232177,-2987.772442,-4145.153275,13989.892304
224.232485,-2604.724693,-3182.885551,14137.933492
224.232793,-1608.800546,-1998.556043,12731.542202
224.233101,0.000000,-1184.329507,11621.233289
224.233409,383.047749,148.041188,9918.759623
224.233717,2451.505594,1258.350101,8142.265362
224.234025,2987.772442,2146.597232,6883.915261
224.234333,3524.039291,2664.741391,6661.853478
224.234641,3447.429741,3256.906145,6587.832884
224.234949,3064.381992,3404.947333,6587.832884
224.235257,2834.553343,3182.885551,6661.853478
224.235565,2451.505594,2664.741391,6809.894666
224.235873,1455.581446,1776.494261,8808.450710
224.236181,229.828649,-0.000000,10066.800811
224.236489,-1378.971896,-1998.556043,11621.233289
224.236797,-2757.943793,-3404.947333,13323.706956
224.237105,-3600.648841,-4737.318029,14285.974681
224.237413,-3830.477490,-4515.256246,14730.098246
224.237721,-2987.772442,-3997.112087,13767.830521
224.238029,-842.705048,-2442.679609,12805.562797
224.238337,383.047749,-1036.288319,10658.965565
224.238645,1762.019645,222.061783,8586.388927
224.238953,2528.115143,1776.494261,6957.935855
224.239261,3294.210641,2368.659014,6365.771101
224.239569,3524.039291,2738.761985,5921.647536
224.239877,3677.258390,3182.885551,5181.441594
224.240185,3677.258390,3404.947333,5329.482782
224.240493,3294.210641,3404.947333,5477.523971
224.240801,2298.286494,2812.782580,6957.935855
224.241109,612.876398,1924.535449,8438.347739
224.241417,-153.219100,222.061783,10066.800811
224.241725,-1685.410096,-1554.432478,11547.212695
224.242033,-2604.724693,-2812.782580,12805.562797
224.242341,-3140.991542,-3552.988522,13915.871710
224.242649,-2911.162892,-3404.947333,13915.871710
224.242957,-1991.848295,-2368.659014,13619.789333
224.243265,-612.876398,-1702.473667,11991.336260
224.243573,689.485948,-518.144159,10881.027347
224.243881,1838.629195,1110.308913,8808.450710
224.244189,2681.334243,1924.535449,8068.244768
224.244497,3983.696590,2442.679609,7328.038826
224.244805,3907.087040,3108.864956,6365.771101
224.245113,3907.087040,3330.926739,6735.874072
224.245421,3064.381992,2960.823768,6143.709319
224.245729,2451.505594,3478.967927,7105.977043
224.246037,2068.457845,2368.659014,8512.368333
224.246345,306.438199,592.164754,9622.677246
224.246653,-995.924147,-888.247130,11547.212695
224.246961,-2298.286494,-2516.700203,12953.603985
224.247269,-3294.210641,-4367.215058,13989.892304
224.247577,-3294.210641,-4737.318029,14359.995275
224.247886,-3370.820191,-3775.050304,14730.098246
224.248194,-2374.896044,-2886.803174,12953.603985
224.248502,-306.438199,-1406.391290,11547.212695
224.248810,1532.190996,148.041188,9474.636058
224.249118,2757.943793,1480.411884,7624.121203
224.249426,3907.087040,2368.659014,6513.812290
224.249734,4443.353888,2664.741391,5995.668130
224.250042,3907.087040,3404.947333,6069.688724
224.250350,3753.867940,3404.947333,5551.544565
224.250658,2681.334243,3108.864956,4885.359217
224.250966,2221.676944,2812.782580,6439.791695
224.251274,1608.800546,2220.617826,7846.182985
224.251582,459.657299,1036.288319,9030.512492
224.251890,-612.876398,-666.185348,10732.986159
224.252198,-1838.629195,-2072.576638,11843.295072
224.252506,-2528.115143,-3108.864956,13175.665768
224.252814,-2757.943793,-3552.988522,13841.851115
224.253122,-2298.286494,-3182.885551,13619.789333
224.253430,-1225.752797,-2368.659014,12657.521608
224.253738,153.219100,-1184.329507,11473.192101
224.254046,1838.629195,-0.000000,9474.636058
224.254354,2834.553343,1110.308913,7624.121203
224.254662,3983.696590,2368.659014,6513.812290
224.254970,4213.525239,3108.864956,6513.812290
224.255278,3983.696590,2960.823768,6069.688724
224.255586,3447.429741,3330.926739,6143.709319
224.255894,2681.334243,3182.885551,6587.832884
224.256202,2068.457845,2220.617826,7550.100608
224.256510,689.485948,1036.288319,9104.533087
224.256818,-612.876398,-370.102971,10732.986159
224.257126,-2298.286494,-2294.638420,12657.521608
224.257434,-3294.210641,-3034.844362,13027.624579
224.257742,-3907.087040,-4367.215058,14285.974681
224.258050,-3524.039291,-4293.194464,14434.015869
224.258358,-2451.505594,-3256.906145,13545.768739
224.258666,-612.876398,-1850.514855,12287.418637
224.258974,842.705048,-444.123565,10510.924376
224.259282,2298.286494,962.267725,8438.347739
224.259590,3524.039291,1554.432478,7402.059420
224.259898,3830.477490,2368.659014,6069.688724
224.260206,3830.477490,2886.803174,5329.482782
224.260514,3753.867940,3034.844362,5773.606348
224.260822,3140.991542,3108.864956,5773.606348
224.261130,2451.505594,2960.823768,6143.709319
224.261438,1915.238745,2590.720797,7402.059420
224.261746,1302.362347,1628.453072,8290.306550
224.262054,-306.438199,148.041188,9992.780217
224.262362,-1378.971896,-1184.329507,11769.274478
224.262670,-2451.505594,-2516.700203,12287.418637
224.262978,-3294.210641,-3552.988522,13693.809927
224.263286,-3140.991542,-3552.988522,14211.954086
224.263594,-2451.505594,-2960.823768,13545.768739
224.263902,-1378.971896,-1702.473667,12361.439231
224.264210,536.266849,-888.247130,10955.047942
224.264518,1915.238745,888.247130,8882.471304
224.264826,3370.820191,2072.576638,7105.977043
224.265134,4290.134789,2738.761985,6143.709319
224.265442,4213.525239,3701.029710,6217.729913
224.265750,3677.258390,3404.947333,6587.832884
224.266059,2757.943793,3478.967927,6217.729913
224.266367,2374.896044,2886.803174,7402.059420
224.266675,689.485948,1110.308913,8882.471304
224.266983,-459.657299,-0.000000,10584.944971
224.267291,-2221.676944,-1480.411884,12139.377449
224.267599,-3140.991542,-2664.741391,13767.830521
224.267907,-3753.867940,-3923.091493,14508.036463
224.268215,-3907.087040,-3775.050304,14434.015869
224.268523,-2528.115143,-3330.926739,13841.851115
224.268831,-536.266849,-1924.535449,12361.439231
224.269139,919.314598,-518.144159,10510.924376
224.269447,1991.848295,592.164754,8734.430116
224.269755,3600.648841,1702.473667,6735.874072
224.270063,3600.648841,2220.617826,6513.812290
224.270371,3983.696590,2590.720797,6069.688724
224.270679,3907.087040,3330.926739,5921.647536
224.270987,3677.258390,3330.926739,5699.585753
224.271295,2451.505594,3256.906145,5551.544565
224.271603,2451.505594,2664.741391,6957.935855
224.271911,1455.581446,2146.597232,7994.224174
224.272219,0.000000,222.061783,9622.677246
224.272527,-689.485948,-1406.391290,11177.109724
224.272835,-2528.115143,-2146.597232,12657.521608
224.273143,-3217.601092,-3627.009116,14211.954086
224.273451,-2987.772442,-3923.091493,13989.892304
224.273759,-2834.553343,-2812.782580,13175.665768
224.274067,-995.924147,-2146.597232,12879.583391
224.274375,766.095498,-814.226536,11103.089130
224.274683,1915.238745,888.247130,8734.430116
224.274991,3677.258390,1110.308913,7254.018232
224.275299,3753.867940,2664.741391,6365.771101
224.275607,4060.306139,2738.761985,6809.894666
224.275915,3983.696590,3182.885551,6365.771101
224.276223,3447.429741,3701.029710,6143.709319
224.276531,2681.334243,3108.864956,6439.791695
224.276839,1608.800546,2368.659014,7920.203579
224.277147,229.828649,1332.370696,10066.800811
224.277455,-1608.800546,-592.164754,11399.171507
224.277763,-2451.505594,-1850.514855,13027.624579
224.278071,-3677.258390,-3330.926739,14063.912898
224.278379,-3907.087040,-3701.029710,14656.077652
224.278687,-3294.210641,-3552.988522,14211.954086
224.278995,-1762.019645,-2960.823768,12657.521608
224.279303,153.219100,-2368.659014,11547.212695
224.279611,1685.410096,-74.020594,9326.594869
224.279919,2757.943793,814.226536,8512.368333
224.280227,3140.991542,1850.514855,6365.771101
224.280535,3524.039291,2368.659014,6069.688724
224.280843,3907.087040,2812.782580,5847.626942
224.281151,4060.306139,3108.864956,6513.812290
224.281459,3294.210641,3330.926739,6069.688724
224.281767,2451.505594,3256.906145,6217.729913
224.282075,2145.067394,2220.617826,7254.018232
224.282383,383.047749,1184.329507,9030.512492
224.282691,-536.266849,-370.102971,10807.006753
224.282999,-1915.238745,-1924.535449,12065.356855
224.283307,-2987.772442,-3182.885551,13175.665768
224.283615,-3217.601092,-3404.947333,14063.912898
224.283923,-2528.115143,-3404.947333,13767.830521
224.284231,-1378.971896,-2072.576638,12583.501014
224.284540,459.657299,-1776.494261,11325.150913
224.284848,1378.971896,-74.020594,9400.615463
224.285156,2834.553343,1184.329507,7846.182985
224.285464,3983.696590,2072.576638,6809.894666
224.285772,4060.306139,3108.864956,5995.668130
224.286080,4136.915689,3775.050304,6513.812290
224.286388,3677.258390,3330.926739,6809.894666
224.286696,2451.505594,3256.906145,7031.956449
224.287004,1838.629195,2294.638420,7846.182985
224.287312,229.828649,1036.288319,9104.533087
224.287620,-995.924147,-148.041188,11251.130318
224.287928,-2834.553343,-2072.576638,12583.501014
224.288236,-3830.477490,-3256.906145,14063.912898
224.288544,-4596.572988,-4071.132681,14656.077652
224.288852,-3753.867940,-4145.153275,14359.995275
224.289160,-2068.457845,-3404.947333,13471.748144
224.289468,0.000000,-1924.535449,11843.295072
224.289776,612.876398,-444.123565,9918.759623
224.290084,2451.505594,1036.288319,8364.327145
224.290392,3064.381992,1332.370696,7105.977043
224.290700,3217.601092,2220.617826,5699.585753
224.291008,3753.867940,2664.741391,5107.421000
224.291316,3600.648841,3552.988522,5255.462188
224.291624,3524.039291,2812.782580,5773.606348
224.291932,2451.505594,3182.885551,6143.709319
224.292240,1991.848295,2590.720797,7402.059420
224.292548,689.485948,1406.391290,8512.368333
224.292856,-612.876398,-370.102971,10362.883188
224.293164,-1991.848295,-1554.432478,12213.398043
224.293472,-3140.991542,-3034.844362,13915.871710
224.293780,-3217.601092,-3997.112087,14211.954086
224.294088,-3140.991542,-3182.885551,14211.954086
224.294396,-1302.362347,-2664.741391,13101.645173
224.294703,-229.828649,-1480.411884,11769.274478
224.295011,1608.800546,-222.061783,9696.697840
224.295319,2757.943793,1110.308913,7994.224174
224.295627,3907.087040,2294.638420,6365.771101
224.295935,4136.915689,3034.844362,6069.688724
224.296243,3907.087040,3627.009116,6365.771101
224.296551,4060.306139,3849.070898,6513.812290
224.296859,2987.772442,3478.967927,6069.688724
224.297167,2604.724693,2886.803174,7772.162391
224.297475,1072.533697,1480.411884,8734.430116
224.297783,-306.438199,-0.000000,10807.006753
224.298091,-1915.238745,-1628.453072,12583.501014
224.298399,-2528.115143,-3034.844362,13545.768739
224.298707,-3370.820191,-3849.070898,14508.036463
224.299015,-3447.429741,-3923.091493,14434.015869
224.299323,-2528.115143,-2960.823768,13619.789333
224.299631,-919.314598,-1850.514855,12139.377449
224.299939,689.485948,-74.020594,10436.903782
224.300247,2145.067394,592.164754,8734.430116
224.300555,2757.943793,1406.391290,7254.018232
224.300863,3294.210641,2146.597232,6291.750507
224.301171,3753.867940,1702.473667,6069.688724
224.301478,4136.915689,2812.782580,6513.812290
224.301786,3294.210641,2960.823768,6069.688724
224.302094,2834.553343,3478.967927,6143.709319
224.302402,2451.505594,3108.864956,6365.771101
224.302710,1762.019645,1702.473667,7920.203579
224.303018,306.438199,592.164754,9548.656652
224.303326,-1225.752797,-1332.370696,11325.150913
224.303634,-2451.505594,-3108.864956,12953.603985
224.303942,-3064.381992,-3923.091493,13915.871710
224.304250,-3524.039291,-3849.070898,14211.954086
224.304558,-2374.896044,-3034.844362,13027.624579
224.304866,-1072.533697,-1850.514855,12139.377449
224.305174,842.705048,-814.226536,10584.944971
224.305482,2451.505594,740.205942,8660.409521
224.305790,2987.772442,2220.617826,6809.894666
224.306098,4136.915689,2368.659014,6661.853478
224.306406,4673.182538,2664.741391,5921.647536
224.306714,4136.915689,3701.029710,6069.688724
224.307022,3447.429741,3552.988522,6291.750507
224.307330,2528.115143,3404.947333,6883.915261
224.307638,1149.143247,1998.556043,8216.285956
224.307945,-612.876398,592.164754,9992.780217
224.308253,-2757.943793,-1036.288319,12065.356855
224.308561,-3524.039291,-3256.906145,13989.892304
224.308869,-3907.087040,-4219.173869,14582.057057
224.309177,-3983.696590,-3997.112087,15174.221811
224.309485,-3217.601092,-3923.091493,13841.851115
224.309793,-1838.629195,-2368.659014,12879.583391
224.310101,0.000000,-1036.288319,11473.192101
224.310409,1608.800546,222.061783,9474.636058
224.310717,3140.991542,1406.391290,7179.997637
224.311025,3830.477490,1998.556043,6069.688724
224.311333,3907.087040,2738.761985,5625.565159
224.311641,4290.134789,3330.926739,5921.647536
224.311949,3983.696590,3923.091493,5477.523971
224.312257,3447.429741,3775.050304,5329.482782
224.312565,2374.896044,3330.926739,5921.647536
224.312873,1608.800546,2294.638420,7254.018232
224.313181,0.000000,518.144159,9770.718434
224.313489,-1532.190996,-1406.391290,11843.295072
224.313797,-3140.991542,-3034.844362,13249.686362
224.314105,-3830.477490,-4441.235652,14730.098246
224.314413,-3983.696590,-4737.318029,14434.015869
224.314720,-3064.381992,-3627.009116,13915.871710
224.315028,-1685.410096,-2516.700203,12435.459826
224.315336,459.657299,-1110.308913,10955.047942
224.315644,2298.286494,740.205942,8882.471304
224.315952,3140.991542,1850.514855,7105.977043
224.316260,4749.792088,3108.864956,5995.668130
224.316568,4749.792088,3478.967927,5699.585753
224.316876,4290.134789,3923.091493,5995.668130
224.317184,3830.477490,3849.070898,6513.812290
224.317492,2681.334243,3108.864956,7105.977043
224.317800,1302.362347,2072.576638,7994.224174
224.318108,-229.828649,-0.000000,9992.780217
224.318416,-1685.410096,-1110.308913,11399.171507
224.318724,-3447.429741,-2442.679609,13619.789333
224.319032,-3830.477490,-3404.947333,14063.912898
224.319340,-3907.087040,-3552.988522,14211.954086
224.319648,-3294.210641,-3256.906145,13915.871710
224.319956,-1915.238745,-2294.638420,13027.624579
224.320264,0.000000,-962.267725,11769.274478
224.320572,1072.533697,-74.020594,9474.636058
224.320880,1378.971896,1110.308913,8290.306550
224.321187,3294.210641,1332.370696,7179.997637
224.321495,2987.772442,2220.617826,6809.894666
224.321803,3447.429741,2738.761985,6365.771101
224.322111,3524.039291,3182.885551,5773.606348
224.322419,3370.820191,3923.091493,5329.482782
224.322727,3064.381992,3330.926739,5773.606348
224.323035,2145.067394,2664.741391,6957.935855
224.323343,1149.143247,1184.329507,8586.388927
224.323651,0.000000,-814.226536,10658.965565
224.323959,-1915.238745,-2590.720797,12435.459826
224.324267,-2757.943793,-3627.009116,13767.830521
224.324575,-3907.087040,-4071.132681,14434.015869
224.324883,-3294.210641,-3775.050304,14063.912898
224.325191,-2145.067394,-2812.782580,13471.748144
224.325499,612.876398,-1480.411884,11695.253884
224.325807,1608.800546,444.123565,8956.491898
224.326115,3294.210641,1036.288319,7772.162391
224.326423,4290.134789,2368.659014,6291.750507
224.326731,4366.744339,3404.947333,5625.565159
224.327039,4443.353888,3330.926739,6365.771101
224.327347,3983.696590,3627.009116,6365.771101
224.327655,3140.991542,3552.988522,6587.832884
224.327962,2221.676944,2442.679609,7698.141797
224.328270,842.705048,1110.308913,8882.471304
224.328578,-995.924147,-592.164754,10732.986159
224.328886,-2528.115143,-1924.535449,12953.603985
224.329194,-3217.601092,-2738.761985,14063.912898
224.329502,-3907.087040,-3923.091493,14285.974681
224.329810,-3524.039291,-3775.050304,14582.057057
224.330118,-2604.724693,-2886.803174,13323.706956
224.330426,-842.705048,-1924.535449,11843.295072
224.330734,536.266849,-666.185348,10584.944971
224.331042,1915.238745,518.144159,8290.306550
224.331350,2757.943793,1036.288319,7179.997637
224.331658,2834.553343,2368.659014,6217.729913
224.331966,3830.477490,2812.782580,5921.647536
224.332274,3830.477490,3701.029710,5403.503377
224.332582,3600.648841,3849.070898,5107.421000
224.332890,3447.429741,3404.947333,5551.544565
224.333198,2528.115143,3034.844362,6217.729913
224.333506,1532.190996,1480.411884,8216.285956
224.333814,-76.609550,-518.144159,9992.780217
224.334122,-1838.629195,-2220.617826,12361.439231
224.334429,-3677.258390,-3701.029710,13619.789333
224.334737,-3830.477490,-4441.235652,14434.015869
224.335045,-2987.772442,-4293.194464,14508.036463
224.335353,-2298.286494,-3478.967927,13545.768739
224.335661,0.000000,-1924.535449,11621.233289
224.335969,1685.410096,-444.123565,9622.677246
224.336277,2987.772442,1258.350101,7698.141797
224.336585,4366.744339,2368.659014,6217.729913
224.336893,5132.839837,3330.926739,5847.626942
224.337201,4903.011187,3627.009116,5773.606348
224.337509,4443.353888,3701.029710,6069.688724
224.337817,3447.429741,3478.967927,6735.874072
224.338125,2528.115143,2664.741391,7550.100608
224.338433,842.705048,1480.411884,9030.512492
224.338741,-306.438199,-0.000000,10658.965565
224.339049,-2068.457845,-1406.391290,12287.418637
224.339357,-3370.820191,-3034.844362,13545.768739
224.339665,-3983.696590,-3701.029710,14434.015869
224.339973,-4213.525239,-3923.091493,14285.974681
224.340281,-2911.162892,-3478.967927,13989.892304
224.340589,-1608.800546,-2368.659014,12287.418637
224.340896,0.000000,-1036.288319,11103.089130
224.341204,1225.752797,-0.000000,8660.409521
224.341512,2528.115143,1480.411884,7476.080014
224.341820,3294.210641,2294.638420,6587.832884
224.342128,3753.867940,2886.803174,5699.585753
224.342436,3907.087040,3330.926739,5625.565159
224.342744,3830.477490,3478.967927,5403.503377
224.343052,2911.162892,3552.988522,5255.462188
224.343360,2145.067394,2886.803174,6291.750507
224.343668,1378.971896,1702.473667,7994.224174
224.343976,-306.438199,222.061783,9622.677246
224.344284,-1762.019645,-1702.473667,11769.274478
224.344592,-3064.381992,-3108.864956,13323.706956
224.344900,-3600.648841,-4293.194464,14211.954086
224.345208,-3753.867940,-4219.173869,14508.036463
224.345516,-3064.381992,-3552.988522,13619.789333
224.345824,-1302.362347,-1924.535449,12657.521608
224.346132,229.828649,-518.144159,10288.862594
224.346440,2528.115143,1110.308913,8438.347739
224.346748,4136.915689,2146.597232,7031.956449
224.347056,4596.572988,2960.823768,6439.791695
224.347364,4826.401637,3182.885551,6365.771101
224.347671,3830.477490,3034.844362,6513.812290
224.347979,3064.381992,2960.823768,6661.853478
224.348287,2374.896044,1998.556043,7624.121203
224.348595,1149.143247,1628.453072,8438.347739
224.348903,0.000000,666.185348,10066.800811
224.349211,-995.924147,-666.185348,11547.212695
224.349519,-2451.505594,-1998.556043,12805.562797
224.349827,-3217.601092,-2960.823768,13841.851115
224.350135,-3370.820191,-2960.823768,13915.871710
224.350443,-2374.896044,-2886.803174,13545.768739
224.350751,-1455.581446,-1924.535449,12953.603985
224.351059,-306.438199,-814.226536,11251.130318
224.351367,995.924147,-0.000000,9696.697840
224.351675,2374.896044,1036.288319,8438.347739
224.351983,3217.601092,1702.473667,6587.832884
224.352291,2911.162892,2368.659014,6661.853478
224.352599,3677.258390,2146.597232,6513.812290
224.352907,3447.429741,3182.885551,5921.647536
224.353215,3064.381992,3330.926739,6143.709319
224.353523,2911.162892,3034.844362,6143.709319
224.353831,2068.457845,2442.679609,7105.977043
224.354138,842.705048,1332.370696,8882.471304
224.354446,-383.047749,-814.226536,10732.986159
224.354754,-1838.629195,-2072.576638,12361.439231
224.355062,-2987.772442,-3552.988522,13545.768739
224.355370,-2911.162892,-3923.091493,14211.954086
224.355678,-2757.943793,-3404.947333,13397.727550
224.355986,-1762.019645,-2294.638420,12583.501014
224.356294,536.266849,-1184.329507,11103.089130
224.356602,1762.019645,-74.020594,9400.615463
224.356910,3064.381992,888.247130,7550.100608
224.357218,4366.744339,1628.453072,7031.956449
224.357526,3983.696590,2368.659014,6365.771101
224.357834,3830.477490,2664.741391,6883.915261
224.358142,3753.867940,3108.864956,6809.894666
224.358450,3370.820191,3478.967927,6513.812290
224.358758,2374.896044,2590.720797,7476.080014
224.359066,995.924147,1702.473667,8512.368333
224.359374,0.000000,-0.000000,10658.965565
224.359682,-1608.800546,-1924.535449,12213.398043
224.359990,-2757.943793,-2738.761985,13841.851115
224.360298,-3753.867940,-3256.906145,14582.057057
224.360606,-3907.087040,-3330.926739,14656.077652
224.360913,-2451.505594,-2886.803174,13767.830521
224.361221,-1149.143247,-1628.453072,11991.336260
224.361529,689.485948,-592.164754,10732.986159
224.361837,1991.848295,370.102971,8364.327145
224.362145,3064.381992,1184.329507,7328.038826
224.362453,3907.087040,2072.576638,6513.812290
224.362761,3830.477490,2664.741391,5403.503377
224.363069,3983.696590,3404.947333,5329.482782
224.363377,3830.477490,3997.112087,5107.421000
224.363685,3294.210641,3849.070898,5551.544565
224.363993,2451.505594,3182.885551,6513.812290
224.364301,919.314598,1406.391290,8364.327145
224.364609,-995.924147,-888.247130,10584.944971
224.364917,-2681.334243,-2886.803174,12361.439231
224.365225,-3524.039291,-3627.009116,14211.954086
224.365533,-3907.087040,-4663.297435,14359.995275
224.365841,-3830.477490,-3923.091493,14285.974681
224.366149,-2221.676944,-2442.679609,13249.686362
224.366457,0.000000,-1036.288319,11547.212695
224.366765,1608.800546,222.061783,9548.656652
224.367073,3447.429741,1480.411884,7846.182985
224.367380,3907.087040,2294.638420,6883.915261
224.367688,3983.696590,2516.700203,6809.894666
224.367996,3447.429741,3256.906145,6587.832884
224.368304,3370.820191,3108.864956,6291.750507
224.368612,2604.724693,2738.761985,6957.935855
224.368920,1608.800546,1998.556043,7698.141797
224.369228,766.095498,1184.329507,8734.430116
224.369536,-459.657299,-0.000000,10658.965565
224.369844,-1685.410096,-1406.391290,11917.315666
224.370152,-3447.429741,-2220.617826,13249.686362
224.370460,-3140.991542,-3330.926739,14434.015869
224.370768,-3447.429741,-2960.823768,14137.933492
224.371076,-2298.286494,-2072.576638,13249.686362
224.371384,-766.095498,-1258.350101,11843.295072
224.371692,536.266849,-222.061783,10732.986159
224.372000,1991.848295,592.164754,9252.574275
224.372308,2374.896044,1406.391290,7179.997637
224.372616,3294.210641,1776.494261,7031.956449
224.372924,3140.991542,2368.659014,6365.771101
224.373232,3064.381992,2886.803174,5995.668130
224.373540,3140.991542,3404.947333,6143.709319
224.373848,2834.553343,3552.988522,5699.585753
224.374155,2145.067394,2886.803174,6587.832884
224.374463,1072.533697,1554.432478,7846.182985
224.374771,-229.828649,-370.102971,9548.656652
224.375079,-1532.190996,-1628.453072,11917.315666
224.375387,-2757.943793,-2516.700203,13397.727550
224.375695,-3600.648841,-3627.009116,13767.830521
224.376003,-3217.601092,-3627.009116,14137.933492
224.376311,-2221.676944,-2590.720797,13323.706956
224.376619,0.000000,-1850.514855,12287.418637
224.376927,1532.190996,-666.185348,9992.780217
224.377235,2451.505594,962.267725,8586.388927
224.377543,4290.134789,1332.370696,6883.915261
224.377851,4213.525239,2294.638420,6513.812290
224.378159,4366.744339,2738.761985,6291.750507
224.378467,4136.915689,3034.844362,5995.668130
224.378775,3217.601092,3108.864956,6143.709319
224.379083,2681.334243,2368.659014,7179.997637
224.379391,306.438199,1406.391290,8438.347739
224.379699,-383.047749,370.102971,10288.862594
224.380007,-1915.238745,-1110.308913,12213.398043
224.380315,-3140.991542,-2220.617826,13027.624579
224.380622,-3600.648841,-3182.885551,14137.933492
224.380930,-3677.258390,-3404.947333,14211.954086
224.381238,-2834.553343,-2738.761985,13841.851115
224.381546,-1072.533697,-2072.576638,12361.439231
224.381854,153.219100,-1184.329507,11177.109724
224.382162,1915.238745,-0.000000,9622.677246
224.382470,2757.943793,1110.308913,7624.121203
224.382778,3447.429741,2146.597232,6735.874072
224.383086,3830.477490,2590.720797,5847.626942
224.383394,4290.134789,2812.782580,5921.647536
224.383702,3524.039291,3552.988522,5699.585753
224.384010,3600.648841,3330.926739,5921.647536
224.384318,3294.210641,2442.679609,6439.791695
224.384626,1608.800546,1850.514855,7698.141797
224.384934,306.438199,148.041188,9770.718434
224.385242,-1225.752797,-1036.288319,11325.150913
224.385550,-2451.505594,-2220.617826,12731.542202
224.385858,-3447.429741,-3108.864956,13397.727550
224.386166,-2757.943793,-3552.988522,14137.933492
224.386474,-2604.724693,-2590.720797,12805.562797
224.386782,-842.705048,-1628.453072,12361.439231
224.387089,842.705048,-962.267725,10584.944971
224.387397,2298.286494,-0.000000,9252.574275
224.387705,3294.210641,888.247130,7994.224174
224.388013,3907.087040,1776.494261,6809.894666
224.388321,3830.477490,2368.659014,6809.894666
224.388629,3600.648841,2516.700203,6365.771101
224.388937,4213.525239,3108.864956,6661.853478
224.389245,2757.943793,2442.679609,6809.894666
224.389553,1838.629195,2368.659014,7476.080014
224.389861,766.095498,1258.350101,9548.656652
224.390169,-689.485948,148.041188,11029.068536
224.390477,-1915.238745,-1036.288319,12287.418637
224.390785,-3064.381992,-2368.659014,13323.706956
224.391093,-3524.039291,-2886.803174,14211.954086
224.391401,-3447.429741,-3108.864956,14211.954086
224.391709,-2604.724693,-2368.659014,13989.892304
224.392017,-1225.752797,-2072.576638,12139.377449
224.392325,-153.219100,-1628.453072,11103.089130
224.392633,1149.143247,-0.000000,9400.615463
224.392941,2374.896044,1258.350101,7550.100608
224.393249,3140.991542,1850.514855,6587.832884
224.393557,4060.306139,2812.782580,5477.523971
224.393865,3753.867940,3701.029710,5181.441594
224.394173,3907.087040,3627.009116,5181.441594
224.394481,3753.867940,4071.132681,5329.482782
224.394789,1991.848295,2886.803174,6957.935855
224.395097,919.314598,1628.453072,8734.430116
224.395405,-689.485948,-222.061783,10732.986159
224.395713,-2451.505594,-1702.473667,12213.398043
224.396021,-3447.429741,-2960.823768,13693.809927
224.396329,-3753.867940,-3478.967927,14508.036463
224.396637,-3294.210641,-3404.947333,14211.954086
224.396945,-1838.629195,-2516.700203,13249.686362
224.397254,-383.047749,-1258.350101,11473.192101
224.397562,1378.971896,-444.123565,10288.862594
224.397870,2757.943793,444.123565,8438.347739
224.398178,3294.210641,1628.453072,7476.080014
224.398486,3830.477490,2146.597232,7105.977043
224.398794,3600.648841,2886.803174,6439.791695
224.399102,3370.820191,3404.947333,6661.853478
224.399410,3217.601092,3182.885551,7254.018232
224.399718,1685.410096,3034.844362,7402.059420
224.400026,1532.190996,1850.514855,9104.533087
224.400334,0.000000,666.185348,10362.883188
224.400642,-1455.581446,-1036.288319,11991.336260
224.400951,-2298.286494,-2220.617826,13249.686362
224.401259,-2834.553343,-3108.864956,14359.995275
224.401567,-2987.772442,-3849.070898,14285.974681
224.401875,-2834.553343,-2960.823768,13619.789333
224.402183,-689.485948,-2294.638420,12213.398043
224.402491,0.000000,-1036.288319,10510.924376
224.402799,1838.629195,370.102971,9030.512492
224.403107,2987.772442,1258.350101,7179.997637
224.403415,3600.648841,2294.638420,5773.606348
224.403723,3830.477490,2664.741391,5477.523971
224.404031,4060.306139,3330.926739,5033.400406
224.404339,4213.525239,3478.967927,5033.400406
224.404648,2987.772442,3330.926739,5181.441594
224.404956,2451.505594,2590.720797,6809.894666
224.405264,689.485948,1480.411884,8512.368333
224.405572,-612.876398,-148.041188,10214.842000
224.405880,-2221.676944,-1998.556043,11843.295072
224.406188,-2911.162892,-3701.029710,13249.686362
224.406496,-3447.429741,-3997.112087,14063.912898
224.406804,-3294.210641,-3627.009116,13767.830521
224.407112,-1838.629195,-3256.906145,13175.665768
224.407420,-153.219100,-2294.638420,11325.150913
224.407728,1302.362347,-814.226536,10066.800811
224.408036,2681.334243,518.144159,8142.265362
224.408345,3830.477490,1184.329507,7328.038826
224.408653,4366.744339,2294.638420,6365.771101
224.408961,4290.134789,3256.906145,6365.771101
224.409269,3677.258390,3330.926739,6217.729913
224.409577,3217.601092,3330.926739,6069.688724
224.409885,2298.286494,3108.864956,7105.977043
224.410193,1302.362347,2072.576638,8142.265362
224.410501,-229.828649,666.185348,9918.759623
224.410809,-1378.971896,-962.267725,11843.295072
224.411117,-2681.334243,-2368.659014,13619.789333
224.411425,-2834.553343,-3552.988522,14434.015869
224.411734,-3217.601092,-3775.050304,14434.015869
224.412042,-3217.601092,-4145.153275,14211.954086
224.412350,-2068.457845,-2886.803174,13027.624579
224.412658,-229.828649,-1480.411884,11473.192101
224.412966,1149.143247,-222.061783,9548.656652
224.413274,2221.676944,814.226536,7994.224174
224.413582,3830.477490,1850.514855,6735.874072
224.413890,4213.525239,2738.761985,5625.565159
224.414198,4366.744339,3923.091493,5329.482782
224.414506,4673.182538,4367.215058,5625.565159
224.414814,3600.648841,4737.318029,5033.400406
224.415122,2834.553343,4071.132681,6143.709319
224.415431,1532.190996,2516.700203,7920.203579
224.415739,0.000000,888.247130,9696.697840
224.416047,-1838.629195,-1184.329507,12213.398043
224.416355,-2834.553343,-2590.720797,13323.706956
224.416663,-2987.772442,-4219.173869,14359.995275
224.416971,-3370.820191,-4145.153275,14211.954086
224.417279,-2298.286494,-3404.947333,13471.748144
224.417587,-1149.143247,-2442.679609,12139.377449
224.417895,459.657299,-1554.432478,11029.068536
224.418203,1991.848295,-148.041188,9474.636058
224.418511,2987.772442,666.185348,7772.162391
224.418819,3907.087040,1924.535449,7105.977043
224.419128,3753.867940,2738.761985,6365.771101
224.419436,3907.087040,3478.967927,6735.874072
224.419744,3370.820191,3701.029710,6143.709319
224.420052,2834.553343,3701.029710,6513.812290
224.420360,1915.238745,2664.741391,7476.080014
224.420668,689.485948,1184.329507,9400.615463
224.420976,-919.314598,-592.164754,11103.089130
224.421284,-2068.457845,-2072.576638,12953.603985
224.421592,-2987.772442,-3552.988522,13915.871710
224.421900,-3983.696590,-4293.194464,14434.015869
224.422208,-3217.601092,-3923.091493,14359.995275
224.422516,-2298.286494,-3108.864956,12805.562797
224.422825,-536.266849,-1998.556043,11621.233289
224.423133,919.314598,-666.185348,9918.759623
224.423441,2451.505594,592.164754,8512.368333
224.423749,3217.601092,1406.391290,6735.874072
224.424057,4519.963438,2738.761985,5551.544565
224.424365,4366.744339,3404.947333,5107.421000
224.424673,4213.525239,4367.215058,5255.462188
224.424981,3830.477490,4367.215058,5329.482782
224.425289,2681.334243,3923.091493,5699.585753
224.425597,1532.190996,2442.679609,7476.080014
224.425905,229.828649,1184.329507,9178.553681
224.426213,-1225.752797,-444.123565,11325.150913
224.426522,-2681.334243,-2072.576638,13175.665768
224.426830,-3294.210641,-2960.823768,14137.933492
224.427138,-3524.039291,-3478.967927,14211.954086
224.427446,-2681.334243,-3330.926739,13767.830521
224.427754,-1302.362347,-2516.700203,12509.480420
224.428062,229.828649,-1554.432478,11399.171507
224.428370,1685.410096,-666.185348,10288.862594
224.428678,2681.334243,370.102971,8512.368333
224.428986,3294.210641,1406.391290,7624.121203
224.429294,3217.601092,2294.638420,6957.935855
224.429602,3524.039291,3034.844362,6809.894666
224.429911,3294.210641,3552.988522,6291.750507
224.430219,2757.943793,3701.029710,6365.771101
224.430527,1991.848295,3034.844362,7105.977043
224.430835,1532.190996,2072.576638,8660.409521
224.431143,-383.047749,444.123565,10807.006753
224.431451,-2221.676944,-1480.411884,12287.418637
224.431759,-2987.772442,-2812.782580,13397.727550
224.432067,-3830.477490,-3775.050304,14508.036463
224.432375,-3830.477490,-4071.132681,14211.954086
224.432683,-2681.334243,-3627.009116,13545.768739
224.432991,-1225.752797,-2516.700203,12065.356855
224.433299,76.609550,-1480.411884,10436.903782
224.433608,2451.505594,-222.061783,9178.553681
224.433916,3370.820191,518.144159,7105.977043
224.434224,3677.258390,2368.659014,6069.688724
224.434532,4136.915689,3701.029710,5551.544565
224.434840,4596.572988,4515.256246,4811.338623
224.435148,4213.525239,4737.318029,5107.421000
224.435456,3600.648841,4885.359217,5995.668130
224.435764,2604.724693,3182.885551,6883.915261
224.436072,919.314598,1554.432478,8364.327145
224.436380,-766.095498,-0.000000,10658.965565
224.436688,-2145.067394,-2220.617826,11917.315666
224.436996,-3370.820191,-3034.844362,13471.748144
224.437305,-3524.039291,-3775.050304,14434.015869
224.437613,-2757.943793,-3775.050304,13767.830521
224.437921,-1838.629195,-2960.823768,12731.542202
224.438229,76.609550,-2590.720797,11843.295072
224.438537,995.924147,-1480.411884,10288.862594
224.438845,2834.553343,-74.020594,9178.553681
224.439153,3370.820191,962.267725,7254.018232
224.439461,4443.353888,2516.700203,6217.729913
224.439769,4443.353888,3330.926739,5921.647536
224.440077,4136.915689,3849.070898,6069.688724
224.440385,3830.477490,3849.070898,6143.709319
224.440693,2987.772442,3330.926739,6957.935855
224.441002,1378.971896,1776.494261,8364.327145
224.441310,153.219100,370.102971,10066.800811
224.441618,-1455.581446,-1702.473667,11843.295072
224.441926,-3217.601092,-3034.844362,13619.789333
224.442234,-3677.258390,-4071.132681,14359.995275
224.442542,-3830.477490,-4441.235652,14656.077652
224.442850,-2911.162892,-3701.029710,13323.706956
224.443158,-1149.143247,-3182.885551,12065.356855
224.443466,153.219100,-1480.411884,11251.130318
224.443774,1608.800546,-370.102971,8956.491898
224.444082,2987.772442,1258.350101,7254.018232
224.444390,3600.648841,2442.679609,6143.709319
224.444699,4136.915689,3478.967927,5403.503377
224.445007,4290.134789,4441.235652,5033.400406
224.445315,4290.134789,4367.215058,4811.338623
224.445623,2528.115143,4515.256246,5181.441594
224.445931,2145.067394,3182.885551,6883.915261
224.446239,766.095498,2146.597232,8660.409521
224.446547,-995.924147,-0.000000,10510.924376
224.446855,-2298.286494,-1480.411884,12065.356855
224.447163,-3447.429741,-2664.741391,13397.727550
224.447471,-3600.648841,-3775.050304,14137.933492
224.447779,-3217.601092,-3552.988522,13841.851115
224.448087,-2145.067394,-3256.906145,13693.809927
224.448396,-919.314598,-2294.638420,11917.315666
224.448704,995.924147,-1628.453072,10955.047942
224.449012,2374.896044,148.041188,9252.574275
224.449320,2987.772442,1184.329507,7550.100608
224.449628,3370.820191,2738.761985,6735.874072
224.449936,3983.696590,2960.823768,6661.853478
224.450244,3677.258390,3330.926739,6365.771101
224.450552,3447.429741,3478.967927,6587.832884
224.450860,3217.601092,3330.926739,6809.894666
224.451168,1532.190996,2516.700203,8142.265362
224.451476,153.219100,888.247130,9622.677246
224.451785,-1302.362347,-296.082377,11473.192101
224.452093,-2451.505594,-2368.659014,13027.624579
224.452401,-3294.210641,-3404.947333,13693.809927
224.452709,-3600.648841,-3923.091493,14508.036463
224.453017,-3294.210641,-4071.132681,14434.015869
224.453325,-2374.896044,-3034.844362,12731.542202
224.453633,-229.828649,-2072.576638,11621.233289
224.453941,995.924147,-962.267725,9918.759623
224.454249,2298.286494,592.164754,8290.306550
224.454557,3064.381992,1998.556043,6661.853478
224.454865,3830.477490,3256.906145,5625.565159
224.455173,4213.525239,3849.070898,5773.606348
224.455482,4290.134789,4219.173869,5255.462188
224.455790,3677.258390,4293.194464,5329.482782
224.456098,2374.896044,3997.112087,5773.606348
224.456406,1838.629195,2590.720797,7550.100608
224.456714,0.000000,814.226536,9548.656652
224.457022,-1838.629195,-1036.288319,11251.130318
224.457330,-2528.115143,-2590.720797,12657.521608
224.457638,-3447.429741,-3330.926739,13767.830521
224.457946,-3294.210641,-4145.153275,14063.912898
224.458254,-2145.067394,-3701.029710,13989.892304
224.458562,-1225.752797,-2442.679609,12879.583391
224.458870,0.000000,-1998.556043,11399.171507
224.459179,1838.629195,-518.144159,9400.615463
224.459487,2834.553343,962.267725,7772.162391
224.459795,3830.477490,2072.576638,6957.935855
224.460103,4596.572988,3034.844362,6513.812290
224.460411,3830.477490,3775.050304,5921.647536
224.460719,4213.525239,3997.112087,5921.647536
224.461027,3064.381992,3701.029710,6217.729913
224.461335,2068.457845,2886.803174,7476.080014
224.461643,842.705048,1554.432478,9104.533087
224.461951,-842.705048,-592.164754,11103.089130
224.462259,-2757.943793,-2368.659014,12879.583391
224.462567,-3064.381992,-3849.070898,14063.912898
224.462876,-3677.258390,-4737.318029,15100.201217
224.463184,-3830.477490,-4441.235652,14730.098246
224.463492,-2374.896044,-3256.906145,13989.892304
224.463800,-842.705048,-2146.597232,12065.356855
224.464108,766.095498,-666.185348,10140.821405
224.464416,2757.943793,962.267725,7994.224174
224.464724,3600.648841,2368.659014,6735.874072
224.465032,4673.182538,3182.885551,5921.647536
224.465340,4826.401637,3923.091493,4515.256246
224.465648,4519.963438,4293.194464,5107.421000
224.465956,3370.820191,4441.235652,4811.338623
224.466264,3064.381992,3923.091493,5921.647536
224.466573,1455.581446,2590.720797,7402.059420
224.466881,229.828649,1332.370696,9030.512492
224.467189,-995.924147,-666.185348,10881.027347
224.467497,-2145.067394,-2146.597232,12361.439231
224.467805,-2834.553343,-3627.009116,13545.768739
224.468113,-2757.943793,-4219.173869,13619.789333
224.468421,-2987.772442,-3404.947333,13693.809927
224.468729,-1991.848295,-3108.864956,13027.624579
224.469037,0.000000,-1776.494261,11547.212695
224.469345,1302.362347,-296.082377,10510.924376
224.469653,2374.896044,592.164754,8290.306550
224.469962,3447.429741,1702.473667,7254.018232
224.470270,4060.306139,3034.844362,6365.771101
224.470578,4060.306139,3627.009116,6069.688724
224.470886,3907.087040,3997.112087,5921.647536
224.471194,2987.772442,3627.009116,6513.812290
224.471502,1915.238745,2590.720797,7328.038826
224.471810,306.438199,1480.411884,8586.388927
224.472118,-842.705048,-74.020594,11029.068536
224.472426,-2374.896044,-2368.659014,12731.542202
224.472734,-3600.648841,-3627.009116,14063.912898
224.473042,-3677.258390,-4589.276840,14730.098246
224.473350,-3830.477490,-3997.112087,14285.974681
224.473659,-2681.334243,-3404.947333,13397.727550
224.473967,-1072.533697,-1924.535449,11991.336260
224.474275,842.705048,-666.185348,10140.821405
224.474583,2681.334243,518.144159,8142.265362
224.474891,3524.039291,1406.391290,7031.956449
224.475199,4136.915689,2738.761985,5995.668130
224.475507,3524.039291,3034.844362,5847.626942
224.475815,3677.258390,3182.885551,5773.606348
224.476123,3064.381992,3108.864956,5255.462188
224.476431,2451.505594,3478.967927,6143.709319
224.476739,1838.629195,2812.782580,7105.977043
224.477047,995.924147,1850.514855,8068.244768
224.477356,459.657299,370.102971,9844.739029
224.477664,-1532.190996,-1776.494261,11399.171507
224.477972,-2604.724693,-2738.761985,13101.645173
224.478280,-3370.820191,-3034.844362,13767.830521
224.478588,-2834.553343,-3256.906145,13767.830521
224.478896,-1838.629195,-2590.720797,13101.645173
224.479204,-612.876398,-1702.473667,12139.377449
224.479512,536.266849,-518.144159,10881.027347
224.479820,2068.457845,518.144159,9400.615463
224.480128,2834.553343,1332.370696,8142.265362
224.480436,3677.258390,2368.659014,7105.977043
224.480744,3753.867940,2886.803174,6513.812290
224.481053,3447.429741,3552.988522,6365.771101
224.481361,3294.210641,3627.009116,6513.812290
224.481669,2681.334243,3330.926739,6883.915261
224.481977,1455.581446,2146.597232,8364.327145
224.482285,153.219100,444.123565,10436.903782
224.482593,-1685.410096,-1406.391290,12361.439231
224.482901,-3524.039291,-2886.803174,13915.871710
224.483209,-4060.306139,-3849.070898,14434.015869
224.483517,-3983.696590,-4145.153275,14508.036463
224.483825,-3217.601092,-3552.988522,14211.954086
224.484133,-2145.067394,-2738.761985,12657.521608
224.484441,-383.047749,-1406.391290,11177.109724
224.484750,2298.286494,-222.061783,9622.677246
224.485058,2987.772442,1036.288319,7772.162391
224.485366,3370.820191,1998.556043,6809.894666
224.485674,4596.572988,2812.782580,5921.647536
224.485982,4290.134789,3701.029710,4885.359217
224.486290,4366.744339,3923.091493,5181.441594
224.486598,3524.039291,3775.050304,4959.379811
224.486906,2681.334243,3256.906145,5921.647536
224.487214,2068.457845,1998.556043,7328.038826
224.487522,76.609550,518.144159,9252.574275
224.487830,-1608.800546,-888.247130,11399.171507
224.488139,-2528.115143,-2516.700203,12509.480420
224.488447,-3524.039291,-3552.988522,14211.954086
224.488755,-3677.258390,-3775.050304,14211.954086
224.489063,-2987.772442,-3552.988522,13989.892304
224.489371,-1762.019645,-2590.720797,13397.727550
224.489679,229.828649,-1184.329507,11547.212695
224.489987,2604.724693,-0.000000,9474.636058
224.490295,3677.258390,1184.329507,8068.244768
224.490603,4136.915689,2590.720797,6735.874072
224.490911,4596.572988,3330.926739,5921.647536
224.491219,4826.401637,3849.070898,5921.647536
224.491527,4060.306139,3849.070898,6143.709319
224.491836,3294.210641,3627.009116,6439.791695
224.492144,2145.067394,2294.638420,7846.182985
224.492452,0.000000,518.144159,9104.533087
224.492760,-1838.629195,-814.226536,11547.212695
224.493068,-3064.381992,-2368.659014,13249.686362
224.493376,-3983.696590,-3552.988522,13915.871710
224.493684,-3983.696590,-3849.070898,14730.098246
224.493992,-3217.601092,-3552.988522,14137.933492
224.494300,-1838.629195,-2516.700203,13027.624579
224.494609,-306.438199,-1628.453072,11325.150913
224.494917,1072.533697,-518.144159,9622.677246
224.495225,2987.772442,814.226536,7994.224174
224.495533,3524.039291,1850.514855,6957.935855
224.495841,4136.915689,2368.659014,6143.709319
224.496149,4290.134789,3034.844362,5033.400406
224.496457,3677.258390,3701.029710,5329.482782
224.496765,3140.991542,2960.823768,5847.626942
224.497073,1762.019645,3182.885551,6291.750507
224.497382,2145.067394,2072.576638,7550.100608
224.497690,0.000000,518.144159,9326.594869
224.497998,-919.314598,-666.185348,10732.986159
224.498306,-2451.505594,-1924.535449,12361.439231
224.498614,-2757.943793,-2960.823768,13693.809927
224.498922,-2911.162892,-3256.906145,14211.954086
224.499230,-2451.505594,-3330.926739,13841.851115
224.499538,-1302.362347,-2590.720797,12435.459826
224.499846,383.047749,-1258.350101,11843.295072
224.500155,1838.629195,-0.000000,10140.821405
224.500463,2911.162892,1406.391290,8438.347739
224.500771,3524.039291,2664.741391,6587.832884
224.501079,4596.572988,2738.761985,7105.977043
224.501387,3907.087040,3330.926739,5551.544565
224.501695,3524.039291,3701.029710,6291.750507
224.502003,2987.772442,2590.720797,6957.935855
224.502311,1685.410096,2812.782580,7846.182985
224.502619,0.000000,1332.370696,9622.677246
224.502928,-1378.971896,-0.000000,11325.150913
224.503236,-2604.724693,-1924.535449,13101.645173
224.503544,-3830.477490,-2960.823768,13693.809927
224.503852,-3983.696590,-3404.947333,14730.098246
224.504160,-3370.820191,-3627.009116,14359.995275
224.504468,-2451.505594,-2738.761985,13249.686362
224.504776,-919.314598,-1628.453072,11843.295072
224.505084,1302.362347,-592.164754,10066.800811
224.505392,2528.115143,592.164754,8660.409521
224.505701,3140.991542,1406.391290,7105.977043
224.506009,3677.258390,2146.597232,6291.750507
224.506317,3753.867940,2664.741391,5625.565159
224.506625,3753.867940,3182.885551,5699.585753
224.506933,3294.210641,3552.988522,5921.647536
224.507241,2834.553343,3256.906145,5551.544565
224.507549,2145.067394,2664.741391,6957.935855
224.507857,842.705048,1628.453072,7920.203579
224.508165,-459.657299,-0.000000,10066.800811
224.508474,-1685.410096,-1110.308913,11917.315666
224.508782,-2528.115143,-2368.659014,12879.583391
224.509090,-2987.772442,-3182.885551,13841.851115
224.509398,-3370.820191,-3034.844362,13915.871710
224.509706,-1608.800546,-2590.720797,13027.624579
224.510014,-1072.533697,-1924.535449,12065.356855
224.510322,459.657299,-962.267725,10881.027347
224.510630,1991.848295,-0.000000,8956.491898
224.510939,2911.162892,1184.329507,7920.203579
224.511247,3370.820191,2072.576638,6587.832884
224.511555,3447.429741,2738.761985,6513.812290
224.511863,3983.696590,3404.947333,6513.812290
224.512171,2987.772442,3256.906145,5995.668130
224.512479,2528.115143,2590.720797,7105.977043
224.512787,919.314598,1998.556043,8660.409521
224.513095,-536.266849,444.123565,9992.780217
224.513403,-1685.410096,-1258.350101,11917.315666
224.513712,-2604.724693,-2146.597232,13027.624579
224.514020,-3370.820191,-3552.988522,13693.809927
224.514328,-3064.381992,-3478.967927,13619.789333
224.514636,-2068.457845,-3182.885551,13767.830521
224.514944,-1455.581446,-2812.782580,12065.356855
224.515252,383.047749,-1554.432478,10881.027347
224.515560,2068.457845,-74.020594,8882.471304
224.515868,3140.991542,814.226536,7328.038826
224.516176,3677.258390,1554.432478,6957.935855
224.516485,4290.134789,2368.659014,5921.647536
224.516793,3907.087040,2960.823768,5551.544565
224.517101,3524.039291,3034.844362,5551.544565
224.517409,3140.991542,3404.947333,5995.668130
224.517717,2451.505594,3034.844362,6957.935855
224.518025,1455.581446,2220.617826,7920.203579
224.518333,153.219100,1258.350101,9474.636058
224.518641,-1532.190996,-814.226536,11399.171507
224.518949,-2221.676944,-2220.617826,12731.542202
224.519258,-2757.943793,-2590.720797,13989.892304
224.519566,-2834.553343,-3478.967927,13915.871710
224.519874,-1991.848295,-3034.844362,13693.809927
224.520182,-1149.143247,-2368.659014,12731.542202
224.520490,459.657299,-1480.411884,11621.233289
224.520798,1685.410096,-0.000000,9474.636058
224.521106,2911.162892,1258.350101,7550.100608
224.521414,4443.353888,2072.576638,6587.832884
224.521722,4903.011187,2812.782580,5995.668130
224.522031,4136.915689,4219.173869,6069.688724
224.522339,3830.477490,4071.132681,6143.709319
224.522647,2987.772442,3478.967927,6513.812290
224.522955,1762.019645,2442.679609,7994.224174
224.523263,-229.828649,888.247130,9918.759623
224.523571,-1608.800546,-592.164754,11843.295072
224.523879,-2987.772442,-2146.597232,13323.706956
224.524187,-4060.306139,-2812.782580,14137.933492
224.524495,-4366.744339,-3849.070898,14952.160028
224.524804,-3600.648841,-3404.947333,14285.974681
224.525112,-1838.629195,-2664.741391,13101.645173
224.525420,-383.047749,-1776.494261,11695.253884
224.525728,1455.581446,-518.144159,9770.718434
224.526036,2528.115143,370.102971,7994.224174
224.526344,3370.820191,1258.350101,6809.894666
224.526652,3830.477490,2072.576638,6365.771101
224.526960,3983.696590,2664.741391,5921.647536
224.527269,3677.258390,3182.885551,5921.647536
224.527577,3140.991542,3330.926739,5625.565159
224.527885,2374.896044,3404.947333,6439.791695
224.528193,1762.019645,2738.761985,7105.977043
224.528501,766.095498,1258.350101,8734.430116
224.528809,-766.095498,-0.000000,10584.944971
224.529117,-1915.238745,-1628.453072,12213.398043
224.529425,-2681.334243,-3478.967927,13545.768739
224.529733,-3600.648841,-3627.009116,14211.954086
224.530042,-3217.601092,-3701.029710,14211.954086
224.530350,-2068.457845,-2886.803174,12879.583391
224.530658,0.000000,-2146.597232,11325.150913
224.530966,1149.143247,-370.102971,9992.780217
224.531274,3217.601092,1110.308913,8290.306550
224.531582,4136.915689,2294.638420,6809.894666
224.531890,4596.572988,2812.782580,5847.626942
224.532198,4290.134789,3552.988522,5995.668130
224.532506,3677.258390,3701.029710,5773.606348
224.532815,3217.601092,3330.926739,6513.812290
224.533123,1991.848295,2812.782580,7402.059420
224.533431,383.047749,1924.535449,9252.574275
224.533739,-1072.533697,148.041188,11621.233289
224.534047,-2681.334243,-1702.473667,12435.459826
224.534355,-3600.648841,-3034.844362,13249.686362
224.534663,-4213.525239,-3775.050304,14508.036463
224.534971,-3600.648841,-3552.988522,14211.954086
224.535279,-2528.115143,-3108.864956,13323.706956
224.535588,-842.705048,-2072.576638,11547.212695
224.535896,1225.752797,-1332.370696,10288.862594
224.536204,2374.896044,-74.020594,8290.306550
224.536512,2987.772442,962.267725,7105.977043
224.536820,3677.258390,2146.597232,6439.791695
224.537128,3907.087040,2368.659014,5625.565159
224.537436,3677.258390,3404.947333,5625.565159
224.537744,3524.039291,3775.050304,5625.565159
224.538052,2911.162892,3552.988522,6217.729913
224.538361,2145.067394,3330.926739,6809.894666
224.538669,1455.581446,1850.514855,8438.347739
224.538977,0.000000,-0.000000,10362.883188
224.539285,-1532.190996,-1332.370696,11917.315666
224.539593,-2834.553343,-3108.864956,13101.645173
224.539901,-3294.210641,-3701.029710,14582.057057
224.540209,-3294.210641,-3552.988522,14434.015869
224.540517,-2298.286494,-2886.803174,13545.768739
224.540826,-306.438199,-1776.494261,11843.295072
224.541134,1225.752797,-888.247130,10436.903782
224.541442,3064.381992,444.123565,9030.512492
224.541750,4213.525239,1628.453072,7105.977043
224.542058,4673.182538,2590.720797,6217.729913
224.542366,4519.963438,3330.926739,5625.565159
224.542674,4290.134789,3849.070898,5995.668130
224.542982,3370.820191,3775.050304,6365.771101
224.543290,2451.505594,2960.823768,7105.977043
224.543599,995.924147,2442.679609,8586.388927
224.543907,-383.047749,148.041188,9992.780217
224.544215,-1991.848295,-814.226536,11843.295072
224.544523,-3064.381992,-2146.597232,13397.727550
224.544831,-3753.867940,-3182.885551,14211.954086
224.545139,-4060.306139,-3404.947333,14656.077652
224.545447,-3064.381992,-3330.926739,13693.809927
224.545755,-1762.019645,-2886.803174,12583.501014
224.546063,459.657299,-1924.535449,11251.130318
224.546372,1225.752797,-1036.288319,9030.512492
224.546680,2374.896044,296.082377,8216.285956
224.546988,3064.381992,1258.350101,6957.935855
224.547296,3524.039291,2294.638420,5995.668130
224.547604,3677.258390,2960.823768,5773.606348
224.547912,3524.039291,3627.009116,5033.400406
224.548220,3217.601092,3701.029710,5403.503377
224.548528,2451.505594,3404.947333,5773.606348
224.548836,2145.067394,1998.556043,7328.038826
224.549145,306.438199,518.144159,9474.636058
224.549453,-1225.752797,-1110.308913,11399.171507
224.549761,-2451.505594,-2664.741391,12731.542202
224.550069,-3447.429741,-3849.070898,13989.892304
224.550377,-3294.210641,-4145.153275,14656.077652
224.550685,-2451.505594,-3923.091493,13767.830521
224.550993,-1302.362347,-2960.823768,12435.459826
224.551301,995.924147,-1554.432478,11251.130318
224.551609,2451.505594,-74.020594,9104.533087
224.551918,3753.867940,1628.453072,7328.038826
224.552226,4826.401637,2738.761985,6069.688724
224.552534,4903.011187,3627.009116,5329.482782
224.552842,4903.011187,4515.256246,5403.503377
224.553150,4673.182538,3997.112087,5921.647536
224.553458,2681.334243,3478.967927,7031.956449
224.553766,1149.143247,1998.556043,8956.491898
224.554074,-306.438199,888.247130,10362.883188
224.554382,-2451.505594,-888.247130,12435.459826
224.554691,-3907.087040,-2368.659014,13915.871710
224.554999,-4366.744339,-3034.844362,14285.974681
224.555307,-4213.525239,-3404.947333,14804.118840
224.555615,-3064.381992,-3404.947333,14063.912898
224.555923,-1225.752797,-2072.576638,12731.542202
224.556231,306.438199,-1480.411884,11547.212695
224.556539,1302.362347,-222.061783,9770.718434
224.556847,2528.115143,888.247130,7846.182985
224.557156,3370.820191,1998.556043,6957.935855
224.557464,3830.477490,2664.741391,5995.668130
224.557772,3753.867940,3404.947333,5477.523971
224.558080,3294.210641,3923.091493,5847.626942
224.558388,3370.820191,3701.029710,5551.544565
224.558696,2528.115143,3256.906145,6513.812290
224.559004,1838.629195,2072.576638,7328.038826
224.559312,306.438199,1184.329507,8956.491898
224.559620,-842.705048,-592.164754,11103.089130
224.559929,-2221.676944,-2146.597232,12213.398043
224.560237,-3217.601092,-3330.926739,13545.768739
224.560545,-3217.601092,-4441.235652,14211.954086
224.560853,-2681.334243,-3701.029710,13693.809927
224.561161,-1455.581446,-3182.885551,13323.706956
224.561469,0.000000,-2442.679609,11473.192101
224.561777,1149.143247,-814.226536,9474.636058
224.562085,2834.553343,518.144159,8586.388927
224.562393,3524.039291,1998.556043,6883.915261
224.562702,4213.525239,2516.700203,6291.750507
224.563010,4213.525239,3404.947333,5329.482782
224.563318,4213.525239,3923.091493,6291.750507
224.563626,3140.991542,3775.050304,6143.709319
224.563934,1991.848295,2886.803174,7550.100608
224.564242,689.485948,1628.453072,9030.512492
224.564550,-766.095498,-0.000000,10807.006753
224.564858,-2528.115143,-1554.432478,12435.459826
224.565166,-3677.258390,-2294.638420,13175.665768
224.565475,-3064.381992,-3478.967927,13619.789333
224.565783,-3677.258390,-3108.864956,13545.768739
224.566091,-2374.896044,-2590.720797,13101.645173
224.566399,-842.705048,-2368.659014,11769.274478
224.566707,612.876398,-814.226536,10066.800811
224.567015,1915.238745,-296.082377,8882.471304
224.567323,2374.896044,518.144159,7550.100608
224.567631,2987.772442,1702.473667,6809.894666
224.567939,3524.039291,2442.679609,6143.709319
224.568248,3524.039291,3256.906145,5551.544565
224.568556,3907.087040,3997.112087,5477.523971
224.568864,3294.210641,3997.112087,5847.626942
224.569172,2528.115143,3034.844362,7031.956449
224.569480,995.924147,1554.432478,8808.450710
224.569788,-306.438199,-296.082377,10288.862594
224.570096,-1455.581446,-2294.638420,11843.295072
224.570404,-3140.991542,-3701.029710,13397.727550
224.570712,-2834.553343,-4589.276840,14359.995275
224.571021,-2528.115143,-4145.153275,14359.995275
224.571329,-1532.190996,-3552.988522,12953.603985
224.571637,-306.438199,-2146.597232,11251.130318
224.571945,1762.019645,-740.205942,9844.739029
224.572253,3294.210641,740.205942,8068.244768
224.572561,4443.353888,1850.514855,6587.832884
224.572869,5132.839837,3552.988522,6365.771101
224.573177,5286.058936,4071.132681,5181.441594
224.573486,4826.401637,4293.194464,5329.482782
224.573794,3677.258390,4515.256246,6661.853478
224.574102,1991.848295,3182.885551,7772.162391
224.574410,536.266849,1702.473667,9474.636058
224.574718,-1378.971896,-0.000000,11399.171507
224.575026,-2681.334243,-1406.391290,13323.706956
224.575334,-3677.258390,-2590.720797,14211.954086
224.575642,-4136.915689,-3478.967927,14656.077652
224.575950,-3294.210641,-3256.906145,14878.139434
224.576259,-2451.505594,-3034.844362,13249.686362
224.576567,-842.705048,-1924.535449,12361.439231
224.576875,536.266849,-962.267725,10510.924376
224.577183,1991.848295,444.123565,8808.450710
224.577491,2757.943793,1258.350101,7476.080014
224.577799,3830.477490,2146.597232,6957.935855
224.578107,4136.915689,3404.947333,5329.482782
224.578415,4136.915689,3849.070898,5699.585753
224.578723,4366.744339,4219.173869,5477.523971
224.579032,3294.210641,4441.235652,5329.482782
224.579340,2528.115143,3182.885551,6957.935855
224.579648,1608.800546,2146.597232,8216.285956
224.579956,76.609550,-148.041188,10288.862594
224.580264,-1455.581446,-1998.556043,11325.150913
224.580572,-2451.505594,-3552.988522,13397.727550
224.580880,-3370.820191,-4367.215058,14656.077652
224.581188,-3217.601092,-4367.215058,14508.036463
224.581496,-2451.505594,-3775.050304,14063.912898
224.581805,-1072.533697,-2590.720797,12213.398043
224.582113,612.876398,-1628.453072,10732.986159
224.582421,2374.896044,-74.020594,8512.368333
224.582729,4060.306139,1406.391290,7328.038826
224.583037,4903.011187,2442.679609,6217.729913
224.583345,4443.353888,3552.988522,5255.462188
224.583653,4366.744339,4071.132681,5625.565159
224.583961,3370.820191,3701.029710,5847.626942
224.584269,2298.286494,3256.906145,7105.977043
224.584578,766.095498,2072.576638,8808.450710
224.584886,-842.705048,370.102971,10881.027347
224.585194,-2834.553343,-1184.329507,11473.192101
224.585502,-3677.258390,-2368.659014,13397.727550
224.585810,-3983.696590,-2886.803174,14359.995275
224.586118,-3830.477490,-3330.926739,14211.954086
224.586426,-2604.724693,-2886.803174,13471.748144
224.586734,-1608.800546,-2442.679609,12213.398043
224.587043,0.000000,-1554.432478,10732.986159
224.587351,1762.019645,-518.144159,9474.636058
224.587659,2298.286494,518.144159,8512.368333
224.587967,2911.162892,1406.391290,7031.956449
224.588275,3140.991542,2960.823768,6291.750507
224.588583,3753.867940,3923.091493,5255.462188
224.588891,3370.820191,3997.112087,5107.421000
224.589199,3217.601092,3997.112087,5847.626942
224.589507,2681.334243,3256.906145,6143.709319
224.589816,1455.581446,1628.453072,7105.977043
224.590124,383.047749,-0.000000,9844.739029
224.590432,-1532.190996,-1554.432478,11547.212695
224.590740,-3447.429741,-3330.926739,12731.542202
224.591048,-3524.039291,-4219.173869,14211.954086
224.591356,-3677.258390,-4589.276840,14656.077652
224.591664,-2604.724693,-3849.070898,13767.830521
224.591972,-1149.143247,-2812.782580,12583.501014
224.592280,1455.581446,-1702.473667,11103.089130
224.592589,3064.381992,-0.000000,9030.512492
224.592897,4060.306139,1480.411884,7550.100608
224.593205,5669.106685,2368.659014,5921.647536
224.593513,4979.620737,3478.967927,5699.585753
224.593821,5132.839837,3923.091493,5699.585753
224.594129,3753.867940,3923.091493,6291.750507
224.594437,2987.772442,3330.926739,7179.997637
224.594745,995.924147,2738.761985,8216.285956
224.595053,0.000000,1332.370696,9918.759623
224.595361,-1685.410096,-296.082377,11695.253884
224.595669,-2681.334243,-1702.473667,13027.624579
224.595978,-3294.210641,-2442.679609,14063.912898
224.596286,-3677.258390,-3182.885551,14137.933492
224.596594,-3140.991542,-3182.885551,14211.954086
224.596902,-2221.676944,-2442.679609,13249.686362
224.597210,-612.876398,-1998.556043,12287.418637
224.597518,766.095498,-888.247130,10140.821405
224.597826,2298.286494,222.061783,8660.409521
224.598134,3370.820191,1702.473667,7476.080014
224.598442,3524.039291,2442.679609,6587.832884
224.598750,3830.477490,3404.947333,5625.565159
224.599058,3753.867940,4071.132681,5107.421000
224.599366,3677.258390,4219.173869,5181.441594
224.599674,3294.210641,3849.070898,5625.565159
224.599983,2068.457845,2664.741391,6883.915261
224.600291,766.095498,1110.308913,8734.430116
224.600599,-229.828649,-814.226536,11103.089130
224.600907,-2451.505594,-2368.659014,12287.418637
224.601215,-3524.039291,-3552.988522,14137.933492
224.601523,-3983.696590,-4441.235652,14656.077652
224.601831,-2987.772442,-3923.091493,14211.954086
224.602139,-1762.019645,-2812.782580,12879.583391
224.602447,153.219100,-2294.638420,11695.253884
224.602755,1838.629195,-666.185348,9770.718434
224.603063,3140.991542,518.144159,7698.141797
224.603371,4596.572988,1702.473667,6883.915261
224.603680,4749.792088,2368.659014,6439.791695
224.603988,4136.915689,2886.803174,6069.688724
224.604296,3677.258390,3330.926739,6217.729913
224.604604,2298.286494,3478.967927,7031.956449
224.604912,1762.019645,2590.720797,7920.203579
224.605220,229.828649,1480.411884,9252.574275
224.605528,-1072.533697,148.041188,10732.986159
224.605836,-2374.896044,-1406.391290,11843.295072
224.606144,-2987.772442,-2220.617826,13249.686362
224.606452,-3447.429741,-3034.844362,13841.851115
224.606760,-3294.210641,-3182.885551,13767.830521
224.607068,-2834.553343,-3182.885551,13175.665768
224.607376,-995.924147,-1924.535449,11917.315666
224.607685,995.924147,-1110.308913,10436.903782
224.607993,1302.362347,592.164754,8512.368333
224.608301,2834.553343,1480.411884,7402.059420
224.608609,3140.991542,2368.659014,6661.853478
224.608917,3677.258390,3330.926739,5625.565159
224.609225,3524.039291,4071.132681,5107.421000
224.609533,2987.772442,4293.194464,5329.482782
224.609841,2987.772442,3775.050304,5995.668130
224.610149,2221.676944,2516.700203,6957.935855
224.610457,153.219100,962.267725,8956.491898
224.610765,-1149.143247,-666.185348,10881.027347
224.611073,-2987.772442,-2368.659014,12879.583391
224.611382,-3830.477490,-3997.112087,14211.954086
224.611690,-4136.915689,-4441.235652,14730.098246
224.611998,-3677.258390,-4219.173869,14359.995275
224.612306,-1991.848295,-3256.906145,13249.686362
224.612614,76.609550,-1850.514855,12213.398043
224.612922,1838.629195,-666.185348,9844.739029
224.613230,3677.258390,518.144159,7846.182985
224.613538,4673.182538,2072.576638,6587.832884
224.613846,4979.620737,2516.700203,5699.585753
224.614154,4519.963438,3330.926739,6069.688724
224.614462,4213.525239,3330.926739,6365.771101
224.614770,3524.039291,3478.967927,6143.709319
224.615078,1838.629195,2738.761985,7402.059420
224.615387,842.705048,2294.638420,8734.430116
224.615695,-766.095498,814.226536,10436.903782
224.616003,-1915.238745,-444.123565,11991.336260
224.616311,-2987.772442,-1776.494261,13323.706956
224.616619,-3294.210641,-2664.741391,14211.954086
224.616927,-3217.601092,-2812.782580,14359.995275
224.617235,-2221.676944,-2368.659014,14211.954086
224.617543,-1225.752797,-1998.556043,12657.521608
224.617851,153.219100,-1036.288319,11103.089130
224.618159,1608.800546,-0.000000,9474.636058
224.618467,2451.505594,592.164754,8216.285956
224.618775,2911.162892,1554.432478,7105.977043
224.619083,3217.601092,2146.597232,6661.853478
224.619392,3524.039291,3182.885551,5921.647536
224.619700,3753.867940,3330.926739,5699.585753
224.620008,3447.429741,4663.297435,5625.565159
224.620316,2681.334243,3404.947333,5699.585753
224.620624,1608.800546,2368.659014,7328.038826
224.620932,612.876398,814.226536,9548.656652
224.621240,-995.924147,-1036.288319,11177.109724
224.621548,-2528.115143,-2442.679609,12435.459826
224.621856,-3677.258390,-3775.050304,13545.768739
224.622164,-2681.334243,-3701.029710,13767.830521
224.622472,-1685.410096,-3849.070898,13027.624579
224.622780,-842.705048,-2960.823768,11769.274478
224.623089,689.485948,-1776.494261,10362.883188
224.623397,2221.676944,-814.226536,9474.636058
224.623705,3600.648841,296.082377,7624.121203
224.624013,3140.991542,1332.370696,6587.832884
224.624321,4136.915689,1702.473667,6587.832884
224.624629,4596.572988,2664.741391,6143.709319
224.624937,3217.601092,3034.844362,6069.688724
224.625245,2451.505594,3182.885551,7105.977043
224.625553,1302.362347,2442.679609,7920.203579
224.625861,0.000000,1406.391290,9474.636058
224.626169,-1149.143247,148.041188,10955.047942
224.626477,-2451.505594,-1184.329507,12139.377449
224.626785,-3140.991542,-2220.617826,13397.727550
224.627094,-3140.991542,-3108.864956,13989.892304
224.627402,-2528.115143,-2886.803174,13323.706956
224.627710,-1608.800546,-2664.741391,13175.665768
224.628018,-383.047749,-1776.494261,11399.171507
224.628326,766.095498,-1258.350101,9844.739029
224.628634,2298.286494,-296.082377,8882.471304
224.628942,2834.553343,814.226536,7476.080014
224.629250,3677.258390,2368.659014,6513.812290
224.629558,3907.087040,3478.967927,6069.688724
224.629866,3600.648841,4663.297435,5033.400406
224.630174,4060.306139,4737.318029,5477.523971
224.630482,3064.381992,4589.276840,6291.750507
224.630790,1762.019645,3404.947333,7550.100608
224.631099,-153.219100,1850.514855,9770.718434
224.631407,-1991.848295,-370.102971,11843.295072
224.631715,-2757.943793,-2146.597232,13841.851115
224.632023,-3983.696590,-3034.844362,14804.118840
224.632331,-3447.429741,-3775.050304,15322.262999
224.632639,-2681.334243,-3478.967927,14582.057057
224.632947,-1302.362347,-2516.700203,13101.645173
224.633255,459.657299,-1480.411884,11769.274478
224.633563,2221.676944,-666.185348,9474.636058
224.633871,4136.915689,370.102971,8142.265362
224.634179,4596.572988,1406.391290,7105.977043
224.634487,4519.963438,2294.638420,5773.606348
224.634796,4673.182538,2960.823768,6291.750507
224.635104,3983.696590,3701.029710,5921.647536
224.635412,2987.772442,3552.988522,6661.853478
224.635720,1991.848295,3034.844362,7550.100608
224.636028,229.828649,2146.597232,9030.512492
224.636336,-919.314598,-74.020594,10955.047942
224.636644,-1762.019645,-740.205942,11917.315666
224.636952,-2451.505594,-2220.617826,13545.768739
224.637260,-2911.162892,-3552.988522,13767.830521
224.637568,-3064.381992,-3182.885551,13767.830521
224.637876,-2374.896044,-3108.864956,13027.624579
224.638184,-1378.971896,-2664.741391,11769.274478
224.638492,153.219100,-1702.473667,10584.944971
224.638801,1149.143247,-1110.308913,9252.574275
224.639109,1838.629195,-0.000000,7624.121203
224.639417,2987.772442,1184.329507,6957.935855
224.639725,3830.477490,2294.638420,5921.647536
224.640033,3600.648841,3256.906145,5255.462188
224.640341,3600.648841,3775.050304,4959.379811
224.640649,2987.772442,3478.967927,5403.503377
224.640957,1762.019645,2886.803174,6439.791695
224.641265,689.485948,1036.288319,8586.388927
224.641573,-766.095498,-592.164754,10881.027347
224.641881,-2451.505594,-1924.535449,12065.356855
224.642189,-3600.648841,-2960.823768,13175.665768
224.642497,-3370.820191,-3330.926739,13323.706956
224.642806,-2528.115143,-3552.988522,13323.706956
224.643114,-1149.143247,-2516.700203,12287.418637
224.643422,383.047749,-1776.494261,10955.047942
224.643730,1838.629195,-1184.329507,9622.677246
224.644038,3294.210641,-0.000000,8364.327145
224.644346,4366.744339,740.205942,6587.832884
224.644654,3907.087040,1998.556043,7105.977043
224.644962,4060.306139,2812.782580,6217.729913
224.645270,3907.087040,3330.926739,6365.771101
224.645578,2681.334243,3404.947333,7031.956449
224.645886,1838.629195,3182.885551,7698.141797
224.646194,306.438199,1998.556043,9326.594869
224.646503,-995.924147,592.164754,10732.986159
224.646811,-2374.896044,-740.205942,11917.315666
224.647119,-2987.772442,-2072.576638,13619.789333
224.647427,-3370.820191,-2590.720797,14359.995275
224.647735,-3600.648841,-3034.844362,14359.995275
224.648043,-2911.162892,-2960.823768,14063.912898
224.648351,-1685.410096,-2516.700203,13249.686362
224.648659,-153.219100,-1258.350101,11103.089130
224.648967,1072.533697,-296.082377,9622.677246
224.649275,2604.724693,740.205942,8290.306550
224.649583,3064.381992,2220.617826,6809.894666
224.649891,4060.306139,3330.926739,5995.668130
224.650199,3983.696590,3997.112087,5403.503377
224.650508,4136.915689,4589.276840,5181.441594
224.650816,3447.429741,4737.318029,5625.565159
224.651124,2451.505594,3701.029710,6661.853478
224.651432,1072.533697,2516.700203,7994.224174
224.651740,0.000000,740.205942,10288.862594
224.652048,-1838.629195,-888.247130,11473.192101
224.652356,-2911.162892,-2368.659014,13323.706956
224.652664,-3370.820191,-3330.926739,14211.954086
224.652972,-2834.553343,-3330.926739,14211.954086
224.653280,-1532.190996,-3108.864956,13101.645173
224.653588,-536.266849,-2442.679609,11917.315666
224.653896,919.314598,-1554.432478,9918.759623
224.654204,2757.943793,-814.226536,9030.512492
224.654513,3600.648841,666.185348,7920.203579
224.654821,3983.696590,1628.453072,7031.956449
224.655129,3983.696590,2442.679609,6661.853478
224.655437,3753.867940,3108.864956,6513.812290
224.655745,2987.772442,2960.823768,7031.956449
224.656053,2681.334243,3034.844362,7031.956449
224.656361,1072.533697,2368.659014,8216.285956
224.656669,306.438199,1184.329507,9474.636058
224.656977,-1072.533697,-444.123565,10881.027347
224.657285,-2068.457845,-1776.494261,12287.418637
224.657593,-2834.553343,-2664.741391,13619.789333
224.657901,-3064.381992,-3627.009116,14137.933492
224.658210,-2757.943793,-3701.029710,13619.789333
224.658518,-2068.457845,-3552.988522,13027.624579
224.658826,0.000000,-2368.659014,11251.130318
224.659134,995.924147,-1036.288319,9696.697840
224.659442,2451.505594,-0.000000,7846.182985
224.659750,3217.601092,1036.288319,6365.771101
224.660058,4136.915689,2516.700203,5625.565159
224.660366,4213.525239,3478.967927,5107.421000
224.660674,3907.087040,3775.050304,4959.379811
224.660982,3370.820191,3775.050304,5033.400406
224.661290,2604.724693,3552.988522,6143.709319
224.661598,842.705048,2368.659014,7920.203579
224.661906,-383.047749,1110.308913,9548.656652
224.662215,-2068.457845,-296.082377,11177.109724
224.662523,-2987.772442,-1998.556043,12879.583391
224.662831,-3600.648841,-3330.926739,13767.830521
224.663139,-3753.867940,-3849.070898,14359.995275
224.663447,-2834.553343,-3404.947333,13693.809927
224.663755,-1149.143247,-2664.741391,12361.439231
224.664063,766.095498,-1628.453072,10807.006753
224.664371,2374.896044,-222.061783,9326.594869
224.664679,3294.210641,888.247130,7476.080014
224.664987,4060.306139,1628.453072,7031.956449
224.665295,3983.696590,2442.679609,6587.832884
224.665603,4060.306139,2886.803174,7031.956449
224.665911,3524.039291,2960.823768,7105.977043
224.666220,2834.553343,3182.885551,7105.977043
224.666528,1915.238745,3182.885551,7920.203579
224.666836,459.657299,2220.617826,8882.471304
224.667144,-153.219100,888.247130,10732.986159
224.667452,-1455.581446,-444.123565,12213.398043
224.667760,-2681.334243,-1998.556043,13693.809927
224.668068,-3370.820191,-3330.926739,14804.118840
224.668376,-4136.915689,-3627.009116,14434.015869
224.668684,-3217.601092,-3182.885551,14582.057057
224.668992,-1378.971896,-2442.679609,12879.583391
224.669300,76.609550,-1554.432478,10955.047942
224.669608,1838.629195,-0.000000,8734.430116
224.669917,3140.991542,1258.350101,7624.121203
224.670225,3830.477490,2368.659014,6513.812290
224.670533,4060.306139,3330.926739,5847.626942
224.670841,4060.306139,4589.276840,5033.400406
224.671149,3830.477490,4441.235652,5181.441594
224.671457,3370.820191,4515.256246,5847.626942
224.671765,1378.971896,3775.050304,6809.894666
224.672073,689.485948,1850.514855,8956.491898
224.672381,-995.924147,-0.000000,10658.965565
224.672689,-2528.115143,-1628.453072,12287.418637
224.672997,-3830.477490,-2886.803174,13619.789333
224.673305,-3677.258390,-3997.112087,14656.077652
224.673613,-2604.724693,-3849.070898,14137.933492
224.673922,-1838.629195,-3552.988522,12287.418637
224.674230,153.219100,-2368.659014,11695.253884
224.674538,1838.629195,-1406.391290,9548.656652
224.674846,2911.162892,-74.020594,7994.224174
224.675154,4290.134789,1036.288319,6883.915261
224.675462,4136.915689,1110.308913,6439.791695
224.675770,2911.162892,2294.638420,6291.750507
224.676078,3830.477490,2886.803174,6883.915261
224.676386,2834.553343,3182.885551,7105.977043
224.676694,1838.629195,2960.823768,6883.915261
224.677002,1302.362347,2294.638420,8068.244768
224.677310,0.000000,592.164754,9696.697840
224.677618,-1378.971896,-814.226536,11547.212695
224.677927,-2681.334243,-2812.782580,13101.645173
224.678235,-3370.820191,-3330.926739,14211.954086
224.678543,-3677.258390,-4219.173869,14211.954086
224.678851,-2451.505594,-3997.112087,13619.789333
224.679159,-995.924147,-2738.761985,12435.459826
224.679467,612.876398,-1850.514855,10732.986159
224.679775,1991.848295,-370.102971,8660.409521
224.680083,3294.210641,814.226536,7179.997637
224.680391,4366.744339,1776.494261,6439.791695
224.680699,4136.915689,3182.885551,5255.462188
224.681007,4136.915689,4145.153275,5329.482782
224.681315,3830.477490,4293.194464,5329.482782
224.681624,2987.772442,4441.235652,5551.544565
224.681932,2068.457845,3552.988522,6957.935855
224.682240,689.485948,2664.741391,8512.368333
224.682548,-1072.533697,888.247130,10584.944971
224.682856,-2221.676944,-1110.308913,12287.418637
224.683164,-3907.087040,-2664.741391,13397.727550
224.683472,-4136.915689,-3627.009116,14508.036463
224.683780,-3064.381992,-3182.885551,14063.912898
224.684088,-2068.457845,-2738.761985,13545.768739
224.684396,-383.047749,-1776.494261,11695.253884
224.684704,1378.971896,-1406.391290,10658.965565
224.685012,2528.115143,-74.020594,8882.471304
224.685320,3907.087040,740.205942,7179.997637
224.685629,4136.915689,1998.556043,7254.018232
224.685937,3983.696590,1998.556043,6661.853478
224.686245,3753.867940,3108.864956,6661.853478
224.686553,2834.553343,3478.967927,6957.935855
224.686861,2528.115143,3478.967927,7402.059420
224.687169,1532.190996,2738.761985,7846.182985
224.687477,459.657299,1332.370696,9918.759623
224.687785,-1149.143247,-0.000000,11473.192101
224.688093,-2145.067394,-1850.514855,13175.665768
224.688401,-3064.381992,-2886.803174,14656.077652
224.688709,-3600.648841,-3923.091493,14359.995275
224.689017,-3064.381992,-3627.009116,14137.933492
224.689326,-2068.457845,-2738.761985,12879.583391
224.689634,0.000000,-1776.494261,11473.192101
224.689942,1378.971896,-888.247130,9770.718434
224.690250,3217.601092,518.144159,8068.244768
224.690558,3294.210641,1332.370696,6587.832884
224.690866,3907.087040,2368.659014,6143.709319
224.691174,4290.134789,3849.070898,5847.626942
224.691482,4060.306139,4145.153275,5847.626942
224.691790,3600.648841,4071.132681,5329.482782
224.692098,1991.848295,4293.194464,5773.606348
224.692406,995.924147,1480.411884,8734.430116
224.692714,-612.876398,1480.411884,9622.677246
224.693022,-1991.848295,-814.226536,11991.336260
224.693331,-2911.162892,-2146.597232,12731.542202
224.693639,-3294.210641,-3404.947333,14211.954086
224.693947,-3370.820191,-3552.988522,13915.871710
224.694255,-1915.238745,-3182.885551,12879.583391
224.694563,-536.266849,-2146.597232,11325.150913
224.694871,536.266849,-1776.494261,9992.780217
224.695179,2451.505594,-814.226536,9326.594869
224.695487,3677.258390,296.082377,7105.977043
224.695795,3830.477490,1184.329507,6957.935855
224.696103,3907.087040,2072.576638,5995.668130
224.696411,3753.867940,2738.761985,6143.709319
224.696719,2987.772442,3108.864956,6809.894666
224.697027,2221.676944,2960.823768,6809.894666
224.697335,1685.410096,2738.761985,7476.080014
224.697643,459.657299,888.247130,9474.636058
224.697951,-1302.362347,-592.164754,10510.924376
224.698259,-2298.286494,-2220.617826,12139.377449
224.698567,-3140.991542,-3182.885551,13619.789333
224.698875,-3753.867940,-3997.112087,14063.912898
224.699183,-3524.039291,-3997.112087,14285.974681
224.699491,-2528.115143,-3552.988522,13619.789333
224.699799,-689.485948,-2516.700203,11695.253884
224.700107,842.705048,-1480.411884,10510.924376
224.700415,2451.505594,222.061783,8808.450710
224.700723,3140.991542,1332.370696,7328.038826
224.701031,3600.648841,2442.679609,5995.668130
224.701339,3983.696590,3775.050304,5699.585753
224.701647,4213.525239,4515.256246,5107.421000
224.701955,3753.867940,4737.318029,4959.379811
224.702263,2451.505594,4589.276840,6069.688724
224.702571,1532.190996,3256.906145,7550.100608
224.702880,229.828649,2146.597232,9400.615463
224.703188,-919.314598,222.061783,11177.109724
224.703496,-2681.334243,-1406.391290,12657.521608
224.703804,-3524.039291,-2442.679609,13767.830521
224.704112,-3294.210641,-3108.864956,14582.057057
224.704420,-2374.896044,-3182.885551,13693.809927
224.704728,-995.924147,-2368.659014,12509.480420
224.705036,229.828649,-2072.576638,11621.233289
224.705344,2068.457845,-888.247130,10066.800811
224.705652,2451.505594,-148.041188,8290.306550
224.705960,3753.867940,1184.329507,7476.080014
224.706268,4290.134789,2220.617826,6735.874072
224.706576,3983.696590,3404.947333,6735.874072
224.706884,3753.867940,3627.009116,6883.915261
224.707192,3447.429741,3330.926739,6661.853478
224.707500,2221.676944,3108.864956,7328.038826
224.707808,766.095498,2146.597232,8808.450710
224.708116,-383.047749,-74.020594,10510.924376
224.708424,-2145.067394,-1036.288319,12287.418637
224.708732,-3064.381992,-2664.741391,13915.871710
224.709040,-3600.648841,-3849.070898,14434.015869
224.709348,-3524.039291,-4145.153275,14656.077652
224.709656,-2528.115143,-3775.050304,13915.871710
224.709964,-383.047749,-2886.803174,12213.398043
224.710272,0.000000,-1480.411884,10362.883188
224.710580,2451.505594,-296.082377,8586.388927
224.710888,3677.258390,888.247130,6957.935855
224.711196,4519.963438,2590.720797,5477.523971
224.711504,4903.011187,3182.885551,5033.400406
224.711812,4903.011187,4071.132681,4737.318029
224.712120,4136.915689,3997.112087,4737.318029
224.712428,3370.820191,3849.070898,5329.482782
224.712736,1685.410096,3478.967927,6883.915261
224.713044,76.609550,1924.535449,8660.409521
224.713352,-1225.752797,-0.000000,10066.800811
224.713660,-2374.896044,-1406.391290,11843.295072
224.713968,-3140.991542,-2960.823768,13101.645173
224.714276,-3600.648841,-3849.070898,14137.933492
224.714584,-2911.162892,-3997.112087,14211.954086
224.714892,-1532.190996,-3182.885551,13175.665768
224.715200,-536.266849,-2368.659014,11843.295072
224.715508,689.485948,-1332.370696,10732.986159
224.715816,2374.896044,-74.020594,8364.327145
224.716124,3370.820191,1480.411884,7031.956449
224.716432,4290.134789,2294.638420,6587.832884
224.716740,4366.744339,3108.864956,5995.668130
224.717048,3677.258390,3478.967927,6513.812290
224.717356,3294.210641,3775.050304,6365.771101
224.717664,2298.286494,3182.885551,6735.874072
224.717972,689.485948,2442.679609,8364.327145
224.718280,-306.438199,888.247130,10066.800811
224.718588,-1991.848295,-888.247130,11769.274478
224.718896,-3064.381992,-2368.659014,13545.768739
224.719204,-4060.306139,-3849.070898,14434.015869
224.719512,-3983.696590,-3997.112087,14804.118840
224.719820,-2911.162892,-3849.070898,14359.995275
224.720128,-2145.067394,-2442.679609,12583.501014
224.720436,229.828649,-1776.494261,11029.068536
224.720745,1762.019645,-444.123565,8956.491898
224.721053,2834.553343,1184.329507,7254.018232
224.721361,3907.087040,2072.576638,6809.894666
224.721669,4366.744339,2886.803174,5625.565159
224.721977,3983.696590,3775.050304,5551.544565
224.722285,4136.915689,3923.091493,5699.585753
224.722593,3064.381992,4145.153275,5921.647536
224.722901,1915.238745,3627.009116,6365.771101
224.723209,919.314598,2590.720797,8142.265362
224.723517,-459.657299,962.267725,9844.739029
224.723825,-1838.629195,-740.205942,11547.212695
224.724133,-2451.505594,-1924.535449,12805.562797
224.724441,-2911.162892,-3478.967927,13619.789333
224.724749,-3294.210641,-3627.009116,14063.912898
224.725057,-2298.286494,-2664.741391,13693.809927
224.725365,-995.924147,-2146.597232,11917.315666
224.725673,689.485948,-1332.370696,10807.006753
224.725981,2068.457845,-148.041188,9178.553681
224.726289,3064.381992,740.205942,7624.121203
224.726597,3677.258390,1406.391290,7105.977043
224.726905,3983.696590,2368.659014,7031.956449
224.727213,3907.087040,2886.803174,6513.812290
224.727521,3600.648841,3182.885551,6587.832884
224.727829,2374.896044,3701.029710,6883.915261
224.728137,1455.581446,2812.782580,7846.182985
224.728445,229.828649,1776.494261,9104.533087
224.728753,-1225.752797,-222.061783,11103.089130
224.729061,-2451.505594,-2072.576638,12731.542202
224.729369,-2757.943793,-3552.988522,14285.974681
224.729677,-3907.087040,-4219.173869,14582.057057
224.729985,-3140.991542,-4515.256246,14137.933492
224.730293,-1685.410096,-3108.864956,13027.624579
224.730601,0.000000,-2220.617826,11473.192101
224.730909,1838.629195,-1258.350101,9696.697840
224.731217,2987.772442,222.061783,8068.244768
224.731525,4290.134789,1184.329507,6883.915261
224.731833,4749.792088,2368.659014,5847.626942
224.732141,4826.401637,3330.926739,5921.647536
224.732449,4290.134789,3997.112087,5699.585753
224.732757,3447.429741,4515.256246,5477.523971
224.733065,2451.505594,4293.194464,6217.729913
224.733373,1455.581446,3034.844362,7179.997637
224.733681,0.000000,1480.411884,9474.636058
