#time,accel_x,accel_y,accel_z
814.951924,-76.570323,-880.558717,-9686.145885
814.954789,-172.283227,-880.558717,-9628.718142
814.957654,-95.712904,-880.558717,-9686.145885
814.960519,-114.855485,-937.986459,-9590.432981
814.963384,-95.712904,-918.843878,-9667.003304
814.966249,-133.998066,-918.843878,-9686.145885
814.969114,-114.855485,-918.843878,-9667.003304
814.971979,-133.998066,-995.414202,-9705.288466
814.974844,-172.283227,-918.843878,-9647.860723
814.977709,-95.712904,-918.843878,-9667.003304
814.980574,-57.427742,-823.130974,-9647.860723
814.983439,-76.570323,-918.843878,-9571.290400
814.986304,-19.142581,-880.558717,-9705.288466
814.989169,-95.712904,-937.986459,-9686.145885
814.992034,-172.283227,-918.843878,-9628.718142
814.994899,-95.712904,-880.558717,-9552.147819
814.997764,-153.140646,-861.416136,-9647.860723
815.000629,-19.142581,-976.271621,-9609.575562
815.003494,-114.855485,-880.558717,-9686.145885
815.006359,-95.712904,-899.701298,-9686.145885
815.009224,-38.285162,-899.701298,-9552.147819
815.012089,-57.427742,-880.558717,-9571.290400
815.014954,-57.427742,-899.701298,-9667.003304
815.017819,-19.142581,-842.273555,-9399.007173
815.020684,421.136778,-1799.402595,-9456.434915
815.023549,-76.570323,-1588.834206,-9552.147819
815.026414,-114.855485,-3388.236802,-9207.581365
815.029279,-459.421939,-6106.483275,-9686.145885
815.032144,248.853550,-11370.692995,-8633.303941
815.035009,-746.560651,-10164.710405,-11619.546546
815.037874,153.140646,-7886.743290,-9533.005238
815.040739,784.845813,-4326.223261,-8403.592971
815.043604,-2029.113565,4421.936165,-13974.083984
815.046336,2641.676150,2699.103893,-3675.375514
815.049068,-555.134843,765.703232,-13016.954944
815.051800,-1895.115499,-5130.211654,-9667.003304
815.054531,2431.107762,-11389.835576,-4460.221326
815.057263,-2660.818731,-7369.893608,-14356.935600
815.059995,1091.127106,-11255.837510,-10509.276859
815.062727,-325.423874,-5857.629725,-2048.256146
815.065458,-1301.695494,1741.974853,-15352.349802
815.068190,153.140646,2718.246474,-12136.396227
815.070922,1052.841944,1818.545176,-3560.520029
815.073654,459.421939,478.564520,-10049.854920
815.076385,-1512.263883,-497.707101,-15754.343998
815.079117,-57.427742,-3215.953574,-4249.652938
815.081849,593.420005,-5264.209720,-11102.696864
815.084581,-4307.080680,114.855485,-17170.894978
815.087313,5302.494882,-1320.838075,153.140646
815.090044,-2833.101958,3675.375514,-17151.752397
815.092776,-1550.549045,2584.248408,-11351.550414
815.095508,4230.510357,-803.988394,-2239.681954
815.098240,-4173.082614,2239.681954,-12825.529136
815.100971,2756.531635,-4862.215523,-13667.802691
815.103703,-1033.699363,-3885.943902,-210.568389
815.106435,-937.986459,-3885.943902,-13629.517530
815.109167,-1607.976787,-2890.529701,-9934.999435
815.111898,-918.843878,-382.851616,-15639.488514
815.114630,7159.325219,-2967.100024,2239.681954
815.117362,-7637.889739,8288.737486,-11523.833642
815.120094,2488.535504,1359.123237,-16098.910453
815.122826,1071.984525,-1225.125171,-1761.117434
815.125557,-4326.223261,-880.558717,-10662.417506
815.128289,3445.664544,-7676.174901,-17228.322720
815.131021,-918.843878,-3369.094221,-2507.678085
815.133753,-669.990328,-708.275490,-8384.450390
815.136484,1071.984525,-516.849682,-17802.600144
815.139216,-2220.539373,4689.932296,-1627.119368
815.141948,2641.676150,803.988394,-9437.292334
815.144680,-2067.398726,976.271621,-16711.473038
815.147412,1225.125171,-3311.666478,-5513.063270
815.150143,1895.115499,-3637.090352,-5455.635528
815.152875,-8250.452325,3292.523898,-20367.705971
815.155526,2947.957443,-3349.951640,-7427.321350
815.158176,4575.076811,-3943.371645,-2718.246474
815.160827,-5034.498750,2335.394858,-19659.430482
815.163478,2029.113565,-248.853550,-8537.591037
815.166128,2373.680019,-1378.265818,-3732.803256
815.168779,-3235.096155,2316.252277,-13265.808494
815.171429,-344.566454,-918.843878,-15275.779478
815.174080,2756.531635,-2545.963246,363.709035
815.176731,-5608.776174,1895.115499,-13342.378818
815.179381,2660.818731,-4785.645200,-14088.939469
815.182032,5015.356170,-7427.321350,689.132909
815.184682,-5876.772306,1531.406464,-15084.353670
815.187333,1512.263883,-2239.681954,-15218.351736
815.189984,2947.957443,-995.414202,497.707101
815.192634,-2986.242605,3292.523898,-12117.253646
815.195285,937.986459,172.283227,-15562.918190
815.197936,1244.267752,-784.845813,-2507.678085
815.200586,-1205.982590,-803.988394,-13495.519464
815.203237,976.271621,-4230.510357,-15524.633029
815.205887,-1148.554848,-1722.832272,-1282.552914
815.208538,-535.992262,-1263.410333,-11179.267187
815.211189,-114.855485,-1129.412267,-15007.783347
815.213839,1875.972918,-918.843878,-1493.121302
815.216490,-2048.256146,1971.685822,-10949.556218
815.219141,-57.427742,459.421939,-14988.640766
815.221791,1339.980656,-191.425808,-3311.666478
815.224442,612.562586,267.996131,-15007.783347
815.227092,-5666.203917,2775.674216,-3215.953574
815.229743,3675.375514,-6010.770371,-13610.374949
815.232394,-2756.531635,-2622.533570,-16156.338195
815.235044,421.136778,-1971.685822,-344.566454
815.237695,440.279358,-2392.822600,-13399.806560
815.240345,-421.136778,1550.549045,-6451.049730
815.242996,-1684.547110,2890.529701,-8882.157491
815.245647,1665.404530,1091.127106,-12098.111066
815.248297,-3694.518094,2947.957443,-11849.257515
815.250948,4670.789715,-5206.781978,-1359.123237
815.253599,-2201.396792,-3656.232933,-17553.746594
815.256249,1205.982590,-3847.658741,-6412.764568
815.258900,2277.967115,-3751.945837,-6719.045861
815.261503,-2737.389054,1818.545176,-13457.234302
815.264110,727.418070,516.849682,-5034.498750
815.266716,38.285162,957.129040,-13840.085918
815.269323,-535.992262,114.855485,-6010.770371
815.271929,2411.965181,-3560.520029,-9762.716208
815.274536,-2411.965181,-593.420005,-12040.683323
815.277143,19.142581,-2297.109696,-8518.448456
815.279749,-2297.109696,153.140646,-12691.531070
815.282356,3579.662610,-3349.951640,-9284.151688
815.284963,-1282.552914,555.134843,-7905.885870
815.287569,-1033.699363,1512.263883,-8958.727814
815.290176,1780.260014,-1301.695494,-13840.085918
815.292783,-727.418070,1588.834206,-4039.084549
815.295389,-708.275490,-612.562586,-11600.403965
815.297996,57.427742,-2316.252277,-11447.263318
815.300603,-1320.838075,-1531.406464,-8518.448456
815.303209,1033.699363,-3311.666478,-10509.276859
815.305816,535.992262,-1684.547110,-10892.128475
815.308422,-3847.658741,2297.109696,-11160.124606
815.311029,4268.795518,-1071.984525,-6489.334891
815.313636,-3005.385186,2143.969050,-12232.109131
815.316242,3369.094221,-1588.834206,-6125.625856
815.318849,-3254.238736,1148.554848,-8997.012976
815.321456,1607.976787,-2163.111630,-10681.560086
815.324062,-401.994197,-2201.396792,-8173.882002
815.326669,861.416136,-1627.119368,-11925.827838
815.329276,-689.132909,-1052.841944,-6565.905214
815.331882,-535.992262,-57.427742,-9303.294269
815.334489,344.566454,-2163.111630,-11294.122672
815.337095,2067.398726,-3215.953574,-7101.897477
815.339702,-2316.252277,114.855485,-14165.509792
815.342309,535.992262,1225.125171,-5608.776174
815.344915,555.134843,-765.703232,-10241.280728
815.347522,344.566454,-1512.263883,-9341.579430
815.350129,-1320.838075,-1588.834206,-11619.546546
815.352735,1397.408398,-2641.676150,-6240.481341
815.355342,-1607.976787,-784.845813,-11236.694930
815.357949,842.273555,-1225.125171,-11064.411702
815.360555,-574.277424,555.134843,-4785.645200
815.363162,-382.851616,-306.281293,-14050.654307
815.365734,1282.552914,-1282.552914,-7752.745224
815.368306,1722.832272,-1818.545176,-6680.760699
815.370879,-2565.105827,1378.265818,-13418.949141
815.373451,-631.705166,210.568389,-11389.835576
815.376023,574.277424,-325.423874,-8403.592971
815.378595,-784.845813,-593.420005,-9552.147819
815.381168,1454.836141,-2699.103893,-13399.806560
815.383740,-2699.103893,516.849682,-3235.096155
815.386312,2526.820666,-2947.957443,-14931.213024
815.388884,-1435.693560,-95.712904,-6776.473603
815.391457,306.281293,-880.558717,-9513.862658
815.394029,-631.705166,-1282.552914,-11389.835576
815.396601,899.701298,-689.132909,-9667.003304
815.399173,1301.695494,-1741.974853,-5417.350366
815.401746,-1397.408398,478.564520,-10068.997501
815.404318,-1588.834206,-38.285162,-13935.798822
815.406890,2239.681954,-1052.841944,-3215.953574
815.409462,-1167.697429,-612.562586,-12921.242040
815.412034,976.271621,-2833.101958,-9150.153622
815.414607,-516.849682,-2182.254211,-7561.319416
815.417179,248.853550,-2143.969050,-12538.390424
815.419751,-76.570323,-1607.976787,-7829.315547
815.422323,-2048.256146,-191.425808,-7101.897477
815.424896,421.136778,-650.847747,-14222.937534
815.427468,1359.123237,-76.570323,-6872.186507
815.430040,-2277.967115,2794.816797,-5934.200048
815.432612,3158.525832,-3120.240670,-12653.245909
815.435185,-4804.787781,2526.820666,-7140.182638
815.437757,1607.976787,-1703.689691,-7657.032320
815.440329,-38.285162,-1895.115499,-13859.228499
815.442901,-650.847747,-1607.976787,-4804.787781
815.445474,19.142581,-2411.965181,-13399.806560
815.448046,-1052.841944,-306.281293,-10317.851051
815.450618,-3637.090352,1454.836141,-4058.227130
815.453190,899.701298,-2048.256146,-21841.684693
815.455763,4536.791650,-1052.841944,-7465.606512
815.458335,-1722.832272,3713.660675,5398.207786
815.460907,-2297.109696,669.990328,-19008.582734
815.463479,3675.375514,-3981.656806,-12500.105262
815.466052,-287.138712,-1397.408398,6202.196179
815.468423,-3388.236802,-1225.125171,-19238.293704
815.470795,2201.396792,-3349.951640,-10202.995566
815.473167,1416.550979,-2201.396792,6087.340694
815.475538,-1818.545176,-382.851616,-21899.112435
815.477910,669.990328,-421.136778,-12710.673651
815.480282,918.843878,631.705166,4249.652938
815.482653,803.988394,-1091.127106,-14452.648504
815.485025,-2220.539373,-153.140646,-17534.604013
815.487397,1627.119368,-2201.396792,3369.094221
815.489768,899.701298,-3311.666478,-12519.247843
815.492140,-2660.818731,-1531.406464,-19066.010477
815.494512,6029.912952,-4747.360038,2201.396792
815.496884,-4957.928427,2565.105827,-9073.583299
815.499255,-1397.408398,803.988394,-19468.004674
815.501627,3196.810994,-1359.123237,-6355.336826
815.503999,-1646.261949,2182.254211,-765.703232
815.506370,-2967.100024,-267.996131,-21209.979526
815.508742,2967.100024,-3158.525832,-3483.949706
815.511114,708.275490,-1684.547110,-1895.115499
815.513485,-3943.371645,363.709035,-23200.807930
815.515857,3790.230998,-2967.100024,-7197.610381
815.518229,1110.269686,-210.568389,-1531.406464
815.520600,-7197.610381,5149.354235,-9609.575562
815.522972,4460.221326,-6719.045861,-20827.127910
815.525344,-2852.244539,1607.976787,-3866.801322
815.527716,-1971.685822,1569.691626,-3809.373579
815.530087,4134.797453,-4785.645200,-21535.403400
815.532459,-4479.363907,2584.248408,2928.814862
815.534831,3694.518094,-3483.949706,-12480.962682
815.537202,-344.566454,-2029.113565,-13629.517530
815.539574,-1646.261949,401.994197,-4230.510357
815.541946,1722.832272,-2450.250342,-11906.685258
815.544317,-3043.670347,1205.982590,-12940.384621
815.546689,2890.529701,-2852.244539,-1856.830338
815.549061,-1091.127106,95.712904,-13801.800757
815.551433,2603.390989,-2737.389054,-11696.116869
815.553804,746.560651,-1722.832272,-765.703232
815.556176,-6278.766502,3101.098090,-16558.332392
815.558548,5513.063270,-5130.211654,-9743.573627
815.560919,-3732.803256,689.132909,-3024.527766
815.563345,-229.710970,-937.986459,-12270.394293
815.565771,2947.957443,-3311.666478,-11887.542677
815.568197,-2928.814862,1895.115499,-631.705166
815.570623,1110.269686,-1531.406464,-17898.313048
815.573048,-861.416136,248.853550,-10700.702667
815.575474,-612.562586,880.558717,-2794.816797
815.577900,-229.710970,-1837.687757,-22396.819536
815.580326,-1129.412267,-746.560651,-4153.940034
815.582752,7293.323285,-6336.194245,-3120.240670
815.585177,-16271.193680,10892.128475,-30034.709275
815.587603,12308.679454,-7197.610381,4498.506488
815.590029,-1741.974853,-842.273555,-12959.527202
815.592455,-5781.059402,3809.373579,-14778.072378
815.594881,7350.751027,-6470.192310,-8824.729749
815.597306,-4823.930362,2067.398726,-363.709035
815.599732,2431.107762,-3445.664544,-25325.634398
815.602158,-229.710970,191.425808,-1895.115499
815.604584,-727.418070,1110.269686,-5589.633594
815.607010,1129.412267,-2928.814862,-19372.291770
815.609435,-478.564520,-191.425808,-4402.793584
815.611861,2009.970984,-1952.543242,-9954.142016
815.614287,-3751.945837,1378.265818,-19314.864027
815.616713,3139.383251,-3464.807125,957.129040
815.619139,1799.402595,-4249.652938,-10604.989763
815.621564,-4709.074877,229.710970,-16788.043362
815.623990,4517.649069,-2986.242605,-57.427742
815.626416,-133.998066,-95.712904,-13055.240106
815.628842,-880.558717,574.277424,-13189.238171
815.631268,1741.974853,-727.418070,-2163.111630
815.633693,-1205.982590,248.853550,-13782.658176
815.636119,-478.564520,-1569.691626,-11160.124606
815.638545,2316.252277,-2526.820666,-4862.215523
815.640999,-2507.678085,-114.855485,-12959.527202
815.643454,191.425808,-612.562586,-11160.124606
815.645908,248.853550,-880.558717,-8575.876198
815.648362,-899.701298,-1531.406464,-11389.835576
815.650817,-2258.824534,325.423874,-9073.583299
815.653271,3292.523898,-2124.826469,-9475.577496
815.655725,-2833.101958,2220.539373,-8824.729749
815.658179,1148.554848,-650.847747,-12021.540742
815.660634,880.558717,-1722.832272,-8556.733618
815.663088,-2392.822600,669.990328,-8461.020714
815.665542,-191.425808,-344.566454,-11983.255581
815.667996,2182.254211,-2431.107762,-5953.342629
815.670451,-2565.105827,631.705166,-9915.856854
815.672905,593.420005,-1703.689691,-12729.816232
815.675359,-0.000000,-842.273555,-5608.776174
815.677814,-555.134843,-1684.547110,-7503.891674
815.680268,-95.712904,-1493.121302,-18798.014346
815.682722,1646.261949,210.568389,-2641.676150
815.685176,-1205.982590,2584.248408,-12959.527202
815.687631,899.701298,2699.103893,-14471.791085
815.690085,-0.000000,5781.059402,-1588.834206
815.692539,-325.423874,5991.627790,-14242.080115
815.694994,-38.285162,880.558717,-12002.398162
815.697448,631.705166,-574.277424,-1665.404530
815.699902,-1780.260014,4039.084549,-17668.602078
815.702356,727.418070,-1263.410333,-9820.143950
815.704811,-95.712904,-440.279358,-3713.660675
815.707265,-133.998066,2124.826469,-13610.374949
815.709719,-19.142581,3924.229064,-12251.251712
815.712174,287.138712,3598.805190,-4670.789715
815.714628,-401.994197,3311.666478,-11887.542677
815.717082,-38.285162,2909.672282,-12825.529136
815.719536,248.853550,3349.951640,-5666.203917
815.721991,-267.996131,976.271621,-13399.806560
815.724445,-210.568389,-229.710970,-11045.269122
815.726899,344.566454,-133.998066,-5015.356170
815.729354,-574.277424,401.994197,-13897.513661
815.731808,-0.000000,976.271621,-9552.147819
815.734262,-38.285162,-114.855485,-6661.618118
815.736716,-57.427742,-708.275490,-13170.095590
815.739196,-421.136778,-210.568389,-9456.434915
815.741675,593.420005,2450.250342,-7791.030386
815.744155,95.712904,5723.631659,-11351.550414
815.746634,-440.279358,10834.700733,-11026.126541
815.749114,1416.550979,8193.024582,-4728.217458
815.751593,-1282.552914,6431.907149,-11964.113000
815.754073,-306.281293,2239.681954,-12863.814298
815.756552,114.855485,-4670.789715,-3924.229064
815.759031,-631.705166,-6278.766502,-11198.409768
815.761511,-765.703232,-1971.685822,-11562.118803
815.763990,1990.828403,210.568389,-8039.883936
815.766470,-1071.984525,8193.024582,-9303.294269
815.768949,57.427742,8939.585234,-13189.238171
815.771429,95.712904,5972.485210,-4536.791650
815.773908,401.994197,4996.213589,-11179.267187
815.776388,-612.562586,2201.396792,-12768.101394
815.778867,363.709035,-3751.945837,-5934.200048
815.781347,-459.421939,-5838.487144,-10796.415571
815.783826,976.271621,-5072.783912,-9169.296203
815.786305,-1569.691626,-2335.394858,-15007.783347
815.788785,-1856.830338,1263.410333,-5034.498750
815.791264,2526.820666,976.271621,-10872.985894
815.793744,-4211.367776,6240.481341,-11274.980091
815.796223,4479.363907,-1359.123237,-8824.729749
815.798703,-3043.670347,1493.121302,-7886.743290
815.801182,631.705166,-3158.525832,-11179.267187
815.803662,-76.570323,-4326.223261,-10662.417506
815.806141,-1397.408398,-3349.951640,-6814.758765
815.808620,1397.408398,-3866.801322,-12614.960747
815.811100,-1205.982590,114.855485,-9054.440718
815.813579,1052.841944,1071.984525,-7829.315547
815.816059,1244.267752,1971.685822,-10604.989763
815.818538,-3369.094221,4843.072942,-9016.155557
815.821018,2086.541307,-1282.552914,-9762.716208
815.823497,1397.408398,-4823.930362,-6106.483275
815.825977,-2947.957443,-3866.801322,-12423.534939
815.828456,727.418070,-4804.787781,-10643.274925
815.830936,-287.138712,-1818.545176,-7331.608446
815.833415,574.277424,-918.843878,-12040.683323
815.835894,-708.275490,1856.830338,-9245.866526
815.838389,114.855485,2699.103893,-6336.194245
815.840884,689.132909,612.562586,-12863.814298
815.843378,-708.275490,-153.140646,-9169.296203
815.845873,2545.963246,-2699.103893,-9150.153622
815.848368,-4402.793584,-1205.982590,-9169.296203
815.850862,363.709035,-4134.797453,-17764.314982
815.853357,191.425808,-2871.387120,-1454.836141
815.855851,114.855485,-478.564520,-11753.544611
815.858346,-1186.840010,765.703232,-14624.931731
815.860841,-325.423874,3005.385186,-3885.943902
815.863335,1282.552914,784.845813,-8709.874264
815.865830,-1148.554848,669.990328,-16558.332392
815.868325,-191.425808,-1110.269686,-4077.369710
815.870819,708.275490,-3005.385186,-10432.706536
815.873314,-1186.840010,-3349.951640,-13878.371080
815.875808,1454.836141,-1914.258080,-5857.629725
815.878303,-2545.963246,344.566454,-9590.432981
815.880798,-4632.504554,2833.101958,-15371.492382
815.883292,13189.238171,-9418.149754,-7427.321350
815.885787,-9207.581365,6891.329088,5034.498750
815.888282,1512.263883,-1052.841944,-26895.326024
815.890776,4039.084549,-3273.381317,-5838.487144
815.893271,-5130.211654,2469.392923,2392.822600
815.895765,2354.537438,-4977.071008,-23296.520834
815.898260,-593.420005,-1244.267752,-7369.893608
815.900755,-1493.121302,-880.558717,-95.712904
815.903249,1646.261949,-3809.373579,-17630.316917
815.905744,-2756.531635,1665.404530,-6757.331022
815.908239,2124.826469,-574.277424,-4096.512291
815.910733,-4000.799387,1990.828403,-17840.885306
815.913228,6183.053598,-4747.360038,-8116.454259
815.915722,-2124.826469,153.140646,-803.988394
815.918217,-2105.683888,-535.992262,-20999.411138
815.920712,3330.809059,-4421.936165,-8901.300072
815.923206,-3656.232933,1607.976787,-229.710970
815.925701,1110.269686,-2316.252277,-18300.307245
815.928195,57.427742,-57.427742,-10164.710405
815.930690,-2086.541307,1837.687757,-2182.254211
815.933185,1646.261949,-880.558717,-15696.916256
815.935679,-1837.687757,267.996131,-12021.540742
815.938183,6680.760699,-5206.781978,5149.354235
815.940688,-5876.772306,-2584.248408,-28503.302811
815.943192,-746.560651,325.423874,-6068.198114
815.945696,-2258.824534,3598.805190,7235.895542
815.948200,-708.275490,2182.254211,-29556.144755
815.950704,2909.672282,-3637.090352,-6087.340694
815.953208,-2679.961312,-1301.695494,-3943.371645
815.955712,-1014.556782,-2986.242605,-15735.201418
815.958216,3235.096155,-4862.215523,-10643.274925
815.960720,-4555.934230,1148.554848,-2086.541307
815.963225,2009.970984,-1933.400661,-8327.022648
815.965729,842.273555,-1339.980656,-14739.787216
815.968233,-3177.668413,3043.670347,-19.142581
815.970737,1110.269686,-1780.260014,-15716.058837
815.973241,842.273555,-1148.554848,-13227.523333
815.975745,1818.545176,-1818.545176,2086.541307
815.978249,-5800.201982,306.281293,-22588.245344
815.980753,2756.531635,-2335.394858,-3024.527766
815.983258,478.564520,-1014.556782,-5972.485210
815.985762,-3139.383251,1454.836141,-20310.278229
815.988266,3158.525832,-2469.392923,-7350.751027
815.990770,-2048.256146,1473.978722,-516.849682
815.993274,478.564520,-2392.822600,-21745.971789
815.995778,210.568389,-306.281293,-7484.749093
815.998282,-612.562586,-153.140646,1071.984525
816.000786,-3235.096155,-689.132909,-21784.256950
816.003290,5187.639397,-4957.928427,-9571.290400
816.005795,-4460.221326,4326.223261,3062.812928
816.008299,2986.242605,-3235.096155,-24119.651808
816.010803,-1799.402595,1359.123237,-8614.161360
816.013307,1091.127106,-440.279358,2986.242605
816.015811,-2411.965181,-727.418070,-23679.372450
816.018315,1071.984525,-1895.115499,-3675.375514
816.020819,612.562586,-2239.681954,-3828.516160
816.023323,-1761.117434,-1052.841944,-19276.578866
816.025827,1205.982590,-1186.840010,-6565.905214
816.028332,2641.676150,-2354.537438,708.275490
816.030836,-7216.752962,1186.840010,-23870.798258
816.033340,6355.336826,-4689.932296,-7791.030386
816.035844,-3101.098090,2392.822600,5245.067139
816.038262,535.992262,-1129.412267,-24808.784717
816.040680,229.710970,-708.275490,-3158.525832
816.043098,-823.130974,-76.570323,-1091.127106
816.045516,-19.142581,-2775.674216,-21037.696299
816.047934,-593.420005,-1263.410333,-9169.296203
816.050352,535.992262,-1454.836141,995.414202
816.052770,-2392.822600,-823.130974,-20214.565325
816.055188,669.990328,-459.421939,-2603.390989
816.057606,2354.537438,-38.285162,-7829.315547
816.060025,-7331.608446,2699.103893,-19046.867896
816.062443,5991.627790,-4555.934230,-6757.331022
816.064861,-2201.396792,248.853550,-995.414202
816.067279,-1339.980656,-803.988394,-22281.964051
816.069697,1205.982590,-1856.830338,-2718.246474
816.072115,-2392.822600,1895.115499,-5991.627790
816.074533,1454.836141,-2258.824534,-19602.002739
816.076951,-1703.689691,1895.115499,-5015.356170
816.079369,1875.972918,-2048.256146,-4364.508422
816.081787,-1435.693560,-1320.838075,-20750.557587
816.084205,497.707101,-1588.834206,-3885.943902
816.086623,1110.269686,-1454.836141,-3617.947771
816.089041,-3771.088418,191.425808,-16998.611750
816.091459,1454.836141,-1588.834206,-5053.641331
816.093877,2335.394858,-2871.387120,-7255.038123
816.096295,-4077.369710,1952.543242,-16424.334326
816.098714,4364.508422,-3483.949706,-4938.785846
816.101132,-3541.377448,2124.826469,-8403.592971
816.103550,2545.963246,-3120.240670,-13495.519464
816.105968,-2431.107762,574.277424,-8690.731683
816.108386,880.558717,-1416.550979,-4766.502619
816.110804,1244.267752,-3981.656806,-15792.629160
816.113222,-2277.967115,76.570323,-8671.589102
816.115640,1856.830338,-2239.681954,-5245.067139
816.118058,38.285162,-325.423874,-16271.193680
816.120476,-6374.479406,2526.820666,-5321.637462
816.122894,5493.920690,-5264.209720,-12385.249778
816.125312,-6336.194245,3981.656806,-7963.313613
816.127730,5283.352301,-3273.381317,-12366.107197
816.130148,-3215.953574,1761.117434,-8154.739421
816.132566,172.283227,95.712904,-11638.689126
816.135019,746.560651,-1780.260014,-10911.271056
816.137471,-1914.258080,1033.699363,-3196.810994
816.139923,2411.965181,-4268.795518,-16098.910453
816.142375,-2852.244539,861.416136,-6374.479406
816.144828,2124.826469,-2603.390989,-8059.026517
816.147280,612.562586,-689.132909,-14356.935600
816.149732,-3120.240670,1837.687757,-6814.758765
816.152184,2335.394858,-1378.265818,-11179.267187
816.154636,-669.990328,-1378.265818,-9667.003304
816.157089,-3043.670347,631.705166,-9169.296203
816.159541,2469.392923,-2622.533570,-10298.708470
816.161993,-3847.658741,2947.957443,-7982.456194
816.164445,4000.799387,-3713.660675,-12882.956878
816.166898,-3981.656806,2354.537438,-9322.436850
816.169350,2947.957443,-3809.373579,-3866.801322
816.171802,38.285162,-4019.941968,-15275.779478
816.174254,-1359.123237,-1761.117434,-7006.184573
816.176707,2756.531635,-3349.951640,-5493.920690
816.179159,3560.520029,-3483.949706,-7944.171032
816.181611,-4938.785846,1933.400661,-14088.939469
816.184063,1512.263883,-689.132909,-11370.692995
816.186515,-4498.506488,3771.088418,-1225.125171
816.188968,5321.637462,-2852.244539,-21860.827274
816.191420,-4862.215523,3694.518094,-4479.363907
816.193872,2297.109696,-1818.545176,-6144.768437
816.196324,-3694.518094,-478.564520,-16041.482710
816.198777,1799.402595,-3273.381317,-401.994197
816.201229,172.283227,-3732.803256,-15964.912387
816.203681,-1952.543242,861.416136,-12442.677520
816.206133,2143.969050,-669.990328,-2450.250342
816.208586,19.142581,1952.543242,-14586.646570
816.211038,-3732.803256,2526.820666,-9150.153622
816.213490,3981.656806,-2335.394858,-6853.043926
816.215942,-2679.961312,-1588.834206,-7829.315547
816.218394,3790.230998,-5015.356170,-19123.438219
816.220847,-4268.795518,1799.402595,363.709035
816.223299,3081.955509,-2316.252277,-13361.521398
816.225751,-2143.969050,842.273555,-14471.791085
816.228203,803.988394,1129.412267,-957.129040
816.230656,1952.543242,-2813.959378,-11964.113000
816.233054,-1301.695494,-746.560651,-9131.011042
816.235450,1416.550979,-2928.814862,-3426.521963
816.237847,1416.550979,-2488.535504,-15984.054968
816.240243,-3656.232933,363.709035,-7274.180704
816.242640,3196.810994,-3101.098090,-7484.749093
816.245036,-1646.261949,95.712904,-10968.698798
816.247433,1033.699363,-1320.838075,-12576.675586
816.249829,459.421939,-114.855485,-4058.227130
816.252226,-1339.980656,-153.140646,-13916.656242
816.254622,784.845813,-1416.550979,-10164.710405
816.257019,-1665.404530,19.142581,-6987.041992
816.259415,1971.685822,-3445.664544,-11485.548480
816.261812,-1359.123237,-1493.121302,-12442.677520
816.264208,-669.990328,114.855485,-6106.483275
816.266605,2526.820666,-2220.539373,-7695.317482
816.269001,-5781.059402,3866.801322,-11313.265253
816.271398,2258.824534,-1129.412267,-5493.920690
816.273794,937.986459,-1397.408398,-12768.101394
816.276191,-3292.523898,1359.123237,-9820.143950
816.278587,2775.674216,-2718.246474,-5953.342629
816.280984,-2794.816797,229.710970,-12040.683323
816.283380,210.568389,-1129.412267,-10509.276859
816.285777,-363.709035,-306.281293,-8288.737486
816.288173,248.853550,-210.568389,-6489.334891
816.290570,976.271621,-2201.396792,-15409.777544
816.292966,-3254.238736,1186.840010,-7561.319416
816.295363,2699.103893,-3483.949706,-4900.500685
816.297759,4938.785846,-4421.936165,-16386.049165
816.300156,-9647.860723,4843.072942,2526.820666
816.302552,7867.600709,-7580.461997,-21305.692430
816.304949,-5991.627790,3962.514226,-1014.556782
816.307345,2239.681954,-1359.123237,-10700.702667
816.309742,899.701298,-1435.693560,-14261.222696
816.312138,-2813.959378,2029.113565,-2124.826469
816.314535,2756.531635,-3311.666478,-15620.345933
816.316931,-344.566454,-1244.267752,-4575.076811
816.319328,1627.119368,-4613.361973,-12940.384621
816.321724,-2756.531635,-1607.976787,-10987.841379
816.324121,1320.838075,-2373.680019,-6068.198114
816.326518,3483.949706,-3675.375514,-13859.228499
816.328956,-8059.026517,6872.186507,-12595.818166
816.331395,6049.055533,-1091.127106,-6585.047795
816.333834,-2373.680019,3330.809059,-8863.014910
816.336273,-1339.980656,0.000000,-14605.789150
816.338712,1799.402595,-2622.533570,-4900.500685
816.341151,-2967.100024,-1129.412267,-12232.109131
816.343590,1282.552914,-3311.666478,-14720.644635
816.346029,57.427742,-1588.834206,-631.705166
816.348468,-2009.970984,1895.115499,-17075.182074
816.350906,1607.976787,-689.132909,-8384.450390
816.353345,-287.138712,2354.537438,-3522.234867
816.355784,-3235.096155,957.129040,-17209.180139
816.358223,3790.230998,-3139.383251,-8671.589102
816.360662,-631.705166,-1301.695494,-1895.115499
816.363101,-669.990328,-2622.533570,-17496.318851
816.365540,574.277424,-2852.244539,-8633.303941
816.367979,-267.996131,-1473.978722,-1895.115499
816.370418,1110.269686,-5072.783912,-16175.480776
816.372856,-1435.693560,-3675.375514,-9379.864592
816.375295,1550.549045,-4651.647134,-6317.051664
816.377734,-1607.976787,-3694.518094,-17362.320786
816.380173,421.136778,-3369.094221,-6221.338760
816.382612,-650.847747,-4307.080680,-6202.196179
816.385051,1225.125171,-3809.373579,-13495.519464
816.387490,-267.996131,-1282.552914,-6374.479406
816.389929,-516.849682,-4938.785846,-8958.727814
816.392368,-842.273555,-7235.895542,-14127.224630
816.394806,842.273555,-5953.342629,-5302.494882
816.397245,-535.992262,-3617.947771,-9820.143950
816.399684,-516.849682,-3369.094221,-12921.242040
816.402123,708.275490,-1167.697429,-5168.496816
816.404562,-555.134843,248.853550,-9494.720077
816.407001,-57.427742,-2756.531635,-14567.503989
816.409440,-574.277424,-5130.211654,-4460.221326
816.411879,555.134843,-7944.171032,-11485.548480
816.414318,421.136778,-2660.818731,-13074.382686
816.416756,-1320.838075,1091.127106,-3828.516160
816.419195,689.132909,-1244.267752,-11542.976222
816.421634,-0.000000,-2679.961312,-12346.964616
816.424073,-114.855485,-3790.230998,-3809.373579
816.426543,-95.712904,-6853.043926,-13725.230434
816.429013,-133.998066,-9801.001370,-9877.571693
816.431484,-708.275490,-8480.163294,-6814.758765
816.433954,535.992262,-8384.450390,-12327.822035
816.436424,823.130974,-5608.776174,-7140.182638
816.438894,-669.990328,4268.795518,-13552.947206
816.441364,-631.705166,4039.084549,-5838.487144
816.443835,363.709035,-1684.547110,-9820.143950
816.446305,114.855485,-6393.621987,-8671.589102
816.448775,-440.279358,-7905.885870,-10643.274925
816.451245,-248.853550,-8863.014910,-11179.267187
816.453715,382.851616,-10107.282662,-5953.342629
816.456185,-76.570323,-4173.082614,-10451.849117
816.458656,-344.566454,2201.396792,-11696.116869
816.461126,-765.703232,2699.103893,-9245.866526
816.463596,401.994197,-516.849682,-7791.030386
816.466066,-76.570323,-957.129040,-10662.417506
816.468536,210.568389,-2718.246474,-11810.972354
816.471007,-401.994197,-3790.230998,-5359.922624
816.473477,2239.681954,-6891.329088,-10030.712339
816.475947,-3235.096155,2182.254211,-15467.205286
816.478417,3254.238736,-1091.127106,-4670.789715
816.480887,-2009.970984,669.990328,-11485.548480
816.483358,1359.123237,-440.279358,-7733.602643
816.485828,-1320.838075,-210.568389,-11619.546546
816.488298,1914.258080,-2737.389054,-10356.136213
816.490768,-1588.834206,-1895.115499,-8135.596840
816.493238,823.130974,-4345.365842,-11906.685258
816.495708,-248.853550,-1971.685822,-9954.142016
816.498179,-593.420005,-421.136778,-9054.440718
816.500649,516.849682,-421.136778,-10872.985894
816.503119,-2565.105827,1435.693560,-5895.914886
816.505589,229.710970,-1665.404530,-14548.361408
816.508059,3905.086483,-2507.678085,-5072.783912
816.510530,-6719.045861,4823.930362,-9647.860723
816.513000,3924.229064,-2641.676150,-12902.099459
816.515470,-191.425808,-823.130974,-9169.296203
816.517940,-3349.951640,1167.697429,-7255.038123
816.520410,2354.537438,-4326.223261,-16634.902715
816.522880,-2277.967115,2086.541307,-5819.344563
816.525306,-2641.676150,3062.812928,-3694.518094
816.527732,937.986459,-1990.828403,-22281.964051
816.530157,-1129.412267,248.853550,-325.423874
816.532583,765.703232,-1990.828403,-8403.592971
816.535008,-746.560651,-2775.674216,-18606.588538
816.537434,4307.080680,-4996.213589,957.129040
816.539860,-2928.814862,2182.254211,-14203.794954
816.542285,-4613.361973,4689.932296,-15122.638832
816.544711,6527.620053,-4689.932296,-3560.520029
816.547136,-1952.543242,0.000000,-5627.918755
816.549562,-1512.263883,-2067.398726,-21229.122107
816.551988,2584.248408,-3043.670347,-899.701298
816.554413,-1665.404530,-899.701298,-8231.309744
816.556839,689.132909,-3349.951640,-17304.893043
816.559264,172.283227,-1722.832272,1052.841944
816.561690,1052.841944,-1856.830338,-14854.642701
816.564116,-7025.327154,5091.926493,-12902.099459
816.566541,5398.207786,-4900.500685,-2067.398726
816.568967,4441.078746,-6297.909083,-11753.544611
816.571392,-7829.315547,3828.516160,-15467.205286
816.573818,7637.889739,-4421.936165,-3235.096155
816.576244,-3158.525832,2756.531635,-7293.323285
816.578669,-4421.936165,3388.236802,-16290.336261
816.581095,5283.352301,-4364.508422,-9226.723946
816.583520,-4747.360038,1665.404530,-6967.899411
816.585946,1378.265818,-2756.531635,-12174.681389
816.588371,459.421939,-2239.681954,-11581.261384
816.590797,-1607.976787,363.709035,-3369.094221
816.593223,-2163.111630,1914.258080,-14031.511726
816.595648,937.986459,-899.701298,-6738.188442
816.598074,1339.980656,-2316.252277,-9475.577496
816.600499,-3292.523898,1205.982590,-15103.496251
816.602925,2009.970984,-1493.121302,-5264.209720
816.605351,-937.986459,76.570323,-8078.169098
816.607776,-153.140646,-918.843878,-15582.060771
816.610202,669.990328,-1493.121302,-2833.101958
816.612627,-669.990328,-784.845813,-11408.978157
816.615053,-57.427742,-2277.967115,-9628.718142
816.617479,2756.531635,-3196.810994,-8480.163294
816.619904,-3885.943902,1531.406464,-9609.575562
816.622367,1741.974853,-344.566454,-10088.140082
816.624829,19.142581,-593.420005,-9705.288466
816.627291,76.570323,-1225.125171,-11083.554283
816.629754,133.998066,-2928.814862,-9169.296203
816.632216,-497.707101,-2201.396792,-10777.272990
816.634678,765.703232,-2794.816797,-6948.756830
816.637141,-727.418070,-650.847747,-12634.103328
816.639603,555.134843,-153.140646,-7255.038123
816.642065,-574.277424,1033.699363,-9418.149754
816.644528,-382.851616,-95.712904,-11504.691061
816.646990,2526.820666,-2813.959378,-7905.885870
816.649452,-4804.787781,1512.263883,-12289.536874
816.651915,1531.406464,-1569.691626,-9801.001370
816.654377,689.132909,-1033.699363,-12500.105262
816.656839,-2182.254211,1416.550979,-6183.053598
816.659302,4153.940034,-3407.379382,-14203.794954
816.661764,-3177.668413,2507.678085,-9092.725880
816.664226,1895.115499,-1110.269686,-5761.916821
816.666689,-861.416136,-2009.970984,-18434.305310
816.669151,-1895.115499,-574.277424,-4096.512291
816.671613,2737.389054,-4153.940034,-8575.876198
816.674076,-3043.670347,210.568389,-16156.338195
816.676538,2928.814862,-2890.529701,-4498.506488
816.679000,-1971.685822,1741.974853,-7848.458128
816.681463,-1014.556782,1167.697429,-17630.316917
816.683925,2431.107762,1225.125171,133.998066
816.686387,-1359.123237,-133.998066,-10375.278794
816.688850,1914.258080,-4268.795518,-19506.289835
816.691312,-1071.984525,-1952.543242,1033.699363
816.693774,133.998066,-2794.816797,-11408.978157
816.696237,38.285162,-3330.809059,-15275.779478
816.698699,-937.986459,-172.283227,-3675.375514
816.701161,440.279358,-1301.695494,-15141.781413
816.703624,-1320.838075,1263.410333,-11332.407834
816.706086,1205.982590,-612.562586,-2871.387120
816.708548,593.420005,-1684.547110,-16156.338195
816.711011,842.273555,-2316.252277,-7044.469734
816.713473,-2852.244539,3024.527766,-7867.600709
816.715935,1339.980656,-2009.970984,-13265.808494
816.718398,57.427742,-2660.818731,-7752.745224
816.720887,-1607.976787,-95.712904,-8135.596840
816.723377,899.701298,-2584.248408,-15716.058837
816.725867,-1550.549045,842.273555,-4077.369710
816.728357,440.279358,-497.707101,-13476.376883
816.730847,-401.994197,1205.982590,-10164.710405
816.733336,-650.847747,306.281293,-5915.057467
816.735826,2392.822600,-1531.406464,-13993.226565
816.738316,-2105.683888,957.129040,-3024.527766
816.740806,1741.974853,-3369.094221,-14012.369146
816.743296,-2871.387120,1722.832272,-11600.403965
816.745785,-95.712904,191.425808,-5034.498750
816.748275,3445.664544,-4479.363907,-10681.560086
816.750765,-4785.645200,1569.691626,-11906.685258
816.753255,3924.229064,-3924.229064,-6163.911018
816.755745,-1225.125171,-287.138712,-9647.860723
816.758234,-612.562586,-1225.125171,-13878.371080
816.760724,306.281293,-1569.691626,-918.843878
816.763214,-1244.267752,-689.132909,-18912.869830
816.765704,1818.545176,-1741.974853,-6508.477472
816.768194,-727.418070,497.707101,-4823.930362
816.770683,535.992262,-1665.404530,-16347.764003
816.773173,803.988394,-2488.535504,-1263.410333
816.775663,-4077.369710,2182.254211,-15237.494317
816.778153,3924.229064,-3292.523898,-9226.723946
816.780643,-1014.556782,-842.273555,-5283.352301
816.783132,-1799.402595,-153.140646,-11600.403965
816.785622,1761.117434,-3120.240670,-12404.392358
816.788112,-5149.354235,1378.265818,38.285162
816.790602,2373.680019,-4230.510357,-22147.965986
816.793092,2584.248408,-650.847747,-8097.311678
816.795581,-3828.516160,4709.074877,3579.662610
816.798071,2182.254211,-1071.984525,-23468.804061
816.800561,-669.990328,535.992262,-7944.171032
816.803051,497.707101,-1282.552914,1493.121302
816.805541,-555.134843,-2182.254211,-24961.925363
816.808030,-2928.814862,1416.550979,-6661.618118
816.810520,3215.953574,-4000.799387,-6489.334891
816.813010,-4766.502619,631.705166,-22760.528571
816.815500,823.130974,-1052.841944,-2469.392923
816.817990,2086.541307,-995.414202,-5513.063270
816.820501,-1473.978722,631.705166,-17247.465301
816.823013,-459.421939,459.421939,-6604.190376
816.825524,1531.406464,-1493.121302,-5111.069074
816.828036,-2469.392923,-555.134843,-14452.648504
816.830547,1435.693560,-2928.814862,-9628.718142
816.833059,1473.978722,-3254.238736,-5130.211654
816.835570,-1435.693560,-535.992262,-10662.417506
816.838082,-3177.668413,1301.695494,-16232.908518
816.840593,5800.201982,-4345.365842,1703.689691
816.843105,-2411.965181,0.000000,-14108.082050
816.845616,-2182.254211,803.988394,-13782.658176
816.848128,2794.816797,-2182.254211,-1205.982590
816.850639,-2699.103893,133.998066,-14567.503989
816.853151,497.707101,-957.129040,-11810.972354
816.855662,1339.980656,-1837.687757,-4211.367776
816.858174,-3273.381317,516.849682,-9092.725880
816.860685,1244.267752,-3120.240670,-16252.051099
816.863197,2182.254211,-2182.254211,-2431.107762
816.865708,-3005.385186,1799.402595,-8709.874264
816.868220,-2258.824534,1071.984525,-22033.110501
816.870731,5800.201982,-2488.535504,153.140646
816.873243,-1512.263883,1014.556782,-11428.120738
816.875754,-5532.205851,3866.801322,-7829.315547
816.878266,5015.356170,-7274.180704,-16902.898846
816.880777,-4709.074877,478.564520,-5015.356170
816.883289,3101.098090,-3732.803256,-10241.280728
816.885800,-918.843878,-19.142581,-15256.636898
816.888312,-899.701298,1761.117434,-2163.111630
816.890823,1607.976787,-1091.127106,-12806.386555
816.893335,-1971.685822,995.414202,-10604.989763
816.895846,2871.387120,-2967.100024,-5953.342629
816.898358,-1282.552914,-861.416136,-9743.573627
816.900869,555.134843,-1569.691626,-14567.503989
816.903381,19.142581,-2316.252277,-2411.965181
816.905892,-1933.400661,-421.136778,-9954.142016
816.908404,1627.119368,-3349.951640,-18376.877568
816.910915,-1301.695494,708.275490,2507.678085
816.913427,918.843878,-1550.549045,-15237.494317
816.915938,-1110.269686,76.570323,-10681.560086
816.918450,325.423874,-287.138712,-4230.510357
816.920976,-1569.691626,-765.703232,-14950.355605
816.923503,918.843878,-1244.267752,-10738.987829
816.926030,1263.410333,-2124.826469,-2641.676150
816.928557,574.277424,-1875.972918,-14222.937534
816.931084,-4709.074877,2833.101958,-13552.947206
816.933611,4613.361973,-2297.109696,3196.810994
816.936138,-2909.672282,708.275490,-20788.842749
816.938665,-708.275490,401.994197,-9609.575562
816.941192,2584.248408,-2545.963246,-1148.554848
816.943719,-2890.529701,95.712904,-17228.322720
816.946246,612.562586,-2067.398726,-10068.997501
816.948773,2354.537438,-1761.117434,-2813.959378
816.951300,-2507.678085,2431.107762,-14031.511726
816.953826,1014.556782,478.564520,-12653.245909
816.956353,57.427742,-842.273555,-1110.269686
816.958880,2105.683888,-4498.506488,-17687.744659
816.961407,-2928.814862,-2545.963246,-9820.143950
816.963934,-229.710970,-2067.398726,-4000.799387
816.966461,2641.676150,-4230.510357,-15543.775610
816.968988,-3924.229064,2048.256146,-6278.766502
816.971515,3215.953574,-1875.972918,-9839.286531
816.974042,-1148.554848,1895.115499,-9226.723946
816.976569,-382.851616,1091.127106,-12251.251712
816.979096,3139.383251,-2067.398726,-7121.040058
816.981623,-3407.379382,-19.142581,-9973.284597
816.984149,-133.998066,-2584.248408,-8059.026517
816.986676,861.416136,-3445.664544,-14031.511726
816.989203,-3081.955509,1110.269686,-7982.456194
816.991730,3828.516160,-3905.086483,-5761.916821
816.994257,-2277.967115,-210.568389,-14280.365277
816.996784,1493.121302,-1014.556782,-5436.492947
816.999311,-210.568389,-401.994197,-10202.995566
817.001838,-1397.408398,880.558717,-10490.134278
817.004365,1627.119368,-1148.554848,-8614.161360
817.006892,-2641.676150,1014.556782,-9801.001370
817.009419,1646.261949,-2526.820666,-11676.974288
817.011946,-1914.258080,-363.709035,-8269.594906
817.014472,1071.984525,-1799.402595,-10049.854920
817.016999,-1397.408398,-555.134843,-11581.261384
817.019526,-1148.554848,842.273555,-10451.849117
817.022065,4747.360038,-3637.090352,-7867.600709
817.024604,-3771.088418,995.414202,-10528.419440
817.027143,2277.967115,-1856.830338,-10585.847182
817.029682,-210.568389,-1186.840010,-7848.458128
817.032221,57.427742,669.990328,-11274.980091
817.034760,1550.549045,-4192.225195,-14452.648504
817.037299,-497.707101,-2009.970984,-2603.390989
817.039838,-1129.412267,-1933.400661,-14701.502054
817.042377,-976.271621,57.427742,-10126.425243
817.044916,1282.552914,-1550.549045,-4039.084549
817.047455,-746.560651,76.570323,-15333.207221
817.049993,1301.695494,-1493.121302,-11179.267187
817.052532,-2354.537438,1895.115499,-1148.554848
817.055071,3215.953574,-3081.955509,-16366.906584
817.057610,-2794.816797,-363.709035,-9590.432981
817.060149,1665.404530,-1550.549045,-4843.072942
817.062688,-976.271621,535.992262,-14854.642701
817.065227,-1225.125171,3943.371645,-9801.001370
817.067766,1780.260014,3598.805190,-7676.174901
817.070305,-497.707101,5819.344563,-11676.974288
817.072844,-823.130974,3560.520029,-11351.550414
817.075383,-19.142581,3790.230998,-3254.238736
817.077922,325.423874,1569.691626,-17343.178205
817.080461,-1129.412267,-2526.820666,-7369.893608
817.083000,1454.836141,-1320.838075,-5953.342629
817.085539,-727.418070,1799.402595,-13782.658176
817.088077,-363.709035,3503.092286,-11485.548480
817.090616,784.845813,3637.090352,-5187.639397
817.093155,-1052.841944,4785.645200,-11447.263318
817.095694,363.709035,4058.227130,-13686.945272
817.098233,-76.570323,4153.940034,-3120.240670
817.100772,-19.142581,765.703232,-13093.525267
817.103311,-153.140646,-1167.697429,-11045.269122
817.105850,-95.712904,-574.277424,-5972.485210
817.108389,-421.136778,-76.570323,-14912.070443
817.110928,-172.283227,1875.972918,-8671.589102
817.113467,-287.138712,-76.570323,-6565.905214
817.116006,-287.138712,-842.273555,-13725.230434
817.118545,-172.283227,-57.427742,-9111.868461
817.121084,382.851616,2029.113565,-6910.471669
817.123631,95.712904,5321.637462,-12978.669782
817.126179,-153.140646,9590.432981,-9150.153622
817.128726,957.129040,8461.020714,-5647.061336
817.131274,-1052.841944,7542.176835,-13897.513661
817.133821,-191.425808,2373.680019,-10432.706536
817.136369,593.420005,-4632.504554,-4307.080680
817.138917,-76.570323,-3656.232933,-14318.650438
817.141464,-669.990328,-2890.529701,-10758.130410
817.144012,-401.994197,-172.283227,-7465.606512
817.146559,593.420005,5283.352301,-13552.947206
817.149107,19.142581,7657.032320,-5934.200048
817.151655,57.427742,7580.461997,-8039.883936
817.154202,19.142581,7255.038123,-15716.058837
817.156750,-918.843878,2239.681954,-5455.635528
817.159297,153.140646,-3675.375514,-8671.589102
817.161845,-363.709035,-4881.358104,-13284.951075
817.164392,-459.421939,-4039.084549,-8001.598774
817.166940,1320.838075,-4957.928427,-8805.587168
817.169488,-2852.244539,133.998066,-11332.407834
817.172035,2411.965181,440.279358,-9475.577496
817.174583,-1071.984525,3675.375514,-8690.731683
817.177130,-650.847747,1339.980656,-11332.407834
817.179678,2507.678085,-1627.119368,-10432.706536
817.182225,-2354.537438,-1378.265818,-3924.229064
817.184773,555.134843,-3905.086483,-16558.332392
817.187321,-401.994197,-3349.951640,-6278.766502
817.189868,-306.281293,-1454.836141,-7503.891674
817.192416,1607.976787,-3694.518094,-9245.866526
817.194963,-1359.123237,-440.279358,-11370.692995
817.197511,574.277424,899.701298,-6470.192310
817.200059,2220.539373,612.562586,-10834.700733
817.202606,-4000.799387,2852.244539,-10949.556218
817.205154,2641.676150,-2986.242605,-9513.862658
817.207701,-440.279358,-2545.963246,-9265.009107
817.210249,-1799.402595,-1780.260014,-10662.417506
817.212796,1550.549045,-3579.662610,-11791.829773
817.215344,-2335.394858,210.568389,-6010.770371
817.217892,1339.980656,-95.712904,-12251.251712
817.220439,-2277.967115,2813.959378,-7982.456194
817.222987,708.275490,1703.689691,-9667.003304
817.225540,-0.000000,-172.283227,-10662.417506
817.228094,-1091.127106,344.566454,-9265.009107
817.230647,2679.961312,-3407.379382,-8863.014910
817.233200,-4249.652938,-172.283227,-10394.421374
817.235754,650.847747,-3464.807125,-14529.218827
817.238307,593.420005,-1780.260014,-8709.874264
817.240860,-2450.250342,1665.404530,-6144.768437
817.243414,4115.654872,-1952.543242,-11791.829773
817.245967,-1933.400661,708.275490,-11504.691061
817.248520,-191.425808,669.990328,-3675.375514
817.251074,2507.678085,-3139.383251,-12710.673651
817.253627,-3254.238736,210.568389,-10719.845248
817.256180,2297.109696,-3598.805190,-7733.602643
817.258734,-1339.980656,-1627.119368,-11102.696864
817.261287,-3062.812928,-172.283227,-10777.272990
817.263840,5551.348432,-4536.791650,-10202.995566
817.266394,-3120.240670,2201.396792,-1454.836141
817.268947,-937.986459,669.990328,-18472.590472
817.271500,1091.127106,-401.994197,-6374.479406
817.274053,6680.760699,-5723.631659,3503.092286
817.276607,-2986.242605,-2852.244539,-25497.917626
817.279160,-6910.471669,2584.248408,-10968.698798
817.281713,6565.905214,-3847.658741,7771.887805
817.284267,-2316.252277,153.140646,-21458.833077
817.286820,-4192.225195,2431.107762,-15907.484645
817.289373,5321.637462,-2392.822600,8346.165229
817.291927,-6661.618118,3464.807125,-12117.253646
817.294480,7044.469734,-5225.924558,-17898.313048
817.297033,-2737.389054,3120.240670,13878.371080
817.299587,535.992262,-1990.828403,-23832.513096
817.302140,-133.998066,-2239.681954,-19219.151123
817.304693,-1167.697429,1014.556782,13686.945272
817.307247,2354.537438,-3005.385186,-22588.245344
817.309800,-3235.096155,401.994197,-18625.731118
817.312353,2354.537438,-1033.699363,5111.069074
817.314907,267.996131,-1473.978722,-14758.929797
817.317460,-3158.525832,1473.978722,-19142.580800
817.320013,3962.514226,-3254.238736,7618.747158
817.322567,-2392.822600,-1454.836141,-17304.893043
817.325120,1071.984525,-4364.508422,-22224.536309
817.327676,2009.970984,-1761.117434,9705.288466
817.330233,-1569.691626,823.130974,-13801.800757
817.332790,3139.383251,-3081.955509,-9781.858789
817.335346,-3158.525832,1703.689691,-19.142581
817.337903,1091.127106,-1148.554848,-17228.322720
817.340460,-172.283227,-976.271621,-9628.718142
817.343016,-555.134843,-746.560651,95.712904
817.345573,746.560651,-3120.240670,-20865.413072
817.348129,-3771.088418,861.416136,-12155.538808
817.350686,2297.109696,-248.853550,4249.652938
817.353243,3215.953574,-4651.647134,-19066.010477
817.355799,-4957.928427,497.707101,-19755.143386
817.358356,4134.797453,-3139.383251,5436.492947
817.360913,-4728.217458,4249.652938,-12653.245909
817.363469,3139.383251,-2526.820666,-22741.385990
817.366026,803.988394,95.712904,4804.787781
817.368582,-1282.552914,440.279358,-12806.386555
817.371139,-306.281293,-497.707101,-12806.386555
817.373696,-899.701298,-459.421939,7637.889739
817.376252,95.712904,-1569.691626,-21573.688562
817.378809,-1435.693560,-861.416136,-12308.679454
817.381366,957.129040,-478.564520,5168.496816
817.383922,-133.998066,-1875.972918,-17994.025952
817.386479,-2277.967115,593.420005,-15448.062706
817.389035,3579.662610,-2469.392923,2641.676150
817.391592,-2756.531635,765.703232,-15122.638832
817.394149,555.134843,-1301.695494,-15773.486579
817.396705,1493.121302,-1301.695494,2411.965181
817.399262,-2048.256146,38.285162,-12385.249778
817.401819,1665.404530,-4096.512291,-16022.340130
817.404375,-382.851616,-1071.984525,1780.260014
817.406932,401.994197,-2009.970984,-13954.941403
817.409488,-689.132909,-669.990328,-9456.434915
817.412045,861.416136,-153.140646,-363.709035
817.414602,-421.136778,-1244.267752,-17343.178205
817.417158,-344.566454,-1110.269686,-8709.874264
817.419715,2067.398726,-2584.248408,-3062.812928
817.422272,-1914.258080,-784.845813,-17955.740790
817.424828,287.138712,-803.988394,-8633.303941
817.427385,631.705166,-459.421939,-4134.797453
817.429944,-1990.828403,1033.699363,-15869.199483
817.432504,516.849682,-1091.127106,-9284.151688
817.435063,114.855485,57.427742,-4957.928427
817.437623,-1052.841944,-650.847747,-14529.218827
817.440182,2143.969050,-2967.100024,-7082.754896
817.442742,-2699.103893,-172.283227,-10547.562021
817.445301,1205.982590,-861.416136,-9590.432981
817.447861,-267.996131,1531.406464,-5666.203917
817.450420,-4153.940034,2622.533570,-12519.247843
817.452980,5934.200048,-5225.924558,-12270.394293
817.455540,-3426.521963,1225.125171,-4173.082614
817.458099,765.703232,-2967.100024,-14490.933666
817.460659,-19.142581,-1780.260014,-10049.854920
817.463218,-574.277424,-631.705166,-4709.074877
817.465778,1416.550979,-2488.535504,-15754.343998
817.468337,-1607.976787,478.564520,-7159.325219
817.470897,1971.685822,-1569.691626,-5704.489078
817.473456,-1416.550979,-861.416136,-13782.658176
817.476016,823.130974,-1684.547110,-8633.303941
817.478575,957.129040,-1052.841944,-5436.492947
817.481135,-3388.236802,191.425808,-15754.343998
817.483694,4632.504554,-4517.649069,-6987.041992
817.486254,-306.281293,-1186.840010,-6144.768437
817.488813,-2469.392923,535.992262,-15888.342064
817.491373,3675.375514,-3790.230998,-3771.088418
817.493932,-3522.234867,1416.550979,-9016.155557
817.496492,1761.117434,-2737.389054,-15103.496251
817.499051,-1320.838075,-210.568389,-6661.618118
817.501611,-421.136778,210.568389,-6297.909083
817.504170,1052.841944,-1914.258080,-16481.762069
817.506730,-1780.260014,708.275490,-5091.926493
817.509289,1359.123237,-516.849682,-9265.009107
817.511849,-2316.252277,421.136778,-15237.494317
817.514408,-803.988394,-363.709035,-765.703232
817.516968,4766.502619,-5685.346498,-14950.355605
817.519527,-7101.897477,4230.510357,-10509.276859
817.522087,5111.069074,-4268.795518,-4192.225195
817.524646,-2737.389054,248.853550,-9111.868461
817.527206,-38.285162,-1627.119368,-19161.723381
817.529766,363.709035,727.418070,-4096.512291
817.532326,-1110.269686,899.701298,-4383.651003
817.534886,248.853550,-1397.408398,-22205.393728
817.537447,-440.279358,-287.138712,631.705166
817.540007,1397.408398,-2871.387120,-11408.978157
817.542567,-344.566454,-1607.976787,-16788.043362
817.545128,-3311.666478,1684.547110,3579.662610
817.547688,4115.654872,-6585.047795,-17477.176270
817.550248,-2105.683888,-1569.691626,-15199.209155
817.552809,2584.248408,-1550.549045,4019.941968
817.555369,-1875.972918,1263.410333,-18357.734987
817.557929,1397.408398,535.992262,-3905.086483
817.560490,133.998066,95.712904,-1799.402595
817.563050,-1129.412267,-1761.117434,-19372.291770
817.565610,899.701298,-3158.525832,-6987.041992
817.568171,-421.136778,-1914.258080,-3541.377448
817.570731,-76.570323,-2967.100024,-20176.280163
817.573291,784.845813,76.570323,-6795.616184
817.575852,-3579.662610,4077.369710,-3732.803256
817.578412,555.134843,-401.994197,-17343.178205
817.580973,1473.978722,-1512.263883,-7599.604578
817.583533,-4230.510357,2431.107762,-6106.483275
817.586093,4479.363907,-5455.635528,-15658.631094
817.588654,-4268.795518,2201.396792,-5379.065205
817.591214,2718.246474,-3196.810994,-9284.151688
817.593774,-995.414202,-248.853550,-16443.476907
817.596335,937.986459,-497.707101,-2833.101958
817.598895,-306.281293,-133.998066,-13552.947206
817.601455,-1186.840010,-76.570323,-10643.274925
817.604016,1761.117434,-976.271621,-6317.051664
817.606576,-4287.938099,1416.550979,-15333.207221
817.609136,-95.712904,133.998066,-9188.438784
817.611697,6431.907149,-7465.606512,1301.695494
817.614257,-3885.943902,-1990.828403,-23755.942773
817.616817,-382.851616,-1971.685822,-6680.760699
817.619378,3771.088418,-2316.252277,3483.949706
817.621938,-3847.658741,2431.107762,-22033.110501
817.624498,2086.541307,-478.564520,-10279.565890
817.627059,-114.855485,823.130974,1875.972918
817.629619,-1091.127106,-574.277424,-18108.881437
817.632180,1091.127106,-3751.945837,-13112.667848
817.634741,-861.416136,-2143.969050,-440.279358
817.637302,1435.693560,-3522.234867,-19314.864027
817.639863,-2641.676150,153.140646,-8786.444587
817.642424,1397.408398,-363.709035,-3885.943902
817.644985,976.271621,-1052.841944,-14567.503989
817.647547,-3579.662610,2909.672282,-12098.111066
817.650108,2258.824534,-918.843878,-1703.689691
817.652669,-459.421939,-287.138712,-15199.209155
817.655230,-2239.681954,-306.281293,-10892.128475
817.657791,2086.541307,-2354.537438,-4115.654872
817.660352,1435.693560,-4804.787781,-7044.469734
817.662914,-2947.957443,-287.138712,-25478.775045
817.665475,421.136778,516.849682,-784.845813
817.668036,-325.423874,2737.389054,-2450.250342
817.670597,1320.838075,-38.285162,-21669.401466
817.673158,-2143.969050,2488.535504,-1071.984525
817.675719,4096.512291,-5130.211654,-10107.282662
817.678281,-3828.516160,-1741.974853,-17190.037558
817.680842,899.701298,-4077.369710,-3081.955509
817.683403,803.988394,-2679.961312,-9915.856854
817.685964,-1914.258080,95.712904,-15046.068509
817.688525,1741.974853,497.707101,-4268.795518
817.691086,2488.535504,-880.558717,-6719.045861
817.693648,-1837.687757,880.558717,-19755.143386
817.696209,-4881.358104,823.130974,-3694.518094
817.698770,8767.302006,-8518.448456,-9552.147819
817.701331,-2488.535504,95.712904,-10049.854920
817.703892,-5608.776174,1799.402595,-8078.169098
817.706453,6987.041992,-7235.895542,-13189.238171
817.709015,-6049.055533,3388.236802,-6604.190376
817.711576,4613.361973,-3254.238736,-12519.247843
817.714137,-2067.398726,2086.541307,-10030.712339
817.716698,-708.275490,880.558717,-7389.036189
817.719259,1244.267752,-1952.543242,-12289.536874
817.721820,-1990.828403,325.423874,-8767.302006
817.724381,1052.841944,-2967.100024,-9169.296203
817.726942,-4555.934230,-440.279358,-11906.685258
817.729503,4536.791650,-4613.361973,-10413.563955
817.732064,-2756.531635,3101.098090,-3943.371645
817.734625,172.283227,1014.556782,-16290.336261
817.737186,363.709035,823.130974,-6699.903280
817.739747,-1952.543242,650.847747,-8480.163294
817.742308,1301.695494,-1301.695494,-12940.384621
817.744869,248.853550,-2450.250342,-7982.456194
817.747430,-1071.984525,-1627.119368,-11562.118803
817.749991,765.703232,-3215.953574,-10413.563955
817.752552,-1225.125171,306.281293,-7925.028451
817.755113,1205.982590,-1454.836141,-9954.142016
817.757674,-976.271621,1167.697429,-13399.806560
817.760235,-1052.841944,0.000000,-3637.090352
817.762796,3483.949706,-3388.236802,-15026.925928
817.765357,-4421.936165,1914.258080,-4613.361973
817.767918,3464.807125,-3637.090352,-9915.856854
817.770479,-899.701298,-2086.541307,-10987.841379
817.773040,-287.138712,-3522.234867,-9590.432981
817.775601,1014.556782,-4728.217458,-8346.165229
817.778162,-842.273555,-3713.660675,-11600.403965
817.780723,-325.423874,-4058.227130,-11849.257515
817.783283,172.283227,-5264.209720,-6010.770371
817.785844,-325.423874,-5264.209720,-12653.245909
817.788405,1186.840010,-5532.205851,-7408.178770
817.790966,-842.273555,38.285162,-10107.282662
817.793527,459.421939,-3235.096155,-12078.968485
817.796088,-957.129040,-3445.664544,-6527.620053
817.798649,669.990328,-6623.332957,-8595.018779
817.801210,-133.998066,-5168.496816,-15256.636898
817.803771,-1033.699363,-3617.947771,-5819.344563
