#time,accel_x,accel_y,accel_z
381.974960,689.485948,-0.000000,9696.697840
381.975268,536.266849,-0.000000,9622.677246
381.975577,1302.362347,222.061783,9992.780217
381.975885,612.876398,296.082377,9844.739029
381.976193,306.438199,222.061783,9474.636058
381.976501,612.876398,222.061783,9474.636058
381.976809,689.485948,148.041188,9326.594869
381.977118,842.705048,296.082377,9548.656652
381.977426,383.047749,-0.000000,9992.780217
381.977734,842.705048,296.082377,9696.697840
381.978042,919.314598,-222.061783,9844.739029
381.978350,459.657299,222.061783,9622.677246
381.978659,612.876398,-0.000000,9474.636058
381.978967,536.266849,296.082377,9696.697840
381.979275,689.485948,-0.000000,9696.697840
381.979583,459.657299,148.041188,9474.636058
381.979892,536.266849,-0.000000,9474.636058
381.980200,766.095498,222.061783,9622.677246
381.980508,689.485948,-222.061783,9326.594869
381.980816,995.924147,-148.041188,9844.739029
381.981124,612.876398,148.041188,9548.656652
381.981433,612.876398,444.123565,9622.677246
381.981741,536.266849,296.082377,9622.677246
381.982049,766.095498,148.041188,9696.697840
381.982357,1149.143247,222.061783,9844.739029
381.982665,919.314598,296.082377,9548.656652
381.982974,612.876398,-148.041188,9696.697840
381.983282,689.485948,-0.000000,9696.697840
381.983590,689.485948,-0.000000,9474.636058
381.983898,842.705048,-0.000000,9548.656652
381.984207,612.876398,222.061783,9548.656652
381.984515,612.876398,444.123565,9696.697840
381.984823,612.876398,-0.000000,9474.636058
381.985131,766.095498,-0.000000,9548.656652
381.985439,919.314598,-0.000000,9622.677246
381.985748,612.876398,-0.000000,10362.883188
381.986056,536.266849,-370.102971,10066.800811
381.986364,689.485948,-592.164754,9992.780217
381.986672,612.876398,-518.144159,9918.759623
381.986980,766.095498,-518.144159,9844.739029
381.987289,842.705048,-296.082377,10288.862594
381.987597,689.485948,-370.102971,10066.800811
381.987905,1532.190996,296.082377,9104.533087
381.988213,1915.238745,740.205942,8734.430116
381.988521,2374.896044,888.247130,8808.450710
381.988830,2221.676944,592.164754,8956.491898
381.989138,1991.848295,518.144159,9326.594869
381.989446,1838.629195,222.061783,9326.594869
381.989754,1608.800546,-0.000000,9622.677246
381.990063,1378.971896,-0.000000,9622.677246
381.990371,1685.410096,-148.041188,9770.718434
381.990679,1762.019645,-370.102971,9918.759623
381.990987,1532.190996,-148.041188,9696.697840
381.991295,1838.629195,-0.000000,9844.739029
381.991604,2068.457845,-0.000000,9844.739029
381.991912,2374.896044,-0.000000,9474.636058
381.992220,2604.724693,-0.000000,9622.677246
381.992528,2681.334243,444.123565,9548.656652
381.992836,2757.943793,148.041188,9474.636058
381.993145,2757.943793,222.061783,9474.636058
381.993453,2911.162892,444.123565,9622.677246
381.993761,2604.724693,-0.000000,9696.697840
381.994069,2451.505594,-0.000000,9696.697840
381.994378,2911.162892,-0.000000,9770.718434
381.994686,3064.381992,-148.041188,9770.718434
381.994994,2757.943793,592.164754,10066.800811
381.995302,2987.772442,-0.000000,9992.780217
381.995610,3294.210641,-74.020594,10066.800811
381.995919,2987.772442,-148.041188,9918.759623
381.996227,3217.601092,-0.000000,9770.718434
381.996535,3217.601092,-0.000000,9770.718434
381.996843,3217.601092,-0.000000,9548.656652
381.997151,3447.429741,222.061783,9400.615463
381.997460,4366.744339,518.144159,8956.491898
381.997768,3983.696590,740.205942,9178.553681
381.998076,4136.915689,740.205942,9178.553681
381.998384,4596.572988,370.102971,9104.533087
381.998693,4136.915689,370.102971,9326.594869
381.999001,4136.915689,222.061783,9326.594869
381.999309,4060.306139,-0.000000,9770.718434
381.999617,3983.696590,-0.000000,9696.697840
381.999925,3983.696590,-0.000000,9474.636058
382.000234,4826.401637,-0.000000,9400.615463
382.000542,4366.744339,518.144159,9178.553681
382.000850,4673.182538,888.247130,9104.533087
382.001158,4903.011187,1332.370696,8734.430116
382.001466,4749.792088,1258.350101,8808.450710
382.001775,4519.963438,1036.288319,9326.594869
382.002083,4749.792088,1258.350101,8364.327145
382.002391,3677.258390,740.205942,8438.347739
382.002699,4136.915689,740.205942,9474.636058
382.003007,3600.648841,962.267725,9326.594869
382.003316,2834.553343,370.102971,10288.862594
382.003624,2911.162892,518.144159,9696.697840
382.003932,2757.943793,518.144159,10362.883188
382.004240,2987.772442,592.164754,10214.842000
382.004549,2834.553343,148.041188,10214.842000
382.004857,2374.896044,518.144159,10288.862594
382.005165,1991.848295,444.123565,9696.697840
382.005473,2298.286494,518.144159,9548.656652
382.005781,1915.238745,148.041188,9696.697840
382.006090,1838.629195,-0.000000,10288.862594
382.006398,1225.752797,-592.164754,10584.944971
382.006706,1455.581446,-1332.370696,10584.944971
382.007014,1762.019645,-1258.350101,10362.883188
382.007322,1302.362347,-1184.329507,10807.006753
382.007631,1915.238745,-2072.576638,10807.006753
382.007939,2451.505594,-1998.556043,10362.883188
382.008247,3217.601092,-1258.350101,10214.842000
382.008555,3447.429741,-1628.453072,9696.697840
382.008864,3677.258390,-962.267725,9400.615463
382.009172,4136.915689,-222.061783,9474.636058
382.009480,4826.401637,-0.000000,9326.594869
382.009788,4826.401637,666.185348,8142.265362
382.010096,5132.839837,888.247130,8364.327145
382.010405,5132.839837,1184.329507,8216.285956
382.010713,4826.401637,888.247130,8586.388927
382.011021,4519.963438,814.226536,8438.347739
382.011329,4290.134789,592.164754,8808.450710
382.011637,3830.477490,-0.000000,9326.594869
382.011946,3370.820191,-74.020594,9326.594869
382.012254,3064.381992,-296.082377,9770.718434
382.012562,3140.991542,888.247130,9696.697840
382.012870,3524.039291,1332.370696,9474.636058
382.013179,4060.306139,2294.638420,8734.430116
382.013487,4519.963438,2812.782580,8438.347739
382.013795,4290.134789,2886.803174,8438.347739
382.014103,4519.963438,2516.700203,8882.471304
382.014411,3907.087040,1702.473667,9622.677246
382.014720,2987.772442,-0.000000,10584.944971
382.015028,1685.410096,-1258.350101,11769.274478
382.015336,995.924147,-2516.700203,12953.603985
382.015644,612.876398,-3552.988522,13101.645173
382.015952,995.924147,-3849.070898,13175.665768
382.016261,1838.629195,-3478.967927,12583.501014
382.016569,3370.820191,-2442.679609,10955.047942
382.016877,4673.182538,-814.226536,9918.759623
382.017185,6971.469032,-0.000000,8438.347739
382.017494,7201.297681,1924.535449,6365.771101
382.017802,7814.174080,3552.988522,5921.647536
382.018110,7814.174080,4071.132681,5699.585753
382.018418,7048.078582,4737.318029,5107.421000
382.018726,6128.763984,4515.256246,5551.544565
382.019035,5132.839837,3330.926739,6365.771101
382.019343,4060.306139,2368.659014,7624.121203
382.019651,2451.505594,1110.308913,8956.491898
382.019959,1762.019645,-666.185348,10807.006753
382.020267,229.828649,-2368.659014,11843.295072
382.020576,-459.657299,-3627.009116,13323.706956
382.020884,-229.828649,-4145.153275,13693.809927
382.021192,383.047749,-4293.194464,13841.851115
382.021500,1225.752797,-4071.132681,13101.645173
382.021808,2528.115143,-2960.823768,12065.356855
382.022117,4060.306139,-1924.535449,10807.006753
382.022425,5286.058936,-962.267725,9178.553681
382.022733,5898.935335,1036.288319,7402.059420
382.023041,6818.249932,2146.597232,6587.832884
382.023350,5898.935335,3330.926739,5625.565159
382.023658,6358.592633,3775.050304,6069.688724
382.023966,6128.763984,3404.947333,5625.565159
382.024274,4826.401637,2368.659014,7105.977043
382.024582,3677.258390,1258.350101,8364.327145
382.024891,2451.505594,-962.267725,9918.759623
382.025199,1225.752797,-3108.864956,12361.439231
382.025507,229.828649,-3923.091493,12805.562797
382.025815,689.485948,-4589.276840,13693.809927
382.026123,766.095498,-3478.967927,12805.562797
382.026432,3140.991542,-1776.494261,11325.150913
382.026740,4290.134789,962.267725,9400.615463
382.027048,7201.297681,2886.803174,6735.874072
382.027356,7584.345430,5107.421000,4145.153275
382.027665,8886.707777,7031.956449,4071.132681
382.027973,7660.954980,6217.729913,4811.338623
382.028281,6818.249932,5625.565159,5847.626942
382.028589,4366.744339,2294.638420,8364.327145
382.028897,689.485948,-814.226536,11769.274478
382.029206,-2145.067394,-4145.153275,14508.036463
382.029514,-3524.039291,-3997.112087,15692.365970
382.029822,-3447.429741,-6587.832884,17172.777854
382.030130,-2681.334243,-6883.915261,17320.819043
382.030438,76.609550,-3997.112087,14804.118840
382.030747,2604.724693,-1702.473667,11103.089130
382.031055,5362.668486,1184.329507,7402.059420
382.031363,7584.345430,3997.112087,6661.853478
382.031671,9193.145976,5625.565159,4515.256246
382.031980,9499.584175,6291.750507,3552.988522
382.032288,9576.193725,5625.565159,3404.947333
382.032596,7124.688131,3256.906145,5255.462188
382.032904,4060.306139,296.082377,8956.491898
382.033212,1532.190996,-3108.864956,11473.192101
382.033521,-995.924147,-4367.215058,13545.768739
382.033829,-1762.019645,-5403.503377,14285.974681
382.034137,0.000000,-4145.153275,12065.356855
382.034445,2451.505594,-1036.288319,11621.233289
382.034753,5592.497135,1332.370696,9326.594869
382.035062,7507.735880,2664.741391,7031.956449
382.035370,7814.174080,4071.132681,6809.894666
382.035678,8120.612279,4885.359217,6365.771101
382.035986,7124.688131,3552.988522,7476.080014
382.036294,4290.134789,2220.617826,9326.594869
382.036603,2068.457845,-592.164754,11103.089130
382.036911,0.000000,-2294.638420,11843.295072
382.037219,-1455.581446,-2738.761985,13471.748144
382.037527,-1991.848295,-3923.091493,13989.892304
382.037836,-1149.143247,-2960.823768,12953.603985
382.038144,1149.143247,-2812.782580,12805.562797
382.038452,3677.258390,-1332.370696,10288.862594
382.038760,5515.887586,-1184.329507,8512.368333
382.039068,5898.935335,-592.164754,8290.306550
382.039377,6052.154434,1258.350101,7105.977043
382.039685,7201.297681,2294.638420,7328.038826
382.039993,6052.154434,3849.070898,7031.956449
382.040301,5592.497135,5477.523971,5625.565159
382.040609,6435.202183,6143.709319,5699.585753
382.040918,7048.078582,5625.565159,6587.832884
382.041226,5822.325785,3627.009116,6439.791695
382.041534,4903.011187,1406.391290,8586.388927
382.041842,2987.772442,-1776.494261,12657.521608
382.042150,0.000000,-5033.400406,14211.954086
382.042458,-1915.238745,-6143.709319,14211.954086
382.042766,-2221.676944,-6069.688724,14730.098246
382.043074,-842.705048,-4959.379811,13471.748144
382.043381,766.095498,-1480.411884,10584.944971
382.043689,2987.772442,-0.000000,10807.006753
382.043997,5669.106685,1110.308913,8512.368333
382.044305,4903.011187,2886.803174,6365.771101
382.044613,6052.154434,3627.009116,6069.688724
382.044921,6511.811733,4589.276840,4663.297435
382.045228,5898.935335,4959.379811,6365.771101
382.045536,4903.011187,4145.153275,7624.121203
382.045844,4290.134789,4219.173869,7550.100608
382.046152,2911.162892,2146.597232,8734.430116
382.046460,1915.238745,148.041188,9992.780217
382.046768,1532.190996,-2368.659014,11695.253884
382.047075,689.485948,-4071.132681,13619.789333
382.047383,-919.314598,-6217.729913,14434.015869
382.047691,-1685.410096,-5699.585753,13915.871710
382.047999,-842.705048,-4737.318029,13249.686362
382.048307,612.876398,-1628.453072,11325.150913
382.048615,2757.943793,1406.391290,9104.533087
382.048922,5592.497135,2590.720797,7254.018232
382.049230,5056.230287,3330.926739,4959.379811
382.049538,5056.230287,3108.864956,6217.729913
382.049846,3753.867940,2294.638420,8216.285956
382.050154,2374.896044,1998.556043,8956.491898
382.050462,1378.971896,1776.494261,9326.594869
382.050769,689.485948,1998.556043,9770.718434
382.051077,1225.752797,1850.514855,9844.739029
382.051385,2374.896044,1480.411884,9918.759623
382.051693,2221.676944,-518.144159,10584.944971
382.052001,995.924147,-3182.885551,11843.295072
382.052309,0.000000,-4293.194464,12213.398043
382.052616,-1838.629195,-4293.194464,12509.480420
382.052924,-995.924147,-3182.885551,12435.459826
382.053232,536.266849,-518.144159,9918.759623
382.053540,2374.896044,1850.514855,8290.306550
382.053848,3983.696590,2368.659014,6513.812290
382.054156,4826.401637,2590.720797,7031.956449
382.054463,3447.429741,1480.411884,7846.182985
382.054771,1838.629195,-518.144159,9178.553681
382.055079,76.609550,-592.164754,10584.944971
382.055387,-153.219100,-74.020594,10955.047942
382.055695,1685.410096,518.144159,10955.047942
382.056003,2834.553343,2368.659014,9326.594869
382.056310,3983.696590,1776.494261,9178.553681
382.056618,3677.258390,592.164754,9400.615463
382.056926,2298.286494,148.041188,8734.430116
382.057234,1838.629195,-370.102971,10214.842000
382.057542,1072.533697,-740.205942,9696.697840
382.057849,1302.362347,1554.432478,7994.224174
382.058157,3064.381992,962.267725,8142.265362
382.058465,3064.381992,1628.453072,6735.874072
382.058773,2681.334243,592.164754,8216.285956
382.059081,689.485948,-1036.288319,10140.821405
382.059389,-1455.581446,-1998.556043,12361.439231
382.059696,-2451.505594,-2294.638420,13471.748144
382.060004,-2374.896044,-1702.473667,12731.542202
382.060312,-383.047749,592.164754,11473.192101
382.060620,1455.581446,2738.761985,10510.924376
382.060928,3064.381992,2146.597232,9326.594869
382.061236,3370.820191,2664.741391,8438.347739
382.061543,2834.553343,1924.535449,8956.491898
382.061851,1378.971896,1554.432478,8290.306550
382.062159,689.485948,1110.308913,9844.739029
382.062467,536.266849,518.144159,8734.430116
382.062775,459.657299,-518.144159,8438.347739
382.063083,1072.533697,-1406.391290,9178.553681
382.063390,76.609550,-2072.576638,9918.759623
382.063698,-1225.752797,-3256.906145,11103.089130
382.064006,-2681.334243,-3552.988522,12287.418637
382.064314,-2221.676944,-2146.597232,12731.542202
382.064622,0.000000,-0.000000,11843.295072
382.064930,1378.971896,1924.535449,9918.759623
382.065237,4213.525239,3404.947333,8586.388927
382.065545,4826.401637,3701.029710,6069.688724
382.065853,3753.867940,3404.947333,6809.894666
382.066161,1915.238745,1850.514855,8290.306550
382.066469,2221.676944,814.226536,9326.594869
382.066777,-1225.752797,592.164754,8956.491898
382.067084,-153.219100,-1036.288319,10510.924376
382.067392,306.438199,-1850.514855,8956.491898
382.067700,-1762.019645,-1258.350101,8734.430116
382.068008,-612.876398,-4071.132681,11251.130318
382.068316,-1991.848295,-1776.494261,10436.903782
382.068624,-2374.896044,-1628.453072,13545.768739
382.068931,-689.485948,296.082377,10807.006753
382.069239,766.095498,2072.576638,9918.759623
382.069547,2451.505594,2590.720797,9400.615463
382.069855,3447.429741,3330.926739,7105.977043
382.070163,3064.381992,2812.782580,8512.368333
382.070471,995.924147,740.205942,9104.533087
382.070778,-1072.533697,-74.020594,10140.821405
382.071086,-1532.190996,-1110.308913,11103.089130
382.071394,-1762.019645,-1554.432478,10362.883188
382.071702,-919.314598,-1258.350101,8882.471304
382.072010,0.000000,-1628.453072,8438.347739
382.072318,0.000000,-2368.659014,9104.533087
382.072625,-919.314598,-1554.432478,9696.697840
382.072933,-612.876398,-296.082377,9844.739029
382.073241,-536.266849,-0.000000,9918.759623
382.073549,1225.752797,2294.638420,9474.636058
382.073857,3753.867940,3330.926739,7698.141797
382.074164,4443.353888,3034.844362,7328.038826
382.074472,3294.210641,2960.823768,7105.977043
382.074780,2604.724693,1258.350101,9326.594869
382.075088,-1149.143247,-296.082377,10658.965565
382.075396,-2145.067394,-2146.597232,12583.501014
382.075704,-2374.896044,-2590.720797,12139.377449
382.076011,-2528.115143,-1850.514855,9548.656652
382.076319,-1302.362347,-2886.803174,10436.903782
382.076627,-306.438199,-1924.535449,8734.430116
382.076935,-612.876398,-1776.494261,9696.697840
382.077243,-459.657299,-888.247130,10658.965565
382.077551,1149.143247,1184.329507,9696.697840
382.077858,1685.410096,2294.638420,9030.512492
382.078166,3370.820191,4293.194464,8142.265362
382.078474,5362.668486,4589.276840,7402.059420
382.078782,4366.744339,2738.761985,7624.121203
382.079090,2604.724693,1924.535449,9844.739029
382.079398,536.266849,-518.144159,11177.109724
382.079705,-1838.629195,-1184.329507,11473.192101
382.080013,-1991.848295,-2368.659014,11917.315666
382.080321,-689.485948,-1554.432478,10584.944971
382.080629,-383.047749,-1924.535449,10510.924376
382.080937,306.438199,-1702.473667,8586.388927
382.081245,306.438199,-592.164754,8068.244768
382.081552,1378.971896,-370.102971,10288.862594
382.081860,1302.362347,1776.494261,9030.512492
382.082168,2451.505594,3182.885551,8290.306550
382.082476,4290.134789,4219.173869,7920.203579
382.082784,5132.839837,4293.194464,7550.100608
382.083092,4826.401637,3108.864956,7920.203579
382.083399,2298.286494,814.226536,10140.821405
382.083707,76.609550,-1036.288319,11917.315666
382.084015,-2068.457845,-2738.761985,12361.439231
382.084323,-3447.429741,-3330.926739,12213.398043
382.084631,-2145.067394,-3627.009116,11769.274478
382.084939,-766.095498,-1702.473667,10807.006753
382.085246,383.047749,-1554.432478,9622.677246
382.085554,919.314598,-1258.350101,8438.347739
382.085862,1532.190996,814.226536,8512.368333
382.086170,1915.238745,1628.453072,8734.430116
382.086478,1991.848295,3182.885551,7994.224174
382.086786,3677.258390,4737.318029,7550.100608
382.087093,3524.039291,4663.297435,7328.038826
382.087401,3983.696590,2960.823768,8364.327145
382.087709,2145.067394,1554.432478,9696.697840
382.088017,0.000000,-1258.350101,11103.089130
382.088325,-2834.553343,-3034.844362,11695.253884
382.088633,-3753.867940,-3256.906145,11769.274478
382.088940,-2987.772442,-2368.659014,11473.192101
382.089248,-1608.800546,-1628.453072,10362.883188
382.089556,1072.533697,-814.226536,8438.347739
382.089864,1302.362347,518.144159,7105.977043
382.090172,2221.676944,1184.329507,7105.977043
382.090479,2145.067394,1998.556043,7994.224174
382.090787,1608.800546,2812.782580,9178.553681
382.091095,2068.457845,3923.091493,8216.285956
382.091403,2911.162892,3701.029710,8290.306550
382.091711,1608.800546,1554.432478,9696.697840
382.092019,459.657299,-518.144159,11177.109724
382.092326,-1149.143247,-2368.659014,12731.542202
382.092634,-4443.353888,-3182.885551,13101.645173
382.092942,-4136.915689,-4663.297435,12879.583391
382.093250,-4290.134789,-2220.617826,10807.006753
382.093558,-612.876398,-1702.473667,10362.883188
382.093866,306.438199,-222.061783,7846.182985
382.094173,2451.505594,222.061783,7476.080014
382.094481,1532.190996,2072.576638,5255.462188
382.094789,2298.286494,3701.029710,6883.915261
382.095097,3217.601092,3256.906145,9992.780217
382.095405,2911.162892,4589.276840,7920.203579
382.095713,2987.772442,3552.988522,7624.121203
382.096020,2221.676944,1406.391290,9104.533087
382.096328,689.485948,-1258.350101,11547.212695
382.096636,-2068.457845,-2664.741391,13841.851115
382.096944,-3294.210641,-4737.318029,14211.954086
382.097252,-4596.572988,-3775.050304,12583.501014
382.097560,-5132.839837,-3404.947333,12287.418637
382.097867,-2528.115143,-1924.535449,11991.336260
382.098175,919.314598,-740.205942,9918.759623
382.098483,2068.457845,888.247130,6883.915261
382.098791,2757.943793,1998.556043,5255.462188
382.099099,2374.896044,2146.597232,6735.874072
382.099407,2145.067394,4071.132681,8290.306550
382.099714,2911.162892,4145.153275,7698.141797
382.100022,2911.162892,4663.297435,7920.203579
382.100330,2604.724693,3404.947333,8364.327145
382.100638,1915.238745,592.164754,9696.697840
382.100946,0.000000,-1258.350101,11991.336260
382.101254,-2374.896044,-3182.885551,13841.851115
382.101561,-2987.772442,-3923.091493,12509.480420
382.101869,-2987.772442,-3775.050304,10732.986159
382.102177,-1532.190996,-2738.761985,10807.006753
382.102485,1455.581446,-740.205942,8808.450710
382.102793,3983.696590,518.144159,6809.894666
382.103101,3064.381992,1184.329507,5551.544565
382.103408,3907.087040,2220.617826,5995.668130
382.103716,2681.334243,2664.741391,7772.162391
382.104024,2528.115143,3182.885551,9326.594869
382.104332,2681.334243,3627.009116,8882.471304
382.104640,2145.067394,2072.576638,9474.636058
382.104948,1455.581446,-0.000000,10881.027347
382.105255,383.047749,-2294.638420,13397.727550
382.105563,-1455.581446,-3478.967927,14063.912898
382.105871,-3064.381992,-3478.967927,12657.521608
382.106179,-2911.162892,-3997.112087,12361.439231
382.106487,-1149.143247,-3108.864956,11843.295072
382.106794,1685.410096,-814.226536,9104.533087
382.107102,3753.867940,518.144159,7254.018232
382.107410,4826.401637,1554.432478,5255.462188
382.107718,3907.087040,2960.823768,4663.297435
382.108026,3907.087040,3256.906145,6809.894666
382.108334,3140.991542,4367.215058,7179.997637
382.108641,2681.334243,4367.215058,7772.162391
382.108949,2987.772442,3478.967927,8586.388927
382.109257,1915.238745,1702.473667,9548.656652
382.109565,383.047749,-1110.308913,11917.315666
382.109873,-1762.019645,-3034.844362,13249.686362
382.110181,-3524.039291,-3701.029710,13101.645173
382.110488,-3600.648841,-3923.091493,12583.501014
382.110796,-2374.896044,-2368.659014,11917.315666
382.111104,0.000000,-666.185348,9770.718434
382.111412,2451.505594,-0.000000,8068.244768
382.111720,3140.991542,1924.535449,6291.750507
382.112028,3370.820191,2738.761985,5625.565159
382.112335,3524.039291,2886.803174,7402.059420
382.112643,2068.457845,3923.091493,8068.244768
382.112951,1608.800546,3478.967927,9178.553681
382.113259,1915.238745,2960.823768,9696.697840
382.113567,1225.752797,888.247130,10214.842000
382.113875,0.000000,-888.247130,11695.253884
382.114182,-1762.019645,-3775.050304,13767.830521
382.114490,-3677.258390,-3849.070898,14359.995275
382.114798,-4366.744339,-4737.318029,13693.809927
382.115106,-3524.039291,-3552.988522,11843.295072
382.115414,-153.219100,-1406.391290,10881.027347
382.115722,1915.238745,-296.082377,8290.306550
382.116029,2987.772442,1406.391290,5107.421000
382.116337,3447.429741,3108.864956,5181.441594
382.116645,3600.648841,3552.988522,6217.729913
382.116953,2451.505594,3701.029710,8068.244768
382.117261,2451.505594,4071.132681,9326.594869
382.117569,2451.505594,2812.782580,9104.533087
382.117876,1225.752797,1554.432478,9400.615463
382.118184,383.047749,-444.123565,11547.212695
382.118492,-1762.019645,-3108.864956,14211.954086
382.118800,-4443.353888,-4737.318029,14211.954086
382.119108,-5132.839837,-4885.359217,14063.912898
382.119416,-4366.744339,-4145.153275,13101.645173
382.119723,-1991.848295,-2442.679609,10584.944971
382.120031,842.705048,-0.000000,8586.388927
382.120339,2987.772442,1554.432478,6735.874072
382.120647,4136.915689,2294.638420,4885.359217
382.120955,3370.820191,4515.256246,4959.379811
382.121263,3600.648841,4293.194464,7328.038826
382.121570,2834.553343,4737.318029,6365.771101
382.121878,2757.943793,4293.194464,8216.285956
382.122186,2451.505594,2664.741391,8882.471304
382.122494,919.314598,888.247130,9548.656652
382.122802,0.000000,-1628.453072,13323.706956
382.123109,-3217.601092,-3552.988522,13767.830521
382.123417,-4136.915689,-3775.050304,13175.665768
382.123725,-3907.087040,-4663.297435,12879.583391
382.124033,-1608.800546,-2590.720797,11547.212695
382.124341,612.876398,-1332.370696,9178.553681
382.124649,3447.429741,-74.020594,7328.038826
382.124956,3524.039291,740.205942,5921.647536
382.125264,3294.210641,2442.679609,6217.729913
382.125572,3064.381992,2812.782580,7698.141797
382.125880,2834.553343,3182.885551,8142.265362
382.126188,2374.896044,4219.173869,7994.224174
382.126496,1991.848295,2368.659014,10066.800811
382.126803,1608.800546,518.144159,10288.862594
382.127111,153.219100,-1332.370696,12287.418637
382.127419,-1455.581446,-3775.050304,13323.706956
382.127727,-4213.525239,-4737.318029,13027.624579
382.128035,-4673.182538,-4811.338623,14359.995275
382.128343,-2221.676944,-3404.947333,13101.645173
382.128650,383.047749,-592.164754,9252.574275
382.128958,2451.505594,-148.041188,7550.100608
382.129266,4290.134789,814.226536,5255.462188
382.129574,3753.867940,3404.947333,4663.297435
382.129882,4290.134789,3552.988522,6735.874072
382.130190,3294.210641,4293.194464,7105.977043
382.130497,2987.772442,4885.359217,6883.915261
382.130805,2451.505594,3478.967927,8586.388927
382.131113,1149.143247,1480.411884,10584.944971
382.131421,459.657299,-296.082377,12213.398043
382.131729,-2221.676944,-2664.741391,14211.954086
382.132037,-4366.744339,-3627.009116,13693.809927
382.132344,-3370.820191,-4145.153275,13175.665768
382.132652,-3830.477490,-3404.947333,12509.480420
382.132960,-919.314598,-1628.453072,10807.006753
382.133268,1991.848295,-0.000000,7920.203579
382.133576,2528.115143,1628.453072,6809.894666
382.133884,3064.381992,2368.659014,5699.585753
382.134191,3983.696590,3923.091493,5699.585753
382.134499,3140.991542,4515.256246,8438.347739
382.134807,2451.505594,3701.029710,7846.182985
382.135115,2298.286494,3182.885551,8364.327145
382.135423,1378.971896,1406.391290,10362.883188
382.135731,459.657299,-1258.350101,11547.212695
382.136038,-1608.800546,-2886.803174,13693.809927
382.136346,-3140.991542,-4737.318029,13841.851115
382.136654,-3753.867940,-4737.318029,13249.686362
382.136962,-2604.724693,-4145.153275,12805.562797
382.137270,-919.314598,-2442.679609,11029.068536
382.137578,1685.410096,-592.164754,8216.285956
382.137885,3294.210641,370.102971,5847.626942
382.138193,3217.601092,1406.391290,5773.606348
382.138501,3370.820191,2886.803174,6439.791695
382.138809,2757.943793,3997.112087,7402.059420
382.139117,3140.991542,3997.112087,7846.182985
382.139424,2834.553343,3849.070898,8290.306550
382.139732,2834.553343,2590.720797,9844.739029
382.140040,1149.143247,592.164754,10881.027347
382.140348,-842.705048,-1702.473667,13027.624579
382.140655,-2911.162892,-4145.153275,14656.077652
382.140963,-4213.525239,-4071.132681,13767.830521
382.141271,-4290.134789,-4367.215058,13101.645173
382.141578,-2374.896044,-3034.844362,11843.295072
382.141886,1072.533697,-1332.370696,9474.636058
382.142194,3064.381992,962.267725,7550.100608
382.142502,3217.601092,1258.350101,5773.606348
382.142810,2987.772442,3108.864956,5847.626942
382.143117,3140.991542,3404.947333,6587.832884
382.143425,2987.772442,4441.235652,7105.977043
382.143733,3064.381992,4589.276840,7254.018232
382.144041,2911.162892,4367.215058,8290.306550
382.144349,2068.457845,962.267725,9252.574275
382.144657,76.609550,-444.123565,11399.171507
382.144964,-1378.971896,-2368.659014,13397.727550
382.145272,-3447.429741,-3108.864956,12953.603985
382.145580,-3600.648841,-3330.926739,12213.398043
382.145888,-2834.553343,-3182.885551,12065.356855
382.146196,229.828649,-1998.556043,10436.903782
382.146503,1838.629195,-518.144159,7698.141797
382.146811,2451.505594,592.164754,6587.832884
382.147119,2604.724693,518.144159,7105.977043
382.147427,2221.676944,2812.782580,7772.162391
382.147735,2145.067394,3849.070898,8586.388927
382.148042,2834.553343,4071.132681,8364.327145
382.148350,2145.067394,4145.153275,7994.224174
382.148658,2221.676944,2590.720797,9770.718434
382.148966,1532.190996,-518.144159,11473.192101
382.149274,-2145.067394,-2368.659014,13693.809927
382.149582,-2757.943793,-4737.318029,14730.098246
382.149889,-3907.087040,-4811.338623,13471.748144
382.150197,-3983.696590,-4589.276840,11843.295072
382.150505,-1608.800546,-3182.885551,10881.027347
382.150813,1149.143247,-888.247130,9030.512492
382.151121,1762.019645,-0.000000,6587.832884
382.151428,2451.505594,962.267725,5847.626942
382.151736,2911.162892,3108.864956,6513.812290
382.152044,3524.039291,3552.988522,7105.977043
382.152352,2987.772442,4885.359217,6513.812290
382.152660,3217.601092,5551.544565,6957.935855
382.152967,3140.991542,2960.823768,9474.636058
382.153275,459.657299,1184.329507,9918.759623
382.153583,-1378.971896,-2294.638420,13545.768739
382.153891,-2604.724693,-3478.967927,13767.830521
382.154199,-4136.915689,-3997.112087,12213.398043
382.154507,-3753.867940,-3849.070898,12287.418637
382.154814,-2451.505594,-3256.906145,11029.068536
382.155122,612.876398,-1702.473667,10066.800811
382.155430,1455.581446,296.082377,5995.668130
382.155738,2451.505594,888.247130,6291.750507
382.156046,2604.724693,2220.617826,6513.812290
382.156353,2911.162892,3849.070898,6809.894666
382.156661,3064.381992,4737.318029,7846.182985
382.156969,3753.867940,4811.338623,7031.956449
382.157277,2911.162892,3627.009116,8586.388927
382.157585,1378.971896,2220.617826,9622.677246
382.157892,766.095498,-1406.391290,12879.583391
382.158200,-2221.676944,-2738.761985,13027.624579
382.158508,-3217.601092,-4663.297435,13619.789333
382.158816,-4596.572988,-4959.379811,13101.645173
382.159124,-3294.210641,-4811.338623,12879.583391
382.159432,-1225.752797,-3108.864956,11843.295072
382.159739,1532.190996,-1850.514855,8882.471304
382.160047,1762.019645,222.061783,6143.709319
382.160355,2911.162892,1036.288319,6809.894666
382.160663,3447.429741,3552.988522,7031.956449
382.160971,3983.696590,4811.338623,6735.874072
382.161278,4136.915689,4737.318029,6439.791695
382.161586,3830.477490,5329.482782,7402.059420
382.161894,3524.039291,2590.720797,9326.594869
382.162202,1225.752797,-74.020594,11621.233289
382.162510,-383.047749,-2220.617826,13545.768739
382.162817,-3140.991542,-4663.297435,13397.727550
382.163125,-4903.011187,-5181.441594,13027.624579
382.163433,-4136.915689,-5403.503377,13915.871710
382.163741,-2068.457845,-2812.782580,11769.274478
382.164049,689.485948,-2220.617826,9030.512492
382.164357,1838.629195,888.247130,6513.812290
382.164664,2911.162892,1702.473667,6143.709319
382.164972,4673.182538,3552.988522,6513.812290
382.165280,3907.087040,6439.791695,5551.544565
382.165588,3753.867940,6143.709319,6661.853478
382.165896,4366.744339,5255.462188,7328.038826
382.166203,2374.896044,3775.050304,9696.697840
382.166511,1225.752797,1036.288319,11547.212695
382.166819,229.828649,-1924.535449,13101.645173
382.167127,-3140.991542,-3182.885551,13619.789333
382.167435,-4749.792088,-4219.173869,13693.809927
382.167742,-3677.258390,-4071.132681,12213.398043
382.168050,-2911.162892,-2960.823768,11769.274478
382.168358,995.924147,-2072.576638,10584.944971
382.168666,2068.457845,-0.000000,5625.565159
382.168974,2834.553343,740.205942,6513.812290
382.169282,3064.381992,1554.432478,7550.100608
382.169589,2911.162892,4219.173869,7328.038826
382.169897,2834.553343,4515.256246,9104.533087
382.170205,2451.505594,4737.318029,7772.162391
382.170513,2757.943793,2368.659014,9770.718434
382.170821,1685.410096,740.205942,11991.336260
382.171128,229.828649,-1924.535449,12361.439231
382.171436,-2528.115143,-3923.091493,12731.542202
382.171744,-3064.381992,-4589.276840,13027.624579
382.172052,-3983.696590,-4737.318029,12731.542202
382.172360,-2528.115143,-3478.967927,11695.253884
382.172667,459.657299,-2072.576638,10510.924376
382.172975,1762.019645,-0.000000,6957.935855
382.173283,2451.505594,666.185348,7031.956449
382.173591,3140.991542,2368.659014,7105.977043
382.173899,2604.724693,4663.297435,7254.018232
382.174207,2757.943793,4515.256246,7402.059420
382.174514,3447.429741,4885.359217,7994.224174
382.174822,2757.943793,4219.173869,8512.368333
382.175130,1685.410096,1406.391290,9326.594869
382.175438,1455.581446,-814.226536,11547.212695
382.175746,-1915.238745,-2960.823768,12657.521608
382.176053,-4213.525239,-4145.153275,12509.480420
382.176361,-4060.306139,-3997.112087,13101.645173
382.176669,-3370.820191,-3108.864956,12435.459826
382.176977,-766.095498,-1702.473667,10066.800811
382.177285,1762.019645,444.123565,7402.059420
382.177592,2757.943793,1258.350101,6735.874072
382.177900,3064.381992,2590.720797,5403.503377
382.178208,2911.162892,3034.844362,7031.956449
382.178516,2374.896044,4515.256246,7994.224174
382.178824,2298.286494,3997.112087,7698.141797
382.179132,1991.848295,3627.009116,9030.512492
382.179439,1455.581446,1702.473667,9548.656652
382.179747,1225.752797,-370.102971,11251.130318
382.180055,-1149.143247,-2590.720797,12953.603985
382.180363,-3217.601092,-3997.112087,12879.583391
382.180671,-3370.820191,-4885.359217,13101.645173
382.180978,-3983.696590,-3552.988522,12361.439231
382.181286,-919.314598,-3775.050304,12213.398043
382.181594,919.314598,-518.144159,7624.121203
382.181902,2145.067394,-148.041188,6439.791695
382.182210,2298.286494,740.205942,7105.977043
382.182517,2528.115143,3034.844362,7550.100608
382.182825,2374.896044,4219.173869,8068.244768
382.183133,2834.553343,4367.215058,7846.182985
382.183441,2681.334243,3182.885551,8882.471304
382.183749,1915.238745,2442.679609,9696.697840
382.184057,1378.971896,-0.000000,11177.109724
382.184364,-536.266849,-2220.617826,12953.603985
382.184672,-2987.772442,-3552.988522,13101.645173
382.184980,-3140.991542,-4219.173869,13471.748144
382.185288,-3677.258390,-4663.297435,12139.377449
382.185596,-1455.581446,-2442.679609,10955.047942
382.185903,1225.752797,-592.164754,8586.388927
382.186211,2451.505594,1110.308913,6365.771101
382.186519,2528.115143,1554.432478,6735.874072
382.186827,3294.210641,2812.782580,6809.894666
382.187135,2451.505594,4515.256246,7328.038826
382.187442,2911.162892,4663.297435,7476.080014
382.187750,3064.381992,4885.359217,7920.203579
382.188058,3064.381992,3627.009116,9252.574275
382.188366,2298.286494,1332.370696,9770.718434
382.188674,842.705048,-74.020594,11177.109724
382.188982,-2145.067394,-2664.741391,12583.501014
382.189289,-3064.381992,-3182.885551,13101.645173
382.189597,-2834.553343,-3849.070898,12435.459826
382.189905,-2145.067394,-2590.720797,11325.150913
382.190213,153.219100,-1924.535449,10288.862594
382.190521,1838.629195,-296.082377,7328.038826
382.190828,2604.724693,-0.000000,7179.997637
382.191136,2681.334243,1850.514855,7254.018232
382.191444,2681.334243,2738.761985,8142.265362
382.191752,1838.629195,4145.153275,8512.368333
382.192060,2757.943793,3552.988522,8512.368333
382.192367,2987.772442,3627.009116,9178.553681
382.192675,1915.238745,1998.556043,9992.780217
382.192983,1762.019645,-592.164754,11473.192101
382.193291,-536.266849,-2442.679609,12953.603985
382.193599,-2451.505594,-3552.988522,12879.583391
382.193907,-2834.553343,-3923.091493,12435.459826
382.194214,-1838.629195,-3330.926739,11769.274478
382.194522,-229.828649,-2220.617826,9918.759623
382.194830,1915.238745,-740.205942,7476.080014
382.195138,3217.601092,370.102971,7105.977043
382.195446,2298.286494,1702.473667,7105.977043
382.195753,3524.039291,2220.617826,7031.956449
382.196061,2604.724693,3849.070898,7550.100608
382.196369,2221.676944,4071.132681,8290.306550
382.196677,2451.505594,3478.967927,8438.347739
382.196985,1455.581446,2146.597232,9918.759623
382.197292,766.095498,-222.061783,11917.315666
382.197600,-1455.581446,-2220.617826,12731.542202
382.197908,-3830.477490,-3923.091493,14063.912898
382.198216,-4060.306139,-4589.276840,13841.851115
382.198524,-3753.867940,-3034.844362,11325.150913
382.198832,-995.924147,-1850.514855,10140.821405
382.199139,1302.362347,-592.164754,8364.327145
382.199447,2528.115143,1554.432478,5995.668130
382.199755,3217.601092,2072.576638,5699.585753
382.200063,3907.087040,3034.844362,5773.606348
382.200371,3294.210641,4219.173869,6809.894666
382.200678,2451.505594,4071.132681,7550.100608
382.200986,2757.943793,2960.823768,8734.430116
382.201294,1915.238745,2072.576638,8882.471304
382.201602,536.266849,296.082377,10510.924376
382.201910,-842.705048,-2220.617826,12953.603985
382.202217,-2987.772442,-3849.070898,13693.809927
382.202525,-3830.477490,-4219.173869,13471.748144
382.202833,-3753.867940,-4071.132681,12139.377449
382.203141,-1762.019645,-3108.864956,11177.109724
382.203449,536.266849,-1184.329507,8734.430116
382.203757,2374.896044,740.205942,6291.750507
382.204064,3600.648841,1332.370696,5329.482782
382.204372,3140.991542,2516.700203,5847.626942
382.204680,2757.943793,3997.112087,6513.812290
382.204988,2451.505594,4145.153275,7624.121203
382.205296,2681.334243,3108.864956,8956.491898
382.205603,1608.800546,1998.556043,9622.677246
382.205911,536.266849,592.164754,10288.862594
382.206219,-459.657299,-2220.617826,13545.768739
382.206527,-2757.943793,-3330.926739,13027.624579
382.206835,-3217.601092,-4219.173869,13693.809927
382.207142,-3524.039291,-3404.947333,12435.459826
382.207450,-1915.238745,-3775.050304,11325.150913
382.207758,306.438199,-1406.391290,9770.718434
382.208066,2681.334243,370.102971,7476.080014
382.208374,3064.381992,1406.391290,6809.894666
382.208682,2757.943793,3182.885551,5551.544565
382.208989,3677.258390,3923.091493,6143.709319
382.209297,2834.553343,4959.379811,6661.853478
382.209605,2298.286494,4293.194464,7550.100608
382.209913,2451.505594,3701.029710,9030.512492
382.210221,1838.629195,1850.514855,9770.718434
382.210528,76.609550,-666.185348,11917.315666
382.210836,-1762.019645,-2812.782580,12657.521608
382.211144,-2681.334243,-3182.885551,13175.665768
382.211452,-3983.696590,-4071.132681,12509.480420
382.211760,-2528.115143,-2738.761985,11547.212695
382.212067,0.000000,-1480.411884,10584.944971
382.212375,1532.190996,-74.020594,7994.224174
382.212683,3140.991542,518.144159,6957.935855
382.212991,3524.039291,2146.597232,6143.709319
382.213299,2757.943793,3552.988522,6735.874072
382.213607,2374.896044,2812.782580,8364.327145
382.213914,1149.143247,4663.297435,8808.450710
382.214222,2987.772442,2072.576638,9992.780217
382.214530,306.438199,2442.679609,9030.512492
382.214838,536.266849,-740.205942,12139.377449
382.215146,383.047749,-3034.844362,13471.748144
382.215453,-2987.772442,-3182.885551,13323.706956
382.215761,-2987.772442,-4737.318029,13175.665768
382.216069,-2451.505594,-3404.947333,10955.047942
382.216377,-995.924147,-2072.576638,11325.150913
382.216685,1532.190996,-1110.308913,8290.306550
382.216992,3294.210641,518.144159,6735.874072
382.217300,3140.991542,2220.617826,6513.812290
382.217608,3064.381992,2294.638420,5995.668130
382.217916,3140.991542,4515.256246,7105.977043
382.218224,2145.067394,4219.173869,8290.306550
382.218532,2451.505594,3552.988522,9474.636058
382.218839,1915.238745,2960.823768,9696.697840
382.219147,1072.533697,666.185348,11103.089130
382.219455,-383.047749,-2072.576638,13915.871710
382.219763,-2145.067394,-3182.885551,13249.686362
382.220071,-3447.429741,-3552.988522,12435.459826
382.220378,-4366.744339,-4293.194464,13323.706956
382.220686,-1838.629195,-2812.782580,11177.109724
382.220994,689.485948,-518.144159,9400.615463
382.221302,2681.334243,666.185348,6735.874072
382.221610,3524.039291,2368.659014,4811.338623
382.221917,4136.915689,3701.029710,5033.400406
382.222225,3524.039291,4145.153275,6143.709319
382.222533,1915.238745,4589.276840,7105.977043
382.222841,2528.115143,4367.215058,9326.594869
382.223149,1838.629195,2960.823768,9474.636058
382.223457,919.314598,962.267725,10807.006753
382.223764,229.828649,-1258.350101,12213.398043
382.224072,-1991.848295,-3108.864956,13693.809927
382.224380,-3064.381992,-4811.338623,13471.748144
382.224688,-3140.991542,-4515.256246,13027.624579
382.224996,-2451.505594,-3627.009116,11917.315666
382.225303,-383.047749,-2442.679609,9548.656652
382.225611,2681.334243,-444.123565,7994.224174
382.225919,3294.210641,1184.329507,5551.544565
382.226227,3447.429741,2294.638420,4885.359217
382.226535,3217.601092,3404.947333,6069.688724
382.226842,2528.115143,4515.256246,6661.853478
382.227150,2298.286494,3923.091493,8068.244768
382.227458,2068.457845,2886.803174,9400.615463
382.227766,1455.581446,1184.329507,9918.759623
382.228074,0.000000,-1332.370696,11991.336260
382.228382,-1838.629195,-3108.864956,13619.789333
382.228689,-3370.820191,-4515.256246,14211.954086
382.228997,-4213.525239,-4737.318029,13545.768739
382.229305,-3447.429741,-3997.112087,12287.418637
382.229613,-1149.143247,-2886.803174,10955.047942
382.229921,1915.238745,-888.247130,8364.327145
382.230228,2987.772442,1554.432478,6291.750507
382.230536,3294.210641,2590.720797,4219.173869
382.230844,3907.087040,3923.091493,5255.462188
382.231152,3140.991542,4811.338623,6957.935855
382.231460,2451.505594,4663.297435,8068.244768
382.231767,2298.286494,3923.091493,8216.285956
382.232075,2374.896044,2368.659014,9030.512492
382.232383,842.705048,-0.000000,11177.109724
382.232691,-1072.533697,-1850.514855,13175.665768
382.232999,-3294.210641,-3701.029710,13249.686362
382.233307,-3830.477490,-4589.276840,13619.789333
382.233614,-3907.087040,-3849.070898,12657.521608
382.233922,-1302.362347,-2368.659014,11399.171507
382.234230,842.705048,-1110.308913,8956.491898
382.234538,2834.553343,666.185348,6513.812290
382.234846,3140.991542,1332.370696,5551.544565
382.235153,3294.210641,2886.803174,6365.771101
382.235461,2681.334243,4441.235652,6735.874072
382.235769,2911.162892,4367.215058,8512.368333
382.236077,2834.553343,3923.091493,8882.471304
382.236385,1991.848295,2664.741391,8734.430116
382.236692,1991.848295,-666.185348,11325.150913
382.237000,383.047749,-2146.597232,13545.768739
382.237308,-1762.019645,-3849.070898,13027.624579
382.237616,-2911.162892,-4293.194464,12953.603985
382.237924,-3217.601092,-3923.091493,12213.398043
382.238232,-1915.238745,-3552.988522,11991.336260
382.238539,766.095498,-592.164754,9474.636058
382.238847,2451.505594,814.226536,6809.894666
382.239155,3370.820191,962.267725,6513.812290
382.239463,2987.772442,2886.803174,5921.647536
382.239771,2681.334243,3627.009116,6439.791695
382.240078,2068.457845,4515.256246,8068.244768
382.240386,2604.724693,3108.864956,9474.636058
382.240694,459.657299,3330.926739,8808.450710
382.241002,612.876398,-0.000000,11621.233289
382.241310,0.000000,-1998.556043,12953.603985
382.241617,-2911.162892,-2664.741391,12879.583391
382.241925,-3524.039291,-4959.379811,13619.789333
382.242233,-3294.210641,-4515.256246,11843.295072
382.242541,-2911.162892,-3478.967927,11843.295072
382.242849,-306.438199,-1480.411884,9992.780217
382.243157,2451.505594,148.041188,7402.059420
382.243465,3064.381992,2220.617826,5625.565159
382.243773,3140.991542,2664.741391,5329.482782
382.244081,4060.306139,4441.235652,5847.626942
382.244389,2528.115143,5181.441594,6809.894666
382.244696,3370.820191,4589.276840,8142.265362
382.245004,1455.581446,3552.988522,8882.471304
382.245312,1532.190996,2294.638420,10732.986159
382.245620,383.047749,-1332.370696,12805.562797
382.245928,-995.924147,-1332.370696,12953.603985
382.246236,-3140.991542,-4145.153275,13175.665768
382.246544,-3677.258390,-4441.235652,13619.789333
382.246852,-3064.381992,-3775.050304,11843.295072
382.247160,-1455.581446,-2738.761985,11695.253884
382.247468,1915.238745,-444.123565,9178.553681
382.247775,3294.210641,814.226536,5847.626942
382.248083,2757.943793,1924.535449,6439.791695
382.248391,3370.820191,2664.741391,7328.038826
382.248699,2451.505594,4441.235652,7179.997637
382.249007,2451.505594,4071.132681,9326.594869
382.249315,2374.896044,3182.885551,9030.512492
382.249623,1685.410096,2664.741391,9474.636058
382.249931,1685.410096,148.041188,11547.212695
382.250239,0.000000,-1480.411884,12657.521608
382.250547,-1685.410096,-2886.803174,11843.295072
382.250854,-2681.334243,-3775.050304,12287.418637
382.251162,-3370.820191,-4367.215058,12287.418637
382.251470,-1608.800546,-3182.885551,11399.171507
382.251778,995.924147,-740.205942,9918.759623
382.252086,2068.457845,148.041188,7031.956449
382.252394,2528.115143,1628.453072,5403.503377
382.252702,3140.991542,2368.659014,6809.894666
382.253010,2681.334243,3627.009116,6587.832884
382.253318,2834.553343,4145.153275,7105.977043
382.253626,2451.505594,4367.215058,7772.162391
382.253933,3064.381992,3182.885551,8956.491898
382.254241,2068.457845,1628.453072,9622.677246
382.254549,229.828649,-518.144159,11769.274478
382.254857,-1072.533697,-2368.659014,12287.418637
382.255165,-2911.162892,-3404.947333,11695.253884
382.255473,-3907.087040,-3552.988522,12953.603985
382.255781,-3294.210641,-3997.112087,12657.521608
382.256089,-1072.533697,-1406.391290,9770.718434
382.256397,2221.676944,-0.000000,8586.388927
382.256705,2451.505594,518.144159,6069.688724
382.257013,2987.772442,1628.453072,5033.400406
382.257320,3524.039291,2442.679609,7994.224174
382.257628,2451.505594,3775.050304,8586.388927
382.257936,2528.115143,4219.173869,7920.203579
382.258244,2068.457845,3997.112087,9030.512492
382.258552,2298.286494,1628.453072,10436.903782
382.258860,1302.362347,-148.041188,11621.233289
382.259168,-612.876398,-1628.453072,12509.480420
382.259476,-2298.286494,-2960.823768,12361.439231
382.259784,-3447.429741,-4219.173869,12805.562797
382.260092,-3677.258390,-3478.967927,13175.665768
382.260399,-1072.533697,-1924.535449,11473.192101
382.260707,306.438199,-666.185348,8068.244768
382.261015,1302.362347,222.061783,6883.915261
382.261323,1838.629195,592.164754,7179.997637
382.261631,1762.019645,2590.720797,7920.203579
382.261939,2068.457845,2738.761985,8364.327145
382.262247,1915.238745,3701.029710,8142.265362
382.262555,2451.505594,3627.009116,8660.409521
382.262863,1608.800546,2294.638420,9178.553681
382.263171,1762.019645,666.185348,11029.068536
382.263478,306.438199,-1036.288319,12213.398043
382.263786,-1991.848295,-3108.864956,11399.171507
382.264094,-3600.648841,-4367.215058,11991.336260
382.264402,-3983.696590,-3182.885551,12213.398043
382.264710,-2145.067394,-3256.906145,11621.233289
382.265018,842.705048,-888.247130,8808.450710
382.265326,2068.457845,370.102971,6291.750507
382.265634,2451.505594,740.205942,6365.771101
382.265942,2757.943793,2072.576638,6661.853478
382.266250,2987.772442,3404.947333,7402.059420
382.266557,3064.381992,4145.153275,7105.977043
382.266865,3600.648841,3627.009116,7476.080014
382.267173,2987.772442,2812.782580,9474.636058
382.267481,2451.505594,962.267725,10140.821405
382.267789,766.095498,-814.226536,11547.212695
382.268097,-1455.581446,-2516.700203,11769.274478
382.268405,-3140.991542,-4219.173869,13101.645173
382.268713,-3830.477490,-4219.173869,12805.562797
382.269021,-2681.334243,-3849.070898,11991.336260
382.269329,-306.438199,-1628.453072,9548.656652
382.269636,2145.067394,-0.000000,8364.327145
382.269944,2451.505594,222.061783,6883.915261
382.270252,2374.896044,1406.391290,7328.038826
382.270560,2757.943793,3330.926739,7698.141797
382.270868,2834.553343,4737.318029,7179.997637
382.271176,3600.648841,4589.276840,7179.997637
382.271484,2987.772442,4219.173869,8660.409521
382.271792,2528.115143,2664.741391,9252.574275
382.272100,2834.553343,-222.061783,11843.295072
382.272408,-919.314598,-1924.535449,11547.212695
382.272716,-3524.039291,-3182.885551,12361.439231
382.273023,-3370.820191,-5033.400406,13989.892304
382.273331,-4136.915689,-3478.967927,11843.295072
382.273639,-1072.533697,-2516.700203,10658.965565
382.273947,1762.019645,-74.020594,8290.306550
382.274255,2298.286494,-148.041188,6883.915261
382.274563,1762.019645,814.226536,7105.977043
382.274871,2987.772442,3552.988522,7105.977043
382.275179,2451.505594,4515.256246,7624.121203
382.275487,3064.381992,4293.194464,7328.038826
382.275795,3677.258390,4959.379811,7772.162391
382.276102,2911.162892,2442.679609,9104.533087
382.276410,1838.629195,518.144159,11177.109724
382.276718,153.219100,-1184.329507,11325.150913
382.277026,-3064.381992,-2960.823768,11399.171507
382.277334,-3677.258390,-4367.215058,13175.665768
382.277642,-3830.477490,-3404.947333,11843.295072
382.277950,-1685.410096,-2368.659014,11621.233289
382.278258,0.000000,-1258.350101,8438.347739
382.278566,2298.286494,-296.082377,6587.832884
382.278874,2145.067394,-0.000000,7254.018232
382.279181,1838.629195,1554.432478,6883.915261
382.279489,2068.457845,2738.761985,8364.327145
382.279797,2451.505594,4071.132681,9178.553681
382.280105,2374.896044,3404.947333,8586.388927
382.280413,2451.505594,2220.617826,9696.697840
382.280721,2068.457845,-0.000000,11029.068536
382.281029,76.609550,-1480.411884,11547.212695
382.281337,-1991.848295,-2590.720797,12287.418637
382.281645,-2987.772442,-2960.823768,12139.377449
382.281953,-3294.210641,-3627.009116,12361.439231
382.282260,-2068.457845,-2368.659014,11251.130318
382.282568,229.828649,-1184.329507,9474.636058
382.282876,1838.629195,-0.000000,7105.977043
382.283184,1838.629195,1184.329507,6587.832884
382.283492,2221.676944,1406.391290,7402.059420
382.283800,1608.800546,3034.844362,7476.080014
382.284108,2145.067394,3627.009116,8586.388927
382.284416,2145.067394,3849.070898,7920.203579
382.284724,2451.505594,2368.659014,9844.739029
382.285032,1838.629195,592.164754,10288.862594
382.285339,766.095498,-518.144159,10955.047942
382.285647,-1455.581446,-2516.700203,11843.295072
382.285955,-2681.334243,-3849.070898,11621.233289
382.286263,-3294.210641,-3478.967927,11473.192101
382.286571,-1762.019645,-3256.906145,11473.192101
382.286879,-229.828649,-962.267725,9474.636058
382.287187,2451.505594,740.205942,7328.038826
382.287495,1762.019645,1036.288319,7254.018232
382.287803,2528.115143,2294.638420,6143.709319
382.288111,2298.286494,3330.926739,7698.141797
382.288419,2298.286494,3701.029710,8290.306550
382.288726,2834.553343,2738.761985,8216.285956
382.289034,2374.896044,2960.823768,9622.677246
382.289342,2145.067394,666.185348,10807.006753
382.289650,1685.410096,-592.164754,11695.253884
382.289958,-306.438199,-2072.576638,11991.336260
382.290266,-2451.505594,-3256.906145,12139.377449
382.290574,-2221.676944,-3256.906145,12287.418637
382.290882,-2145.067394,-2664.741391,11843.295072
382.291190,0.000000,-2072.576638,10732.986159
382.291498,2068.457845,-444.123565,8068.244768
382.291805,1915.238745,592.164754,7031.956449
382.292113,2221.676944,962.267725,7254.018232
382.292421,2068.457845,2664.741391,7846.182985
382.292729,1532.190996,3627.009116,8364.327145
382.293037,2681.334243,3182.885551,8808.450710
382.293345,2911.162892,4071.132681,8808.450710
382.293653,3140.991542,2294.638420,10510.924376
382.293961,1608.800546,74.020594,11325.150913
382.294269,689.485948,-1258.350101,11029.068536
382.294577,-1225.752797,-2368.659014,11251.130318
382.294884,-2604.724693,-2738.761985,11473.192101
382.295192,-2451.505594,-3627.009116,12065.356855
382.295500,-1225.752797,-2072.576638,10881.027347
382.295808,919.314598,-592.164754,8142.265362
382.296116,2145.067394,-296.082377,7624.121203
382.296424,1685.410096,888.247130,7031.956449
382.296732,1455.581446,1554.432478,7920.203579
382.297040,1072.533697,2442.679609,8808.450710
382.297348,1455.581446,3182.885551,8660.409521
382.297656,1915.238745,3775.050304,8216.285956
382.297963,3064.381992,2812.782580,9770.718434
382.298271,2451.505594,740.205942,10436.903782
382.298579,919.314598,-74.020594,10510.924376
382.298887,-536.266849,-2220.617826,10584.944971
382.299195,-2834.553343,-2738.761985,10955.047942
382.299503,-2681.334243,-3330.926739,11621.233289
382.299811,-1302.362347,-2072.576638,10955.047942
382.300119,383.047749,-1702.473667,9252.574275
382.300427,919.314598,-148.041188,7105.977043
382.300735,842.705048,-222.061783,7624.121203
382.301043,2145.067394,962.267725,8216.285956
382.301350,1225.752797,2146.597232,8734.430116
382.301658,919.314598,2960.823768,9030.512492
382.301966,2068.457845,2590.720797,9178.553681
382.302274,2451.505594,3182.885551,9474.636058
382.302582,2681.334243,1332.370696,10214.842000
382.302890,2298.286494,-0.000000,10658.965565
382.303198,76.609550,-1406.391290,10732.986159
382.303506,-2221.676944,-3182.885551,11769.274478
382.303814,-2451.505594,-3627.009116,11843.295072
382.304122,-2145.067394,-2368.659014,11473.192101
382.304429,153.219100,-1258.350101,9400.615463
382.304737,1149.143247,-296.082377,7846.182985
382.305045,1532.190996,222.061783,7920.203579
382.305353,1149.143247,296.082377,7994.224174
382.305661,1838.629195,2072.576638,7994.224174
382.305969,1455.581446,2590.720797,8882.471304
382.306277,1378.971896,3775.050304,8734.430116
382.306585,1915.238745,2368.659014,10066.800811
382.306893,2451.505594,1110.308913,10658.965565
382.307201,1378.971896,222.061783,9992.780217
382.307508,-229.828649,-1406.391290,11473.192101
382.307816,-1532.190996,-3330.926739,12657.521608
382.308124,-2757.943793,-2812.782580,12139.377449
382.308432,-3140.991542,-2368.659014,11177.109724
382.308740,-229.828649,-666.185348,10362.883188
382.309048,1378.971896,222.061783,8068.244768
382.309356,1608.800546,888.247130,6883.915261
382.309664,2604.724693,1850.514855,7031.956449
382.309972,2374.896044,2738.761985,7105.977043
382.310280,1685.410096,3701.029710,7772.162391
382.310587,2374.896044,3997.112087,8438.347739
382.310895,2604.724693,3108.864956,9992.780217
382.311203,2068.457845,1184.329507,9548.656652
382.311511,1915.238745,-0.000000,10214.842000
382.311819,0.000000,-1554.432478,11177.109724
382.312127,-2221.676944,-3478.967927,12583.501014
382.312435,-2604.724693,-3997.112087,12435.459826
382.312743,-2451.505594,-3108.864956,11917.315666
382.313051,-842.705048,-2442.679609,10807.006753
382.313359,1302.362347,-888.247130,8142.265362
382.313666,1532.190996,444.123565,7105.977043
382.313974,2068.457845,740.205942,7254.018232
382.314282,2451.505594,2368.659014,7105.977043
382.314590,1838.629195,3478.967927,7550.100608
382.314898,1838.629195,3330.926739,8142.265362
382.315206,2298.286494,3627.009116,9326.594869
382.315514,2374.896044,1924.535449,10658.965565
382.315822,1838.629195,-0.000000,10732.986159
382.316130,383.047749,-1628.453072,10658.965565
382.316438,-1762.019645,-2738.761985,11547.212695
382.316746,-3140.991542,-3627.009116,12509.480420
382.317053,-3140.991542,-3552.988522,11843.295072
382.317361,-1685.410096,-1998.556043,10510.924376
382.317669,612.876398,-74.020594,9178.553681
382.317977,2145.067394,370.102971,6587.832884
382.318285,2681.334243,1258.350101,5995.668130
382.318593,3064.381992,2368.659014,7031.956449
382.318901,2145.067394,3404.947333,6809.894666
382.319209,1455.581446,3627.009116,8216.285956
382.319517,1608.800546,3849.070898,9030.512492
382.319825,2221.676944,2368.659014,9770.718434
382.320132,995.924147,592.164754,10732.986159
382.320440,536.266849,-962.267725,11621.233289
382.320748,-1532.190996,-2886.803174,13027.624579
382.321056,-2757.943793,-3182.885551,12139.377449
382.321364,-2757.943793,-3552.988522,11695.253884
382.321672,-2068.457845,-2294.638420,10584.944971
382.321980,689.485948,-1110.308913,9696.697840
382.322288,2068.457845,-0.000000,7105.977043
382.322596,3217.601092,1110.308913,5921.647536
382.322904,3600.648841,1036.288319,6513.812290
382.323211,1685.410096,2812.782580,7105.977043
382.323519,1762.019645,3108.864956,8364.327145
382.323827,1762.019645,3330.926739,8882.471304
382.324135,1838.629195,2590.720797,9548.656652
382.324443,1608.800546,740.205942,10362.883188
382.324751,1762.019645,-666.185348,11103.089130
382.325059,-383.047749,-2738.761985,12139.377449
382.325367,-2145.067394,-3034.844362,11621.233289
382.325675,-2451.505594,-3849.070898,13397.727550
382.325983,-2604.724693,-2886.803174,11695.253884
382.326290,76.609550,-888.247130,9400.615463
382.326598,2068.457845,-74.020594,8216.285956
382.326906,2604.724693,1036.288319,6587.832884
382.327214,3983.696590,2146.597232,6217.729913
382.327522,2068.457845,2516.700203,7254.018232
382.327830,1762.019645,2442.679609,8512.368333
382.328138,1762.019645,3182.885551,9104.533087
382.328446,1149.143247,3330.926739,10436.903782
382.328754,1838.629195,1110.308913,11177.109724
382.329062,1149.143247,-0.000000,11103.089130
382.329370,0.000000,-1480.411884,12287.418637
382.329677,-2451.505594,-3256.906145,12213.398043
382.329985,-2987.772442,-3330.926739,11991.336260
382.330293,-2068.457845,-3182.885551,12361.439231
382.330601,-306.438199,-1036.288319,10140.821405
382.330909,1149.143247,444.123565,7328.038826
382.331217,2987.772442,1110.308913,6883.915261
382.331525,3064.381992,2146.597232,6143.709319
382.331833,2451.505594,3330.926739,6513.812290
382.332141,1762.019645,3182.885551,7994.224174
382.332449,1378.971896,3330.926739,8956.491898
382.332756,1302.362347,2960.823768,10288.862594
382.333064,1762.019645,1184.329507,11473.192101
382.333372,766.095498,-148.041188,11103.089130
382.333680,0.000000,-1628.453072,12065.356855
382.333988,-1378.971896,-3330.926739,12731.542202
382.334296,-3524.039291,-3108.864956,12361.439231
382.334604,-1762.019645,-3182.885551,13175.665768
382.334912,-1378.971896,-1998.556043,9696.697840
382.335220,612.876398,-1036.288319,9622.677246
382.335528,2604.724693,-518.144159,7772.162391
382.335835,1915.238745,1628.453072,5107.421000
382.336143,2757.943793,1258.350101,8068.244768
382.336451,1762.019645,3701.029710,7031.956449
382.336759,1532.190996,3256.906145,8808.450710
382.337067,1762.019645,4219.173869,9474.636058
382.337375,2374.896044,2368.659014,10140.821405
382.337683,2298.286494,-0.000000,10584.944971
382.337991,689.485948,-740.205942,11029.068536
382.338299,-536.266849,-3256.906145,13841.851115
382.338607,-3064.381992,-3627.009116,12361.439231
382.338914,-3753.867940,-3182.885551,13101.645173
382.339222,-2298.286494,-3256.906145,11843.295072
382.339530,-229.828649,-888.247130,8808.450710
382.339838,2298.286494,222.061783,8290.306550
382.340146,2681.334243,1258.350101,6069.688724
382.340454,3677.258390,2368.659014,5699.585753
382.340762,2604.724693,3108.864956,6735.874072
382.341070,2298.286494,4219.173869,7105.977043
382.341378,1991.848295,3997.112087,8290.306550
382.341686,2374.896044,2812.782580,10140.821405
382.341993,2681.334243,1110.308913,10362.883188
382.342301,153.219100,-74.020594,10881.027347
382.342609,-1455.581446,-2590.720797,12731.542202
382.342917,-2604.724693,-3775.050304,12953.603985
382.343225,-3600.648841,-2812.782580,11843.295072
382.343533,-2987.772442,-2738.761985,11843.295072
382.343841,-766.095498,-1702.473667,9844.739029
382.344149,1762.019645,-0.000000,7920.203579
382.344457,2834.553343,592.164754,7031.956449
382.344765,2528.115143,1850.514855,6143.709319
382.345073,2604.724693,2220.617826,6957.935855
382.345381,2221.676944,3330.926739,7328.038826
382.345689,2298.286494,3849.070898,8438.347739
382.345997,1455.581446,3256.906145,9474.636058
382.346305,1838.629195,1406.391290,10955.047942
382.346613,536.266849,-74.020594,10732.986159
382.346921,-536.266849,-2072.576638,12435.459826
382.347229,-2451.505594,-4293.194464,13471.748144
382.347537,-3064.381992,-3627.009116,12879.583391
382.347845,-3064.381992,-4219.173869,12361.439231
382.348153,-1685.410096,-2516.700203,10362.883188
382.348461,1149.143247,-666.185348,9178.553681
382.348769,2911.162892,888.247130,6513.812290
382.349077,2451.505594,2442.679609,4515.256246
382.349385,3064.381992,3182.885551,7105.977043
382.349693,3064.381992,3997.112087,7476.080014
382.350001,2681.334243,4811.338623,7254.018232
382.350309,1608.800546,3775.050304,9326.594869
382.350617,2528.115143,1554.432478,11103.089130
382.350925,842.705048,222.061783,10881.027347
382.351233,-612.876398,-1776.494261,12213.398043
382.351541,-2374.896044,-4071.132681,13545.768739
382.351849,-3447.429741,-3775.050304,12879.583391
382.352157,-3907.087040,-3701.029710,12657.521608
382.352465,-1149.143247,-2812.782580,11547.212695
382.352774,0.000000,-1036.288319,9252.574275
382.353082,2681.334243,962.267725,7698.141797
382.353390,3294.210641,2072.576638,5033.400406
382.353698,3907.087040,3182.885551,5033.400406
382.354006,3447.429741,3849.070898,5995.668130
382.354314,3217.601092,4737.318029,6661.853478
382.354622,3370.820191,4145.153275,8660.409521
382.354930,2221.676944,2812.782580,9252.574275
382.355238,2068.457845,962.267725,10955.047942
382.355546,-612.876398,-1924.535449,12213.398043
382.355854,-2681.334243,-3627.009116,13175.665768
382.356162,-3064.381992,-4515.256246,13693.809927
382.356470,-3753.867940,-3997.112087,12361.439231
382.356778,-2834.553343,-3552.988522,12065.356855
382.357086,0.000000,-2294.638420,10881.027347
382.357394,2221.676944,-296.082377,8068.244768
382.357702,2987.772442,518.144159,6587.832884
382.358010,3524.039291,2368.659014,5625.565159
382.358318,3524.039291,3330.926739,6735.874072
382.358626,3370.820191,4071.132681,8068.244768
382.358934,2911.162892,4441.235652,8438.347739
382.359242,3370.820191,3627.009116,9178.553681
382.359550,2145.067394,1480.411884,10510.924376
382.359858,1302.362347,-666.185348,11695.253884
382.360166,-1302.362347,-2368.659014,12287.418637
382.360474,-2604.724693,-4145.153275,12583.501014
382.360782,-3677.258390,-3552.988522,12213.398043
382.361090,-3524.039291,-3034.844362,12213.398043
382.361398,-1378.971896,-2812.782580,11769.274478
382.361706,1455.581446,-148.041188,8660.409521
382.362014,3217.601092,962.267725,6439.791695
382.362322,3140.991542,2220.617826,4737.318029
382.362630,3600.648841,3034.844362,6809.894666
382.362938,2911.162892,3849.070898,7179.997637
382.363246,3217.601092,4885.359217,7476.080014
382.363554,3217.601092,4441.235652,8364.327145
382.363862,2604.724693,3182.885551,9104.533087
382.364170,1838.629195,666.185348,11251.130318
382.364478,0.000000,-1702.473667,12657.521608
382.364786,-2911.162892,-3404.947333,11695.253884
382.365094,-3677.258390,-3849.070898,12879.583391
382.365402,-3524.039291,-3923.091493,13471.748144
382.365710,-2757.943793,-2590.720797,11769.274478
382.366018,229.828649,-592.164754,9696.697840
382.366326,2834.553343,148.041188,7772.162391
382.366634,2451.505594,2294.638420,5477.523971
382.366942,1991.848295,1998.556043,6957.935855
382.367250,2528.115143,2368.659014,9326.594869
382.367558,2374.896044,4737.318029,8734.430116
382.367866,2528.115143,4071.132681,9622.677246
382.368174,1838.629195,2960.823768,10732.986159
382.368482,1685.410096,1184.329507,11325.150913
382.368790,0.000000,-444.123565,12657.521608
382.369098,-2451.505594,-2368.659014,13471.748144
382.369406,-3217.601092,-3034.844362,12287.418637
382.369714,-4519.963438,-3849.070898,13027.624579
382.370022,-2834.553343,-3997.112087,13175.665768
382.370330,-842.705048,-1554.432478,10214.842000
382.370638,1225.752797,-0.000000,8290.306550
382.370946,2451.505594,444.123565,6069.688724
382.371255,3370.820191,2072.576638,5551.544565
382.371563,3370.820191,2664.741391,7624.121203
382.371871,2604.724693,3182.885551,7846.182985
382.372179,2834.553343,4293.194464,8216.285956
382.372487,3140.991542,2886.803174,9844.739029
382.372795,2604.724693,1924.535449,9474.636058
382.373103,536.266849,-74.020594,10362.883188
382.373411,-612.876398,-2368.659014,12583.501014
382.373719,-2221.676944,-3108.864956,11325.150913
382.374027,-4213.525239,-2960.823768,11251.130318
382.374335,-3064.381992,-3627.009116,12805.562797
382.374643,-612.876398,-2812.782580,11251.130318
382.374951,689.485948,518.144159,7328.038826
382.375259,2681.334243,-0.000000,6883.915261
382.375567,2987.772442,1036.288319,5107.421000
382.375875,1991.848295,1998.556043,6365.771101
382.376183,2145.067394,2368.659014,7772.162391
382.376491,2911.162892,3034.844362,8068.244768
382.376799,2681.334243,3330.926739,8734.430116
382.377107,2145.067394,518.144159,10362.883188
382.377415,1149.143247,-444.123565,10214.842000
382.377723,-689.485948,-2072.576638,11473.192101
382.378031,-2451.505594,-2812.782580,11917.315666
382.378339,-2987.772442,-3182.885551,11843.295072
382.378647,-3370.820191,-3256.906145,12139.377449
382.378955,-2528.115143,-3256.906145,12657.521608
382.379263,383.047749,-518.144159,9326.594869
382.379571,2987.772442,666.185348,7476.080014
382.379879,2145.067394,1258.350101,4959.379811
382.380187,1838.629195,1850.514855,6957.935855
382.380495,2145.067394,3108.864956,8438.347739
382.380803,2987.772442,3997.112087,7476.080014
382.381111,2604.724693,4145.153275,7994.224174
382.381419,2987.772442,2442.679609,9326.594869
382.381727,2221.676944,296.082377,11177.109724
382.382035,536.266849,-1184.329507,11547.212695
382.382343,-1838.629195,-3108.864956,13175.665768
382.382651,-2987.772442,-3478.967927,12731.542202
382.382959,-3677.258390,-3552.988522,12213.398043
382.383267,-1991.848295,-2738.761985,12435.459826
382.383575,689.485948,-296.082377,9474.636058
382.383883,1838.629195,-0.000000,7402.059420
382.384191,2451.505594,962.267725,6291.750507
382.384499,3830.477490,2664.741391,6143.709319
382.384807,2757.943793,3478.967927,7476.080014
382.385115,2451.505594,4071.132681,8290.306550
382.385423,3294.210641,4663.297435,7846.182985
382.385731,2604.724693,3330.926739,9474.636058
382.386039,1991.848295,1110.308913,10658.965565
382.386347,842.705048,-962.267725,10732.986159
382.386655,-1149.143247,-1998.556043,12731.542202
382.386963,-2451.505594,-3552.988522,12583.501014
382.387271,-3830.477490,-3478.967927,12361.439231
382.387579,-2604.724693,-3108.864956,12879.583391
382.387887,0.000000,-1702.473667,10288.862594
382.388195,1225.752797,296.082377,7550.100608
382.388503,2221.676944,1036.288319,6883.915261
382.388811,2451.505594,1554.432478,7031.956449
382.389119,2145.067394,2146.597232,8142.265362
382.389427,2451.505594,3034.844362,8660.409521
382.389736,2068.457845,3849.070898,8586.388927
382.390044,2298.286494,2886.803174,10214.842000
382.390352,2528.115143,1628.453072,10807.006753
382.390660,1378.971896,-74.020594,10658.965565
382.390968,-536.266849,-2220.617826,11769.274478
382.391276,-1302.362347,-3182.885551,11325.150913
382.391584,-3370.820191,-3552.988522,11769.274478
382.391892,-2911.162892,-4145.153275,12509.480420
382.392200,-919.314598,-1702.473667,9844.739029
382.392508,1532.190996,-518.144159,8586.388927
382.392816,919.314598,-0.000000,6735.874072
382.393124,2528.115143,1332.370696,6809.894666
382.393432,2374.896044,2294.638420,7772.162391
382.393740,1915.238745,3034.844362,8956.491898
382.394048,2604.724693,2812.782580,9030.512492
382.394356,2604.724693,3627.009116,8734.430116
382.394664,2068.457845,740.205942,10658.965565
382.394972,995.924147,148.041188,9326.594869
382.395280,229.828649,-1998.556043,11325.150913
382.395588,-2145.067394,-2590.720797,11917.315666
382.395896,-2987.772442,-3330.926739,11621.233289
382.396204,-3370.820191,-2590.720797,11843.295072
382.396512,-1455.581446,-1924.535449,11325.150913
382.396820,536.266849,222.061783,8142.265362
382.397128,2834.553343,962.267725,7476.080014
382.397436,1685.410096,1480.411884,5255.462188
382.397744,2834.553343,2294.638420,7179.997637
382.398052,2528.115143,2516.700203,8734.430116
382.398360,766.095498,4441.235652,7476.080014
382.398668,3447.429741,2368.659014,9918.759623
382.398976,3217.601092,2664.741391,9548.656652
382.399284,1455.581446,-296.082377,10140.821405
382.399592,459.657299,-888.247130,11251.130318
382.399900,-1455.581446,-2294.638420,12287.418637
382.400208,-3370.820191,-3034.844362,12805.562797
382.400516,-3370.820191,-2664.741391,11769.274478
382.400824,-1225.752797,-2294.638420,12213.398043
382.401132,0.000000,-740.205942,9474.636058
382.401440,1302.362347,296.082377,7105.977043
382.401748,2145.067394,1480.411884,6587.832884
382.402056,2068.457845,1480.411884,6735.874072
382.402364,1302.362347,2220.617826,8438.347739
382.402672,1838.629195,3478.967927,8364.327145
382.402980,1838.629195,3775.050304,9844.739029
382.403288,2068.457845,2368.659014,10066.800811
382.403596,2298.286494,962.267725,10140.821405
382.403904,1532.190996,-518.144159,11251.130318
382.404212,-229.828649,-1998.556043,11621.233289
382.404520,-1685.410096,-2738.761985,11843.295072
382.404828,-2757.943793,-3182.885551,11917.315666
382.405136,-2528.115143,-2664.741391,11843.295072
382.405444,-842.705048,-1406.391290,10510.924376
382.405752,1378.971896,148.041188,8882.471304
382.406060,1225.752797,592.164754,7031.956449
382.406368,1608.800546,1332.370696,7254.018232
382.406676,1991.848295,2146.597232,8068.244768
382.406984,1762.019645,3478.967927,8512.368333
382.407292,1762.019645,3923.091493,8142.265362
382.407600,2298.286494,3330.926739,9622.677246
382.407908,2911.162892,2146.597232,10288.862594
382.408217,2451.505594,1702.473667,9992.780217
382.408525,1149.143247,-962.267725,10807.006753
382.408833,-995.924147,-2294.638420,11325.150913
382.409141,-2374.896044,-3256.906145,11769.274478
382.409449,-3370.820191,-2960.823768,12213.398043
382.409757,-1455.581446,-2294.638420,11103.089130
382.410065,842.705048,-296.082377,8438.347739
382.410373,1762.019645,-0.000000,6883.915261
382.410681,2451.505594,740.205942,6587.832884
382.410989,2145.067394,1702.473667,7179.997637
382.411297,2374.896044,2664.741391,9178.553681
382.411605,1685.410096,3034.844362,8290.306550
382.411913,1915.238745,2812.782580,9104.533087
382.412221,2834.553343,1850.514855,9918.759623
382.412529,2221.676944,370.102971,10510.924376
382.412837,1149.143247,-1332.370696,11177.109724
382.413145,-1149.143247,-2368.659014,11473.192101
382.413453,-2374.896044,-3034.844362,11843.295072
382.413761,-2528.115143,-2886.803174,12139.377449
382.414069,-1149.143247,-1924.535449,10881.027347
382.414377,459.657299,-814.226536,9030.512492
382.414685,2298.286494,-222.061783,7328.038826
382.414993,2451.505594,592.164754,5773.606348
382.415301,1991.848295,1702.473667,7031.956449
382.415609,1991.848295,1702.473667,8586.388927
382.415917,1225.752797,3108.864956,8586.388927
382.416225,1991.848295,2442.679609,9770.718434
382.416533,2221.676944,1998.556043,10436.903782
382.416841,1302.362347,296.082377,10362.883188
382.417149,306.438199,-962.267725,10881.027347
382.417457,-1072.533697,-2590.720797,11843.295072
382.417765,-2374.896044,-2664.741391,11399.171507
382.418073,-3064.381992,-3256.906145,11695.253884
382.418381,-1915.238745,-2146.597232,11399.171507
382.418689,-383.047749,-0.000000,8438.347739
382.418997,2068.457845,1480.411884,6957.935855
382.419305,3140.991542,1702.473667,6809.894666
382.419613,2145.067394,2886.803174,4737.318029
382.419921,2451.505594,3478.967927,8142.265362
382.420229,3677.258390,2960.823768,8512.368333
382.420537,0.000000,4737.318029,6513.812290
382.420845,2451.505594,-0.000000,13027.624579
382.421153,0.000000,518.144159,11029.068536
382.421461,-1072.533697,-1850.514855,12361.439231
382.421769,-1608.800546,-3256.906145,13471.748144
382.422077,-2374.896044,-3478.967927,12435.459826
382.422385,-3524.039291,-3108.864956,11991.336260
382.422693,-2681.334243,-1924.535449,10732.986159
382.423001,1608.800546,-370.102971,9844.739029
382.423309,1072.533697,444.123565,7105.977043
382.423617,2374.896044,1258.350101,7550.100608
382.423925,3064.381992,2146.597232,6809.894666
382.424233,1991.848295,2442.679609,7328.038826
382.424541,1608.800546,3775.050304,8512.368333
382.424849,1608.800546,3552.988522,8290.306550
382.425157,1455.581446,2368.659014,10732.986159
382.425465,842.705048,148.041188,10732.986159
382.425773,1532.190996,-0.000000,10584.944971
382.426081,-766.095498,-2664.741391,12435.459826
382.426390,-1991.848295,-3182.885551,11399.171507
382.426698,-2298.286494,-3256.906145,11695.253884
382.427006,-2451.505594,-2516.700203,11251.130318
382.427314,-536.266849,-1110.308913,9400.615463
382.427622,2604.724693,296.082377,8068.244768
382.427930,2604.724693,1110.308913,6661.853478
382.428238,2451.505594,814.226536,6291.750507
382.428546,1532.190996,2146.597232,6957.935855
382.428854,2145.067394,2590.720797,9104.533087
382.429162,1072.533697,3404.947333,8808.450710
382.429470,612.876398,3034.844362,10066.800811
382.429778,2451.505594,1628.453072,11473.192101
382.430086,1685.410096,370.102971,9992.780217
382.430394,306.438199,-1406.391290,11177.109724
382.430702,-306.438199,-2442.679609,11029.068536
382.431010,-2145.067394,-2664.741391,11325.150913
382.431318,-3370.820191,-3108.864956,11621.233289
382.431626,-383.047749,-1776.494261,11177.109724
382.431934,1225.752797,148.041188,9104.533087
382.432242,1991.848295,814.226536,6439.791695
382.432550,3600.648841,1702.473667,5403.503377
382.432858,3600.648841,2664.741391,6809.894666
382.433166,1838.629195,2590.720797,8364.327145
382.433474,1072.533697,3552.988522,8438.347739
382.433782,1915.238745,2664.741391,10288.862594
382.434090,1225.752797,1406.391290,10807.006753
382.434398,1532.190996,-0.000000,10658.965565
382.434706,842.705048,-814.226536,11843.295072
382.435014,-1455.581446,-2368.659014,11991.336260
382.435322,-2068.457845,-3034.844362,11769.274478
382.435630,-1762.019645,-2738.761985,12509.480420
382.435938,-459.657299,-2294.638420,11547.212695
382.436246,0.000000,-740.205942,8734.430116
382.436554,2298.286494,444.123565,8068.244768
382.436862,2681.334243,1258.350101,5625.565159
382.437170,2298.286494,2220.617826,6069.688724
382.437478,2145.067394,2590.720797,8512.368333
382.437786,1838.629195,3256.906145,8364.327145
382.438094,842.705048,3330.926739,9770.718434
382.438402,1532.190996,1850.514855,10584.944971
382.438710,1455.581446,148.041188,10658.965565
382.439018,229.828649,-962.267725,11695.253884
382.439326,-689.485948,-2812.782580,11325.150913
382.439634,-1762.019645,-2886.803174,11843.295072
382.439942,-3447.429741,-3256.906145,11547.212695
382.440250,-2068.457845,-2368.659014,12065.356855
382.440558,919.314598,-296.082377,9918.759623
382.440866,1685.410096,666.185348,8068.244768
382.441174,2604.724693,1332.370696,6661.853478
382.441482,3600.648841,2516.700203,5181.441594
382.441790,3064.381992,3701.029710,6365.771101
382.442098,2757.943793,3701.029710,7698.141797
382.442406,2374.896044,4145.153275,8660.409521
382.442714,1685.410096,2516.700203,10066.800811
382.443022,1532.190996,444.123565,10881.027347
382.443330,1072.533697,-814.226536,11547.212695
382.443638,-536.266849,-2886.803174,12731.542202
382.443946,-1838.629195,-3627.009116,12139.377449
382.444254,-3140.991542,-3923.091493,12583.501014
382.444562,-2757.943793,-3478.967927,11991.336260
382.444871,-1072.533697,-1998.556043,11399.171507
382.445179,1762.019645,-0.000000,8808.450710
382.445487,2757.943793,370.102971,6883.915261
382.445795,2987.772442,1924.535449,5181.441594
382.446103,2911.162892,2516.700203,6735.874072
382.446411,1915.238745,3849.070898,7328.038826
382.446719,1991.848295,3849.070898,8660.409521
382.447027,1532.190996,3256.906145,9474.636058
382.447335,1608.800546,1554.432478,10584.944971
382.447643,1225.752797,-148.041188,11621.233289
382.447951,-306.438199,-2368.659014,12139.377449
382.448259,-1608.800546,-3404.947333,13693.809927
382.448567,-2987.772442,-4515.256246,12805.562797
382.448875,-4443.353888,-2886.803174,11621.233289
382.449183,-2451.505594,-3182.885551,12287.418637
382.449491,842.705048,-370.102971,9770.718434
382.449799,1685.410096,740.205942,6291.750507
382.450107,2451.505594,814.226536,6365.771101
382.450415,3370.820191,2294.638420,5995.668130
382.450724,2987.772442,4293.194464,6291.750507
382.451032,1915.238745,4071.132681,7402.059420
382.451340,2757.943793,4071.132681,8364.327145
382.451648,2451.505594,1924.535449,9548.656652
382.451956,1225.752797,740.205942,10140.821405
382.452264,1455.581446,-1554.432478,11547.212695
382.452572,-383.047749,-3552.988522,12879.583391
382.452880,-2757.943793,-3775.050304,11769.274478
382.453188,-2145.067394,-3849.070898,11843.295072
382.453496,-1608.800546,-2960.823768,10658.965565
382.453804,-383.047749,-1110.308913,9400.615463
382.454112,2834.553343,-74.020594,7476.080014
382.454420,2681.334243,2294.638420,5107.421000
382.454728,2374.896044,2072.576638,7105.977043
382.455036,3140.991542,2664.741391,7105.977043
382.455344,2451.505594,4145.153275,8142.265362
382.455652,1685.410096,3849.070898,10066.800811
382.455960,1072.533697,2738.761985,9992.780217
382.456269,1455.581446,1332.370696,11991.336260
382.456577,153.219100,-1110.308913,12139.377449
382.456885,-1532.190996,-2294.638420,12287.418637
382.457193,-2374.896044,-3034.844362,13175.665768
382.457501,-3064.381992,-3478.967927,12583.501014
382.457809,-2451.505594,-2368.659014,11695.253884
382.458117,383.047749,-1406.391290,10362.883188
382.458425,1455.581446,-0.000000,8660.409521
382.458733,2451.505594,592.164754,6513.812290
382.459041,3677.258390,2960.823768,5329.482782
382.459349,2528.115143,3034.844362,7031.956449
382.459657,3064.381992,3330.926739,7994.224174
382.459965,1838.629195,3997.112087,8512.368333
382.460273,995.924147,2442.679609,10436.903782
382.460581,919.314598,444.123565,10955.047942
382.460889,153.219100,-814.226536,11769.274478
382.461197,-1149.143247,-2960.823768,13841.851115
382.461505,-2068.457845,-3923.091493,12435.459826
382.461814,-3064.381992,-3034.844362,11473.192101
382.462122,-2068.457845,-3034.844362,11695.253884
382.462430,76.609550,-2368.659014,9992.780217
382.462738,1685.410096,-0.000000,7550.100608
382.463046,3140.991542,666.185348,5181.441594
382.463354,3600.648841,1924.535449,4145.153275
382.463662,3294.210641,2812.782580,5329.482782
382.463970,2834.553343,3627.009116,7179.997637
382.464278,2221.676944,3552.988522,7846.182985
382.464586,1149.143247,2294.638420,9696.697840
382.464894,1072.533697,740.205942,11251.130318
382.465202,76.609550,-814.226536,11029.068536
382.465510,-1225.752797,-2516.700203,12953.603985
382.465818,-1838.629195,-3701.029710,12287.418637
382.466126,-2911.162892,-3330.926739,11103.089130
382.466434,-3370.820191,-3849.070898,12139.377449
382.466742,-1149.143247,-2738.761985,11769.274478
382.467050,766.095498,-74.020594,9400.615463
382.467359,2298.286494,444.123565,7031.956449
382.467667,4060.306139,1258.350101,5329.482782
382.467975,2911.162892,3108.864956,5625.565159
382.468283,2451.505594,3478.967927,7846.182985
382.468591,2068.457845,4293.194464,8364.327145
382.468899,1608.800546,3552.988522,9252.574275
382.469207,1455.581446,1998.556043,10140.821405
382.469515,1455.581446,148.041188,11251.130318
382.469823,689.485948,-1406.391290,12509.480420
382.470131,-306.438199,-2146.597232,11325.150913
382.470439,-2068.457845,-2664.741391,11991.336260
382.470747,-3753.867940,-3404.947333,11917.315666
382.471055,-2528.115143,-2812.782580,11991.336260
382.471363,-383.047749,-370.102971,10362.883188
382.471671,1991.848295,-222.061783,8734.430116
382.471979,2221.676944,1110.308913,6439.791695
382.472287,2987.772442,2294.638420,6069.688724
382.472595,3064.381992,2368.659014,7698.141797
382.472904,1762.019645,3404.947333,7846.182985
382.473212,1991.848295,3923.091493,8808.450710
382.473520,1838.629195,2442.679609,10362.883188
382.473828,1685.410096,1332.370696,10807.006753
382.474136,2068.457845,-518.144159,11325.150913
382.474444,612.876398,-1554.432478,11103.089130
382.474752,-842.705048,-2294.638420,10881.027347
382.475060,-1915.238745,-3256.906145,11547.212695
382.475368,-2451.505594,-3478.967927,12435.459826
382.475676,-842.705048,-1924.535449,11769.274478
382.475984,536.266849,-518.144159,9178.553681
382.476292,1915.238745,-0.000000,7328.038826
382.476600,1762.019645,1110.308913,6439.791695
382.476908,1762.019645,1628.453072,8512.368333
382.477216,1149.143247,2590.720797,9030.512492
382.477524,2068.457845,3256.906145,9474.636058
382.477832,2451.505594,3330.926739,9918.759623
382.478140,2068.457845,2220.617826,9696.697840
382.478449,2528.115143,296.082377,10436.903782
382.478757,1762.019645,-666.185348,9992.780217
382.479065,459.657299,-1628.453072,10658.965565
382.479373,-1685.410096,-2886.803174,10955.047942
382.479681,-2221.676944,-2960.823768,11991.336260
382.479989,-2221.676944,-2368.659014,12435.459826
382.480297,-842.705048,-1110.308913,10288.862594
382.480605,1072.533697,-0.000000,7920.203579
382.480913,1149.143247,1406.391290,6217.729913
382.481221,1685.410096,1702.473667,7772.162391
382.481529,1378.971896,2960.823768,8956.491898
382.481837,1838.629195,3997.112087,9030.512492
382.482145,459.657299,3627.009116,9104.533087
382.482453,1455.581446,1776.494261,10881.027347
382.482761,1532.190996,1110.308913,11103.089130
382.483069,766.095498,-148.041188,10658.965565
382.483377,-766.095498,-1628.453072,10362.883188
382.483685,-2068.457845,-2294.638420,10732.986159
382.483994,-3294.210641,-3404.947333,11769.274478
382.484302,-1455.581446,-2738.761985,11991.336260
382.484610,-766.095498,-1110.308913,9548.656652
382.484918,1455.581446,-0.000000,7994.224174
382.485226,1532.190996,592.164754,5995.668130
382.485534,2451.505594,1332.370696,6661.853478
382.485842,1455.581446,2294.638420,8142.265362
382.486150,1991.848295,3552.988522,8290.306550
382.486458,2374.896044,3627.009116,9474.636058
382.486766,1532.190996,2294.638420,9918.759623
382.487074,2451.505594,518.144159,11103.089130
382.487382,1455.581446,-444.123565,10658.965565
382.487690,153.219100,-1924.535449,9992.780217
382.487998,-842.705048,-3108.864956,10288.862594
382.488306,-2145.067394,-2960.823768,10584.944971
382.488614,-1838.629195,-3108.864956,12435.459826
382.488922,-383.047749,-1850.514855,11029.068536
382.489230,-153.219100,-740.205942,8364.327145
382.489538,1608.800546,-1184.329507,7772.162391
382.489847,2068.457845,666.185348,6883.915261
382.490155,1302.362347,1406.391290,8364.327145
382.490463,766.095498,2960.823768,9474.636058
382.490771,1991.848295,3627.009116,9104.533087
382.491079,1455.581446,3923.091493,9474.636058
382.491387,2681.334243,1924.535449,10584.944971
382.491695,2604.724693,814.226536,10066.800811
382.492003,1378.971896,-518.144159,10288.862594
382.492311,-536.266849,-2220.617826,11029.068536
382.492619,-2145.067394,-2220.617826,10658.965565
382.492927,-2451.505594,-2738.761985,12361.439231
382.493235,-995.924147,-1776.494261,11473.192101
382.493543,919.314598,-296.082377,8808.450710
382.493851,1378.971896,222.061783,7179.997637
382.494159,2145.067394,370.102971,7328.038826
382.494467,2451.505594,1480.411884,6661.853478
382.494775,689.485948,2812.782580,8290.306550
382.495083,2145.067394,2960.823768,9326.594869
382.495392,2221.676944,4219.173869,8882.471304
382.495700,2451.505594,1924.535449,10658.965565
382.496008,2681.334243,888.247130,9770.718434
382.496316,1608.800546,-296.082377,9622.677246
382.496624,-306.438199,-1776.494261,10955.047942
382.496932,-1608.800546,-2442.679609,11177.109724
382.497240,-2604.724693,-2368.659014,12657.521608
382.497548,-842.705048,-1924.535449,11917.315666
382.497856,383.047749,-444.123565,8808.450710
382.498164,995.924147,-148.041188,8142.265362
382.498472,1838.629195,-296.082377,7328.038826
382.498780,1149.143247,1036.288319,7031.956449
382.499088,459.657299,1998.556043,9474.636058
382.499396,2528.115143,2294.638420,9252.574275
382.499704,766.095498,3552.988522,9178.553681
382.500012,2528.115143,1628.453072,11547.212695
382.500320,3370.820191,1480.411884,9918.759623
382.500628,1532.190996,-0.000000,9548.656652
382.500937,689.485948,-1776.494261,10436.903782
382.501245,-919.314598,-2368.659014,10510.924376
382.501553,-2145.067394,-2368.659014,12361.439231
382.501861,-1685.410096,-2368.659014,11695.253884
382.502169,0.000000,-592.164754,10066.800811
382.502477,842.705048,-222.061783,8142.265362
382.502785,0.000000,-0.000000,6809.894666
382.503093,1072.533697,962.267725,8734.430116
382.503401,229.828649,1036.288319,9548.656652
382.503709,153.219100,2738.761985,9474.636058
382.504017,383.047749,3034.844362,9474.636058
382.504325,1378.971896,1924.535449,10140.821405
382.504633,1991.848295,592.164754,10658.965565
382.504941,2374.896044,740.205942,9252.574275
382.505249,536.266849,-1850.514855,10066.800811
382.505557,-1225.752797,-2590.720797,9770.718434
382.505865,-2145.067394,-2072.576638,10881.027347
382.506173,-1455.581446,-2072.576638,11621.233289
382.506482,-306.438199,-592.164754,9696.697840
382.506790,1455.581446,-0.000000,8068.244768
382.507098,1302.362347,444.123565,6661.853478
382.507406,1685.410096,888.247130,6809.894666
382.507714,1302.362347,1628.453072,7994.224174
382.508022,919.314598,2664.741391,8660.409521
382.508330,1072.533697,3330.926739,9400.615463
382.508638,1378.971896,2368.659014,10510.924376
382.508946,2451.505594,1480.411884,10807.006753
382.509254,2374.896044,296.082377,9696.697840
382.509562,1455.581446,-962.267725,9844.739029
382.509870,-153.219100,-2886.803174,10807.006753
382.510178,-2068.457845,-1924.535449,10140.821405
382.510486,-1838.629195,-2738.761985,12213.398043
382.510794,-612.876398,-1628.453072,11547.212695
382.511102,229.828649,-740.205942,8586.388927
382.511410,1378.971896,-296.082377,7846.182985
382.511718,1838.629195,518.144159,7105.977043
382.512027,766.095498,1110.308913,7772.162391
382.512335,842.705048,2590.720797,8956.491898
382.512643,1608.800546,3701.029710,9178.553681
382.512951,1302.362347,3256.906145,9622.677246
382.513259,2681.334243,2220.617826,10584.944971
382.513567,2911.162892,962.267725,10214.842000
382.513875,1838.629195,-814.226536,10140.821405
382.514183,-229.828649,-2072.576638,10510.924376
382.514491,-1915.238745,-2368.659014,10584.944971
382.514799,-2298.286494,-2738.761985,12065.356855
382.515107,-1149.143247,-1628.453072,11547.212695
382.515415,459.657299,-444.123565,9474.636058
382.515723,995.924147,-148.041188,7476.080014
382.516031,1532.190996,-0.000000,7550.100608
382.516339,1532.190996,1184.329507,7994.224174
382.516647,1378.971896,2220.617826,8956.491898
382.516955,612.876398,2442.679609,9030.512492
382.517263,995.924147,3404.947333,9696.697840
382.517572,2374.896044,2442.679609,10658.965565
382.517880,2451.505594,1702.473667,10288.862594
382.518188,2145.067394,-0.000000,9992.780217
382.518496,1378.971896,-1776.494261,9474.636058
382.518804,-1915.238745,-1998.556043,10955.047942
382.519112,-2681.334243,-3182.885551,12953.603985
382.519420,-1915.238745,-2072.576638,11843.295072
382.519728,-1072.533697,-592.164754,10288.862594
382.520036,689.485948,-592.164754,8882.471304
382.520344,1455.581446,518.144159,7105.977043
382.520652,1149.143247,666.185348,8142.265362
382.520960,842.705048,1702.473667,7254.018232
382.521268,2068.457845,2516.700203,8586.388927
382.521576,1302.362347,3108.864956,9696.697840
382.521884,1532.190996,2368.659014,9992.780217
382.522192,2604.724693,1406.391290,10362.883188
382.522500,2528.115143,370.102971,10140.821405
382.522808,1149.143247,-1480.411884,9104.533087
382.523117,-689.485948,-1998.556043,9622.677246
382.523425,-1532.190996,-3034.844362,12065.356855
382.523733,-2145.067394,-2664.741391,12139.377449
382.524041,-1455.581446,-1258.350101,10658.965565
382.524349,536.266849,-148.041188,9030.512492
382.524657,995.924147,-666.185348,7698.141797
382.524965,1762.019645,962.267725,6809.894666
382.525273,766.095498,1702.473667,7846.182985
382.525581,2068.457845,2220.617826,9326.594869
382.525889,995.924147,2886.803174,8882.471304
382.526197,1225.752797,2590.720797,10881.027347
382.526505,1838.629195,888.247130,11621.233289
382.526813,919.314598,370.102971,10066.800811
382.527121,76.609550,-1554.432478,11177.109724
382.527429,-459.657299,-2590.720797,10362.883188
382.527737,-2145.067394,-2516.700203,10955.047942
382.528045,-2757.943793,-2368.659014,11843.295072
382.528353,0.000000,-962.267725,11029.068536
382.528662,842.705048,296.082377,7772.162391
382.528970,1838.629195,370.102971,7179.997637
382.529278,3447.429741,1628.453072,5477.523971
382.529586,1838.629195,2590.720797,5477.523971
382.529894,1762.019645,2072.576638,8660.409521
382.530202,1225.752797,3701.029710,8068.244768
382.530510,612.876398,2220.617826,10732.986159
382.530818,1225.752797,740.205942,11769.274478
382.531126,1838.629195,296.082377,10732.986159
382.531434,306.438199,-1406.391290,11325.150913
382.531742,-1302.362347,-3182.885551,11547.212695
382.532050,-1915.238745,-2886.803174,11621.233289
382.532358,-2757.943793,-2812.782580,11917.315666
382.532666,-689.485948,-1702.473667,10955.047942
382.532974,766.095498,148.041188,8068.244768
382.533282,2068.457845,592.164754,8364.327145
382.533590,2604.724693,1924.535449,5995.668130
382.533898,1915.238745,2960.823768,6291.750507
382.534207,2068.457845,3182.885551,8660.409521
382.534515,1072.533697,4589.276840,7846.182985
382.534823,766.095498,4441.235652,9622.677246
382.535131,689.485948,2368.659014,11251.130318
382.535439,612.876398,1406.391290,11177.109724
382.535747,-229.828649,-1332.370696,11251.130318
382.536055,-2374.896044,-3478.967927,12805.562797
382.536363,-4519.963438,-4515.256246,13101.645173
382.536671,-5056.230287,-4293.194464,13101.645173
382.536979,-4443.353888,-3330.926739,12583.501014
382.537287,-2068.457845,-962.267725,10584.944971
382.537595,-306.438199,-148.041188,8438.347739
382.537903,1072.533697,962.267725,7105.977043
382.538211,995.924147,2368.659014,4737.318029
382.538519,1991.848295,2886.803174,6661.853478
382.538827,1991.848295,4145.153275,7179.997637
382.539135,0.000000,5255.462188,6883.915261
382.539443,689.485948,2442.679609,10436.903782
382.539752,229.828649,2442.679609,9918.759623
382.540060,153.219100,-0.000000,10955.047942
382.540368,-1455.581446,-1850.514855,10510.924376
382.540676,-3064.381992,-3923.091493,11695.253884
382.540984,-4903.011187,-4737.318029,12583.501014
382.541292,-5515.887586,-4663.297435,12139.377449
382.541600,-3907.087040,-3182.885551,11917.315666
382.541908,-2757.943793,-1110.308913,8808.450710
382.542216,0.000000,-592.164754,8142.265362
382.542524,919.314598,1036.288319,5773.606348
382.542832,1072.533697,962.267725,5921.647536
382.543140,842.705048,1924.535449,7402.059420
382.543448,383.047749,2590.720797,7994.224174
382.543756,-612.876398,3034.844362,9696.697840
382.544064,-612.876398,2590.720797,10140.821405
382.544372,842.705048,2220.617826,10510.924376
382.544680,459.657299,888.247130,9178.553681
382.544988,-995.924147,-962.267725,9474.636058
382.545297,-2221.676944,-1850.514855,10881.027347
382.545605,-4213.525239,-3256.906145,11103.089130
382.545913,-5515.887586,-2960.823768,13101.645173
382.546221,-4136.915689,-2294.638420,11177.109724
382.546529,-2911.162892,-0.000000,9622.677246
382.546837,-1685.410096,666.185348,8956.491898
382.547145,76.609550,1776.494261,7179.997637
382.547453,153.219100,2368.659014,8068.244768
382.547761,-306.438199,1554.432478,8660.409521
382.548069,-2374.896044,1998.556043,8956.491898
382.548377,-3217.601092,1924.535449,11621.233289
382.548685,-2911.162892,1184.329507,10732.986159
382.548993,-1762.019645,2146.597232,10584.944971
382.549301,-842.705048,1184.329507,9474.636058
382.549609,-1072.533697,666.185348,8290.306550
382.549917,-1608.800546,-444.123565,9400.615463
382.550226,-2911.162892,-2146.597232,10955.047942
382.550534,-3524.039291,-3034.844362,11917.315666
382.550842,-4213.525239,-2590.720797,10955.047942
382.551150,-3753.867940,-1406.391290,10881.027347
382.551458,-2068.457845,296.082377,9474.636058
382.551766,0.000000,1332.370696,7920.203579
382.552074,1072.533697,2664.741391,7254.018232
382.552382,919.314598,2146.597232,6513.812290
382.552690,-766.095498,1110.308913,8438.347739
382.552998,-2221.676944,74.020594,10140.821405
382.553306,-3217.601092,-296.082377,11177.109724
382.553614,-3600.648841,-1036.288319,11251.130318
382.553922,-3983.696590,-296.082377,11399.171507
382.554230,-2987.772442,444.123565,11103.089130
382.554538,-1532.190996,888.247130,10140.821405
382.554847,-536.266849,1184.329507,9474.636058
382.555155,-306.438199,-0.000000,8956.491898
382.555463,-766.095498,-1036.288319,9474.636058
382.555771,-2528.115143,-1850.514855,10658.965565
382.556079,-2528.115143,-1554.432478,11473.192101
382.556387,-2374.896044,-740.205942,9770.718434
382.556695,-1762.019645,1184.329507,8364.327145
382.557003,-689.485948,2368.659014,7846.182985
382.557311,153.219100,2664.741391,7402.059420
382.557619,0.000000,3182.885551,6661.853478
382.557927,-1302.362347,1998.556043,7105.977043
382.558235,-2757.943793,370.102971,9030.512492
382.558543,-4673.182538,-1628.453072,11325.150913
382.558851,-5439.278036,-1554.432478,12287.418637
382.559159,-5592.497135,-888.247130,11769.274478
382.559468,-4366.744339,370.102971,11251.130318
382.559776,-3140.991542,1554.432478,10140.821405
382.560084,-1149.143247,2516.700203,8956.491898
382.560392,229.828649,2442.679609,8142.265362
382.560700,-306.438199,2220.617826,7624.121203
382.561008,-1685.410096,222.061783,8438.347739
382.561316,-2604.724693,-1924.535449,10288.862594
382.561624,-4749.792088,-3923.091493,12361.439231
382.561932,-5056.230287,-4663.297435,12731.542202
382.562240,-5515.887586,-4441.235652,12065.356855
382.562548,-5515.887586,-3034.844362,11399.171507
382.562856,-4290.134789,-888.247130,10658.965565
382.563164,-1762.019645,1110.308913,8438.347739
382.563472,229.828649,4145.153275,6217.729913
382.563780,1455.581446,5107.421000,5033.400406
382.564088,2221.676944,5551.544565,4811.338623
382.564397,1149.143247,4737.318029,5551.544565
382.564705,536.266849,3034.844362,7698.141797
382.565013,-1378.971896,962.267725,9696.697840
382.565321,-2681.334243,-888.247130,10362.883188
382.565629,-5056.230287,-2812.782580,11695.253884
382.565937,-5822.325785,-2886.803174,12657.521608
382.566245,-5898.935335,-2368.659014,13101.645173
382.566553,-4366.744339,-1702.473667,11843.295072
382.566861,-2604.724693,-222.061783,10214.842000
382.567169,-1378.971896,592.164754,8882.471304
382.567477,-459.657299,1184.329507,8290.306550
382.567785,-306.438199,1110.308913,9030.512492
382.568093,-1378.971896,-296.082377,10140.821405
382.568401,-3447.429741,-1036.288319,10807.006753
382.568709,-5362.668486,-2146.597232,12361.439231
382.569018,-6052.154434,-3108.864956,13323.706956
382.569326,-5822.325785,-2738.761985,13175.665768
382.569634,-4290.134789,-1332.370696,11325.150913
382.569942,-2911.162892,296.082377,9474.636058
382.570250,-383.047749,2442.679609,7550.100608
382.570558,2451.505594,4145.153275,5255.462188
382.570866,3217.601092,5551.544565,3627.009116
382.571174,3907.087040,5699.585753,3182.885551
382.571482,3370.820191,4737.318029,4293.194464
382.571790,766.095498,3552.988522,5551.544565
382.572098,-1302.362347,1258.350101,9474.636058
382.572406,-3753.867940,-888.247130,11843.295072
382.572714,-6588.421283,-3330.926739,13915.871710
382.573022,-7507.735880,-4811.338623,15396.283594
382.573330,-7660.954980,-5181.441594,15914.427753
382.573639,-6358.592633,-4441.235652,14656.077652
382.573947,-3830.477490,-2516.700203,12139.377449
382.574255,-2145.067394,148.041188,9178.553681
382.574563,-229.828649,1850.514855,7698.141797
382.574871,1149.143247,3552.988522,7105.977043
382.575179,1762.019645,5107.421000,6365.771101
382.575487,1072.533697,5255.462188,6069.688724
382.575795,76.609550,4219.173869,6883.915261
382.576103,-2145.067394,2220.617826,8882.471304
382.576411,-4519.963438,-666.185348,11547.212695
382.576719,-6818.249932,-3034.844362,13397.727550
382.577027,-8197.221829,-5033.400406,14656.077652
382.577335,-7584.345430,-5773.606348,14804.118840
382.577643,-5592.497135,-4959.379811,13989.892304
382.577951,-2987.772442,-3404.947333,11547.212695
382.578260,-536.266849,-814.226536,8586.388927
382.578568,1915.238745,962.267725,6513.812290
382.578876,3140.991542,3330.926739,5181.441594
382.579184,3983.696590,4737.318029,4885.359217
382.579492,4519.963438,5551.544565,3404.947333
382.579800,2911.162892,6291.750507,4441.235652
382.580108,1991.848295,4959.379811,6217.729913
382.580416,-919.314598,3478.967927,7476.080014
382.580724,-3524.039291,1332.370696,11103.089130
382.581032,-5669.106685,-1850.514855,13027.624579
382.581340,-8886.707777,-3034.844362,13397.727550
382.581648,-8733.488677,-4293.194464,15470.304188
382.581956,-7354.516781,-4811.338623,14952.160028
382.582264,-6052.154434,-3330.926739,13249.686362
382.582572,-4213.525239,-2960.823768,11177.109724
382.582881,-2757.943793,-1776.494261,9918.759623
382.583189,-1149.143247,296.082377,8068.244768
382.583497,536.266849,1776.494261,7698.141797
382.583805,1532.190996,2886.803174,7254.018232
382.584113,1915.238745,3404.947333,6291.750507
382.584421,1455.581446,3108.864956,6513.812290
382.584729,76.609550,2516.700203,7550.100608
382.585037,-306.438199,962.267725,9474.636058
382.585345,-1072.533697,370.102971,9992.780217
382.585653,-2528.115143,-222.061783,10140.821405
382.585961,-2911.162892,-1332.370696,10807.006753
382.586269,-2987.772442,-814.226536,10066.800811
382.586577,-2604.724693,296.082377,9474.636058
382.586885,-2298.286494,-222.061783,9178.553681
382.587193,-1455.581446,740.205942,8882.471304
382.587502,-2298.286494,1776.494261,8586.388927
382.587810,-2374.896044,1998.556043,9918.759623
382.588118,-3217.601092,1702.473667,10288.862594
382.588426,-4060.306139,1036.288319,10732.986159
382.588734,-5209.449386,-0.000000,11621.233289
382.589042,-6281.983084,-1258.350101,11843.295072
382.589350,-6741.640382,-2072.576638,12879.583391
382.589658,-6281.983084,-1924.535449,12509.480420
382.589966,-5822.325785,-2368.659014,12139.377449
382.590274,-5132.839837,-2368.659014,11399.171507
382.590582,-3677.258390,-1258.350101,10584.944971
382.590890,-2374.896044,-592.164754,9030.512492
382.591198,-689.485948,370.102971,7772.162391
382.591506,306.438199,1332.370696,7031.956449
382.591814,1149.143247,1776.494261,6291.750507
382.592123,919.314598,2220.617826,6143.709319
382.592431,1302.362347,2368.659014,6439.791695
382.592739,459.657299,2516.700203,7031.956449
382.593047,0.000000,1998.556043,7698.141797
382.593355,-995.924147,1110.308913,9178.553681
382.593663,-2374.896044,370.102971,9992.780217
382.593971,-3447.429741,-592.164754,11029.068536
382.594279,-3294.210641,-1554.432478,11399.171507
382.594587,-3294.210641,-1776.494261,11547.212695
382.594895,-3294.210641,-1702.473667,11325.150913
382.595203,-3217.601092,-1184.329507,11399.171507
382.595511,-2757.943793,-666.185348,10584.944971
382.595819,-2374.896044,-0.000000,9844.739029
382.596127,-1608.800546,740.205942,9770.718434
382.596435,-1072.533697,888.247130,9548.656652
382.596743,-1149.143247,1406.391290,8882.471304
382.597052,-612.876398,1036.288319,9474.636058
382.597360,-1225.752797,1110.308913,9696.697840
382.597668,-1378.971896,740.205942,9622.677246
382.597976,-1991.848295,444.123565,9918.759623
382.598284,-2221.676944,592.164754,9918.759623
382.598592,-1915.238745,740.205942,9696.697840
382.598900,-1378.971896,148.041188,9400.615463
382.599208,-766.095498,740.205942,9104.533087
382.599516,-1225.752797,444.123565,8808.450710
382.599824,-1455.581446,740.205942,8734.430116
382.600132,-1455.581446,962.267725,9030.512492
382.600440,-1149.143247,1036.288319,9252.574275
382.600748,-2068.457845,962.267725,9326.594869
382.601056,-2604.724693,592.164754,9474.636058
382.601364,-3064.381992,-74.020594,10066.800811
382.601673,-3600.648841,-518.144159,10955.047942
382.601981,-4366.744339,-1184.329507,10955.047942
382.602289,-4136.915689,-1406.391290,10955.047942
382.602597,-4443.353888,-1406.391290,11103.089130
382.602905,-3830.477490,-1110.308913,11029.068536
382.603213,-3217.601092,-814.226536,10362.883188
382.603521,-2451.505594,-592.164754,9918.759623
382.603829,-1225.752797,-444.123565,8956.491898
382.604137,-612.876398,-296.082377,8660.409521
382.604445,-842.705048,370.102971,9030.512492
382.604753,0.000000,370.102971,8734.430116
382.605061,0.000000,666.185348,8808.450710
382.605369,-153.219100,962.267725,8068.244768
382.605677,0.000000,1184.329507,8290.306550
382.605985,76.609550,1184.329507,8216.285956
382.606294,229.828649,1628.453072,8586.388927
382.606602,-689.485948,1480.411884,8512.368333
382.606910,-536.266849,1406.391290,8956.491898
382.607218,-1762.019645,1184.329507,9696.697840
382.607526,-2068.457845,592.164754,9918.759623
382.607834,-2911.162892,370.102971,10658.965565
382.608142,-3294.210641,148.041188,10658.965565
382.608450,-3600.648841,148.041188,11029.068536
382.608758,-3370.820191,-0.000000,11251.130318
382.609066,-3294.210641,592.164754,11251.130318
382.609374,-3370.820191,740.205942,11103.089130
382.609682,-3064.381992,296.082377,10658.965565
382.609990,-3370.820191,296.082377,10436.903782
382.610298,-3600.648841,222.061783,10362.883188
382.610606,-3294.210641,296.082377,9696.697840
382.610915,-3217.601092,518.144159,9622.677246
382.611223,-2911.162892,370.102971,9252.574275
382.611531,-2987.772442,370.102971,9030.512492
382.611839,-2528.115143,592.164754,9326.594869
382.612147,-2987.772442,666.185348,9400.615463
382.612455,-3294.210641,444.123565,9178.553681
382.612763,-3600.648841,-0.000000,9252.574275
382.613071,-3907.087040,-74.020594,9696.697840
382.613379,-3983.696590,-148.041188,9844.739029
382.613687,-3830.477490,-296.082377,10288.862594
382.613995,-3830.477490,-518.144159,9696.697840
382.614303,-3830.477490,-518.144159,9770.718434
382.614611,-3370.820191,-592.164754,9844.739029
382.614919,-3830.477490,-740.205942,9400.615463
382.615227,-3677.258390,-518.144159,9252.574275
382.615536,-3677.258390,-888.247130,9400.615463
382.615844,-3447.429741,-888.247130,9474.636058
382.616152,-3600.648841,-666.185348,9548.656652
382.616460,-3217.601092,-1036.288319,10140.821405
382.616768,-2987.772442,-1628.453072,10140.821405
382.617076,-2834.553343,-1110.308913,10584.944971
382.617384,-2528.115143,-1110.308913,10362.883188
382.617692,-2068.457845,-814.226536,10362.883188
382.618000,-1608.800546,-814.226536,10214.842000
382.618308,-842.705048,-370.102971,9770.718434
382.618616,-383.047749,-0.000000,9030.512492
382.618924,766.095498,962.267725,8216.285956
382.619232,919.314598,1554.432478,7698.141797
382.619540,1072.533697,2294.638420,7105.977043
382.619848,1455.581446,2886.803174,6957.935855
382.620157,1149.143247,3404.947333,6809.894666
382.620465,612.876398,3182.885551,7402.059420
382.620773,0.000000,2886.803174,8290.306550
382.621081,-1378.971896,2590.720797,9326.594869
382.621389,-2451.505594,1258.350101,10510.924376
382.621697,-3217.601092,518.144159,11843.295072
382.622005,-5132.839837,-74.020594,11991.336260
382.622313,-4979.620737,-592.164754,12583.501014
382.622621,-5439.278036,-1036.288319,12805.562797
382.622929,-4903.011187,-1332.370696,12953.603985
382.623237,-4979.620737,-1258.350101,12287.418637
382.623545,-3983.696590,-1924.535449,12361.439231
382.623853,-3830.477490,-1406.391290,11325.150913
382.624161,-3524.039291,-1110.308913,10807.006753
382.624469,-2987.772442,-444.123565,9844.739029
382.624778,-1149.143247,-444.123565,10214.842000
382.625086,-1225.752797,-0.000000,8586.388927
382.625394,-766.095498,1110.308913,7920.203579
382.625702,1225.752797,592.164754,8216.285956
382.626010,766.095498,2368.659014,6661.853478
382.626318,1302.362347,2368.659014,7772.162391
382.626626,1455.581446,3701.029710,6143.709319
382.626934,612.876398,3108.864956,7994.224174
382.627242,0.000000,2738.761985,7624.121203
382.627550,-995.924147,2664.741391,7920.203579
382.627858,-1915.238745,1184.329507,9844.739029
382.628166,-4366.744339,-592.164754,10066.800811
382.628474,-4673.182538,-1406.391290,11917.315666
382.628782,-5975.544884,-2590.720797,11991.336260
382.629090,-6818.249932,-3108.864956,12731.542202
382.629399,-6741.640382,-3627.009116,13619.789333
382.629707,-6052.154434,-3404.947333,12731.542202
382.630015,-5515.887586,-3404.947333,12879.583391
382.630323,-4443.353888,-3034.844362,11251.130318
382.630631,-2528.115143,-1628.453072,11177.109724
382.630939,-1455.581446,-222.061783,9252.574275
382.631247,0.000000,1628.453072,7550.100608
382.631555,1685.410096,3404.947333,5995.668130
382.631863,2604.724693,4959.379811,4441.235652
382.632171,3677.258390,6217.729913,3701.029710
382.632479,3064.381992,6143.709319,3849.070898
382.632787,2451.505594,4589.276840,5477.523971
382.633095,0.000000,3108.864956,6587.832884
382.633403,-2681.334243,1110.308913,9400.615463
382.633711,-4136.915689,-2072.576638,11843.295072
382.634019,-5975.544884,-3775.050304,13693.809927
382.634328,-7431.126331,-5255.462188,14730.098246
382.634636,-8427.050478,-6661.853478,14730.098246
382.634944,-7048.078582,-5995.668130,15322.262999
382.635252,-5822.325785,-3923.091493,12879.583391
382.635560,-3830.477490,-1850.514855,10881.027347
382.635868,-1302.362347,740.205942,9178.553681
382.636176,612.876398,3849.070898,6513.812290
382.636484,2681.334243,5625.565159,5255.462188
382.636792,2987.772442,6587.832884,3627.009116
382.637100,2834.553343,6143.709319,5107.421000
382.637408,153.219100,3849.070898,6513.812290
382.637716,-2451.505594,1110.308913,9622.677246
382.638024,-5592.497135,-2442.679609,12361.439231
382.638332,-7967.393179,-5403.503377,14211.954086
382.638640,-8197.221829,-6957.935855,15470.304188
382.638949,-8963.317327,-7105.977043,14804.118840
382.639257,-6818.249932,-6291.750507,12879.583391
382.639565,-4366.744339,-2738.761985,10510.924376
382.639873,-1149.143247,888.247130,7698.141797
382.640181,1838.629195,3923.091493,5773.606348
382.640489,4749.792088,6661.853478,3404.947333
382.640797,5132.839837,8068.244768,2960.823768
382.641105,4443.353888,8364.327145,3552.988522
382.641413,3217.601092,6661.853478,5255.462188
382.641721,-536.266849,2960.823768,9696.697840
382.642029,-4366.744339,-592.164754,13101.645173
382.642337,-7584.345430,-4219.173869,15544.324782
382.642645,-9959.241474,-6809.894666,17246.798449
382.642953,-10342.289223,-7031.956449,17098.757260
382.643261,-9269.755526,-6217.729913,15840.407159
382.643570,-5286.058936,-3034.844362,12879.583391
382.643878,-1915.238745,444.123565,8216.285956
382.644186,689.485948,2294.638420,5847.626942
382.644494,2221.676944,4367.215058,5699.585753
382.644802,2911.162892,6291.750507,3997.112087
382.645110,2681.334243,6217.729913,5033.400406
382.645418,306.438199,4367.215058,6957.935855
382.645726,-2451.505594,1554.432478,9030.512492
382.646034,-4519.963438,-148.041188,11399.171507
382.646342,-7354.516781,-1850.514855,12583.501014
382.646650,-7507.735880,-3256.906145,14211.954086
382.646958,-6511.811733,-2442.679609,13027.624579
382.647266,-4596.572988,-592.164754,10584.944971
382.647574,-612.876398,-0.000000,9104.533087
382.647882,2145.067394,888.247130,6735.874072
382.648191,2757.943793,370.102971,6957.935855
382.648499,2451.505594,-592.164754,7105.977043
382.648807,1302.362347,-0.000000,7328.038826
382.649115,-995.924147,-0.000000,8512.368333
382.649423,-2374.896044,148.041188,10066.800811
382.649731,-2834.553343,888.247130,9622.677246
382.650039,-2757.943793,888.247130,9918.759623
382.650347,-3753.867940,444.123565,9844.739029
382.650655,-3217.601092,-222.061783,10584.944971
382.650963,-4673.182538,-2146.597232,12065.356855
382.651271,-4903.011187,-3182.885551,13101.645173
382.651579,-5515.887586,-3330.926739,11103.089130
382.651887,-5822.325785,-2738.761985,10955.047942
382.652195,-4060.306139,-1036.288319,10584.944971
382.652504,-1915.238745,1332.370696,8808.450710
382.652812,612.876398,3923.091493,6809.894666
382.653120,1991.848295,5255.462188,4219.173869
382.653428,2604.724693,5403.503377,4959.379811
382.653736,1455.581446,2960.823768,8142.265362
382.654044,-612.876398,666.185348,9696.697840
382.654352,-2757.943793,-962.267725,10955.047942
382.654660,-4979.620737,-2960.823768,12583.501014
382.654968,-6128.763984,-4293.194464,15100.201217
382.655276,-5286.058936,-3330.926739,13841.851115
382.655584,-3677.258390,-1480.411884,11695.253884
382.655892,-1455.581446,-962.267725,9400.615463
382.656200,-306.438199,-888.247130,7920.203579
382.656508,-306.438199,-1184.329507,9622.677246
382.656817,-536.266849,-148.041188,8290.306550
382.657125,-766.095498,1554.432478,7105.977043
382.657433,-536.266849,2960.823768,7402.059420
382.657741,1225.752797,3627.009116,8364.327145
382.658049,1378.971896,4737.318029,6809.894666
382.658357,1225.752797,4515.256246,6661.853478
382.658665,1532.190996,2738.761985,8364.327145
382.658973,-1072.533697,222.061783,10140.821405
382.659281,-2911.162892,-2294.638420,12731.542202
382.659589,-4826.401637,-3404.947333,13397.727550
382.659897,-4903.011187,-2590.720797,13027.624579
382.660205,-3370.820191,-2220.617826,13175.665768
382.660513,-612.876398,-1184.329507,10807.006753
382.660821,995.924147,-148.041188,9770.718434
382.661129,2374.896044,-666.185348,8142.265362
382.661438,919.314598,-222.061783,7476.080014
382.661746,-536.266849,-0.000000,8956.491898
382.662054,-1532.190996,-666.185348,10732.986159
382.662362,-1532.190996,1628.453072,10066.800811
382.662670,-229.828649,3108.864956,9030.512492
382.662978,1838.629195,3849.070898,8142.265362
382.663286,3983.696590,4515.256246,7105.977043
382.663594,1532.190996,4663.297435,6143.709319
382.663902,3983.696590,1406.391290,10732.986159
382.664210,0.000000,1258.350101,8808.450710
382.664518,-1915.238745,-148.041188,10140.821405
382.664826,-1762.019645,-814.226536,11103.089130
382.665134,-2374.896044,-518.144159,11325.150913
382.665442,-1302.362347,-2146.597232,12953.603985
382.665751,-842.705048,-1554.432478,9992.780217
382.666059,-1532.190996,-3404.947333,11621.233289
382.666367,-2987.772442,-3701.029710,11251.130318
382.666675,-2987.772442,-2590.720797,11991.336260
382.666983,-3753.867940,-1776.494261,12805.562797
382.667291,-2298.286494,-1332.370696,11325.150913
382.667599,306.438199,1406.391290,8808.450710
382.667907,2451.505594,2960.823768,6809.894666
382.668215,3907.087040,3404.947333,7254.018232
382.668523,4060.306139,3108.864956,6069.688724
382.668831,2757.943793,3034.844362,7328.038826
382.669139,842.705048,1332.370696,8512.368333
382.669447,0.000000,1628.453072,8512.368333
382.669755,306.438199,1332.370696,10140.821405
382.670064,612.876398,518.144159,9030.512492
382.670372,536.266849,-74.020594,8734.430116
382.670680,-306.438199,-1776.494261,9252.574275
382.670988,-1991.848295,-3256.906145,10658.965565
382.671296,-3294.210641,-2516.700203,11621.233289
382.671604,-3370.820191,-2294.638420,11991.336260
382.671912,-2374.896044,-1036.288319,11029.068536
382.672220,536.266849,296.082377,10066.800811
382.672528,1685.410096,1776.494261,8882.471304
382.672836,2451.505594,1332.370696,7328.038826
382.673144,2834.553343,1554.432478,8512.368333
382.673452,842.705048,1480.411884,8512.368333
382.673760,306.438199,1184.329507,9770.718434
382.674068,76.609550,444.123565,10436.903782
382.674376,459.657299,370.102971,10807.006753
382.674685,383.047749,-740.205942,9548.656652
382.674993,459.657299,-1258.350101,9104.533087
382.675301,-459.657299,-2368.659014,10584.944971
382.675609,-689.485948,-1924.535449,10214.842000
382.675917,-1685.410096,-1184.329507,10140.821405
382.676225,-842.705048,-0.000000,9918.759623
382.676533,1302.362347,1480.411884,9104.533087
382.676841,3294.210641,2664.741391,7476.080014
382.677149,3983.696590,2886.803174,7254.018232
382.677457,3217.601092,2146.597232,7698.141797
382.677765,2451.505594,1702.473667,8808.450710
382.678073,536.266849,1332.370696,10436.903782
382.678381,-1149.143247,296.082377,11399.171507
382.678689,-919.314598,-0.000000,11325.150913
382.678998,-766.095498,-740.205942,11177.109724
382.679306,-766.095498,-2220.617826,11177.109724
382.679614,-995.924147,-2960.823768,11251.130318
382.679922,-2145.067394,-2812.782580,11695.253884
382.680230,-1838.629195,-2368.659014,11843.295072
382.680538,-1915.238745,-1036.288319,10732.986159
382.680846,153.219100,1776.494261,9548.656652
382.681154,3677.258390,2960.823768,7402.059420
382.681462,4596.572988,4071.132681,5625.565159
382.681770,4903.011187,3034.844362,6587.832884
382.682078,3600.648841,3034.844362,7698.141797
382.682386,1915.238745,2368.659014,8808.450710
382.682694,459.657299,962.267725,10881.027347
382.683002,0.000000,370.102971,11843.295072
382.683311,0.000000,-518.144159,11029.068536
382.683619,-536.266849,-1628.453072,10214.842000
382.683927,-536.266849,-2590.720797,10658.965565
382.684235,-995.924147,-2886.803174,10955.047942
382.684543,-1378.971896,-2220.617826,10807.006753
382.684851,-1072.533697,-1258.350101,10066.800811
382.685159,306.438199,666.185348,9400.615463
382.685467,2145.067394,2368.659014,7994.224174
382.685775,4903.011187,2812.782580,6957.935855
382.686083,4519.963438,3701.029710,6587.832884
382.686391,3907.087040,1850.514855,8142.265362
382.686699,2145.067394,2072.576638,9104.533087
382.687007,-306.438199,296.082377,11177.109724
382.687315,-1532.190996,-1628.453072,12953.603985
382.687623,-1149.143247,-2516.700203,12287.418637
382.687932,-995.924147,-2294.638420,11399.171507
382.688240,-1455.581446,-3701.029710,11103.089130
382.688548,-306.438199,-3034.844362,9992.780217
382.688856,-1378.971896,-1776.494261,10732.986159
382.689164,-689.485948,-222.061783,10436.903782
382.689472,1072.533697,1702.473667,8290.306550
382.689780,3447.429741,3923.091493,7476.080014
382.690088,4979.620737,4367.215058,5847.626942
382.690396,5669.106685,3330.926739,5033.400406
382.690704,4443.353888,2960.823768,7105.977043
382.691012,2604.724693,1184.329507,7846.182985
382.691320,306.438199,888.247130,9918.759623
382.691628,-1072.533697,-740.205942,13249.686362
382.691936,-1149.143247,-2516.700203,12879.583391
382.692245,-1455.581446,-2516.700203,11547.212695
382.692553,-1608.800546,-3701.029710,11103.089130
382.692861,-995.924147,-4367.215058,11177.109724
382.693169,-2298.286494,-2442.679609,10436.903782
382.693477,-1685.410096,-1110.308913,10214.842000
382.693785,-306.438199,1110.308913,9104.533087
382.694093,1532.190996,3404.947333,7698.141797
382.694401,3524.039291,4441.235652,6439.791695
382.694709,4979.620737,4367.215058,6439.791695
382.695017,3983.696590,3256.906145,7179.997637
382.695325,2298.286494,2146.597232,8216.285956
382.695633,383.047749,1258.350101,10066.800811
382.695941,-995.924147,-666.185348,12583.501014
382.696249,-2221.676944,-1998.556043,12805.562797
382.696558,-1532.190996,-2220.617826,11695.253884
382.696866,-919.314598,-2886.803174,10584.944971
382.697174,-1072.533697,-4293.194464,10955.047942
382.697482,-1762.019645,-2664.741391,10732.986159
382.697790,-1149.143247,-1258.350101,9622.677246
382.698098,-766.095498,1110.308913,9400.615463
382.698406,1378.971896,3627.009116,8068.244768
382.698714,3677.258390,4737.318029,7402.059420
382.699022,4979.620737,4737.318029,6587.832884
382.699330,4979.620737,3330.926739,6661.853478
382.699638,3370.820191,1924.535449,8734.430116
382.699946,0.000000,1110.308913,10362.883188
382.700254,-1378.971896,-1554.432478,13693.809927
382.700562,-2451.505594,-2664.741391,15026.180623
382.700870,-1762.019645,-2738.761985,12361.439231
382.701179,-536.266849,-3552.988522,10288.862594
382.701487,-3370.820191,-2886.803174,8142.265362
382.701795,459.657299,-3923.091493,14137.933492
382.702103,-1072.533697,-888.247130,8808.450710
382.702411,-536.266849,1628.453072,7031.956449
382.702719,2604.724693,1998.556043,8734.430116
382.703027,3524.039291,5847.626942,5625.565159
382.703335,4596.572988,3923.091493,8142.265362
382.703643,4290.134789,3849.070898,6217.729913
382.703951,3524.039291,2368.659014,7772.162391
382.704259,842.705048,888.247130,8882.471304
382.704567,-1455.581446,-444.123565,12287.418637
382.704875,-2451.505594,-1850.514855,14434.015869
382.705183,-1838.629195,-2738.761985,11695.253884
382.705492,-1532.190996,-2590.720797,10732.986159
382.705800,-995.924147,-4219.173869,9770.718434
382.706108,-229.828649,-3997.112087,10955.047942
382.706416,-995.924147,-1110.308913,9400.615463
382.706724,229.828649,444.123565,8882.471304
382.707032,1225.752797,2146.597232,8216.285956
382.707340,2987.772442,4219.173869,6513.812290
382.707648,5362.668486,4219.173869,6809.894666
382.707956,4060.306139,4219.173869,5329.482782
382.708264,3600.648841,2960.823768,7846.182985
382.708572,1838.629195,1184.329507,9844.739029
382.708880,-995.924147,-0.000000,11769.274478
382.709188,-1838.629195,-2146.597232,14063.912898
382.709496,-1762.019645,-2442.679609,12657.521608
382.709805,-995.924147,-2442.679609,10362.883188
382.710113,-919.314598,-3997.112087,9770.718434
382.710421,0.000000,-3701.029710,10955.047942
382.710729,-459.657299,-2294.638420,10362.883188
382.711037,-689.485948,-296.082377,8734.430116
382.711345,1072.533697,2368.659014,7328.038826
382.711653,2451.505594,3849.070898,7031.956449
382.711961,4979.620737,3923.091493,7550.100608
382.712269,5209.449386,4293.194464,6291.750507
382.712577,3217.601092,3034.844362,6513.812290
382.712885,1455.581446,1110.308913,9622.677246
382.713193,-459.657299,-296.082377,12583.501014
382.713501,-2298.286494,-1776.494261,14952.160028
382.713809,-2451.505594,-3034.844362,13915.871710
382.714117,-2528.115143,-2294.638420,10066.800811
382.714426,-689.485948,-3108.864956,11473.192101
382.714734,-306.438199,-3478.967927,10436.903782
382.715042,-612.876398,-1628.453072,9548.656652
382.715350,0.000000,-222.061783,9474.636058
382.715658,536.266849,2146.597232,7254.018232
382.715966,2298.286494,3701.029710,7624.121203
382.716274,4443.353888,4663.297435,6661.853478
382.716582,4443.353888,4811.338623,6143.709319
382.716890,3524.039291,3330.926739,7105.977043
382.717198,2221.676944,1776.494261,8882.471304
382.717506,-229.828649,740.205942,11399.171507
382.717814,-2068.457845,-1110.308913,13397.727550
382.718122,-2528.115143,-1998.556043,13249.686362
382.718430,-1608.800546,-2368.659014,11547.212695
382.718739,-1608.800546,-3404.947333,10288.862594
382.719047,76.609550,-4293.194464,10807.006753
382.719355,153.219100,-3034.844362,8882.471304
382.719663,-229.828649,-888.247130,9400.615463
382.719971,-153.219100,444.123565,8216.285956
382.720279,2374.896044,2960.823768,7550.100608
382.720587,3753.867940,4145.153275,6957.935855
382.720895,4826.401637,4219.173869,5847.626942
382.721203,4903.011187,3256.906145,6735.874072
382.721511,3064.381992,1480.411884,8290.306550
382.721819,306.438199,666.185348,10362.883188
382.722127,-1532.190996,-1258.350101,13841.851115
382.722435,-3064.381992,-2072.576638,14878.139434
382.722743,-2757.943793,-3330.926739,13101.645173
382.723051,-1762.019645,-3182.885551,10436.903782
382.723360,-1149.143247,-3404.947333,10214.842000
382.723668,153.219100,-2960.823768,10214.842000
382.723976,-612.876398,-1776.494261,9178.553681
382.724284,306.438199,1776.494261,8882.471304
382.724592,1378.971896,2220.617826,7772.162391
382.724900,3600.648841,4737.318029,5995.668130
382.725208,4749.792088,4811.338623,5625.565159
382.725516,4979.620737,4293.194464,5847.626942
382.725824,3830.477490,3404.947333,6661.853478
382.726132,1225.752797,1628.453072,9252.574275
382.726440,-383.047749,-0.000000,11991.336260
382.726748,-1685.410096,-1776.494261,14137.933492
382.727056,-3524.039291,-3256.906145,13989.892304
382.727364,-1838.629195,-3330.926739,11843.295072
382.727673,-1455.581446,-3552.988522,9918.759623
382.727981,-383.047749,-3182.885551,11251.130318
382.728289,-229.828649,-1924.535449,8956.491898
382.728597,0.000000,296.082377,7994.224174
382.728905,2451.505594,2516.700203,8734.430116
382.729213,2068.457845,4811.338623,4885.359217
382.729521,5362.668486,3997.112087,7994.224174
382.729829,5592.497135,4071.132681,5995.668130
382.730137,3294.210641,4145.153275,5403.503377
382.730445,2068.457845,740.205942,11251.130318
382.730753,-612.876398,-0.000000,11991.336260
382.731061,-2451.505594,-2368.659014,15100.201217
382.731369,-2757.943793,-3552.988522,14211.954086
382.731677,-1378.971896,-3627.009116,12657.521608
382.731986,-2451.505594,-3997.112087,10584.944971
382.732294,-1072.533697,-4515.256246,11325.150913
382.732602,0.000000,-1998.556043,9918.759623
382.732910,-306.438199,148.041188,7994.224174
382.733218,1302.362347,1998.556043,8660.409521
382.733526,3294.210641,4367.215058,6809.894666
382.733834,4903.011187,5625.565159,6217.729913
382.734142,5592.497135,4515.256246,5921.647536
382.734450,5132.839837,4515.256246,5921.647536
382.734758,2451.505594,1998.556043,9696.697840
382.735066,-689.485948,740.205942,11325.150913
382.735374,-2681.334243,-888.247130,13471.748144
382.735682,-3370.820191,-3256.906145,15544.324782
382.735990,-2911.162892,-3330.926739,12583.501014
382.736298,-2221.676944,-2886.803174,11177.109724
382.736607,229.828649,-4441.235652,11843.295072
382.736915,-995.924147,-3256.906145,9252.574275
382.737223,-383.047749,-592.164754,9474.636058
382.737531,1149.143247,888.247130,9104.533087
382.737839,2145.067394,3627.009116,6809.894666
382.738147,3677.258390,4737.318029,6069.688724
382.738455,5515.887586,4811.338623,6143.709319
382.738763,5286.058936,5033.400406,5477.523971
382.739071,3370.820191,3256.906145,7624.121203
382.739379,1072.533697,1924.535449,9696.697840
382.739687,-766.095498,296.082377,13323.706956
382.739995,-2374.896044,-2368.659014,13989.892304
382.740303,-3140.991542,-2886.803174,12731.542202
382.740611,-2604.724693,-3404.947333,11325.150913
382.740920,-1762.019645,-4737.318029,11029.068536
382.741228,-1378.971896,-3997.112087,11621.233289
382.741536,-842.705048,-1776.494261,9622.677246
382.741844,0.000000,-444.123565,8734.430116
382.742152,1302.362347,1628.453072,7105.977043
382.742460,2681.334243,3552.988522,6513.812290
382.742768,5439.278036,3478.967927,6661.853478
382.743076,4903.011187,4367.215058,5329.482782
382.743384,3983.696590,3478.967927,6809.894666
382.743692,1762.019645,1702.473667,9548.656652
382.744000,-153.219100,370.102971,11843.295072
382.744308,-1915.238745,-1110.308913,13841.851115
382.744616,-2834.553343,-2886.803174,13175.665768
382.744924,-2145.067394,-3034.844362,11917.315666
382.745233,-2298.286494,-4145.153275,10510.924376
382.745541,-612.876398,-3997.112087,11251.130318
382.745849,-919.314598,-2590.720797,10362.883188
382.746157,229.828649,-518.144159,8586.388927
382.746465,766.095498,1628.453072,8216.285956
382.746773,3064.381992,3256.906145,6069.688724
382.747081,5056.230287,4441.235652,5625.565159
382.747389,5592.497135,5477.523971,5403.503377
382.747697,4979.620737,4589.276840,5773.606348
382.748005,2604.724693,2812.782580,8956.491898
382.748313,383.047749,1406.391290,10732.986159
382.748621,-1991.848295,444.123565,12287.418637
382.748929,-2068.457845,-2220.617826,13545.768739
382.749237,-2221.676944,-2368.659014,12065.356855
382.749545,-2374.896044,-2886.803174,10881.027347
