#time,accel_x,accel_y,accel_z
258.178588,2604.724693,-0.000000,9474.636058
258.178897,2834.553343,-0.000000,9622.677246
258.179205,2987.772442,-222.061783,9474.636058
258.179513,3064.381992,-148.041188,9474.636058
258.179821,2987.772442,-0.000000,9400.615463
258.180129,3370.820191,222.061783,9474.636058
258.180437,3600.648841,592.164754,9474.636058
258.180745,3524.039291,444.123565,9474.636058
258.181053,3983.696590,370.102971,9474.636058
258.181361,3677.258390,740.205942,8882.471304
258.181670,3294.210641,814.226536,8734.430116
258.181978,3753.867940,1036.288319,8882.471304
258.182286,3907.087040,1258.350101,9178.553681
258.182594,3524.039291,1184.329507,9326.594869
258.182902,2911.162892,740.205942,9474.636058
258.183210,2681.334243,-0.000000,9992.780217
258.183518,2451.505594,-814.226536,10584.944971
258.183826,2145.067394,-888.247130,10807.006753
258.184134,2528.115143,-1258.350101,11029.068536
258.184443,2528.115143,-1258.350101,11325.150913
258.184751,2604.724693,-1110.308913,11325.150913
258.185059,2757.943793,-814.226536,10288.862594
258.185367,3217.601092,-222.061783,9770.718434
258.185675,3907.087040,-148.041188,9844.739029
258.185983,3753.867940,-0.000000,9474.636058
258.186291,3983.696590,-0.000000,9696.697840
258.186599,4366.744339,-0.000000,9474.636058
258.186907,4060.306139,-74.020594,9474.636058
258.187216,4136.915689,-0.000000,9326.594869
258.187524,4290.134789,-0.000000,9104.533087
258.187832,4443.353888,-0.000000,9178.553681
258.188140,4673.182538,-0.000000,8956.491898
258.188448,4519.963438,296.082377,9252.574275
258.188756,5056.230287,296.082377,8882.471304
258.189064,5439.278036,592.164754,8956.491898
258.189372,5592.497135,1480.411884,8660.409521
258.189680,5669.106685,1184.329507,8290.306550
258.189989,5669.106685,1258.350101,8290.306550
258.190297,5592.497135,1554.432478,8290.306550
258.190605,5515.887586,1554.432478,8216.285956
258.190913,4979.620737,1702.473667,8290.306550
258.191221,5056.230287,1480.411884,8956.491898
258.191529,4290.134789,1554.432478,9474.636058
258.191837,4136.915689,962.267725,9622.677246
258.192145,3983.696590,740.205942,10066.800811
258.192453,3294.210641,370.102971,10362.883188
258.192762,3064.381992,-0.000000,10881.027347
258.193070,2604.724693,-148.041188,11029.068536
258.193378,2374.896044,-814.226536,11473.192101
258.193686,2757.943793,-1036.288319,11325.150913
258.193994,2298.286494,-740.205942,11029.068536
258.194302,2911.162892,-1110.308913,11251.130318
258.194610,2757.943793,-740.205942,10732.986159
258.194918,3140.991542,-740.205942,10288.862594
258.195226,3753.867940,-296.082377,9918.759623
258.195535,4136.915689,-74.020594,9474.636058
258.195843,4596.572988,-148.041188,9474.636058
258.196151,4903.011187,-222.061783,9400.615463
258.196459,4596.572988,-740.205942,9326.594869
258.196767,5056.230287,-370.102971,9252.574275
258.197075,4519.963438,-296.082377,8956.491898
258.197383,4749.792088,-222.061783,9104.533087
258.197691,4903.011187,-0.000000,8882.471304
258.197999,4749.792088,-74.020594,9104.533087
258.198308,4903.011187,-592.164754,9104.533087
258.198616,4979.620737,-148.041188,9326.594869
258.198924,4749.792088,-0.000000,9030.512492
258.199232,4826.401637,-0.000000,9104.533087
258.199540,4903.011187,1184.329507,8734.430116
258.199848,4749.792088,1184.329507,8216.285956
258.200156,4519.963438,1628.453072,8438.347739
258.200464,4290.134789,2590.720797,7920.203579
258.200772,4519.963438,2590.720797,8142.265362
258.201081,3983.696590,2812.782580,8216.285956
258.201389,4136.915689,3034.844362,9326.594869
258.201697,3370.820191,2072.576638,9548.656652
258.202005,2604.724693,814.226536,10362.883188
258.202313,1302.362347,-444.123565,10732.986159
258.202621,459.657299,-1554.432478,12287.418637
258.202929,153.219100,-3330.926739,14137.933492
258.203237,-612.876398,-4293.194464,14285.974681
258.203545,0.000000,-4145.153275,13619.789333
258.203854,612.876398,-3775.050304,13249.686362
258.204162,2681.334243,-3182.885551,12065.356855
258.204470,3600.648841,-1110.308913,9696.697840
258.204778,5132.839837,592.164754,8216.285956
258.205086,6741.640382,2072.576638,7179.997637
258.205394,7890.783629,3478.967927,6143.709319
258.205702,7354.516781,4811.338623,4737.318029
258.206010,6665.030833,4589.276840,4959.379811
258.206319,6128.763984,4515.256246,5255.462188
258.206627,4213.525239,4367.215058,5551.544565
258.206935,2681.334243,3775.050304,7031.956449
258.207243,1608.800546,2220.617826,8808.450710
258.207551,612.876398,666.185348,10140.821405
258.207859,-1225.752797,-740.205942,10140.821405
258.208167,-1838.629195,-2812.782580,12287.418637
258.208475,-1608.800546,-3849.070898,14508.036463
258.208783,-2451.505594,-4811.338623,15248.242405
258.209092,-2451.505594,-4663.297435,14211.954086
258.209400,-1149.143247,-4367.215058,13249.686362
258.209708,76.609550,-3701.029710,12953.603985
258.210016,842.705048,-2442.679609,11547.212695
258.210324,2604.724693,-1406.391290,10288.862594
258.210632,3370.820191,-1036.288319,8734.430116
258.210940,3677.258390,740.205942,7846.182985
258.211248,3983.696590,1776.494261,7328.038826
258.211556,4443.353888,2368.659014,6735.874072
258.211865,4136.915689,3256.906145,5995.668130
258.212173,4136.915689,3849.070898,5477.523971
258.212481,3983.696590,3478.967927,5921.647536
258.212789,4366.744339,2664.741391,5995.668130
258.213097,1915.238745,1332.370696,7328.038826
258.213405,1302.362347,-0.000000,9844.739029
258.213713,306.438199,-1776.494261,11251.130318
258.214021,-1149.143247,-2368.659014,12731.542202
258.214330,-995.924147,-2220.617826,12805.562797
258.214638,-536.266849,-2072.576638,12583.501014
258.214946,0.000000,-888.247130,11399.171507
258.215254,1685.410096,-444.123565,10066.800811
258.215562,2451.505594,592.164754,8956.491898
258.215870,3524.039291,1924.535449,7402.059420
258.216179,3983.696590,3478.967927,6957.935855
258.216487,2911.162892,3923.091493,6957.935855
258.216795,3217.601092,3108.864956,7254.018232
258.217103,2451.505594,2368.659014,8660.409521
258.217411,1072.533697,666.185348,9696.697840
258.217719,-1378.971896,-1628.453072,11399.171507
258.218028,-2068.457845,-3404.947333,14211.954086
258.218336,-2374.896044,-4737.318029,14730.098246
258.218644,-2451.505594,-4589.276840,14211.954086
258.218952,-842.705048,-3627.009116,12731.542202
258.219260,842.705048,-1924.535449,10881.027347
258.219568,3294.210641,592.164754,7994.224174
258.219877,4673.182538,2590.720797,6069.688724
258.220185,5515.887586,4441.235652,5699.585753
258.220493,5056.230287,5773.606348,4663.297435
258.220801,4903.011187,6809.894666,3627.009116
258.221109,4519.963438,5255.462188,4515.256246
258.221417,2451.505594,3182.885551,6587.832884
258.221725,612.876398,-0.000000,9030.512492
258.222034,-2451.505594,-3552.988522,12731.542202
258.222342,-4136.915689,-6069.688724,15692.365970
258.222650,-5515.887586,-7254.018232,16580.613101
258.222958,-4290.134789,-7031.956449,16654.633695
258.223266,-2834.553343,-5995.668130,14804.118840
258.223574,0.000000,-2886.803174,11547.212695
258.223883,2681.334243,148.041188,8882.471304
258.224191,4596.572988,3849.070898,5181.441594
258.224499,5822.325785,6587.832884,4293.194464
258.224807,7277.907231,7698.141797,3849.070898
258.225115,6894.859482,8364.327145,3108.864956
258.225423,5898.935335,7254.018232,4071.132681
258.225732,3677.258390,4219.173869,6513.812290
258.226040,229.828649,518.144159,10214.842000
258.226348,-3140.991542,-4367.215058,14211.954086
258.226656,-5056.230287,-6439.791695,16580.613101
258.226964,-5898.935335,-8216.285956,17172.777854
258.227272,-4673.182538,-8068.244768,17098.757260
258.227581,-1838.629195,-4811.338623,14878.139434
258.227889,1225.752797,-1850.514855,11177.109724
258.228197,4596.572988,1184.329507,6957.935855
258.228505,5286.058936,5033.400406,4663.297435
258.228813,6971.469032,7254.018232,3997.112087
258.229121,7890.783629,8734.430116,3404.947333
258.229430,6971.469032,9326.594869,1776.494261
258.229738,5286.058936,7105.977043,3330.926739
258.230046,2834.553343,2664.741391,7402.059420
258.230354,-995.924147,-1998.556043,12213.398043
258.230662,-5286.058936,-5181.441594,15174.221811
258.230970,-7124.688131,-7846.182985,17098.757260
258.231279,-7277.907231,-9252.574275,17616.901420
258.231587,-4903.011187,-6809.894666,16654.633695
258.231895,-1072.533697,-2812.782580,12731.542202
258.232203,1991.848295,-0.000000,8216.285956
258.232511,4290.134789,3256.906145,5625.565159
258.232819,6358.592633,6587.832884,3552.988522
258.233128,7354.516781,8290.306550,3478.967927
258.233436,6435.202183,7476.080014,3404.947333
258.233744,4519.963438,6957.935855,3997.112087
258.234052,2374.896044,2886.803174,7698.141797
258.234360,-1532.190996,-1406.391290,11473.192101
258.234668,-4903.011187,-4589.276840,14730.098246
258.234976,-7354.516781,-8290.306550,17468.860231
258.235285,-8580.269578,-10510.924376,18801.230927
258.235593,-6894.859482,-8808.450710,17394.839637
258.235901,-2834.553343,-5329.482782,14137.933492
258.236209,76.609550,-1776.494261,8882.471304
258.236517,2911.162892,2146.597232,4293.194464
258.236825,5515.887586,6439.791695,3034.844362
258.237134,7354.516781,8142.265362,3034.844362
258.237442,7201.297681,8586.388927,1554.432478
258.237750,6511.811733,9104.533087,1480.411884
258.238058,4060.306139,5625.565159,4071.132681
258.238366,459.657299,888.247130,9030.512492
258.238674,-2834.553343,-3701.029710,13693.809927
258.238983,-6128.763984,-6069.688724,15840.407159
258.239291,-7967.393179,-8734.430116,16950.716072
258.239599,-7354.516781,-9400.615463,17987.004391
258.239907,-4060.306139,-5551.544565,15396.283594
258.240215,-766.095498,-2368.659014,10658.965565
258.240523,2451.505594,1110.308913,6587.832884
258.240832,4903.011187,4959.379811,4589.276840
258.241140,6281.983084,7328.038826,4293.194464
258.241448,6741.640382,7624.121203,3923.091493
258.241756,5056.230287,7772.162391,3330.926739
258.242064,3064.381992,5329.482782,4959.379811
258.242372,842.705048,1110.308913,9918.759623
258.242681,-2451.505594,-3404.947333,14211.954086
258.242989,-4903.011187,-5847.626942,16210.510130
258.243297,-7660.954980,-9030.512492,17912.983796
258.243605,-7507.735880,-9918.759623,18505.148550
258.243913,-4979.620737,-7031.956449,16136.489536
258.244221,-1225.752797,-2442.679609,11251.130318
258.244530,2604.724693,1036.288319,7105.977043
258.244838,5362.668486,5107.421000,3330.926739
258.245146,7660.954980,7476.080014,2368.659014
258.245454,8580.269578,8364.327145,2294.638420
258.245762,8273.831378,8142.265362,1628.453072
258.246070,6435.202183,6735.874072,2738.761985
258.246379,3677.258390,3404.947333,6291.750507
258.246687,383.047749,-1480.411884,10807.006753
258.246995,-2911.162892,-5033.400406,14285.974681
258.247303,-5056.230287,-6513.812290,16062.468941
258.247611,-5669.106685,-7698.141797,17024.736666
258.247919,-4903.011187,-6217.729913,15988.448347
258.248227,-1838.629195,-3034.844362,13175.665768
258.248536,1378.971896,222.061783,9178.553681
258.248844,3830.477490,3330.926739,6291.750507
258.249152,5209.449386,5847.626942,4885.359217
258.249460,6511.811733,7105.977043,4959.379811
258.249768,5898.935335,7031.956449,4589.276840
258.250076,4596.572988,5329.482782,5181.441594
258.250385,1991.848295,2294.638420,8808.450710
258.250693,-1149.143247,-2072.576638,13175.665768
258.251001,-3830.477490,-5181.441594,15840.407159
258.251309,-6128.763984,-6587.832884,16728.654289
258.251617,-6665.030833,-8068.244768,17172.777854
258.251925,-4366.744339,-7328.038826,16506.592507
258.252234,-2451.505594,-2516.700203,11621.233289
258.252542,2681.334243,666.185348,8660.409521
258.252850,4903.011187,4367.215058,4737.318029
258.253158,6665.030833,6957.935855,2812.782580
258.253466,8044.002729,7328.038826,3552.988522
258.253774,7660.954980,7920.203579,1776.494261
258.254083,6128.763984,6069.688724,3256.906145
258.254391,3983.696590,3997.112087,5773.606348
258.254699,1302.362347,-1036.288319,10362.883188
258.255007,-2451.505594,-4589.276840,13619.789333
258.255315,-4673.182538,-6217.729913,15100.201217
258.255623,-5592.497135,-7179.997637,16950.716072
258.255932,-4826.401637,-7254.018232,15988.448347
258.256240,-2221.676944,-3701.029710,13471.748144
258.256548,536.266849,-666.185348,9696.697840
258.256856,3370.820191,2442.679609,6587.832884
258.257164,4673.182538,5033.400406,4589.276840
258.257472,6281.983084,5995.668130,4959.379811
258.257781,5822.325785,6217.729913,4663.297435
258.258089,4136.915689,5033.400406,4663.297435
258.258397,1685.410096,2590.720797,8438.347739
258.258705,-842.705048,-2220.617826,12583.501014
258.259013,-4060.306139,-4367.215058,15026.180623
258.259321,-5515.887586,-6143.709319,16136.489536
258.259630,-6971.469032,-7328.038826,16062.468941
258.259938,-5286.058936,-6291.750507,15766.386565
258.260246,-2451.505594,-2738.761985,12731.542202
258.260554,1378.971896,962.267725,9030.512492
258.260862,3447.429741,4145.153275,4663.297435
258.261170,5822.325785,6661.853478,3552.988522
258.261478,7124.688131,6587.832884,3701.029710
258.261787,6205.373534,7105.977043,1924.535449
258.262095,4749.792088,6217.729913,3478.967927
258.262403,3140.991542,2960.823768,7624.121203
258.262711,76.609550,-814.226536,10732.986159
258.263019,-2757.943793,-3330.926739,14063.912898
258.263327,-4903.011187,-4885.359217,14656.077652
258.263636,-5515.887586,-6809.894666,15692.365970
258.263944,-4826.401637,-5773.606348,15840.407159
258.264252,-2528.115143,-2812.782580,13619.789333
258.264560,306.438199,-592.164754,10362.883188
258.264868,2911.162892,3034.844362,6513.812290
258.265176,5286.058936,5625.565159,4811.338623
258.265485,5362.668486,5625.565159,4441.235652
258.265793,5669.106685,5403.503377,5477.523971
258.266101,3600.648841,4663.297435,5477.523971
258.266409,689.485948,1776.494261,8808.450710
258.266717,-1302.362347,-2664.741391,13323.706956
258.267025,-4443.353888,-5033.400406,15470.304188
258.267334,-5745.716235,-5625.565159,16210.510130
258.267642,-6128.763984,-7105.977043,16062.468941
258.267950,-5056.230287,-5921.647536,15322.262999
258.268258,-2145.067394,-2072.576638,12657.521608
258.268566,995.924147,1258.350101,7846.182985
258.268874,3677.258390,4737.318029,3997.112087
258.269183,5286.058936,5699.585753,3701.029710
258.269491,7124.688131,6291.750507,3404.947333
258.269799,6588.421283,6513.812290,2516.700203
258.270107,3983.696590,5033.400406,4367.215058
258.270415,2068.457845,1554.432478,8216.285956
258.270723,-766.095498,-1480.411884,11621.233289
258.271032,-2987.772442,-3701.029710,13693.809927
258.271340,-4903.011187,-5329.482782,14359.995275
258.271648,-5056.230287,-6365.771101,15766.386565
258.271956,-3447.429741,-5033.400406,15174.221811
258.272264,-1762.019645,-2886.803174,12731.542202
258.272572,1455.581446,296.082377,9104.533087
258.272881,3677.258390,3997.112087,6217.729913
258.273189,5362.668486,4885.359217,4737.318029
258.273497,5669.106685,5477.523971,4219.173869
258.273805,5439.278036,5551.544565,4589.276840
258.274113,3753.867940,3627.009116,6291.750507
258.274421,1455.581446,666.185348,9474.636058
258.274729,-1532.190996,-2516.700203,13175.665768
258.275038,-3983.696590,-4737.318029,14952.160028
258.275346,-5362.668486,-6513.812290,15396.283594
258.275654,-5515.887586,-6809.894666,15766.386565
258.275962,-3524.039291,-4219.173869,14211.954086
258.276270,-919.314598,-1850.514855,11695.253884
258.276578,2681.334243,1850.514855,7179.997637
258.276887,4903.011187,5699.585753,4071.132681
258.277195,7584.345430,5033.400406,4293.194464
258.277503,6665.030833,6661.853478,2812.782580
258.277811,6128.763984,6883.915261,2516.700203
258.278119,4749.792088,4515.256246,4589.276840
258.278427,2374.896044,1480.411884,8290.306550
258.278736,0.000000,-2516.700203,12657.521608
258.279044,-3524.039291,-3997.112087,13471.748144
258.279352,-4136.915689,-6957.935855,16062.468941
258.279660,-5056.230287,-6883.915261,16062.468941
258.279968,-3140.991542,-4589.276840,15840.407159
258.280276,-1072.533697,-2442.679609,12657.521608
258.280585,1378.971896,1554.432478,8882.471304
258.280893,4443.353888,4515.256246,6291.750507
258.281201,5669.106685,5477.523971,4663.297435
258.281509,7048.078582,5773.606348,4885.359217
258.281817,5515.887586,5625.565159,4145.153275
258.282125,3600.648841,4145.153275,6069.688724
258.282434,536.266849,592.164754,9474.636058
258.282742,-2068.457845,-2960.823768,13619.789333
258.283050,-3830.477490,-4737.318029,15766.386565
258.283358,-5669.106685,-6513.812290,15914.427753
258.283666,-5515.887586,-6809.894666,15988.448347
258.283974,-3447.429741,-3849.070898,14211.954086
258.284283,-1302.362347,-666.185348,10955.047942
258.284591,2987.772442,3182.885551,7772.162391
258.284899,5592.497135,5255.462188,4145.153275
258.285207,6435.202183,6069.688724,3552.988522
258.285515,7124.688131,5773.606348,3330.926739
258.285823,5592.497135,7105.977043,2368.659014
258.286132,4290.134789,4367.215058,5403.503377
258.286440,1685.410096,1036.288319,9030.512492
258.286748,-1455.581446,-2368.659014,12509.480420
258.287056,-3753.867940,-4589.276840,15174.221811
258.287364,-5132.839837,-6217.729913,15914.427753
258.287672,-5515.887586,-6365.771101,16136.489536
258.287980,-3600.648841,-4293.194464,14804.118840
258.288289,-1378.971896,-1998.556043,12435.459826
258.288597,1302.362347,1184.329507,9326.594869
258.288905,3447.429741,4515.256246,6291.750507
258.289213,5669.106685,5255.462188,4663.297435
258.289521,5975.544884,5995.668130,4145.153275
258.289829,5132.839837,6217.729913,4219.173869
258.290138,3524.039291,3923.091493,6143.709319
258.290446,919.314598,518.144159,9696.697840
258.290754,-2451.505594,-3404.947333,13767.830521
258.291062,-4673.182538,-5699.585753,15914.427753
258.291370,-6128.763984,-7624.121203,16284.530724
258.291678,-6435.202183,-7179.997637,16136.489536
258.291987,-4213.525239,-4441.235652,14508.036463
258.292295,-1378.971896,-1554.432478,11769.274478
258.292603,2451.505594,2738.761985,6513.812290
258.292911,5132.839837,5625.565159,3552.988522
258.293219,6894.859482,5995.668130,3478.967927
258.293527,7431.126331,7105.977043,2146.597232
258.293836,5975.544884,7254.018232,1480.411884
258.294144,4749.792088,4589.276840,4885.359217
258.294452,1455.581446,962.267725,8364.327145
258.294760,-1225.752797,-3034.844362,13027.624579
258.295068,-4060.306139,-4959.379811,14508.036463
258.295376,-5669.106685,-6809.894666,15396.283594
258.295685,-5669.106685,-7105.977043,16210.510130
258.295993,-4060.306139,-4441.235652,14582.057057
258.296301,-1302.362347,-2368.659014,12509.480420
258.296609,1608.800546,1184.329507,8068.244768
258.296917,4596.572988,4663.297435,5403.503377
258.297225,5822.325785,5477.523971,4737.318029
258.297534,6358.592633,5921.647536,3775.050304
258.297842,5209.449386,6587.832884,3701.029710
258.298150,3524.039291,3701.029710,6735.874072
258.298458,766.095498,-222.061783,9696.697840
258.298766,-2451.505594,-3627.009116,13915.871710
258.299074,-4213.525239,-5773.606348,16062.468941
258.299383,-6281.983084,-7846.182985,16506.592507
258.299691,-6665.030833,-6883.915261,16432.571912
258.299999,-3983.696590,-4293.194464,14359.995275
258.300307,-306.438199,-1480.411884,11769.274478
258.300615,2451.505594,2664.741391,6587.832884
258.300923,5439.278036,5551.544565,3552.988522
258.301232,6741.640382,6069.688724,3478.967927
258.301540,7354.516781,6587.832884,2812.782580
258.301848,6128.763984,6957.935855,2368.659014
258.302156,4136.915689,4737.318029,5107.421000
258.302464,1762.019645,1036.288319,8586.388927
258.302772,-1302.362347,-2220.617826,12139.377449
258.303080,-3447.429741,-4145.153275,14285.974681
258.303389,-5056.230287,-6217.729913,15322.262999
258.303697,-4519.963438,-6365.771101,16210.510130
258.304005,-3370.820191,-4589.276840,14730.098246
258.304313,-766.095498,-1850.514855,12435.459826
258.304621,1915.238745,1998.556043,8290.306550
258.304929,4213.525239,4885.359217,6069.688724
258.305238,6205.373534,5625.565159,5255.462188
258.305546,5822.325785,6513.812290,3775.050304
258.305854,5439.278036,5847.626942,4663.297435
258.306162,3677.258390,2886.803174,7179.997637
258.306470,612.876398,-74.020594,10362.883188
258.306778,-2221.676944,-3256.906145,14656.077652
258.307087,-4749.792088,-5625.565159,15988.448347
258.307395,-5745.716235,-7031.956449,16580.613101
258.307703,-5745.716235,-6661.853478,16210.510130
258.308011,-3447.429741,-4367.215058,14804.118840
258.308319,-153.219100,-1184.329507,11547.212695
258.308627,3524.039291,3182.885551,6291.750507
258.308936,5745.716235,4663.297435,5033.400406
258.309244,6741.640382,6587.832884,3108.864956
258.309552,7048.078582,6809.894666,2812.782580
258.309860,5975.544884,6883.915261,2960.823768
258.310168,4290.134789,4367.215058,5255.462188
258.310476,1532.190996,1184.329507,9104.533087
258.310785,-383.047749,-1924.535449,12287.418637
258.311093,-3677.258390,-4515.256246,13989.892304
258.311401,-5439.278036,-6513.812290,14804.118840
258.311709,-4903.011187,-5847.626942,15988.448347
258.312017,-3983.696590,-4737.318029,14730.098246
258.312325,-1378.971896,-2294.638420,12361.439231
258.312633,1608.800546,2368.659014,7994.224174
258.312941,3753.867940,4441.235652,5625.565159
258.313249,5515.887586,5255.462188,4885.359217
258.313557,6358.592633,5625.565159,3849.070898
258.313865,5056.230287,5181.441594,4959.379811
258.314173,2834.553343,2146.597232,6883.915261
258.314481,229.828649,-444.123565,10066.800811
258.314789,-2068.457845,-3701.029710,14063.912898
258.315097,-4826.401637,-5921.647536,15396.283594
258.315405,-6358.592633,-7328.038826,15692.365970
258.315713,-5898.935335,-6809.894666,16062.468941
258.316021,-3064.381992,-3997.112087,13767.830521
258.316329,153.219100,-814.226536,10658.965565
258.316637,3140.991542,2886.803174,5921.647536
258.316945,5439.278036,5033.400406,3627.009116
258.317253,7048.078582,6587.832884,2072.576638
258.317561,6971.469032,7105.977043,2368.659014
258.317869,5975.544884,6365.771101,3256.906145
258.318177,4213.525239,3552.988522,5255.462188
258.318485,1455.581446,222.061783,9622.677246
258.318793,-1302.362347,-2368.659014,12879.583391
258.319101,-4519.963438,-5551.544565,14211.954086
258.319409,-5898.935335,-6883.915261,15618.345376
258.319717,-5669.106685,-6143.709319,16136.489536
258.320025,-3677.258390,-4367.215058,14878.139434
258.320332,-1378.971896,-1480.411884,11769.274478
258.320640,2374.896044,2738.761985,7994.224174
258.320948,4213.525239,4219.173869,5699.585753
258.321256,6205.373534,5847.626942,4293.194464
258.321564,5745.716235,6217.729913,3997.112087
258.321872,4903.011187,5033.400406,5477.523971
258.322180,2757.943793,2368.659014,7254.018232
258.322488,-153.219100,-592.164754,11325.150913
258.322796,-2451.505594,-3627.009116,14359.995275
258.323104,-4903.011187,-5995.668130,16062.468941
258.323412,-6281.983084,-6957.935855,16210.510130
258.323720,-4903.011187,-5847.626942,15840.407159
258.324028,-3217.601092,-3256.906145,13175.665768
258.324336,229.828649,-296.082377,10140.821405
258.324644,3753.867940,4145.153275,6217.729913
258.324952,5745.716235,4885.359217,3997.112087
258.325260,6971.469032,6883.915261,2368.659014
258.325568,6971.469032,7476.080014,2368.659014
258.325876,6358.592633,6217.729913,3701.029710
258.326184,3600.648841,3552.988522,5847.626942
258.326492,689.485948,222.061783,10066.800811
258.326800,-1915.238745,-2220.617826,13545.768739
258.327108,-4673.182538,-4737.318029,14804.118840
258.327416,-5362.668486,-6439.791695,16210.510130
258.327724,-5286.058936,-5995.668130,16432.571912
258.328032,-3370.820191,-4219.173869,14952.160028
258.328340,-536.266849,-888.247130,11325.150913
258.328648,2451.505594,2516.700203,8142.265362
258.328956,4366.744339,3775.050304,6291.750507
258.329264,5822.325785,5773.606348,3404.947333
258.329572,5439.278036,6587.832884,4071.132681
258.329880,5362.668486,4959.379811,5699.585753
258.330188,2757.943793,2368.659014,7105.977043
258.330496,0.000000,-1480.411884,11621.233289
258.330804,-2374.896044,-4367.215058,14730.098246
258.331112,-5439.278036,-6661.853478,15766.386565
258.331420,-6358.592633,-7624.121203,16506.592507
258.331728,-5975.544884,-6513.812290,15618.345376
258.332035,-3064.381992,-4145.153275,13693.809927
258.332343,536.266849,370.102971,9474.636058
258.332651,4060.306139,4367.215058,5403.503377
258.332959,6281.983084,5107.421000,3552.988522
258.333267,7814.174080,6587.832884,2442.679609
258.333575,7354.516781,7624.121203,1406.391290
258.333883,6665.030833,6809.894666,3034.844362
258.334191,4366.744339,3478.967927,5699.585753
258.334499,1149.143247,148.041188,9178.553681
258.334807,-1991.848295,-3182.885551,13175.665768
258.335115,-4979.620737,-6143.709319,15100.201217
258.335423,-6281.983084,-7328.038826,15692.365970
258.335731,-6281.983084,-6513.812290,16580.613101
258.336039,-4060.306139,-4441.235652,14730.098246
258.336347,-536.266849,-592.164754,11177.109724
258.336655,2451.505594,3404.947333,7402.059420
258.336963,4903.011187,5107.421000,4663.297435
258.337271,6741.640382,6217.729913,3701.029710
258.337579,5975.544884,7179.997637,2960.823768
258.337887,5745.716235,5181.441594,5477.523971
258.338195,2451.505594,2072.576638,7846.182985
258.338503,-689.485948,-1776.494261,11843.295072
258.338811,-3600.648841,-4663.297435,15914.427753
258.339119,-5975.544884,-6883.915261,15914.427753
258.339427,-6511.811733,-7402.059420,16580.613101
258.339735,-5362.668486,-6069.688724,15692.365970
258.340043,-2451.505594,-3923.091493,13471.748144
258.340351,1378.971896,370.102971,9696.697840
258.340659,4060.306139,2886.803174,5699.585753
258.340967,6281.983084,5699.585753,3182.885551
258.341275,7124.688131,6809.894666,2516.700203
258.341583,7124.688131,7402.059420,2368.659014
258.341891,5975.544884,6883.915261,3404.947333
258.342199,3524.039291,3997.112087,6217.729913
258.342507,1072.533697,592.164754,9770.718434
258.342815,-2528.115143,-2738.761985,13397.727550
258.343123,-5056.230287,-5921.647536,15840.407159
258.343430,-6741.640382,-7994.224174,16358.551318
258.343738,-6052.154434,-6513.812290,16284.530724
258.344046,-3447.429741,-4589.276840,14804.118840
258.344354,0.000000,-518.144159,11473.192101
258.344662,2604.724693,2664.741391,7624.121203
258.344970,5439.278036,5403.503377,3775.050304
258.345278,6741.640382,6883.915261,3108.864956
258.345586,6205.373534,6587.832884,4071.132681
258.345894,5515.887586,5329.482782,4959.379811
258.346202,2834.553343,2516.700203,8290.306550
258.346510,-229.828649,-1258.350101,11695.253884
258.346818,-3524.039291,-4071.132681,14508.036463
258.347126,-5439.278036,-6365.771101,16580.613101
258.347434,-6588.421283,-7328.038826,16580.613101
258.347742,-5515.887586,-6069.688724,15988.448347
258.348050,-2834.553343,-3552.988522,14359.995275
258.348358,842.705048,296.082377,10066.800811
258.348666,3370.820191,3108.864956,5625.565159
258.348974,6205.373534,5551.544565,2590.720797
258.349282,6894.859482,6809.894666,2294.638420
258.349590,7660.954980,7550.100608,2516.700203
258.349898,5975.544884,6661.853478,3330.926739
258.350206,3447.429741,3404.947333,6069.688724
258.350514,995.924147,666.185348,9992.780217
258.350822,-2451.505594,-3256.906145,12879.583391
258.351130,-5898.935335,-5847.626942,15470.304188
258.351438,-6205.373534,-7179.997637,16580.613101
258.351746,-6205.373534,-6513.812290,16136.489536
258.352054,-3677.258390,-3997.112087,14063.912898
258.352362,153.219100,-518.144159,11251.130318
258.352670,2911.162892,2738.761985,6365.771101
258.352978,5975.544884,4737.318029,4145.153275
258.353286,6741.640382,6513.812290,3182.885551
258.353594,6741.640382,5921.647536,3182.885551
258.353902,4903.011187,4811.338623,5181.441594
258.354210,2145.067394,2072.576638,7624.121203
258.354518,-689.485948,-1554.432478,11843.295072
258.354826,-4213.525239,-4441.235652,14582.057057
258.355133,-5822.325785,-6809.894666,15692.365970
258.355441,-7507.735880,-7402.059420,16580.613101
258.355749,-5669.106685,-6365.771101,16654.633695
258.356057,-3064.381992,-4515.256246,13841.851115
258.356365,689.485948,296.082377,9178.553681
258.356673,3983.696590,3256.906145,5477.523971
258.356981,6511.811733,5699.585753,2590.720797
258.357289,7431.126331,7402.059420,2294.638420
258.357597,7814.174080,7402.059420,2516.700203
258.357905,6358.592633,6439.791695,2960.823768
258.358213,3447.429741,3627.009116,6439.791695
258.358521,766.095498,370.102971,10066.800811
258.358829,-2681.334243,-2960.823768,13027.624579
258.359137,-4826.401637,-5403.503377,15322.262999
258.359445,-6052.154434,-6957.935855,16432.571912
258.359753,-5592.497135,-5921.647536,16284.530724
258.360061,-2757.943793,-3701.029710,14285.974681
258.360369,612.876398,-296.082377,11103.089130
258.360677,3524.039291,3627.009116,7105.977043
258.360985,5975.544884,5107.421000,4071.132681
258.361293,6588.421283,6217.729913,3775.050304
258.361601,6128.763984,6439.791695,4367.215058
258.361909,4826.401637,4589.276840,5699.585753
258.362217,2068.457845,1850.514855,8290.306550
258.362525,-919.314598,-1776.494261,12287.418637
258.362833,-3600.648841,-4663.297435,14285.974681
258.363141,-5439.278036,-6661.853478,15840.407159
258.363449,-6205.373534,-7920.203579,16580.613101
258.363757,-4826.401637,-6291.750507,15914.427753
258.364065,-1685.410096,-3627.009116,12879.583391
258.364373,1149.143247,-0.000000,8956.491898
258.364681,4903.011187,3775.050304,5255.462188
258.364989,6741.640382,5699.585753,2738.761985
258.365297,7507.735880,6809.894666,2886.803174
258.365605,7584.345430,7105.977043,2368.659014
258.365913,5209.449386,6439.791695,3330.926739
258.366221,3140.991542,3775.050304,6513.812290
258.366529,689.485948,-0.000000,9992.780217
258.366836,-2604.724693,-2812.782580,12879.583391
258.367144,-5132.839837,-5403.503377,14878.139434
258.367452,-5056.230287,-7254.018232,16580.613101
258.367760,-4903.011187,-6143.709319,17246.798449
258.368068,-2528.115143,-3923.091493,13767.830521
258.368376,842.705048,-370.102971,10584.944971
258.368684,3140.991542,3627.009116,6365.771101
258.368992,5515.887586,5181.441594,4441.235652
258.369300,6205.373534,7031.956449,3330.926739
258.369608,5745.716235,6957.935855,3923.091493
258.369916,3830.477490,4293.194464,6069.688724
258.370224,1685.410096,1554.432478,8438.347739
258.370532,-1072.533697,-1850.514855,13027.624579
258.370840,-4213.525239,-4589.276840,15470.304188
258.371148,-6435.202183,-6365.771101,16062.468941
258.371456,-6894.859482,-7328.038826,16950.716072
258.371764,-4826.401637,-6217.729913,16432.571912
258.372072,-1685.410096,-3404.947333,13397.727550
258.372380,1455.581446,-0.000000,8808.450710
258.372688,4903.011187,3849.070898,5403.503377
258.372996,6358.592633,5033.400406,3182.885551
258.373304,7354.516781,7031.956449,2368.659014
258.373612,7431.126331,7179.997637,2220.617826
258.373920,5745.716235,6587.832884,3627.009116
258.374228,2987.772442,3330.926739,5995.668130
258.374536,1302.362347,-148.041188,9696.697840
258.374844,-1915.238745,-2664.741391,12879.583391
258.375152,-5132.839837,-5995.668130,14137.933492
258.375460,-5439.278036,-7105.977043,16728.654289
258.375768,-5286.058936,-6069.688724,15914.427753
258.376076,-3294.210641,-3701.029710,13323.706956
258.376384,153.219100,-444.123565,10140.821405
258.376692,3294.210641,3256.906145,6365.771101
258.377000,4979.620737,5033.400406,4811.338623
258.377308,6052.154434,5477.523971,4293.194464
258.377616,5286.058936,6217.729913,4441.235652
258.377924,3524.039291,4145.153275,5995.668130
258.378232,1072.533697,1554.432478,9104.533087
258.378539,-1762.019645,-2220.617826,12879.583391
258.378847,-4519.963438,-4293.194464,15322.262999
258.379155,-6128.763984,-6217.729913,16136.489536
258.379463,-6665.030833,-7772.162391,16802.674883
258.379771,-4903.011187,-6439.791695,16802.674883
258.380079,-2221.676944,-3923.091493,13619.789333
258.380387,1455.581446,-0.000000,8512.368333
258.380695,3983.696590,3478.967927,4737.318029
258.381003,6205.373534,6365.771101,2812.782580
258.381311,7354.516781,6661.853478,2590.720797
258.381619,7507.735880,7476.080014,2294.638420
258.381927,6052.154434,6291.750507,2886.803174
258.382235,3370.820191,3849.070898,6217.729913
258.382543,459.657299,296.082377,10658.965565
258.382851,-2298.286494,-3256.906145,13545.768739
258.383159,-4903.011187,-4959.379811,14730.098246
258.383467,-5898.935335,-6735.874072,16136.489536
258.383775,-4979.620737,-5921.647536,16284.530724
258.384083,-2528.115143,-3478.967927,14285.974681
258.384391,-76.609550,-370.102971,9992.780217
258.384699,3447.429741,3034.844362,7105.977043
258.385007,4903.011187,3997.112087,5181.441594
258.385315,5745.716235,5551.544565,4071.132681
258.385623,5056.230287,5773.606348,4737.318029
258.385931,3983.696590,4367.215058,6587.832884
258.386239,1455.581446,1332.370696,8512.368333
258.386547,-1302.362347,-1628.453072,12065.356855
258.386855,-3217.601092,-3923.091493,15396.283594
258.387163,-4519.963438,-6365.771101,16654.633695
258.387471,-6588.421283,-6217.729913,15248.242405
258.387779,-3524.039291,-5625.565159,15988.448347
258.388087,-1685.410096,-3552.988522,13027.624579
258.388395,1608.800546,1110.308913,8290.306550
258.388703,4903.011187,2812.782580,6291.750507
258.389011,6511.811733,5699.585753,2516.700203
258.389319,7048.078582,6217.729913,3256.906145
258.389627,7660.954980,6957.935855,3182.885551
258.389934,5745.716235,5847.626942,3849.070898
258.390242,2298.286494,3552.988522,6735.874072
258.390550,1302.362347,370.102971,9622.677246
258.390858,-2451.505594,-2442.679609,13101.645173
258.391166,-4443.353888,-5477.523971,14582.057057
258.391474,-5286.058936,-5477.523971,15322.262999
258.391782,-4366.744339,-4737.318029,15174.221811
258.392090,-2451.505594,-3108.864956,14137.933492
258.392398,842.705048,666.185348,10584.944971
258.392706,3294.210641,3404.947333,7031.956449
258.393014,4673.182538,4293.194464,4737.318029
258.393322,5056.230287,5477.523971,4219.173869
258.393630,4673.182538,5625.565159,5403.503377
258.393938,3140.991542,3034.844362,6439.791695
258.394246,1072.533697,888.247130,8586.388927
258.394554,-1762.019645,-2220.617826,12657.521608
258.394862,-4443.353888,-5107.421000,15322.262999
258.395170,-6741.640382,-6291.750507,16136.489536
258.395478,-6052.154434,-7031.956449,16580.613101
258.395786,-4903.011187,-5995.668130,15248.242405
258.396094,-1608.800546,-3478.967927,12583.501014
258.396402,1838.629195,962.267725,8216.285956
258.396710,4903.011187,3701.029710,4367.215058
258.397018,6511.811733,5329.482782,2812.782580
258.397326,7354.516781,6661.853478,2516.700203
258.397634,7277.907231,6957.935855,2294.638420
258.397942,5439.278036,5625.565159,3256.906145
258.398250,2911.162892,3034.844362,6143.709319
258.398558,459.657299,-74.020594,9770.718434
258.398866,-2911.162892,-3256.906145,13323.706956
258.399174,-5209.449386,-5847.626942,15174.221811
258.399482,-5669.106685,-6291.750507,16210.510130
258.399790,-4826.401637,-5181.441594,15322.262999
258.400098,-3217.601092,-3034.844362,13249.686362
258.400406,766.095498,296.082377,10510.924376
258.400714,2681.334243,2664.741391,7328.038826
258.401022,4519.963438,4737.318029,4663.297435
258.401330,4903.011187,5329.482782,4441.235652
258.401637,4673.182538,5329.482782,5625.565159
258.401945,3447.429741,3849.070898,7105.977043
258.402253,995.924147,1110.308913,9178.553681
258.402561,-1608.800546,-1998.556043,12361.439231
258.402869,-4366.744339,-4589.276840,15026.180623
258.403177,-5822.325785,-5847.626942,15692.365970
258.403485,-5822.325785,-6513.812290,16432.571912
258.403793,-3830.477490,-5255.462188,15248.242405
258.404101,-995.924147,-2368.659014,11547.212695
258.404409,3140.991542,1406.391290,8290.306550
258.404717,5286.058936,3701.029710,4885.359217
258.405025,6588.421283,5773.606348,2368.659014
258.405333,7201.297681,6587.832884,2664.741391
258.405641,7431.126331,7031.956449,2960.823768
258.405949,5515.887586,5551.544565,3552.988522
258.406257,3677.258390,2442.679609,6587.832884
258.406565,383.047749,-592.164754,10066.800811
258.406873,-3064.381992,-3923.091493,13397.727550
258.407181,-4290.134789,-5995.668130,15100.201217
258.407489,-5362.668486,-6217.729913,16210.510130
258.407797,-4519.963438,-5107.421000,15914.427753
258.408105,-1762.019645,-2664.741391,13545.768739
258.408413,1149.143247,666.185348,9992.780217
258.408721,3370.820191,2738.761985,6587.832884
258.409029,5898.935335,4589.276840,4367.215058
258.409337,5669.106685,5699.585753,4367.215058
258.409645,5515.887586,5699.585753,5033.400406
258.409953,3677.258390,3849.070898,6735.874072
258.410261,842.705048,1332.370696,8882.471304
258.410569,-1685.410096,-1776.494261,12731.542202
258.410877,-4290.134789,-4737.318029,15470.304188
258.411185,-6052.154434,-6069.688724,16358.551318
258.411493,-5745.716235,-6883.915261,16728.654289
258.411801,-4136.915689,-5847.626942,15026.180623
258.412109,-1532.190996,-2960.823768,12657.521608
258.412417,2068.457845,1036.288319,8512.368333
258.412725,4519.963438,3330.926739,4737.318029
258.413033,6741.640382,5477.523971,2442.679609
258.413340,7048.078582,6883.915261,2368.659014
258.413648,7431.126331,6735.874072,3108.864956
258.413957,5056.230287,5699.585753,3849.070898
258.414265,3064.381992,2516.700203,6957.935855
258.414573,536.266849,-814.226536,10288.862594
258.414881,-2911.162892,-3330.926739,13027.624579
258.415189,-4749.792088,-5477.523971,14952.160028
258.415497,-5362.668486,-6217.729913,15470.304188
258.415805,-4443.353888,-5255.462188,15100.201217
258.416113,-1685.410096,-2590.720797,13397.727550
258.416422,1685.410096,518.144159,9474.636058
258.416730,3447.429741,3108.864956,5921.647536
258.417038,5745.716235,4811.338623,4219.173869
258.417346,5439.278036,5921.647536,3997.112087
258.417654,4749.792088,5403.503377,4959.379811
258.417962,2834.553343,3849.070898,6883.915261
258.418270,536.266849,1184.329507,9178.553681
258.418578,-1685.410096,-2442.679609,13101.645173
258.418887,-4443.353888,-4885.359217,15396.283594
258.419195,-5515.887586,-6809.894666,16580.613101
258.419503,-7201.297681,-7179.997637,17246.798449
258.419811,-5056.230287,-6217.729913,16062.468941
258.420119,-2068.457845,-3552.988522,12657.521608
258.420427,1532.190996,1258.350101,8068.244768
258.420735,4366.744339,3108.864956,5033.400406
258.421043,6281.983084,5477.523971,2812.782580
258.421352,6971.469032,6957.935855,2368.659014
258.421660,6971.469032,6883.915261,2738.761985
258.421968,5592.497135,5625.565159,3478.967927
258.422276,2987.772442,2590.720797,6883.915261
258.422584,689.485948,-74.020594,10362.883188
258.422892,-2681.334243,-3108.864956,13175.665768
258.423200,-4826.401637,-5255.462188,14434.015869
258.423508,-5056.230287,-5921.647536,15692.365970
258.423817,-4826.401637,-4959.379811,15248.242405
258.424125,-2145.067394,-2442.679609,13175.665768
258.424433,842.705048,222.061783,10510.924376
258.424741,3524.039291,3182.885551,6143.709319
258.425049,4673.182538,4811.338623,4293.194464
258.425357,5132.839837,5477.523971,4663.297435
258.425665,4903.011187,5477.523971,5107.421000
258.425973,2834.553343,3849.070898,6587.832884
258.426281,842.705048,1776.494261,9696.697840
258.426590,-1915.238745,-2294.638420,13101.645173
258.426898,-4366.744339,-4663.297435,16136.489536
258.427206,-6588.421283,-6143.709319,16728.654289
258.427514,-6665.030833,-7105.977043,17394.839637
258.427822,-4903.011187,-6069.688724,16062.468941
258.428130,-1915.238745,-2812.782580,12953.603985
258.428438,2145.067394,1480.411884,9252.574275
258.428746,4749.792088,3034.844362,4885.359217
258.429055,6128.763984,5699.585753,2738.761985
258.429363,7354.516781,6809.894666,2442.679609
258.429671,7660.954980,7254.018232,2664.741391
258.429979,5822.325785,5773.606348,3256.906145
258.430287,3217.601092,3256.906145,6143.709319
258.430595,842.705048,222.061783,10140.821405
258.430903,-2221.676944,-2886.803174,13175.665768
258.431211,-4673.182538,-4885.359217,14285.974681
258.431520,-4749.792088,-5773.606348,15322.262999
258.431828,-4136.915689,-4811.338623,15322.262999
258.432136,-1915.238745,-2738.761985,12805.562797
258.432444,1149.143247,444.123565,9992.780217
258.432752,3064.381992,2146.597232,7105.977043
258.433060,4596.572988,3923.091493,4663.297435
258.433368,5132.839837,5477.523971,4737.318029
258.433676,5209.449386,4885.359217,5403.503377
258.433985,3064.381992,3775.050304,6291.750507
258.434293,1149.143247,1628.453072,9178.553681
258.434601,-1532.190996,-1850.514855,12435.459826
258.434909,-4290.134789,-4737.318029,14878.139434
258.435217,-5745.716235,-5773.606348,16136.489536
258.435525,-5822.325785,-6809.894666,16358.551318
258.435833,-4060.306139,-5699.585753,14508.036463
258.436141,-1149.143247,-2294.638420,11177.109724
258.436450,2451.505594,740.205942,8290.306550
258.436758,4673.182538,4071.132681,4293.194464
258.437066,6128.763984,5477.523971,2812.782580
258.437374,7354.516781,6513.812290,2960.823768
258.437682,7354.516781,6587.832884,2368.659014
258.437990,5439.278036,5921.647536,3775.050304
258.438298,3447.429741,2516.700203,6809.894666
258.438606,459.657299,-592.164754,10214.842000
258.438915,-3064.381992,-3330.926739,13175.665768
258.439223,-4596.572988,-5773.606348,15026.180623
258.439531,-5515.887586,-6365.771101,16284.530724
258.439839,-4213.525239,-4811.338623,15174.221811
258.440147,-1762.019645,-2664.741391,13027.624579
258.440455,1608.800546,-0.000000,9622.677246
258.440763,3064.381992,2738.761985,6661.853478
258.441071,4136.915689,4663.297435,4737.318029
258.441379,5439.278036,5477.523971,4663.297435
258.441688,4826.401637,5403.503377,5403.503377
258.441996,3064.381992,3997.112087,7031.956449
258.442304,536.266849,1332.370696,9104.533087
258.442612,-2221.676944,-2294.638420,13249.686362
258.442920,-4673.182538,-4811.338623,15692.365970
258.443228,-6358.592633,-5995.668130,17172.777854
258.443536,-6435.202183,-6957.935855,17542.880825
258.443844,-4596.572988,-5773.606348,15396.283594
258.444153,-1149.143247,-1850.514855,12139.377449
258.444461,2221.676944,1184.329507,8438.347739
258.444769,5056.230287,3923.091493,4145.153275
258.445077,6665.030833,6365.771101,2368.659014
258.445385,7890.783629,7254.018232,2664.741391
258.445693,8044.002729,7254.018232,2960.823768
258.446001,5898.935335,5773.606348,4293.194464
258.446309,3140.991542,2960.823768,6513.812290
258.446618,0.000000,-370.102971,10288.862594
258.446926,-3064.381992,-3404.947333,13619.789333
258.447234,-5056.230287,-5255.462188,15100.201217
258.447542,-5515.887586,-6069.688724,16284.530724
258.447850,-4060.306139,-4885.359217,15988.448347
258.448158,-1302.362347,-2590.720797,13249.686362
258.448466,689.485948,370.102971,9992.780217
258.448774,3830.477490,2738.761985,6661.853478
258.449083,4519.963438,4663.297435,4885.359217
258.449391,5362.668486,5625.565159,4885.359217
258.449699,4826.401637,5625.565159,5329.482782
258.450007,2681.334243,3997.112087,7105.977043
258.450315,383.047749,740.205942,9622.677246
258.450623,-2451.505594,-2738.761985,12805.562797
258.450931,-4979.620737,-5033.400406,16062.468941
258.451239,-6511.811733,-6735.874072,17468.860231
258.451548,-6205.373534,-7031.956449,16876.695478
258.451856,-4366.744339,-5033.400406,14730.098246
258.452164,-459.657299,-1998.556043,11029.068536
258.452472,2911.162892,1480.411884,7105.977043
258.452780,5132.839837,3997.112087,4145.153275
258.453088,7124.688131,6513.812290,2072.576638
258.453396,8120.612279,6883.915261,2368.659014
258.453704,7584.345430,7105.977043,1998.556043
258.454013,5515.887586,5329.482782,3552.988522
258.454321,2451.505594,2220.617826,7105.977043
258.454629,-383.047749,-1110.308913,11473.192101
258.454937,-3753.867940,-4219.173869,13545.768739
258.455245,-5209.449386,-6439.791695,15470.304188
258.455553,-5362.668486,-6661.853478,16802.674883
258.455861,-4213.525239,-5107.421000,14878.139434
258.456169,-459.657299,-2220.617826,12287.418637
258.456477,1991.848295,444.123565,9178.553681
258.456786,3907.087040,3478.967927,5403.503377
258.457094,5286.058936,5329.482782,4071.132681
258.457402,5822.325785,6143.709319,4293.194464
258.457710,5132.839837,5477.523971,4663.297435
258.458018,3294.210641,3923.091493,6735.874072
258.458326,153.219100,666.185348,9474.636058
258.458634,-2451.505594,-3182.885551,13619.789333
258.458942,-5515.887586,-5255.462188,15988.448347
258.459251,-7124.688131,-7402.059420,17098.757260
258.459559,-6741.640382,-7179.997637,17098.757260
258.459867,-4749.792088,-5255.462188,15248.242405
258.460175,-383.047749,-2368.659014,11325.150913
258.460483,1762.019645,1406.391290,7402.059420
258.460791,4903.011187,3330.926739,3997.112087
258.461099,6281.983084,6069.688724,2516.700203
258.461407,7890.783629,7476.080014,2442.679609
258.461716,7201.297681,7179.997637,2664.741391
258.462024,5056.230287,5403.503377,3849.070898
258.462332,2451.505594,2442.679609,6809.894666
258.462640,-995.924147,-1554.432478,11843.295072
258.462948,-4290.134789,-4145.153275,14285.974681
258.463256,-5975.544884,-6439.791695,15692.365970
258.463564,-5669.106685,-6513.812290,16580.613101
258.463872,-4519.963438,-4737.318029,14952.160028
258.464181,-1072.533697,-2516.700203,12287.418637
258.464489,1532.190996,592.164754,9474.636058
258.464797,3983.696590,3552.988522,5847.626942
258.465105,5362.668486,5255.462188,3849.070898
258.465413,5439.278036,6735.874072,4145.153275
258.465721,5286.058936,6291.750507,4959.379811
258.466029,3064.381992,4145.153275,6513.812290
258.466337,766.095498,962.267725,9474.636058
258.466646,-2374.896044,-2812.782580,13397.727550
258.466954,-4903.011187,-5107.421000,16136.489536
258.467262,-6358.592633,-7105.977043,17172.777854
258.467570,-6205.373534,-7328.038826,17394.839637
258.467878,-4213.525239,-5181.441594,14952.160028
258.468186,-536.266849,-1924.535449,11843.295072
258.468494,2681.334243,1850.514855,7698.141797
258.468802,5362.668486,4441.235652,4663.297435
258.469111,6818.249932,6735.874072,2738.761985
258.469419,7660.954980,7624.121203,2368.659014
258.469727,7584.345430,7105.977043,2960.823768
258.470035,5132.839837,5551.544565,4441.235652
258.470343,2298.286494,2146.597232,7254.018232
258.470651,-536.266849,-1332.370696,11695.253884
258.470959,-3983.696590,-4145.153275,14285.974681
258.471267,-5745.716235,-6143.709319,16062.468941
258.471576,-5592.497135,-6439.791695,16506.592507
258.471884,-3753.867940,-4737.318029,15026.180623
258.472192,-153.219100,-1998.556043,12361.439231
258.472500,2298.286494,1258.350101,8734.430116
258.472808,4673.182538,3330.926739,5699.585753
258.473116,6588.421283,5551.544565,4145.153275
258.473424,5975.544884,6439.791695,3404.947333
258.473732,5132.839837,5921.647536,4811.338623
258.474040,3753.867940,3849.070898,6809.894666
258.474349,842.705048,1110.308913,9178.553681
258.474657,-2451.505594,-2590.720797,13175.665768
258.474965,-5209.449386,-5329.482782,15766.386565
258.475273,-6435.202183,-7105.977043,16728.654289
258.475581,-5822.325785,-7254.018232,17098.757260
258.475889,-4213.525239,-5255.462188,15174.221811
258.476197,-919.314598,-2220.617826,11399.171507
258.476505,2298.286494,1332.370696,7550.100608
258.476814,5515.887586,3923.091493,4589.276840
258.477122,6435.202183,6069.688724,1850.514855
258.477430,7354.516781,7328.038826,2812.782580
258.477738,7584.345430,6217.729913,2812.782580
258.478046,5132.839837,5477.523971,2886.803174
258.478354,1991.848295,2368.659014,7254.018232
258.478662,-689.485948,-1110.308913,10881.027347
258.478970,-3830.477490,-3849.070898,13841.851115
258.479279,-5975.544884,-6365.771101,16210.510130
258.479587,-5975.544884,-6661.853478,16506.592507
258.479895,-4136.915689,-5403.503377,14804.118840
258.480203,-1685.410096,-2886.803174,12435.459826
258.480511,1225.752797,222.061783,9400.615463
258.480819,3830.477490,3256.906145,5995.668130
258.481127,5439.278036,5181.441594,4367.215058
258.481435,5822.325785,5921.647536,4145.153275
258.481744,5132.839837,6291.750507,4515.256246
258.482052,3907.087040,3701.029710,6809.894666
258.482360,153.219100,1480.411884,8808.450710
258.482668,-2451.505594,-2738.761985,13175.665768
258.482976,-5286.058936,-5551.544565,16358.551318
258.483284,-7277.907231,-6735.874072,16580.613101
258.483592,-6588.421283,-7179.997637,17468.860231
258.483900,-4826.401637,-5477.523971,15322.262999
258.484209,-1378.971896,-1850.514855,11991.336260
258.484517,2221.676944,1554.432478,7920.203579
258.484825,4903.011187,4663.297435,4737.318029
258.485133,6894.859482,6291.750507,2664.741391
258.485441,7660.954980,7254.018232,2664.741391
258.485749,7124.688131,7031.956449,2886.803174
258.486057,4903.011187,5551.544565,4441.235652
258.486365,2374.896044,3108.864956,7179.997637
258.486674,-383.047749,-962.267725,11695.253884
258.486982,-3907.087040,-3775.050304,14137.933492
258.487290,-5439.278036,-5773.606348,15766.386565
258.487598,-5056.230287,-6661.853478,17320.819043
258.487906,-3600.648841,-5033.400406,15322.262999
258.488214,-1302.362347,-2442.679609,12731.542202
258.488522,1685.410096,296.082377,9622.677246
258.488830,4136.915689,2886.803174,6365.771101
258.489138,5132.839837,5403.503377,4367.215058
258.489447,5822.325785,6069.688724,4663.297435
258.489755,5515.887586,5699.585753,5033.400406
258.490063,4213.525239,3923.091493,6513.812290
258.490371,1532.190996,1258.350101,9474.636058
258.490679,-1991.848295,-2368.659014,12361.439231
258.490987,-4673.182538,-5107.421000,15766.386565
258.491295,-6588.421283,-6883.915261,16580.613101
258.491603,-6205.373534,-7105.977043,16950.716072
258.491912,-4290.134789,-5773.606348,15100.201217
258.492220,-383.047749,-2146.597232,11917.315666
258.492528,2911.162892,1480.411884,7698.141797
258.492836,5362.668486,4071.132681,3997.112087
258.493144,6665.030833,6143.709319,2738.761985
258.493452,7660.954980,6735.874072,2738.761985
258.493760,7048.078582,6957.935855,2738.761985
258.494068,5132.839837,5477.523971,3849.070898
258.494377,2987.772442,2664.741391,6439.791695
258.494685,-612.876398,-1036.288319,10584.944971
258.494993,-3677.258390,-3923.091493,13471.748144
258.495301,-4826.401637,-6217.729913,15322.262999
258.495609,-5669.106685,-6143.709319,16358.551318
258.495917,-4213.525239,-5181.441594,15100.201217
258.496225,-1072.533697,-2368.659014,12435.459826
258.496533,1915.238745,740.205942,8956.491898
258.496842,4519.963438,3182.885551,5847.626942
258.497150,5132.839837,5699.585753,4071.132681
258.497458,6205.373534,6513.812290,4441.235652
258.497766,5745.716235,5329.482782,4885.359217
258.498074,3524.039291,3997.112087,6143.709319
258.498382,842.705048,888.247130,8882.471304
258.498690,-2145.067394,-2812.782580,12953.603985
258.498998,-5515.887586,-5329.482782,15692.365970
258.499307,-6971.469032,-6809.894666,17394.839637
258.499615,-6741.640382,-7920.203579,17912.983796
258.499923,-5669.106685,-5403.503377,14952.160028
258.500231,-1685.410096,-2590.720797,12213.398043
258.500539,2451.505594,1110.308913,8068.244768
258.500847,4596.572988,3997.112087,3997.112087
258.501155,6435.202183,5847.626942,3256.906145
258.501463,7124.688131,7031.956449,2812.782580
258.501772,6665.030833,7031.956449,3404.947333
258.502080,4749.792088,5699.585753,4589.276840
258.502388,2834.553343,2960.823768,6883.915261
258.502696,-153.219100,-518.144159,10807.006753
258.503004,-3600.648841,-3330.926739,13397.727550
258.503312,-4903.011187,-5181.441594,15692.365970
258.503620,-5362.668486,-6217.729913,16506.592507
258.503928,-4290.134789,-4737.318029,15100.201217
258.504236,-1455.581446,-2516.700203,12805.562797
258.504545,1762.019645,592.164754,9474.636058
258.504853,3830.477490,3034.844362,5773.606348
258.505161,5592.497135,5107.421000,4515.256246
258.505469,5975.544884,6069.688724,4737.318029
258.505777,4903.011187,5403.503377,5255.462188
258.506085,2987.772442,3923.091493,6809.894666
258.506393,1072.533697,740.205942,9622.677246
258.506701,-2298.286494,-2960.823768,13619.789333
258.507010,-5209.449386,-5033.400406,16062.468941
258.507318,-6665.030833,-6735.874072,17394.839637
258.507626,-6435.202183,-6735.874072,17468.860231
258.507934,-4749.792088,-4959.379811,15322.262999
258.508242,-689.485948,-1702.473667,11547.212695
258.508550,2987.772442,1702.473667,7624.121203
258.508858,5132.839837,4293.194464,3701.029710
258.509166,7201.297681,5921.647536,2738.761985
258.509475,7431.126331,7105.977043,2516.700203
258.509783,7354.516781,6661.853478,2590.720797
258.510091,5286.058936,5847.626942,3627.009116
258.510399,2987.772442,2664.741391,6735.874072
258.510707,-229.828649,-1184.329507,10881.027347
258.511015,-3524.039291,-3256.906145,13471.748144
258.511323,-5056.230287,-5551.544565,16062.468941
258.511631,-6205.373534,-6883.915261,16654.633695
258.511940,-4443.353888,-5403.503377,15692.365970
258.512248,-995.924147,-2812.782580,12805.562797
258.512556,1532.190996,370.102971,9178.553681
258.512864,4060.306139,3256.906145,5995.668130
258.513172,5362.668486,5255.462188,4145.153275
258.513480,6205.373534,5995.668130,4441.235652
258.513788,5745.716235,5033.400406,5255.462188
258.514096,4060.306139,3775.050304,5921.647536
258.514405,1378.971896,962.267725,8512.368333
258.514713,-1915.238745,-2738.761985,12953.603985
258.515021,-4826.401637,-5921.647536,16062.468941
258.515329,-6665.030833,-7031.956449,16802.674883
258.515637,-6205.373534,-7179.997637,16580.613101
258.515945,-4213.525239,-5329.482782,14656.077652
258.516253,-459.657299,-2516.700203,10955.047942
258.516562,2604.724693,1332.370696,7476.080014
258.516870,5515.887586,4367.215058,4441.235652
258.517178,7277.907231,5995.668130,2294.638420
258.517486,7354.516781,7105.977043,2294.638420
258.517794,7277.907231,7179.997637,2590.720797
258.518102,5439.278036,6143.709319,3849.070898
258.518410,2604.724693,3034.844362,6883.915261
258.518719,-766.095498,-814.226536,10732.986159
258.519027,-3370.820191,-4071.132681,13767.830521
258.519335,-5898.935335,-6143.709319,15840.407159
258.519643,-6435.202183,-7031.956449,17098.757260
258.519951,-4673.182538,-5773.606348,15766.386565
258.520259,-1762.019645,-2368.659014,12657.521608
258.520567,995.924147,444.123565,9400.615463
258.520876,3753.867940,3256.906145,6365.771101
258.521184,5132.839837,5329.482782,4145.153275
258.521492,6052.154434,5625.565159,4737.318029
258.521800,5362.668486,5625.565159,4663.297435
258.522108,3830.477490,3627.009116,6809.894666
258.522416,842.705048,888.247130,8808.450710
258.522725,-2298.286494,-2886.803174,13101.645173
258.523033,-4979.620737,-5477.523971,16136.489536
258.523341,-6894.859482,-6957.935855,17246.798449
258.523649,-5975.544884,-7328.038826,17098.757260
258.523957,-4826.401637,-5551.544565,14582.057057
258.524265,-995.924147,-1998.556043,11769.274478
258.524573,2451.505594,1184.329507,7698.141797
258.524882,4903.011187,4589.276840,4589.276840
258.525190,6511.811733,6587.832884,2886.803174
258.525498,7354.516781,7476.080014,2368.659014
258.525806,6894.859482,7402.059420,2368.659014
258.526114,5056.230287,5847.626942,3701.029710
258.526422,3217.601092,3182.885551,6809.894666
258.526730,-842.705048,-814.226536,11399.171507
258.527039,-3677.258390,-3775.050304,14434.015869
258.527347,-5898.935335,-5847.626942,16506.592507
258.527655,-6128.763984,-6957.935855,16950.716072
258.527963,-5286.058936,-5699.585753,15840.407159
258.528271,-1838.629195,-2516.700203,12879.583391
258.528579,1225.752797,888.247130,9770.718434
258.528887,3447.429741,2738.761985,6809.894666
258.529196,5745.716235,5107.421000,4737.318029
258.529504,6358.592633,5477.523971,4145.153275
258.529812,5592.497135,5625.565159,4367.215058
258.530120,3600.648841,3701.029710,5995.668130
258.530428,1149.143247,962.267725,9030.512492
258.530736,-2145.067394,-2664.741391,13175.665768
258.531045,-4903.011187,-5329.482782,16210.510130
258.531353,-6205.373534,-6513.812290,16950.716072
258.531661,-5975.544884,-7402.059420,16876.695478
258.531969,-4366.744339,-5847.626942,14730.098246
258.532277,-459.657299,-2146.597232,11029.068536
258.532585,2681.334243,1480.411884,8142.265362
258.532893,5132.839837,3849.070898,4811.338623
258.533202,7048.078582,6365.771101,2590.720797
258.533510,7814.174080,7698.141797,2294.638420
258.533818,7584.345430,7476.080014,2516.700203
258.534126,5822.325785,6587.832884,3404.947333
258.534434,2604.724693,3034.844362,6365.771101
258.534742,-153.219100,-666.185348,11251.130318
258.535050,-3447.429741,-3552.988522,13767.830521
258.535359,-5515.887586,-5995.668130,16136.489536
258.535667,-6052.154434,-7105.977043,16580.613101
258.535975,-4749.792088,-5107.421000,14804.118840
258.536283,-1762.019645,-2590.720797,12731.542202
258.536591,1225.752797,740.205942,9844.739029
258.536899,4213.525239,3182.885551,6365.771101
258.537208,5362.668486,5329.482782,4737.318029
258.537516,6052.154434,5699.585753,4071.132681
258.537824,5439.278036,5329.482782,4589.276840
258.538132,3600.648841,3330.926739,6513.812290
258.538440,1149.143247,592.164754,9104.533087
258.538748,-2145.067394,-3108.864956,13619.789333
258.539056,-4903.011187,-5699.585753,16210.510130
258.539365,-6281.983084,-6957.935855,16876.695478
258.539673,-6511.811733,-7105.977043,16802.674883
258.539981,-3907.087040,-5107.421000,14434.015869
258.540289,-536.266849,-2072.576638,10584.944971
258.540597,2604.724693,1702.473667,7254.018232
258.540905,5669.106685,3997.112087,4589.276840
258.541213,7048.078582,6217.729913,2220.617826
258.541522,7354.516781,7105.977043,2368.659014
258.541830,6818.249932,7328.038826,2664.741391
258.542138,4903.011187,5773.606348,3478.967927
258.542446,2374.896044,2664.741391,7550.100608
258.542754,-995.924147,-1332.370696,11103.089130
258.543062,-4366.744339,-3997.112087,14285.974681
258.543371,-6281.983084,-6661.853478,16580.613101
258.543679,-7277.907231,-7254.018232,17246.798449
258.543987,-5056.230287,-4811.338623,15692.365970
258.544295,-1991.848295,-2368.659014,12287.418637
258.544603,1072.533697,1036.288319,9548.656652
258.544911,3677.258390,3552.988522,6291.750507
258.545219,5439.278036,5699.585753,4145.153275
258.545528,6205.373534,6143.709319,3997.112087
258.545836,5745.716235,5329.482782,4441.235652
258.546144,3907.087040,3775.050304,6587.832884
258.546452,689.485948,666.185348,9178.553681
258.546760,-2221.676944,-2886.803174,13693.809927
258.547068,-4903.011187,-5181.441594,16284.530724
258.547376,-6665.030833,-6957.935855,16654.633695
258.547685,-6205.373534,-6957.935855,16950.716072
258.547993,-3524.039291,-4811.338623,14211.954086
258.548301,-766.095498,-1702.473667,11251.130318
258.548609,2604.724693,1776.494261,7550.100608
258.548917,5439.278036,4071.132681,4663.297435
258.549225,6818.249932,6661.853478,2590.720797
258.549534,7354.516781,7105.977043,2368.659014
258.549842,7201.297681,7105.977043,2664.741391
258.550150,4826.401637,5625.565159,4441.235652
258.550458,2298.286494,2220.617826,7476.080014
258.550766,-995.924147,-1924.535449,11917.315666
258.551074,-4749.792088,-4737.318029,14582.057057
258.551382,-5745.716235,-6809.894666,16432.571912
258.551691,-6128.763984,-6735.874072,16654.633695
258.551999,-3830.477490,-4959.379811,14952.160028
258.552307,-842.705048,-1702.473667,11843.295072
258.552615,1991.848295,1406.391290,8956.491898
258.552923,4213.525239,3552.988522,6291.750507
258.553231,5898.935335,5773.606348,4071.132681
258.553539,6281.983084,6069.688724,4219.173869
258.553848,5975.544884,5329.482782,4885.359217
258.554156,3524.039291,3108.864956,6587.832884
258.554464,459.657299,222.061783,10140.821405
258.554772,-2681.334243,-3256.906145,13767.830521
258.555080,-4979.620737,-5403.503377,16284.530724
258.555388,-5975.544884,-6809.894666,16580.613101
258.555697,-5822.325785,-6735.874072,16210.510130
258.556005,-2451.505594,-4811.338623,14211.954086
258.556313,919.314598,-740.205942,10584.944971
258.556621,3524.039291,2294.638420,6661.853478
258.556929,6052.154434,4663.297435,3849.070898
258.557237,7354.516781,7179.997637,2146.597232
258.557545,7660.954980,7476.080014,2368.659014
258.557854,7201.297681,6735.874072,2516.700203
258.558162,4979.620737,5255.462188,4441.235652
258.558470,1991.848295,1998.556043,7846.182985
258.558778,-995.924147,-2146.597232,12139.377449
258.559086,-4596.572988,-5107.421000,15174.221811
258.559394,-6511.811733,-6809.894666,16802.674883
258.559702,-6818.249932,-7031.956449,17024.736666
258.560011,-4060.306139,-4663.297435,14804.118840
258.560319,-153.219100,-1480.411884,12065.356855
258.560627,1991.848295,1776.494261,8808.450710
258.560935,4443.353888,3775.050304,5699.585753
258.561243,6358.592633,5699.585753,4663.297435
258.561551,5975.544884,5699.585753,4071.132681
258.561859,5209.449386,5033.400406,4737.318029
258.562168,2604.724693,2664.741391,6883.915261
258.562476,-536.266849,-518.144159,10807.006753
258.562784,-3830.477490,-4219.173869,14359.995275
258.563092,-6052.154434,-5995.668130,16210.510130
258.563400,-7124.688131,-7846.182985,17098.757260
258.563708,-6281.983084,-6957.935855,16210.510130
258.564017,-2911.162892,-4367.215058,13693.809927
258.564325,612.876398,-1332.370696,9918.759623
258.564633,3447.429741,2442.679609,6365.771101
258.564941,5898.935335,4737.318029,3330.926739
258.565249,7431.126331,6661.853478,1924.535449
258.565557,8427.050478,7920.203579,1924.535449
258.565865,7431.126331,7179.997637,1998.556043
258.566174,4673.182538,5255.462188,4663.297435
258.566482,1302.362347,1998.556043,7994.224174
258.566790,-2145.067394,-1998.556043,13027.624579
258.567098,-5745.716235,-4737.318029,15766.386565
258.567406,-7124.688131,-6809.894666,17394.839637
258.567714,-6511.811733,-6365.771101,17616.901420
258.568022,-4366.744339,-4515.256246,14952.160028
258.568331,-1149.143247,-1480.411884,12213.398043
258.568639,1762.019645,1406.391290,9696.697840
258.568947,4060.306139,4145.153275,6587.832884
258.569255,5515.887586,5847.626942,4663.297435
258.569563,6128.763984,6143.709319,4367.215058
258.569871,5056.230287,5255.462188,4959.379811
258.570180,2528.115143,3182.885551,7105.977043
258.570488,383.047749,-74.020594,10362.883188
258.570796,-2987.772442,-3404.947333,14582.057057
258.571104,-5439.278036,-5699.585753,16136.489536
258.571412,-6128.763984,-7031.956449,16432.571912
258.571720,-5439.278036,-6513.812290,15840.407159
258.572028,-2374.896044,-4367.215058,13619.789333
258.572337,995.924147,-666.185348,9474.636058
258.572645,3677.258390,2220.617826,6291.750507
258.572953,5898.935335,4071.132681,4071.132681
258.573261,7277.907231,6513.812290,1628.453072
258.573569,7967.393179,6957.935855,2294.638420
258.573877,7201.297681,6883.915261,2294.638420
258.574185,4903.011187,4737.318029,4293.194464
258.574494,1838.629195,962.267725,8216.285956
258.574802,-1225.752797,-2590.720797,11991.336260
258.575110,-4443.353888,-5255.462188,14582.057057
258.575418,-6128.763984,-7550.100608,16136.489536
258.575726,-5592.497135,-6809.894666,16580.613101
258.576034,-3140.991542,-4515.256246,14582.057057
258.576343,0.000000,-1184.329507,11177.109724
258.576651,2451.505594,1628.453072,8216.285956
258.576959,4519.963438,4367.215058,5181.441594
258.577267,6052.154434,6069.688724,3552.988522
258.577575,6665.030833,6143.709319,3923.091493
258.577883,5975.544884,5255.462188,4737.318029
258.578191,2987.772442,3256.906145,6217.729913
258.578500,0.000000,444.123565,10584.944971
258.578808,-3064.381992,-3552.988522,14434.015869
258.579116,-5745.716235,-5477.523971,16432.571912
258.579424,-6894.859482,-6957.935855,17098.757260
258.579732,-6358.592633,-6957.935855,16876.695478
258.580040,-2834.553343,-3997.112087,14285.974681
258.580348,612.876398,-814.226536,10288.862594
258.580657,3447.429741,1480.411884,7402.059420
258.580965,5515.887586,4441.235652,3997.112087
258.581273,6894.859482,6587.832884,2738.761985
258.581581,7507.735880,7402.059420,2442.679609
258.581889,6665.030833,7105.977043,2812.782580
258.582197,4596.572988,5181.441594,4885.359217
258.582506,1685.410096,1850.514855,8216.285956
258.582814,-1915.238745,-2294.638420,12287.418637
258.583122,-4673.182538,-5181.441594,15618.345376
258.583430,-6281.983084,-6217.729913,16580.613101
258.583738,-5898.935335,-6069.688724,16358.551318
258.584046,-3600.648841,-3775.050304,14434.015869
258.584354,-306.438199,-666.185348,11473.192101
258.584663,1838.629195,2146.597232,8882.471304
258.584971,4596.572988,4219.173869,5773.606348
258.585279,6358.592633,5921.647536,4441.235652
258.585587,6435.202183,5847.626942,4071.132681
258.585895,4979.620737,4885.359217,4441.235652
258.586203,2374.896044,2664.741391,7254.018232
258.586511,-306.438199,-444.123565,10807.006753
258.586820,-3370.820191,-3923.091493,14582.057057
258.587128,-5898.935335,-5921.647536,16580.613101
258.587436,-6281.983084,-7328.038826,16728.654289
258.587744,-6052.154434,-6291.750507,16358.551318
258.588052,-3217.601092,-4441.235652,13915.871710
258.588360,0.000000,-1184.329507,10214.842000
258.588669,2757.943793,2146.597232,7476.080014
258.588977,5592.497135,4219.173869,4737.318029
258.589285,6435.202183,6439.791695,2146.597232
258.589593,7124.688131,7772.162391,2220.617826
258.589901,7201.297681,7031.956449,2886.803174
258.590209,4519.963438,5181.441594,4737.318029
258.590517,1915.238745,1924.535449,7846.182985
258.590826,-1685.410096,-2368.659014,11917.315666
258.591134,-4749.792088,-4885.359217,14730.098246
258.591442,-6665.030833,-6439.791695,15914.427753
258.591750,-5439.278036,-6217.729913,16432.571912
258.592058,-3140.991542,-3997.112087,13989.892304
258.592366,-612.876398,-888.247130,10658.965565
258.592674,2451.505594,1480.411884,9474.636058
258.592983,4519.963438,3404.947333,5995.668130
258.593291,5056.230287,4959.379811,4219.173869
258.593599,5592.497135,5403.503377,4219.173869
258.593907,5209.449386,4811.338623,4811.338623
258.594215,2681.334243,2812.782580,6957.935855
258.594523,229.828649,-518.144159,10362.883188
258.594831,-2528.115143,-3478.967927,14137.933492
258.595140,-4903.011187,-5625.565159,16062.468941
258.595448,-5898.935335,-6809.894666,16728.654289
258.595756,-5592.497135,-6661.853478,16284.530724
258.596064,-3140.991542,-4441.235652,13767.830521
258.596372,383.047749,-1110.308913,9992.780217
258.596680,3217.601092,1850.514855,6957.935855
258.596989,5898.935335,4293.194464,4441.235652
258.597297,8197.221829,6217.729913,1998.556043
258.597605,8044.002729,6735.874072,1036.288319
258.597913,8197.221829,7031.956449,2368.659014
258.598221,5286.058936,4885.359217,4367.215058
258.598529,2145.067394,1850.514855,7846.182985
258.598837,-1378.971896,-2220.617826,12361.439231
258.599146,-4519.963438,-4959.379811,14804.118840
258.599454,-6281.983084,-6069.688724,16284.530724
258.599762,-5439.278036,-5921.647536,16580.613101
258.600070,-3370.820191,-4219.173869,14434.015869
258.600378,-766.095498,-1036.288319,11473.192101
258.600686,2145.067394,1776.494261,9252.574275
258.600994,4136.915689,3849.070898,6291.750507
258.601303,5515.887586,5033.400406,4811.338623
258.601611,5439.278036,5773.606348,4441.235652
258.601919,5362.668486,5107.421000,5181.441594
258.602227,2145.067394,2960.823768,7698.141797
258.602535,-306.438199,-222.061783,10584.944971
258.602843,-2681.334243,-3256.906145,13915.871710
258.603152,-5362.668486,-4885.359217,15840.407159
258.603460,-6128.763984,-6809.894666,16654.633695
258.603768,-5822.325785,-5921.647536,15840.407159
258.604076,-2834.553343,-3849.070898,13841.851115
258.604384,76.609550,-888.247130,10510.924376
258.604692,3677.258390,1998.556043,6957.935855
258.605000,5822.325785,4515.256246,4293.194464
258.605309,7354.516781,6291.750507,2368.659014
258.605617,8120.612279,7402.059420,1554.432478
258.605925,6971.469032,6883.915261,2664.741391
258.606233,4826.401637,4367.215058,5403.503377
258.606541,1608.800546,1036.288319,8290.306550
258.606849,-1838.629195,-2368.659014,12805.562797
258.607157,-4136.915689,-5847.626942,15914.427753
258.607466,-5669.106685,-6513.812290,16284.530724
258.607774,-5439.278036,-5847.626942,16802.674883
258.608082,-3447.429741,-3701.029710,14137.933492
258.608390,-766.095498,-296.082377,11251.130318
258.608698,2528.115143,1628.453072,9326.594869
258.609006,3907.087040,3923.091493,5699.585753
258.609315,5515.887586,4737.318029,4811.338623
258.609623,5822.325785,4737.318029,4885.359217
258.609931,3907.087040,4441.235652,5181.441594
258.610239,2145.067394,2072.576638,7994.224174
258.610547,-459.657299,-370.102971,11029.068536
258.610855,-3677.258390,-3849.070898,14211.954086
258.611163,-5439.278036,-5477.523971,15544.324782
258.611472,-6281.983084,-6513.812290,16136.489536
258.611780,-5362.668486,-6217.729913,15618.345376
258.612088,-2528.115143,-4071.132681,12879.583391
258.612396,383.047749,-814.226536,10140.821405
258.612704,3677.258390,1850.514855,7179.997637
258.613012,6205.373534,4589.276840,3552.988522
258.613320,7048.078582,6883.915261,1628.453072
258.613629,7737.564530,6883.915261,1850.514855
258.613937,6971.469032,6809.894666,2738.761985
258.614245,4596.572988,4441.235652,4959.379811
258.614553,1302.362347,518.144159,8882.471304
258.614861,-2068.457845,-3627.009116,12583.501014
258.615169,-4826.401637,-5773.606348,15100.201217
258.615477,-5975.544884,-6735.874072,16580.613101
258.615785,-5669.106685,-6143.709319,15988.448347
258.616093,-3294.210641,-3108.864956,13619.789333
258.616401,306.438199,-296.082377,11251.130318
258.616709,2374.896044,2368.659014,8586.388927
258.617017,4596.572988,4145.153275,5477.523971
258.617325,5439.278036,5551.544565,4737.318029
258.617633,6052.154434,6291.750507,3849.070898
258.617941,4596.572988,5403.503377,5107.421000
258.618249,2757.943793,2812.782580,7994.224174
258.618557,153.219100,-0.000000,11029.068536
258.618866,-3064.381992,-3701.029710,14359.995275
258.619174,-6128.763984,-6217.729913,15988.448347
258.619482,-6665.030833,-7031.956449,16728.654289
258.619790,-6052.154434,-7105.977043,16950.716072
258.620098,-3447.429741,-4219.173869,13915.871710
258.620406,0.000000,-592.164754,10362.883188
258.620714,2757.943793,1776.494261,7402.059420
258.621022,5745.716235,4663.297435,4219.173869
258.621330,7660.954980,6587.832884,2294.638420
258.621638,7890.783629,7624.121203,1776.494261
258.621946,7048.078582,6365.771101,3256.906145
258.622254,4519.963438,4367.215058,5107.421000
258.622562,1302.362347,888.247130,8586.388927
258.622870,-1608.800546,-2664.741391,12213.398043
258.623178,-4903.011187,-4663.297435,14508.036463
258.623486,-5669.106685,-6069.688724,16580.613101
258.623794,-5209.449386,-5625.565159,15988.448347
258.624102,-2834.553343,-3330.926739,13767.830521
258.624410,76.609550,-666.185348,10436.903782
258.624718,3524.039291,2072.576638,8142.265362
258.625026,4903.011187,3923.091493,5625.565159
258.625334,5822.325785,5181.441594,3997.112087
258.625643,6205.373534,5699.585753,3701.029710
258.625951,4903.011187,4811.338623,4885.359217
258.626259,2911.162892,2368.659014,7624.121203
258.626567,0.000000,-296.082377,10955.047942
258.626875,-2604.724693,-4293.194464,14211.954086
258.627183,-5209.449386,-5995.668130,16358.551318
258.627491,-6818.249932,-6883.915261,16136.489536
258.627799,-5975.544884,-6217.729913,16506.592507
258.628107,-3753.867940,-4145.153275,13989.892304
258.628415,-153.219100,-814.226536,10288.862594
258.628723,3064.381992,2146.597232,7105.977043
258.629031,5515.887586,4589.276840,4515.256246
258.629339,7048.078582,6217.729913,2442.679609
258.629647,7737.564530,7179.997637,1924.535449
258.629955,6588.421283,6957.935855,2886.803174
258.630263,4213.525239,4515.256246,5477.523971
258.630571,1225.752797,814.226536,9252.574275
258.630879,-2221.676944,-2368.659014,12805.562797
258.631187,-4290.134789,-4885.359217,14730.098246
258.631495,-5975.544884,-6587.832884,16210.510130
258.631803,-5515.887586,-5773.606348,16580.613101
258.632112,-2757.943793,-3701.029710,14063.912898
258.632420,-459.657299,-518.144159,10881.027347
258.632728,2451.505594,1702.473667,8586.388927
258.633036,4596.572988,4219.173869,5403.503377
258.633344,5669.106685,5107.421000,4737.318029
258.633652,5592.497135,6217.729913,4367.215058
258.633960,4290.134789,5033.400406,5181.441594
258.634268,2528.115143,2664.741391,7550.100608
258.634576,0.000000,-0.000000,10881.027347
258.634884,-2834.553343,-3701.029710,14137.933492
258.635192,-5439.278036,-5403.503377,15988.448347
258.635500,-6818.249932,-7105.977043,16950.716072
258.635808,-6281.983084,-6365.771101,16284.530724
258.636116,-3907.087040,-4145.153275,13249.686362
258.636424,306.438199,-1110.308913,10214.842000
258.636732,3983.696590,2590.720797,6809.894666
258.637040,6281.983084,4663.297435,3404.947333
258.637348,7584.345430,6735.874072,1776.494261
258.637656,8044.002729,7254.018232,1480.411884
258.637964,7354.516781,6217.729913,2664.741391
258.638272,4979.620737,4219.173869,4737.318029
258.638580,2221.676944,370.102971,8512.368333
258.638889,-1455.581446,-3256.906145,12287.418637
258.639197,-4596.572988,-5551.544565,14804.118840
258.639505,-6128.763984,-7105.977043,16654.633695
258.639813,-5592.497135,-5847.626942,16580.613101
258.640121,-3370.820191,-3478.967927,13841.851115
258.640429,0.000000,-888.247130,11473.192101
258.640737,2834.553343,1924.535449,8364.327145
258.641045,4673.182538,4219.173869,5255.462188
258.641353,5745.716235,5329.482782,4663.297435
258.641661,6435.202183,5921.647536,4145.153275
258.641969,5132.839837,4885.359217,5181.441594
258.642277,2681.334243,3108.864956,7476.080014
258.642585,-229.828649,-222.061783,10732.986159
258.642893,-3217.601092,-3552.988522,13989.892304
258.643201,-5439.278036,-5699.585753,16210.510130
258.643509,-6741.640382,-7105.977043,16728.654289
258.643817,-6281.983084,-6883.915261,16284.530724
258.644125,-2834.553343,-3849.070898,13693.809927
258.644433,536.266849,-222.061783,9992.780217
258.644741,4060.306139,2812.782580,6365.771101
258.645049,6511.811733,4959.379811,3701.029710
258.645358,7431.126331,7105.977043,1998.556043
258.645666,7584.345430,7772.162391,1702.473667
258.645974,6818.249932,6513.812290,3552.988522
258.646282,4136.915689,3923.091493,5181.441594
258.646590,1072.533697,1110.308913,9104.533087
258.646898,-2451.505594,-2294.638420,12731.542202
258.647206,-5286.058936,-4589.276840,15248.242405
258.647514,-6205.373534,-6069.688724,16580.613101
258.647822,-5439.278036,-5329.482782,16062.468941
258.648130,-2834.553343,-3256.906145,13915.871710
258.648438,76.609550,-962.267725,11103.089130
258.648746,2298.286494,2072.576638,8438.347739
258.649054,4596.572988,3552.988522,5995.668130
258.649362,5592.497135,4737.318029,4885.359217
258.649670,5745.716235,5329.482782,4219.173869
258.649978,4519.963438,4663.297435,5255.462188
258.650286,2374.896044,1998.556043,8290.306550
258.650594,-766.095498,-1036.288319,11029.068536
258.650902,-3830.477490,-4071.132681,14508.036463
258.651210,-5898.935335,-6291.750507,16728.654289
258.651518,-7048.078582,-7328.038826,16284.530724
258.651826,-5822.325785,-6513.812290,16062.468941
258.652135,-2834.553343,-3627.009116,12805.562797
258.652443,612.876398,222.061783,9178.553681
258.652751,3753.867940,3256.906145,5773.606348
258.653059,6052.154434,5477.523971,3404.947333
258.653367,7354.516781,7105.977043,2146.597232
258.653675,7584.345430,7402.059420,1554.432478
258.653983,6281.983084,6365.771101,2368.659014
258.654291,4673.182538,3330.926739,5329.482782
258.654599,766.095498,-0.000000,9326.594869
258.654907,-2987.772442,-3478.967927,13249.686362
258.655215,-5362.668486,-5477.523971,15470.304188
258.655523,-6971.469032,-7179.997637,17024.736666
258.655831,-5592.497135,-6291.750507,15988.448347
258.656139,-2528.115143,-3923.091493,13767.830521
258.656447,0.000000,-370.102971,11029.068536
258.656755,2834.553343,2146.597232,7698.141797
258.657063,4979.620737,4293.194464,5329.482782
258.657371,6052.154434,5551.544565,4441.235652
258.657679,5898.935335,5921.647536,3478.967927
258.657987,4903.011187,5255.462188,4737.318029
258.658295,2987.772442,2368.659014,7179.997637
258.658604,-459.657299,-740.205942,11103.089130
258.658912,-3677.258390,-3923.091493,14878.139434
258.659220,-5745.716235,-6291.750507,16062.468941
258.659528,-7277.907231,-7402.059420,16876.695478
258.659836,-5898.935335,-6513.812290,16210.510130
258.660144,-2451.505594,-3478.967927,13101.645173
258.660452,995.924147,296.082377,9474.636058
258.660760,4213.525239,3108.864956,6143.709319
258.661068,6665.030833,6217.729913,3478.967927
258.661376,7354.516781,6883.915261,2590.720797
258.661684,7737.564530,7328.038826,2368.659014
258.661992,6665.030833,6513.812290,3478.967927
258.662300,3753.867940,4145.153275,5773.606348
258.662608,612.876398,296.082377,9548.656652
258.662916,-2221.676944,-2738.761985,13619.789333
258.663224,-5592.497135,-5107.421000,15692.365970
258.663532,-6435.202183,-6957.935855,16876.695478
258.663840,-5209.449386,-5847.626942,16284.530724
258.664148,-2221.676944,-3330.926739,13915.871710
258.664456,229.828649,-0.000000,10732.986159
258.664764,3907.087040,2368.659014,7846.182985
258.665072,5209.449386,4589.276840,5181.441594
258.665381,5898.935335,5625.565159,3849.070898
258.665689,6741.640382,5921.647536,3775.050304
258.665997,5822.325785,5181.441594,4885.359217
258.666305,2451.505594,2516.700203,7846.182985
258.666613,0.000000,-888.247130,11177.109724
258.666921,-2987.772442,-3701.029710,14211.954086
258.667229,-6205.373534,-5847.626942,16062.468941
258.667537,-6588.421283,-7254.018232,16876.695478
258.667845,-5669.106685,-6069.688724,16062.468941
258.668153,-2987.772442,-3404.947333,13175.665768
258.668461,1072.533697,370.102971,9918.759623
258.668769,3907.087040,3330.926739,6439.791695
258.669077,5975.544884,5181.441594,3849.070898
258.669385,7201.297681,6957.935855,2442.679609
258.669693,7124.688131,7105.977043,2368.659014
258.670001,5669.106685,5625.565159,3997.112087
258.670309,3370.820191,3330.926739,6587.832884
258.670617,229.828649,-222.061783,9696.697840
258.670925,-3140.991542,-3404.947333,13989.892304
258.671233,-5439.278036,-5995.668130,15396.283594
258.671541,-6435.202183,-7031.956449,16654.633695
258.671850,-5439.278036,-6143.709319,16210.510130
258.672158,-2451.505594,-3552.988522,13101.645173
258.672466,919.314598,-148.041188,10066.800811
258.672774,3753.867940,2590.720797,7846.182985
258.673082,5592.497135,4663.297435,4441.235652
258.673390,6665.030833,5329.482782,3330.926739
258.673698,6741.640382,5625.565159,3775.050304
258.674006,5362.668486,5107.421000,4589.276840
258.674314,2604.724693,2516.700203,7105.977043
258.674622,-459.657299,-1036.288319,11325.150913
258.674930,-3753.867940,-3849.070898,14508.036463
258.675238,-6052.154434,-5995.668130,16284.530724
258.675546,-7354.516781,-7994.224174,17394.839637
258.675854,-6128.763984,-6735.874072,15174.221811
258.676162,-2757.943793,-3627.009116,12583.501014
258.676470,919.314598,370.102971,9696.697840
258.676778,3907.087040,3330.926739,5995.668130
258.677086,5822.325785,5107.421000,4219.173869
258.677394,6894.859482,6365.771101,2664.741391
258.677702,7277.907231,6957.935855,2146.597232
258.678010,5898.935335,5551.544565,4071.132681
258.678318,3524.039291,3108.864956,6365.771101
258.678627,689.485948,-0.000000,9622.677246
258.678935,-2757.943793,-3182.885551,13397.727550
258.679243,-5209.449386,-5773.606348,15766.386565
258.679551,-6281.983084,-7105.977043,16580.613101
258.679859,-5132.839837,-6143.709319,16062.468941
258.680167,-2068.457845,-3478.967927,12731.542202
258.680475,842.705048,-0.000000,10066.800811
258.680783,3753.867940,2664.741391,7550.100608
258.681091,5362.668486,4515.256246,5033.400406
258.681399,6281.983084,5995.668130,3849.070898
258.681707,6741.640382,6365.771101,3330.926739
258.682015,5056.230287,5255.462188,4663.297435
258.682323,2451.505594,2516.700203,7920.203579
258.682631,-459.657299,-888.247130,11473.192101
258.682939,-3983.696590,-3330.926739,14878.139434
258.683247,-6511.811733,-6661.853478,16654.633695
258.683555,-7354.516781,-7698.141797,17394.839637
258.683863,-6128.763984,-5625.565159,16210.510130
258.684171,-2528.115143,-3108.864956,12953.603985
258.684479,919.314598,888.247130,9474.636058
258.684787,4213.525239,3627.009116,6143.709319
258.685096,6281.983084,4885.359217,4219.173869
258.685404,7124.688131,6587.832884,2072.576638
258.685712,7584.345430,6587.832884,2294.638420
258.686020,6052.154434,5921.647536,4145.153275
258.686328,2911.162892,3404.947333,6587.832884
258.686636,0.000000,370.102971,10140.821405
258.686944,-2528.115143,-2664.741391,13471.748144
258.687252,-4903.011187,-5033.400406,15322.262999
258.687560,-5592.497135,-6735.874072,16654.633695
258.687868,-4596.572988,-6143.709319,15988.448347
258.688176,-2298.286494,-3404.947333,13249.686362
258.688484,306.438199,-296.082377,10436.903782
258.688792,3524.039291,2442.679609,7772.162391
258.689100,4903.011187,3849.070898,5107.421000
258.689408,5515.887586,5625.565159,3404.947333
258.689716,6665.030833,5921.647536,4663.297435
258.690024,4979.620737,4737.318029,4515.256246
258.690332,1685.410096,2960.823768,7254.018232
258.690640,0.000000,-1258.350101,11473.192101
258.690948,-4366.744339,-2960.823768,13915.871710
258.691256,-5898.935335,-6587.832884,16654.633695
258.691564,-6741.640382,-6661.853478,16062.468941
258.691873,-5898.935335,-6439.791695,15692.365970
258.692181,-3217.601092,-3552.988522,13101.645173
258.692489,459.657299,296.082377,8956.491898
258.692797,3753.867940,2664.741391,6513.812290
258.693105,5745.716235,4663.297435,3478.967927
258.693413,6971.469032,5847.626942,2590.720797
258.693721,6971.469032,6069.688724,2368.659014
258.694029,5515.887586,4811.338623,3849.070898
258.694337,2911.162892,3478.967927,5995.668130
258.694645,383.047749,-0.000000,9992.780217
258.694953,-2451.505594,-2812.782580,13841.851115
258.695261,-5515.887586,-5477.523971,15100.201217
258.695569,-5745.716235,-6883.915261,16802.674883
258.695877,-4826.401637,-5625.565159,15618.345376
258.696185,-2374.896044,-2812.782580,12213.398043
258.696493,612.876398,666.185348,10140.821405
258.696801,3753.867940,3256.906145,7105.977043
258.697109,5439.278036,4885.359217,4515.256246
258.697417,6435.202183,6217.729913,3775.050304
258.697725,6358.592633,5477.523971,3256.906145
258.698033,5132.839837,4515.256246,5181.441594
258.698341,2451.505594,2220.617826,8512.368333
258.698650,-1149.143247,-962.267725,12065.356855
258.698958,-3753.867940,-3997.112087,15026.180623
258.699266,-6205.373534,-6513.812290,16284.530724
258.699574,-6971.469032,-7550.100608,17172.777854
258.699882,-5898.935335,-6217.729913,16358.551318
258.700190,-2451.505594,-2960.823768,12953.603985
258.700498,1455.581446,1036.288319,10214.842000
258.700806,3753.867940,3478.967927,5403.503377
258.701114,5669.106685,5033.400406,4071.132681
258.701422,6741.640382,6365.771101,2960.823768
258.701730,6511.811733,6883.915261,2368.659014
258.702038,5592.497135,5255.462188,4219.173869
258.702346,3524.039291,3627.009116,6143.709319
258.702654,459.657299,444.123565,9844.739029
258.702962,-2834.553343,-2960.823768,13767.830521
258.703270,-4979.620737,-4959.379811,15618.345376
258.703578,-5669.106685,-6069.688724,16284.530724
258.703886,-4903.011187,-5255.462188,15100.201217
258.704194,-1762.019645,-2738.761985,12657.521608
258.704502,1685.410096,444.123565,9770.718434
258.704810,3907.087040,2664.741391,7105.977043
258.705119,5745.716235,4145.153275,5033.400406
258.705427,6052.154434,5033.400406,4219.173869
258.705735,5669.106685,5033.400406,4367.215058
258.706043,4519.963438,4367.215058,5773.606348
258.706351,2145.067394,1776.494261,8660.409521
258.706659,-536.266849,-1036.288319,11917.315666
258.706967,-3294.210641,-3775.050304,14508.036463
258.707275,-5515.887586,-6365.771101,15618.345376
258.707583,-6128.763984,-7105.977043,16580.613101
258.707891,-5132.839837,-5181.441594,15470.304188
258.708199,-2451.505594,-2442.679609,12361.439231
258.708507,1455.581446,666.185348,9030.512492
258.708815,4519.963438,3330.926739,5551.544565
258.709123,5745.716235,5033.400406,3627.009116
258.709431,6741.640382,6143.709319,2812.782580
258.709739,6741.640382,6365.771101,3034.844362
258.710047,4979.620737,4959.379811,4293.194464
258.710355,2528.115143,2960.823768,6735.874072
258.710663,459.657299,-222.061783,11029.068536
258.710971,-2681.334243,-3330.926739,13471.748144
258.711279,-5132.839837,-5181.441594,15026.180623
258.711587,-5669.106685,-6365.771101,16432.571912
258.711896,-4366.744339,-4885.359217,15396.283594
258.712204,-1608.800546,-2368.659014,12287.418637
258.712512,995.924147,888.247130,9252.574275
258.712820,3983.696590,3182.885551,6883.915261
258.713128,4903.011187,4737.318029,4441.235652
258.713436,5898.935335,5403.503377,4293.194464
258.713744,5439.278036,5699.585753,4145.153275
258.714052,4290.134789,4441.235652,5847.626942
258.714360,1685.410096,1406.391290,8956.491898
258.714668,-995.924147,-1776.494261,12287.418637
258.714976,-4136.915689,-4219.173869,14878.139434
258.715284,-5515.887586,-6735.874072,16654.633695
258.715592,-6588.421283,-6809.894666,17246.798449
258.715900,-5362.668486,-5477.523971,15322.262999
258.716208,-1455.581446,-2960.823768,12065.356855
258.716516,1915.238745,444.123565,8142.265362
258.716824,4903.011187,3182.885551,5255.462188
258.717132,6511.811733,4737.318029,3552.988522
258.717441,6971.469032,6291.750507,2146.597232
258.717749,6511.811733,6365.771101,2812.782580
258.718057,5362.668486,5329.482782,4293.194464
258.718365,2604.724693,3330.926739,6365.771101
258.718673,-229.828649,-74.020594,10658.965565
258.718981,-3217.601092,-3256.906145,14063.912898
258.719289,-6052.154434,-5551.544565,15544.324782
258.719597,-6894.859482,-6735.874072,17394.839637
258.719905,-5132.839837,-5477.523971,15914.427753
258.720213,-2528.115143,-2368.659014,12583.501014
258.720521,1378.971896,-74.020594,9918.759623
258.720829,4136.915689,2738.761985,6513.812290
258.721137,5209.449386,4959.379811,4219.173869
258.721446,6281.983084,5255.462188,4663.297435
258.721754,5745.716235,5181.441594,3849.070898
258.722062,4136.915689,3923.091493,5625.565159
258.722370,1608.800546,962.267725,9104.533087
258.722678,-1225.752797,-1480.411884,11769.274478
258.722986,-4596.572988,-4737.318029,15544.324782
258.723294,-5975.544884,-6587.832884,16580.613101
258.723602,-6894.859482,-6809.894666,16802.674883
258.723910,-5132.839837,-5625.565159,15322.262999
258.724218,-1225.752797,-2220.617826,11843.295072
258.724526,2298.286494,1554.432478,7994.224174
258.724834,5515.887586,3404.947333,5255.462188
258.725142,6894.859482,5403.503377,3404.947333
258.725451,7660.954980,6735.874072,2146.597232
258.725759,6894.859482,6957.935855,2590.720797
258.726067,5286.058936,5773.606348,4367.215058
258.726375,2604.724693,3552.988522,6957.935855
258.726683,-459.657299,-370.102971,10584.944971
258.726991,-3064.381992,-3404.947333,13841.851115
258.727299,-5515.887586,-5403.503377,16284.530724
258.727607,-6741.640382,-6957.935855,17172.777854
258.727915,-5515.887586,-5403.503377,16728.654289
258.728223,-2298.286494,-2442.679609,12879.583391
258.728531,1532.190996,888.247130,9548.656652
258.728839,4596.572988,3108.864956,6291.750507
258.729147,6052.154434,5181.441594,4441.235652
258.729456,6894.859482,5477.523971,4293.194464
258.729764,6741.640382,5921.647536,4663.297435
258.730072,4903.011187,4071.132681,5699.585753
258.730380,1762.019645,1850.514855,8956.491898
258.730688,-1378.971896,-1776.494261,12361.439231
258.730996,-4213.525239,-4515.256246,15470.304188
258.731304,-6511.811733,-6735.874072,16876.695478
258.731612,-6588.421283,-6809.894666,16802.674883
258.731920,-4519.963438,-5625.565159,15322.262999
258.732228,-1225.752797,-2368.659014,10807.006753
258.732536,2528.115143,1110.308913,6957.935855
258.732844,5439.278036,3404.947333,4811.338623
258.733152,6894.859482,5107.421000,3182.885551
258.733460,7507.735880,6661.853478,2146.597232
258.733769,6818.249932,6661.853478,2516.700203
258.734077,5362.668486,5255.462188,4219.173869
258.734385,2604.724693,2960.823768,7105.977043
258.734693,-1072.533697,-296.082377,10732.986159
258.735001,-3370.820191,-3330.926739,14359.995275
258.735309,-6588.421283,-6143.709319,15544.324782
258.735617,-7277.907231,-7179.997637,17394.839637
258.735925,-5898.935335,-5773.606348,15988.448347
258.736233,-2374.896044,-2516.700203,12139.377449
258.736541,995.924147,666.185348,9030.512492
258.736849,4596.572988,3182.885551,6365.771101
258.737157,5975.544884,4885.359217,3849.070898
258.737465,7048.078582,5921.647536,3182.885551
258.737774,5975.544884,5773.606348,3997.112087
258.738082,4443.353888,4219.173869,5329.482782
258.738390,1378.971896,1258.350101,8808.450710
258.738698,-1762.019645,-2294.638420,12879.583391
258.739006,-4443.353888,-4737.318029,15396.283594
258.739314,-6435.202183,-6883.915261,16802.674883
258.739622,-7431.126331,-7550.100608,17542.880825
258.739930,-4903.011187,-5551.544565,15618.345376
258.740238,-1532.190996,-1998.556043,11399.171507
258.740546,2374.896044,1480.411884,7698.141797
258.740854,5132.839837,3627.009116,4515.256246
258.741162,6894.859482,5699.585753,3404.947333
258.741470,7201.297681,6883.915261,2590.720797
258.741779,6281.983084,6365.771101,3182.885551
258.742087,4903.011187,5255.462188,5255.462188
258.742395,2068.457845,2960.823768,7698.141797
258.742703,-1532.190996,-592.164754,11177.109724
258.743011,-3983.696590,-3108.864956,14508.036463
258.743319,-6128.763984,-5181.441594,16062.468941
258.743627,-7201.297681,-6661.853478,17098.757260
258.743935,-4903.011187,-5255.462188,15470.304188
258.744243,-1762.019645,-2072.576638,12213.398043
258.744551,1685.410096,1036.288319,8660.409521
258.744859,5056.230287,3478.967927,5773.606348
258.745167,6741.640382,5403.503377,4589.276840
258.745475,6588.421283,5329.482782,3997.112087
258.745784,6052.154434,5403.503377,4145.153275
258.746092,4443.353888,3923.091493,5921.647536
258.746400,1302.362347,1036.288319,9326.594869
258.746708,-1762.019645,-2516.700203,13693.809927
258.747016,-4290.134789,-4515.256246,15544.324782
258.747324,-6588.421283,-7031.956449,16506.592507
258.747632,-6894.859482,-6809.894666,17320.819043
258.747940,-4673.182538,-5033.400406,14952.160028
258.748248,-842.705048,-1480.411884,11473.192101
258.748556,2528.115143,2072.576638,7550.100608
258.748864,5822.325785,4293.194464,4737.318029
258.749172,7124.688131,5921.647536,3256.906145
258.749480,7890.783629,6661.853478,2368.659014
258.749788,7048.078582,6513.812290,2220.617826
258.750097,5439.278036,5699.585753,4367.215058
258.750405,2451.505594,2738.761985,7254.018232
258.750713,-842.705048,-888.247130,11769.274478
258.751021,-3524.039291,-3849.070898,14359.995275
258.751329,-5898.935335,-6217.729913,16284.530724
258.751637,-6818.249932,-7846.182985,17542.880825
258.751945,-4290.134789,-5181.441594,15544.324782
258.752253,-1991.848295,-1628.453072,12213.398043
258.752561,1838.629195,1480.411884,8882.471304
258.752869,4979.620737,3552.988522,6365.771101
258.753177,6128.763984,5699.585753,4219.173869
258.753485,6818.249932,6291.750507,3775.050304
258.753793,6358.592633,5699.585753,4145.153275
258.754102,3294.210641,4293.194464,5773.606348
258.754410,536.266849,1036.288319,9918.759623
258.754718,-2221.676944,-2590.720797,13471.748144
258.755026,-5132.839837,-4441.235652,15544.324782
258.755334,-6665.030833,-6957.935855,16580.613101
258.755642,-6818.249932,-7179.997637,17172.777854
258.755950,-5132.839837,-5181.441594,14434.015869
258.756258,-306.438199,-1850.514855,11251.130318
258.756566,2911.162892,1702.473667,6217.729913
258.756874,5822.325785,3997.112087,4293.194464
258.757182,7967.393179,5625.565159,3108.864956
258.757490,7584.345430,7031.956449,1776.494261
258.757798,6894.859482,6069.688724,3108.864956
258.758107,5132.839837,4885.359217,3849.070898
258.758415,2221.676944,2220.617826,7179.997637
258.758723,-842.705048,-1480.411884,12213.398043
258.759031,-3830.477490,-3997.112087,14137.933492
258.759339,-7048.078582,-6809.894666,16210.510130
258.759647,-7584.345430,-7328.038826,17838.963202
258.759955,-5286.058936,-5773.606348,15322.262999
258.760263,-1532.190996,-1406.391290,10955.047942
258.760571,2145.067394,1628.453072,8438.347739
258.760879,5056.230287,3552.988522,4737.318029
258.761187,6052.154434,4885.359217,4071.132681
258.761495,6435.202183,5329.482782,4071.132681
258.761803,5515.887586,4737.318029,4293.194464
258.762112,3983.696590,3256.906145,6069.688724
258.762420,459.657299,-0.000000,10288.862594
258.762728,-2834.553343,-2886.803174,13249.686362
258.763036,-5132.839837,-4959.379811,15618.345376
258.763344,-7354.516781,-7105.977043,17172.777854
258.763652,-6665.030833,-7105.977043,17024.736666
258.763960,-4136.915689,-4959.379811,14285.974681
258.764268,0.000000,-1036.288319,11103.089130
258.764576,3753.867940,1776.494261,6735.874072
258.764884,6205.373534,4515.256246,4071.132681
258.765192,7277.907231,6069.688724,3108.864956
258.765500,7660.954980,7179.997637,2368.659014
258.765808,7201.297681,6883.915261,2516.700203
258.766117,4673.182538,4811.338623,4811.338623
258.766425,2451.505594,2072.576638,7624.121203
258.766733,-842.705048,-1036.288319,11991.336260
258.767041,-4136.915689,-3701.029710,15026.180623
258.767349,-6511.811733,-6069.688724,16654.633695
258.767657,-6741.640382,-6735.874072,17468.860231
258.767965,-4366.744339,-4367.215058,15174.221811
258.768273,-766.095498,-592.164754,11547.212695
258.768581,2451.505594,1924.535449,8660.409521
258.768889,5439.278036,3627.009116,5995.668130
258.769197,6052.154434,5107.421000,4219.173869
258.769505,6435.202183,6143.709319,4737.318029
258.769813,5209.449386,5255.462188,5033.400406
258.770121,2911.162892,3256.906145,7179.997637
258.770430,-153.219100,222.061783,10881.027347
258.770738,-3064.381992,-2738.761985,13915.871710
258.771046,-5669.106685,-5107.421000,16580.613101
258.771354,-7124.688131,-7105.977043,17394.839637
258.771662,-6205.373534,-7105.977043,17468.860231
258.771970,-4290.134789,-5033.400406,14359.995275
258.772278,-306.438199,-1184.329507,10658.965565
258.772586,3830.477490,2072.576638,6439.791695
258.772894,5898.935335,4071.132681,4293.194464
258.773202,7277.907231,5921.647536,3034.844362
258.773510,8197.221829,6957.935855,2220.617826
258.773818,7048.078582,6661.853478,2368.659014
258.774126,5132.839837,4737.318029,4737.318029
258.774435,1838.629195,2220.617826,7328.038826
258.774743,-1072.533697,-1110.308913,11621.233289
258.775051,-3907.087040,-3923.091493,14508.036463
258.775359,-6511.811733,-5847.626942,15470.304188
258.775667,-7277.907231,-7179.997637,17320.819043
258.775975,-4826.401637,-4885.359217,14878.139434
258.776283,-1225.752797,-962.267725,11029.068536
258.776591,2145.067394,1332.370696,8290.306550
258.776899,4903.011187,3478.967927,5625.565159
258.777207,5592.497135,5181.441594,4219.173869
258.777515,5898.935335,4959.379811,4737.318029
258.777823,5056.230287,4959.379811,4515.256246
258.778131,2987.772442,2516.700203,6883.915261
258.778440,-383.047749,-370.102971,10214.842000
258.778748,-2451.505594,-2886.803174,13323.706956
258.779056,-5286.058936,-4811.338623,15248.242405
258.779364,-6665.030833,-6809.894666,16802.674883
258.779672,-6205.373534,-6957.935855,16580.613101
258.779980,-4136.915689,-4811.338623,13989.892304
258.780288,-689.485948,-1110.308913,10510.924376
258.780596,3753.867940,1628.453072,6809.894666
258.780904,6052.154434,4145.153275,4219.173869
258.781212,7431.126331,5921.647536,2812.782580
258.781520,7584.345430,6735.874072,2072.576638
258.781828,6588.421283,6217.729913,2886.803174
258.782136,4749.792088,4441.235652,4737.318029
258.782445,1991.848295,2146.597232,7254.018232
258.782753,-1072.533697,-1406.391290,11621.233289
258.783061,-4290.134789,-3849.070898,14508.036463
258.783369,-6205.373534,-6513.812290,16210.510130
258.783677,-6818.249932,-7179.997637,17024.736666
258.783985,-4519.963438,-4737.318029,14878.139434
258.784293,-919.314598,-740.205942,11251.130318
258.784601,2374.896044,1924.535449,8586.388927
258.784909,4903.011187,3478.967927,6365.771101
258.785217,5515.887586,5107.421000,4811.338623
258.785525,6665.030833,5403.503377,4293.194464
258.785833,5132.839837,4737.318029,4663.297435
258.786141,2834.553343,3108.864956,7402.059420
258.786450,689.485948,-0.000000,10288.862594
258.786758,-2681.334243,-2072.576638,13249.686362
258.787066,-4749.792088,-4515.256246,15618.345376
258.787374,-6281.983084,-5921.647536,16136.489536
258.787682,-5898.935335,-6587.832884,16950.716072
258.787990,-3677.258390,-4811.338623,14582.057057
258.788298,0.000000,-962.267725,10510.924376
258.788606,3907.087040,2220.617826,7328.038826
258.788914,5975.544884,3849.070898,4293.194464
258.789222,7277.907231,5699.585753,3330.926739
258.789530,7660.954980,6587.832884,2738.761985
258.789838,6971.469032,6587.832884,2812.782580
258.790146,4979.620737,4515.256246,5033.400406
258.790454,2221.676944,2146.597232,7402.059420
258.790763,-1225.752797,-888.247130,11621.233289
258.791071,-3830.477490,-3404.947333,14434.015869
258.791379,-5669.106685,-5403.503377,16136.489536
258.791687,-6281.983084,-6513.812290,16728.654289
258.791995,-4060.306139,-4663.297435,14656.077652
258.792303,-1072.533697,-814.226536,11473.192101
258.792611,2068.457845,1702.473667,8956.491898
258.792919,4903.011187,3404.947333,6587.832884
258.793227,5745.716235,4663.297435,4811.338623
258.793535,5209.449386,4885.359217,4515.256246
258.793843,4826.401637,4663.297435,5181.441594
258.794151,2681.334243,2886.803174,7402.059420
258.794459,76.609550,148.041188,10362.883188
258.794768,-2987.772442,-2442.679609,12953.603985
258.795076,-5209.449386,-4811.338623,15692.365970
258.795384,-6205.373534,-6365.771101,16654.633695
258.795692,-6665.030833,-6143.709319,16580.613101
258.796000,-4596.572988,-4219.173869,14582.057057
258.796308,306.438199,-962.267725,10510.924376
258.796616,3217.601092,2146.597232,6735.874072
258.796924,5669.106685,4071.132681,4219.173869
258.797232,7048.078582,5625.565159,2664.741391
258.797540,7354.516781,6809.894666,2220.617826
258.797848,6052.154434,5847.626942,2664.741391
258.798156,4443.353888,4293.194464,5255.462188
258.798464,1225.752797,1628.453072,6957.935855
258.798773,-2145.067394,-1628.453072,11769.274478
258.799081,-4290.134789,-4515.256246,14285.974681
258.799389,-6511.811733,-6291.750507,16062.468941
258.799697,-6511.811733,-7031.956449,17468.860231
258.800005,-4673.182538,-4737.318029,14359.995275
258.800313,-1225.752797,-1332.370696,11695.253884
258.800621,2145.067394,1184.329507,8882.471304
258.800929,4290.134789,3552.988522,5551.544565
258.801237,4979.620737,4737.318029,4737.318029
258.801545,6052.154434,5181.441594,4589.276840
258.801853,4290.134789,4737.318029,4811.338623
258.802161,2451.505594,2960.823768,7179.997637
258.802469,0.000000,-0.000000,9770.718434
258.802778,-3524.039291,-2294.638420,12805.562797
258.803086,-5975.544884,-4959.379811,16136.489536
258.803394,-6818.249932,-6661.853478,17024.736666
258.803702,-6741.640382,-6291.750507,16580.613101
258.804010,-3600.648841,-4071.132681,14211.954086
258.804318,-229.828649,-666.185348,10362.883188
258.804626,3447.429741,2146.597232,7254.018232
258.804934,6128.763984,4293.194464,4663.297435
258.805242,7124.688131,6365.771101,2886.803174
258.805550,8120.612279,7031.956449,2812.782580
258.805858,6894.859482,6439.791695,2812.782580
258.806166,5439.278036,4737.318029,5181.441594
258.806474,2145.067394,2368.659014,7476.080014
258.806782,-919.314598,-1184.329507,12065.356855
258.807091,-4136.915689,-3997.112087,14730.098246
258.807399,-6281.983084,-6291.750507,16654.633695
258.807707,-5898.935335,-6735.874072,17468.860231
258.808015,-3830.477490,-4441.235652,14878.139434
258.808323,-1072.533697,-740.205942,11547.212695
258.808631,2451.505594,1554.432478,8512.368333
258.808939,5209.449386,3849.070898,6217.729913
258.809247,6052.154434,5329.482782,4293.194464
258.809555,6435.202183,5329.482782,4219.173869
258.809863,5362.668486,4737.318029,4811.338623
258.810171,3370.820191,2294.638420,7031.956449
258.810479,153.219100,296.082377,10140.821405
258.810787,-2604.724693,-2960.823768,13619.789333
258.811096,-5132.839837,-5033.400406,16062.468941
258.811404,-6894.859482,-6661.853478,17246.798449
258.811712,-6588.421283,-6883.915261,17394.839637
258.812020,-4290.134789,-4663.297435,14582.057057
258.812328,-612.876398,-1258.350101,10732.986159
258.812636,3600.648841,1998.556043,7328.038826
258.812944,5745.716235,4515.256246,4811.338623
258.813252,7048.078582,5847.626942,2812.782580
258.813560,8044.002729,7328.038826,1998.556043
258.813868,7354.516781,6661.853478,2368.659014
258.814176,5745.716235,4885.359217,4663.297435
258.814484,2451.505594,2368.659014,6513.812290
258.814792,-306.438199,-1332.370696,10955.047942
258.815101,-3830.477490,-4515.256246,14137.933492
258.815409,-5975.544884,-7031.956449,15766.386565
258.815717,-6281.983084,-7105.977043,16580.613101
258.816025,-4366.744339,-4737.318029,14359.995275
258.816333,-536.266849,-1184.329507,11177.109724
258.816641,2298.286494,1628.453072,8142.265362
258.816949,4826.401637,3552.988522,5921.647536
258.817257,5898.935335,4959.379811,3997.112087
258.817565,5822.325785,4959.379811,4959.379811
258.817873,4596.572988,4737.318029,4959.379811
258.818181,2757.943793,3034.844362,6883.915261
258.818489,-536.266849,-0.000000,10510.924376
258.818798,-3294.210641,-2960.823768,13175.665768
258.819106,-5439.278036,-4885.359217,15988.448347
258.819414,-7354.516781,-6883.915261,17394.839637
258.819722,-6818.249932,-7254.018232,17468.860231
258.820030,-4749.792088,-4663.297435,14952.160028
258.820338,-1455.581446,-1406.391290,10955.047942
258.820646,2451.505594,1998.556043,7105.977043
258.820954,5669.106685,4367.215058,4293.194464
258.821262,6971.469032,6217.729913,2664.741391
258.821570,7967.393179,7105.977043,2220.617826
258.821878,7048.078582,6661.853478,2220.617826
258.822187,5056.230287,4959.379811,4885.359217
258.822495,2068.457845,1924.535449,7254.018232
258.822803,-1072.533697,-740.205942,11621.233289
258.823111,-3907.087040,-4515.256246,14359.995275
258.823419,-6128.763984,-6291.750507,15618.345376
258.823727,-6128.763984,-6513.812290,17098.757260
258.824035,-3983.696590,-4145.153275,14804.118840
258.824343,-536.266849,-444.123565,11029.068536
258.824651,2068.457845,1332.370696,8364.327145
258.824959,5132.839837,4293.194464,5625.565159
258.825267,5898.935335,5255.462188,4737.318029
258.825576,5592.497135,5403.503377,5477.523971
258.825884,4979.620737,4367.215058,4885.359217
258.826192,2298.286494,2738.761985,7254.018232
258.826500,76.609550,-74.020594,10584.944971
258.826808,-2911.162892,-2960.823768,13989.892304
258.827116,-5592.497135,-5329.482782,16062.468941
258.827424,-6741.640382,-7328.038826,17320.819043
258.827732,-6052.154434,-7254.018232,16950.716072
258.828040,-3983.696590,-4959.379811,14211.954086
258.828348,-229.828649,-1184.329507,10732.986159
258.828656,3447.429741,2146.597232,6735.874072
258.828964,5975.544884,4663.297435,4145.153275
258.829273,7507.735880,6291.750507,2960.823768
258.829581,7354.516781,6735.874072,1998.556043
258.829889,7354.516781,6217.729913,3108.864956
258.830197,5515.887586,4737.318029,5255.462188
258.830505,2221.676944,1628.453072,7254.018232
258.830813,-842.705048,-1332.370696,11251.130318
258.831121,-3907.087040,-4367.215058,14434.015869
258.831429,-5669.106685,-6069.688724,15692.365970
258.831737,-5592.497135,-6143.709319,16580.613101
258.832045,-2987.772442,-3330.926739,14285.974681
258.832353,0.000000,-370.102971,10214.842000
258.832662,3524.039291,1554.432478,7698.141797
258.832970,5439.278036,3923.091493,5699.585753
258.833278,5975.544884,5403.503377,3923.091493
258.833586,5822.325785,5329.482782,4737.318029
258.833894,4749.792088,4293.194464,5181.441594
258.834202,2604.724693,2812.782580,7624.121203
258.834510,-229.828649,-814.226536,10362.883188
258.834818,-3140.991542,-3256.906145,14063.912898
258.835126,-4749.792088,-5699.585753,16136.489536
258.835434,-6741.640382,-6957.935855,17542.880825
258.835742,-6435.202183,-7328.038826,16876.695478
258.836051,-3830.477490,-4737.318029,14137.933492
258.836359,0.000000,-1110.308913,10066.800811
258.836667,3217.601092,2072.576638,6365.771101
258.836975,6205.373534,4145.153275,4145.153275
258.837283,7660.954980,6291.750507,2886.803174
258.837591,7737.564530,7476.080014,1776.494261
258.837899,7354.516781,6735.874072,2664.741391
258.838207,5132.839837,5033.400406,4737.318029
258.838515,2298.286494,2220.617826,7328.038826
258.838823,-995.924147,-1702.473667,11843.295072
258.839131,-4366.744339,-4293.194464,14434.015869
258.839440,-6281.983084,-6439.791695,16136.489536
258.839748,-6128.763984,-6809.894666,17172.777854
258.840056,-3600.648841,-4145.153275,14508.036463
258.840364,0.000000,-592.164754,10732.986159
258.840672,2298.286494,1924.535449,8512.368333
258.840980,4749.792088,3775.050304,6291.750507
258.841288,5286.058936,5403.503377,4293.194464
258.841596,5592.497135,5403.503377,4737.318029
258.841904,4596.572988,4663.297435,4959.379811
258.842212,2757.943793,2294.638420,7254.018232
258.842520,0.000000,-666.185348,10584.944971
258.842829,-3294.210641,-3404.947333,13693.809927
258.843137,-5822.325785,-5551.544565,16062.468941
258.843445,-7431.126331,-7254.018232,17394.839637
258.843753,-6894.859482,-7328.038826,17468.860231
258.844061,-4826.401637,-4737.318029,14434.015869
258.844369,-919.314598,-740.205942,11177.109724
258.844677,3217.601092,2442.679609,6587.832884
258.844985,5515.887586,5033.400406,4071.132681
258.845293,7354.516781,7031.956449,2886.803174
258.845601,8197.221829,7772.162391,1776.494261
258.845909,7354.516781,7179.997637,2516.700203
258.846218,5132.839837,4811.338623,5255.462188
258.846526,2298.286494,2072.576638,7254.018232
258.846834,-1149.143247,-962.267725,11473.192101
258.847142,-3830.477490,-4663.297435,15322.262999
258.847450,-6435.202183,-6439.791695,16358.551318
258.847758,-5669.106685,-6661.853478,17320.819043
258.848066,-3524.039291,-4219.173869,14359.995275
258.848374,0.000000,-370.102971,10732.986159
258.848682,2451.505594,2072.576638,8660.409521
258.848990,4519.963438,3849.070898,6809.894666
258.849298,4979.620737,5033.400406,4959.379811
258.849607,5056.230287,5033.400406,5625.565159
258.849915,3677.258390,4441.235652,5847.626942
258.850223,1991.848295,2442.679609,8808.450710
258.850531,-459.657299,-518.144159,11325.150913
258.850839,-3907.087040,-2886.803174,13545.768739
258.851147,-5515.887586,-5699.585753,16580.613101
258.851455,-7124.688131,-7105.977043,17098.757260
258.851763,-6665.030833,-6513.812290,16580.613101
258.852071,-2681.334243,-4515.256246,13471.748144
258.852379,1378.971896,-444.123565,9030.512492
258.852687,3753.867940,2590.720797,5699.585753
258.852996,7124.688131,4515.256246,3775.050304
258.853304,8120.612279,6883.915261,2146.597232
258.853612,8120.612279,6957.935855,1850.514855
258.853920,7277.907231,5995.668130,2516.700203
258.854228,4903.011187,3849.070898,4589.276840
258.854536,1838.629195,666.185348,8364.327145
258.854844,-1608.800546,-2368.659014,11621.233289
258.855152,-3753.867940,-4589.276840,14211.954086
258.855460,-5975.544884,-6513.812290,15988.448347
258.855768,-5439.278036,-6513.812290,16728.654289
258.856076,-3294.210641,-3404.947333,13101.645173
258.856385,-229.828649,-370.102971,10881.027347
258.856693,2528.115143,1258.350101,7920.203579
258.857001,4673.182538,3404.947333,5551.544565
258.857309,5515.887586,5181.441594,5107.421000
258.857617,5898.935335,5181.441594,4515.256246
258.857925,4979.620737,4737.318029,4811.338623
258.858233,2757.943793,2590.720797,7476.080014
258.858541,229.828649,-592.164754,10214.842000
258.858849,-2834.553343,-3330.926739,13915.871710
258.859157,-5592.497135,-5773.606348,15914.427753
258.859465,-6588.421283,-7254.018232,17246.798449
258.859774,-5898.935335,-6735.874072,16580.613101
258.860082,-3370.820191,-4145.153275,13175.665768
258.860390,612.876398,296.082377,9400.615463
258.860698,3983.696590,3404.947333,5995.668130
258.861006,6511.811733,5255.462188,3701.029710
258.861314,7354.516781,7031.956449,1850.514855
258.861622,7354.516781,7105.977043,2294.638420
258.861930,5975.544884,5625.565159,3997.112087
258.862238,4060.306139,3034.844362,6069.688724
258.862546,0.000000,222.061783,9178.553681
258.862854,-3140.991542,-2960.823768,13101.645173
258.863163,-5669.106685,-5255.462188,15470.304188
258.863471,-6894.859482,-6957.935855,17690.922014
258.863779,-5822.325785,-5995.668130,16876.695478
258.864087,-2681.334243,-3182.885551,13545.768739
258.864395,459.657299,-0.000000,10436.903782
258.864703,3370.820191,2294.638420,7772.162391
258.865011,4979.620737,4663.297435,5329.482782
258.865319,6128.763984,6439.791695,4071.132681
258.865627,6281.983084,5921.647536,4219.173869
258.865935,4673.182538,5033.400406,5033.400406
258.866243,1991.848295,2294.638420,7994.224174
258.866551,-612.876398,-1332.370696,11473.192101
258.866860,-3907.087040,-3701.029710,14582.057057
258.867168,-6435.202183,-6365.771101,16728.654289
258.867476,-7354.516781,-7772.162391,17912.983796
258.867784,-6281.983084,-6365.771101,16876.695478
258.868092,-2757.943793,-2886.803174,13027.624579
258.868400,1072.533697,1258.350101,8734.430116
258.868708,4596.572988,3552.988522,6069.688724
258.869016,7048.078582,5699.585753,4145.153275
258.869324,7584.345430,7402.059420,2738.761985
258.869632,7507.735880,7254.018232,2442.679609
258.869940,6128.763984,5847.626942,3849.070898
258.870249,3294.210641,3627.009116,6143.709319
258.870557,306.438199,370.102971,9548.656652
258.870865,-3064.381992,-3404.947333,13693.809927
258.871173,-5745.716235,-5551.544565,15766.386565
258.871481,-6435.202183,-7254.018232,17542.880825
258.871789,-5745.716235,-6587.832884,16728.654289
258.872097,-2374.896044,-3330.926739,13545.768739
258.872405,842.705048,-0.000000,9696.697840
258.872713,3753.867940,2368.659014,6883.915261
258.873021,5898.935335,4441.235652,5033.400406
258.873329,6741.640382,6069.688724,3627.009116
258.873638,7048.078582,5699.585753,4071.132681
258.873946,5515.887586,4737.318029,4589.276840
258.874254,3447.429741,1850.514855,7402.059420
258.874562,0.000000,-1480.411884,10584.944971
258.874870,-3524.039291,-3849.070898,13915.871710
258.875178,-5745.716235,-6291.750507,16802.674883
258.875486,-6894.859482,-7254.018232,17246.798449
258.875794,-6052.154434,-6513.812290,16062.468941
258.876102,-2374.896044,-3404.947333,12805.562797
258.876410,1302.362347,888.247130,8808.450710
258.876718,4749.792088,3256.906145,5699.585753
258.877027,7201.297681,5181.441594,3775.050304
258.877335,7890.783629,7105.977043,2368.659014
258.877643,7660.954980,7179.997637,1998.556043
258.877951,6741.640382,5625.565159,3330.926739
258.878259,3907.087040,3701.029710,5773.606348
258.878567,919.314598,518.144159,8956.491898
258.878875,-2681.334243,-3034.844362,12583.501014
258.879183,-5439.278036,-4959.379811,15174.221811
258.879491,-5975.544884,-6735.874072,16728.654289
258.879799,-5439.278036,-6291.750507,16728.654289
258.880107,-3064.381992,-3552.988522,13767.830521
258.880416,0.000000,-74.020594,10362.883188
258.880724,2374.896044,2146.597232,7994.224174
258.881032,4826.401637,4441.235652,5625.565159
258.881340,5745.716235,5699.585753,4071.132681
258.881648,5898.935335,5699.585753,4515.256246
258.881956,4826.401637,4885.359217,5329.482782
258.882264,2451.505594,2886.803174,7476.080014
258.882572,-842.705048,-518.144159,10584.944971
258.882880,-3524.039291,-3849.070898,14137.933492
258.883188,-6128.763984,-5847.626942,15988.448347
258.883496,-7277.907231,-7105.977043,17320.819043
258.883805,-5822.325785,-7328.038826,16876.695478
258.884113,-3753.867940,-3108.864956,13471.748144
258.884421,0.000000,-0.000000,9696.697840
258.884729,3600.648841,2812.782580,6217.729913
258.885037,5975.544884,5551.544565,3552.988522
258.885345,7431.126331,6809.894666,2886.803174
258.885653,7737.564530,7031.956449,1924.535449
258.885961,5592.497135,5847.626942,2960.823768
258.886269,4136.915689,2960.823768,6883.915261
258.886577,229.828649,296.082377,8956.491898
258.886885,-2834.553343,-3108.864956,13323.706956
258.887194,-5439.278036,-5107.421000,15248.242405
258.887502,-6128.763984,-6883.915261,17024.736666
258.887810,-5669.106685,-6439.791695,16580.613101
258.888118,-2757.943793,-3256.906145,13693.809927
258.888426,612.876398,-296.082377,10510.924376
258.888734,2834.553343,2294.638420,7254.018232
258.889042,4979.620737,4589.276840,5329.482782
258.889350,5898.935335,5847.626942,3849.070898
258.889658,6128.763984,5403.503377,4663.297435
258.889966,5132.839837,4737.318029,5033.400406
258.890274,2451.505594,2368.659014,7328.038826
258.890583,-383.047749,-1036.288319,10955.047942
258.890891,-3600.648841,-3775.050304,13989.892304
258.891199,-5515.887586,-5625.565159,16358.551318
258.891507,-6971.469032,-7179.997637,17246.798449
258.891815,-6052.154434,-6439.791695,16580.613101
258.892123,-2604.724693,-3108.864956,13101.645173
258.892431,1072.533697,1184.329507,8956.491898
258.892739,4903.011187,3775.050304,5847.626942
258.893047,6818.249932,5477.523971,3701.029710
258.893355,7814.174080,6809.894666,2146.597232
258.893663,7890.783629,7105.977043,2368.659014
258.893972,6435.202183,5847.626942,3627.009116
258.894280,3753.867940,3627.009116,6365.771101
258.894588,459.657299,222.061783,9326.594869
258.894896,-2604.724693,-3256.906145,13249.686362
258.895204,-5362.668486,-5477.523971,15322.262999
258.895512,-6128.763984,-7105.977043,17468.860231
258.895820,-5132.839837,-6587.832884,17394.839637
258.896128,-2987.772442,-3775.050304,13545.768739
258.896436,995.924147,-0.000000,10436.903782
258.896744,3294.210641,2146.597232,7402.059420
258.897052,5515.887586,4663.297435,5181.441594
258.897361,6281.983084,5921.647536,4737.318029
258.897669,6588.421283,6143.709319,3775.050304
258.897977,5209.449386,5329.482782,4515.256246
258.898285,3217.601092,2368.659014,7772.162391
258.898593,0.000000,-740.205942,11251.130318
258.898901,-3830.477490,-3849.070898,14285.974681
258.899209,-5975.544884,-5995.668130,16358.551318
258.899517,-7124.688131,-7550.100608,17098.757260
258.899825,-6128.763984,-6587.832884,16654.633695
258.900133,-2604.724693,-3478.967927,13175.665768
258.900441,1455.581446,1332.370696,8586.388927
258.900750,4596.572988,3034.844362,5551.544565
258.901058,6435.202183,5403.503377,3701.029710
258.901366,7431.126331,6587.832884,2664.741391
258.901674,7048.078582,7105.977043,2220.617826
258.901982,5745.716235,5477.523971,3552.988522
258.902290,2757.943793,3330.926739,6513.812290
258.902598,0.000000,148.041188,9474.636058
258.902906,-2911.162892,-3701.029710,13249.686362
258.903214,-5822.325785,-5329.482782,15100.201217
258.903522,-6511.811733,-7031.956449,17616.901420
258.903830,-6128.763984,-6513.812290,17468.860231
258.904139,-3370.820191,-3256.906145,13471.748144
258.904447,0.000000,148.041188,10214.842000
258.904755,3217.601092,2368.659014,7328.038826
258.905063,5286.058936,4589.276840,5329.482782
258.905371,5822.325785,6365.771101,4219.173869
258.905679,6665.030833,5625.565159,3701.029710
258.905987,5592.497135,5033.400406,4441.235652
258.906295,3217.601092,2664.741391,7402.059420
258.906603,-306.438199,-1036.288319,10881.027347
258.906911,-3524.039291,-4145.153275,14434.015869
258.907219,-5898.935335,-6217.729913,16432.571912
258.907527,-6971.469032,-7772.162391,17172.777854
258.907836,-6052.154434,-7105.977043,16358.551318
258.908144,-2604.724693,-3627.009116,13397.727550
258.908452,1455.581446,592.164754,8586.388927
258.908760,4060.306139,3701.029710,5329.482782
258.909068,6358.592633,4959.379811,4293.194464
258.909376,6818.249932,6809.894666,3034.844362
258.909684,6511.811733,7031.956449,2442.679609
258.909992,5745.716235,5699.585753,4367.215058
258.910300,2604.724693,3478.967927,6735.874072
258.910608,76.609550,444.123565,9548.656652
258.910916,-2374.896044,-2960.823768,13693.809927
258.911225,-5822.325785,-5107.421000,15322.262999
258.911533,-6435.202183,-6513.812290,17246.798449
258.911841,-5515.887586,-6365.771101,17098.757260
258.912149,-2681.334243,-3034.844362,13323.706956
258.912457,383.047749,296.082377,9474.636058
258.912765,3677.258390,2442.679609,7254.018232
258.913073,5975.544884,4737.318029,5255.462188
258.913381,6665.030833,6143.709319,3923.091493
258.913689,6281.983084,5773.606348,3404.947333
258.913997,5362.668486,4737.318029,4885.359217
258.914305,2451.505594,2146.597232,7624.121203
258.914614,-383.047749,-1406.391290,11547.212695
258.914922,-3217.601092,-4219.173869,14285.974681
258.915230,-6281.983084,-6365.771101,16432.571912
258.915538,-6281.983084,-7476.080014,17468.860231
258.915846,-5209.449386,-6143.709319,16432.571912
258.916154,-2298.286494,-3108.864956,12879.583391
258.916462,1915.238745,888.247130,8290.306550
258.916770,4443.353888,3849.070898,4959.379811
258.917078,6205.373534,5181.441594,3627.009116
258.917386,7431.126331,6883.915261,2886.803174
258.917694,7507.735880,6957.935855,2294.638420
258.918002,5898.935335,5625.565159,3701.029710
258.918310,3524.039291,3404.947333,6143.709319
258.918618,0.000000,370.102971,9918.759623
258.918926,-3217.601092,-3182.885551,13397.727550
258.919234,-5439.278036,-5107.421000,15544.324782
258.919542,-6588.421283,-6809.894666,16876.695478
258.919851,-5822.325785,-6587.832884,16506.592507
258.920159,-2681.334243,-3404.947333,13471.748144
258.920467,842.705048,-0.000000,9770.718434
258.920775,3217.601092,2368.659014,6957.935855
258.921083,5132.839837,4071.132681,5181.441594
258.921391,5975.544884,5477.523971,4515.256246
258.921699,5898.935335,5329.482782,3997.112087
258.922007,4826.401637,4737.318029,5033.400406
258.922315,1915.238745,1850.514855,8438.347739
258.922623,-1225.752797,-1702.473667,11251.130318
258.922931,-4903.011187,-4885.359217,14878.139434
258.923239,-5822.325785,-6587.832884,16654.633695
258.923547,-7354.516781,-7402.059420,16728.654289
258.923855,-5745.716235,-6439.791695,15840.407159
258.924163,-1915.238745,-3034.844362,12435.459826
258.924471,1455.581446,1258.350101,7624.121203
258.924779,4903.011187,3701.029710,5255.462188
258.925087,6894.859482,5847.626942,3627.009116
258.925395,7737.564530,7328.038826,2368.659014
258.925703,7354.516781,6809.894666,2368.659014
258.926011,6052.154434,5995.668130,3108.864956
258.926319,3370.820191,3627.009116,6513.812290
258.926628,76.609550,-0.000000,10066.800811
258.926936,-3447.429741,-2886.803174,13619.789333
258.927244,-5898.935335,-5329.482782,15766.386565
258.927552,-6971.469032,-7179.997637,17468.860231
258.927860,-5822.325785,-6957.935855,17098.757260
258.928168,-2987.772442,-3775.050304,13175.665768
258.928476,153.219100,370.102971,9918.759623
258.928784,3294.210641,2812.782580,7402.059420
258.929092,5362.668486,4737.318029,5181.441594
258.929400,6358.592633,5847.626942,4737.318029
258.929708,6511.811733,6217.729913,4219.173869
258.930016,5362.668486,5033.400406,4737.318029
258.930324,3140.991542,1924.535449,7920.203579
258.930632,0.000000,-1184.329507,11325.150913
258.930940,-3677.258390,-4071.132681,14878.139434
258.931248,-5745.716235,-6217.729913,16580.613101
258.931556,-6588.421283,-7254.018232,16728.654289
258.931864,-5515.887586,-6217.729913,15914.427753
258.932172,-1455.581446,-2738.761985,12139.377449
258.932480,2451.505594,1480.411884,7994.224174
258.932788,4903.011187,4071.132681,5033.400406
258.933097,6971.469032,5181.441594,3182.885551
258.933405,6894.859482,6661.853478,2664.741391
258.933713,7967.393179,6735.874072,2812.782580
258.934021,5362.668486,6069.688724,3404.947333
258.934329,3064.381992,3330.926739,7031.956449
258.934637,-383.047749,-444.123565,10807.006753
258.934945,-3677.258390,-3108.864956,13915.871710
258.935253,-6052.154434,-6217.729913,16284.530724
258.935561,-6818.249932,-7402.059420,17542.880825
258.935869,-6128.763984,-6957.935855,16580.613101
258.936177,-2987.772442,-3034.844362,12953.603985
258.936485,995.924147,296.082377,10066.800811
258.936793,3907.087040,3108.864956,6809.894666
258.937101,6128.763984,4959.379811,4589.276840
258.937409,7048.078582,6365.771101,3849.070898
258.937717,7507.735880,6439.791695,3182.885551
258.938025,5669.106685,5181.441594,4737.318029
258.938333,2911.162892,2368.659014,7846.182985
258.938641,-842.705048,-1554.432478,11843.295072
258.938949,-4290.134789,-4219.173869,14285.974681
258.939257,-6818.249932,-6735.874072,16284.530724
258.939565,-7048.078582,-7994.224174,17616.901420
258.939874,-5592.497135,-6883.915261,16506.592507
258.940182,-1991.848295,-2812.782580,12287.418637
258.940490,1455.581446,962.267725,7920.203579
258.940798,4443.353888,3627.009116,4885.359217
258.941106,6741.640382,5107.421000,3034.844362
258.941414,7967.393179,6809.894666,2664.741391
258.941722,7354.516781,6883.915261,2220.617826
258.942030,5362.668486,5255.462188,3849.070898
258.942338,2374.896044,2664.741391,7254.018232
258.942646,-766.095498,-814.226536,10658.965565
258.942954,-4673.182538,-3701.029710,14211.954086
258.943262,-6665.030833,-6143.709319,15766.386565
258.943570,-7431.126331,-7624.121203,17764.942608
258.943878,-5975.544884,-6809.894666,16802.674883
258.944186,-3140.991542,-2886.803174,13101.645173
258.944494,995.924147,592.164754,9844.739029
258.944802,3830.477490,3256.906145,7254.018232
258.945110,6358.592633,5329.482782,4367.215058
258.945418,7124.688131,6439.791695,3404.947333
258.945726,7431.126331,6735.874072,3775.050304
258.946034,5362.668486,5403.503377,4515.256246
258.946342,2604.724693,2516.700203,8216.285956
258.946651,-842.705048,-1406.391290,11843.295072
258.946959,-3983.696590,-4293.194464,14656.077652
