#time,accel_x,accel_y,accel_z
621.259505,-229.710970,1473.978722,-11887.542677
621.262252,-19.142581,4039.084549,-7963.313613
621.264999,-114.855485,3369.094221,-9820.143950
621.267745,-0.000000,440.279358,-10298.708470
621.270492,-0.000000,-3522.234867,-8059.026517
621.273238,-344.566454,-5245.067139,-10662.417506
621.275985,-133.998066,-5053.641331,-10413.563955
621.278731,-95.712904,-3675.375514,-7982.456194
621.281478,-153.140646,-459.421939,-11715.259450
621.284224,267.996131,1990.828403,-9054.440718
621.286971,-344.566454,3139.383251,-8154.739421
621.289718,210.568389,1971.685822,-11581.261384
621.292464,-172.283227,535.992262,-8499.305875
621.295211,-19.142581,-2335.394858,-8843.872330
621.297957,-172.283227,-3598.805190,-11600.403965
621.300704,-363.709035,-2986.242605,-8556.733618
621.303450,76.570323,-3541.377448,-9973.284597
621.306197,-306.281293,-1339.980656,-11657.831707
621.308943,344.566454,1129.412267,-7350.751027
621.311690,-497.707101,2507.678085,-9992.427178
621.314437,210.568389,1588.834206,-11600.403965
621.317183,-19.142581,382.851616,-6585.047795
621.319930,-57.427742,-2565.105827,-10796.415571
621.322676,-191.425808,-3924.229064,-11102.696864
621.325423,-38.285162,-3196.810994,-7293.323285
621.328169,-191.425808,-2392.822600,-11255.837510
621.330916,-325.423874,-76.570323,-10394.421374
621.333663,-172.283227,1282.552914,-7637.889739
621.336409,38.285162,535.992262,-10987.841379
621.339156,-363.709035,459.421939,-9609.575562
621.341902,229.710970,-497.707101,-8154.739421
621.344649,-248.853550,-1454.836141,-10758.130410
621.347395,-95.712904,-1588.834206,-9303.294269
621.350142,-0.000000,-1301.695494,-9303.294269
621.352888,-133.998066,-2143.969050,-10279.565890
621.355635,-133.998066,-1741.974853,-9762.716208
621.358362,-76.570323,-957.129040,-9418.149754
621.361089,-153.140646,-267.996131,-9705.288466
621.363816,-95.712904,708.275490,-9533.005238
621.366543,-0.000000,555.134843,-9494.720077
621.369270,-57.427742,-708.275490,-9265.009107
621.371997,-76.570323,-2163.111630,-10049.854920
621.374724,-267.996131,-2239.681954,-9973.284597
621.377451,210.568389,-2316.252277,-9188.438784
621.380178,-421.136778,-1205.982590,-10279.565890
621.382905,248.853550,-38.285162,-9379.864592
621.385632,-555.134843,1014.556782,-9131.011042
621.388359,76.570323,0.000000,-10777.272990
621.391086,-133.998066,-459.421939,-8997.012976
621.393813,-287.138712,-1607.976787,-9150.153622
621.396540,-95.712904,-2411.965181,-10949.556218
621.399267,-76.570323,-1875.972918,-9207.581365
621.401994,-172.283227,-1646.261949,-8824.729749
621.404721,-57.427742,-1550.549045,-11045.269122
621.407448,-133.998066,363.709035,-9418.149754
621.410175,306.281293,746.560651,-8824.729749
621.412902,-459.421939,650.847747,-10872.985894
621.415629,210.568389,-287.138712,-8805.587168
621.418356,-19.142581,-1531.406464,-9035.298138
621.421083,-401.994197,-3101.098090,-10930.413637
621.423810,19.142581,-2986.242605,-9475.577496
621.426537,57.427742,-1244.267752,-8920.442653
621.429264,-191.425808,306.281293,-11217.552349
621.431991,-76.570323,1129.412267,-8824.729749
621.434718,38.285162,535.992262,-8518.448456
621.437445,-153.140646,-1033.699363,-11083.554283
621.440172,-133.998066,-1378.265818,-9245.866526
621.442899,-95.712904,-1761.117434,-8614.161360
621.445626,-0.000000,-2105.683888,-11121.839445
621.448353,-325.423874,-708.275490,-9073.583299
621.451080,172.283227,-708.275490,-8997.012976
621.453807,-229.710970,-1550.549045,-10604.989763
621.456534,-133.998066,-842.273555,-9647.860723
621.459261,363.709035,-459.421939,-8824.729749
621.461988,-363.709035,-114.855485,-10681.560086
621.464715,133.998066,-287.138712,-9379.864592
621.467422,-153.140646,-574.277424,-8901.300072
621.470130,-76.570323,-2048.256146,-10892.128475
621.472837,-114.855485,-1837.687757,-9418.149754
621.475544,-38.285162,-1435.693560,-8939.585234
621.478251,-172.283227,-1320.838075,-10796.415571
621.480958,-57.427742,-133.998066,-9360.722011
621.483665,153.140646,248.853550,-8901.300072
621.486372,-363.709035,-899.701298,-10222.138147
621.489080,-76.570323,-1167.697429,-9877.571693
621.491787,153.140646,-1186.840010,-8556.733618
621.494494,-287.138712,-1186.840010,-10451.849117
621.497201,-95.712904,-765.703232,-9801.001370
621.499908,-19.142581,-440.279358,-8441.878133
621.502615,-133.998066,-1493.121302,-10394.421374
621.505322,-114.855485,-1244.267752,-10107.282662
621.508029,-95.712904,-650.847747,-8556.733618
621.510737,-172.283227,-1033.699363,-10872.985894
621.513444,-38.285162,-650.847747,-9341.579430
621.516151,-0.000000,-344.566454,-8767.302006
621.518858,-191.425808,-1799.402595,-10413.563955
621.521565,-133.998066,-1531.406464,-9992.427178
621.524272,-19.142581,-746.560651,-8652.446522
621.526979,-114.855485,-650.847747,-10183.852986
621.529686,-153.140646,-76.570323,-10011.569758
621.532394,19.142581,57.427742,-8480.163294
621.535101,-0.000000,-1607.976787,-10470.991698
621.537808,-382.851616,-1741.974853,-10222.138147
621.540515,172.283227,-1875.972918,-8518.448456
621.543222,-153.140646,-1110.269686,-10375.278794
621.545929,-287.138712,133.998066,-10375.278794
621.548636,19.142581,133.998066,-8729.016845
621.551343,-363.709035,-1148.554848,-10164.710405
621.554051,-19.142581,-1569.691626,-10260.423309
621.556758,-172.283227,-1186.840010,-8461.020714
621.559465,-38.285162,-1856.830338,-10298.708470
621.562172,-344.566454,-650.847747,-10068.997501
621.564879,210.568389,-172.283227,-8307.880067
621.567586,-95.712904,-995.414202,-10222.138147
621.570293,-459.421939,-1129.412267,-10260.423309
621.573001,306.281293,-1301.695494,-8556.733618
621.575682,-38.285162,-957.129040,-9686.145885
621.578363,-516.849682,95.712904,-10834.700733
621.581044,-38.285162,76.570323,-8671.589102
621.583725,114.855485,-746.560651,-8939.585234
621.586406,-497.707101,-1205.982590,-10738.987829
621.589087,325.423874,-1875.972918,-8997.012976
621.591768,-516.849682,-1799.402595,-9341.579430
621.594449,-0.000000,-1110.269686,-11274.980091
621.597130,-191.425808,114.855485,-8250.452325
621.599811,210.568389,-401.994197,-9475.577496
621.602492,-248.853550,-114.855485,-11179.267187
621.605173,57.427742,-248.853550,-8288.737486
621.607855,-0.000000,-1148.554848,-9111.868461
621.610536,-344.566454,-1263.410333,-11619.546546
621.613217,114.855485,-1320.838075,-8193.024582
621.615898,-19.142581,-2067.398726,-8863.014910
621.618579,-478.564520,-1933.400661,-11830.114934
621.621260,-0.000000,-1167.697429,-8652.446522
621.623941,-19.142581,-421.136778,-8461.020714
621.626622,-267.996131,650.847747,-11351.550414
621.629303,76.570323,727.418070,-7905.885870
621.631984,-95.712904,-861.416136,-9360.722011
621.634665,-248.853550,-2009.970984,-11485.548480
621.637346,-95.712904,-1990.828403,-8327.022648
621.640027,-114.855485,-1895.115499,-9188.438784
621.642709,-172.283227,-1167.697429,-11810.972354
621.645390,-19.142581,19.142581,-7905.885870
621.648071,-0.000000,-114.855485,-8882.157491
621.650752,-267.996131,-784.845813,-11810.972354
621.653433,-19.142581,-784.845813,-8422.735552
621.656114,19.142581,-957.129040,-8595.018779
621.658795,-287.138712,-746.560651,-12021.540742
621.661442,-76.570323,-631.705166,-8327.022648
621.664099,57.427742,-1244.267752,-8384.450390
621.666757,-344.566454,-1971.685822,-11696.116869
621.669414,-95.712904,-1148.554848,-8307.880067
621.672071,19.142581,-631.705166,-8958.727814
621.674728,-153.140646,-76.570323,-11753.544611
621.677386,-0.000000,401.994197,-8116.454259
621.680043,229.710970,-287.138712,-8729.016845
621.682700,-516.849682,-1607.976787,-11657.831707
621.685357,-114.855485,-2048.256146,-8882.157491
621.688015,248.853550,-2277.967115,-8365.307810
621.690672,-497.707101,-1167.697429,-11887.542677
621.693329,76.570323,-76.570323,-8901.300072
621.695986,57.427742,344.566454,-7886.743290
621.698644,-248.853550,-133.998066,-11447.263318
621.701301,-76.570323,-574.277424,-9399.007173
621.703958,114.855485,-1091.127106,-8097.311678
621.706615,-229.710970,-1856.830338,-12040.683323
621.709273,-172.283227,-1071.984525,-8384.450390
621.711930,363.709035,-1435.693560,-8365.307810
621.714587,-478.564520,-1531.406464,-11715.259450
621.717244,-76.570323,-669.990328,-9284.151688
621.719902,363.709035,-440.279358,-8097.311678
621.722559,-440.279358,191.425808,-11734.402030
621.725216,-0.000000,0.000000,-8824.729749
621.727873,325.423874,-325.423874,-8135.596840
621.730531,-459.421939,-1952.543242,-11255.837510
621.733188,-153.140646,-2105.683888,-9858.429112
621.735845,287.138712,-1588.834206,-7810.172966
621.738502,-210.568389,-1091.127106,-11217.552349
621.741160,-306.281293,76.570323,-10164.710405
621.743817,191.425808,57.427742,-7446.463931
621.746474,-229.710970,-1225.125171,-11408.978157
621.749131,-382.851616,-1167.697429,-9628.718142
621.751789,38.285162,-1320.838075,-7771.887805
621.754446,-344.566454,-1397.408398,-11274.980091
621.757103,-325.423874,-1129.412267,-9781.858789
621.759760,210.568389,-861.416136,-7752.745224
621.762418,-248.853550,-1205.982590,-10815.558152
621.765075,76.570323,-899.701298,-10796.415571
621.767714,229.710970,-440.279358,-8346.165229
621.770353,-210.568389,0.000000,-10030.712339
621.772992,-306.281293,306.281293,-11160.124606
621.775631,210.568389,-440.279358,-8384.450390
621.778270,-574.277424,-1588.834206,-9226.723946
621.780909,-229.710970,-1646.261949,-11964.113000
621.783548,-19.142581,-861.416136,-8977.870395
621.786187,593.420005,-1148.554848,-7829.315547
621.788826,-516.849682,-459.421939,-11810.972354
621.791465,-114.855485,-95.712904,-8977.870395
621.794104,382.851616,-1971.685822,-7178.467800
621.796743,-382.851616,-2086.541307,-12480.962682
621.799382,-114.855485,-1378.265818,-9724.431046
621.802021,267.996131,-1435.693560,-6814.758765
621.804660,-172.283227,-459.421939,-12174.681389
621.807299,-38.285162,-38.285162,-10279.565890
621.809938,191.425808,-861.416136,-5895.914886
621.812577,-210.568389,-1014.556782,-12270.394293
621.815216,-363.709035,-555.134843,-11313.265253
621.817855,229.710970,-727.418070,-5838.487144
621.820494,-38.285162,-823.130974,-11274.980091
621.823133,-555.134843,-363.709035,-10011.569758
621.825772,325.423874,-1627.119368,-6240.481341
621.828411,-248.853550,-1646.261949,-12557.533005
621.831050,-478.564520,-861.416136,-10987.841379
621.833689,363.709035,-1091.127106,-5704.489078
621.836328,-114.855485,-382.851616,-11983.255581
621.838967,-478.564520,133.998066,-11466.405899
621.841606,401.994197,-1244.267752,-5436.492947
621.844245,-191.425808,-1339.980656,-11389.835576
621.846884,-344.566454,-995.414202,-12653.245909
621.849523,-0.000000,-823.130974,-5493.920690
621.852162,38.285162,-631.705166,-10279.565890
621.854801,-401.994197,-287.138712,-13016.954944
621.857440,-76.570323,-937.986459,-6029.912952
621.860079,191.425808,-2086.541307,-9360.722011
621.862718,-803.988394,-957.129040,-12576.675586
621.865357,133.998066,-191.425808,-5513.063270
621.867996,957.129040,-229.710970,-10394.421374
621.870635,-995.414202,440.279358,-12461.820101
621.873257,-95.712904,-1454.836141,-6221.338760
621.875880,555.134843,-3273.381317,-9896.714274
621.878502,-765.703232,-2277.967115,-13227.523333
621.881125,-76.570323,-1799.402595,-6987.041992
621.883747,210.568389,-287.138712,-8901.300072
621.886370,-172.283227,976.271621,-12691.531070
621.888993,-401.994197,1320.838075,-7465.606512
621.891615,306.281293,-344.566454,-8193.024582
621.894238,-210.568389,-1397.408398,-12806.386555
621.896860,-401.994197,-1741.974853,-8422.735552
621.899483,248.853550,-2335.394858,-7810.172966
621.902105,-421.136778,-1359.123237,-12078.968485
621.904728,-76.570323,-1186.840010,-7465.606512
621.907350,248.853550,-1091.127106,-9131.011042
621.909973,-669.990328,267.996131,-12672.388490
621.912596,153.140646,287.138712,-7848.458128
621.915218,57.427742,306.281293,-8307.880067
621.917841,-363.709035,-363.709035,-12232.109131
621.920463,-95.712904,-1531.406464,-8307.880067
621.923086,114.855485,-2584.248408,-8288.737486
621.925708,-478.564520,-1952.543242,-12461.820101
621.928331,-267.996131,-1339.980656,-8882.157491
621.930954,440.279358,-1091.127106,-7905.885870
621.933576,-191.425808,153.140646,-11696.116869
621.936199,-325.423874,535.992262,-9360.722011
621.938821,363.709035,-842.273555,-7542.176835
621.941444,-765.703232,-957.129040,-12404.392358
621.944066,-95.712904,-1282.552914,-8461.020714
621.946689,650.847747,-1531.406464,-8671.589102
621.949311,-861.416136,-401.994197,-11696.116869
621.951934,19.142581,-861.416136,-8805.587168
621.954557,516.849682,-1952.543242,-7982.456194
621.957179,-421.136778,-1091.127106,-12021.540742
621.959802,-478.564520,-95.712904,-9437.292334
621.962424,382.851616,-287.138712,-7657.032320
621.965047,-38.285162,57.427742,-10949.556218
621.967669,-650.847747,114.855485,-10126.425243
621.970292,229.710970,-1703.689691,-7676.174901
621.972914,-133.998066,-1761.117434,-11791.829773
621.975537,-631.705166,-1225.125171,-9820.143950
621.978144,459.421939,-1550.549045,-7484.749093
621.980752,-287.138712,-401.994197,-11600.403965
621.983360,-267.996131,-248.853550,-8767.302006
621.985967,440.279358,-1684.547110,-8173.882002
621.988575,-478.564520,-1282.552914,-11830.114934
621.991182,-76.570323,-1052.841944,-9245.866526
621.993790,440.279358,-1282.552914,-7944.171032
621.996397,-612.562586,76.570323,-11351.550414
621.999005,-38.285162,-114.855485,-9762.716208
622.001612,57.427742,-1435.693560,-7101.897477
622.004220,-229.710970,-1339.980656,-12346.964616
622.006827,-229.710970,-765.703232,-9820.143950
622.009435,229.710970,-1014.556782,-6910.471669
622.012042,-133.998066,-689.132909,-11581.261384
622.014650,-344.566454,-114.855485,-10356.136213
622.017257,133.998066,-1359.123237,-6891.329088
622.019865,-210.568389,-1454.836141,-12423.534939
622.022472,-612.562586,-382.851616,-9169.296203
622.025080,689.132909,-918.843878,-7523.034254
622.027687,-191.425808,-631.705166,-11772.687192
622.030295,-325.423874,-593.420005,-9992.427178
622.032902,325.423874,-1895.115499,-6795.616184
622.035510,-191.425808,-1550.549045,-12308.679454
622.038117,-363.709035,-823.130974,-10413.563955
622.040725,421.136778,-899.701298,-6680.760699
622.043332,-267.996131,-57.427742,-11198.409768
622.045940,-440.279358,401.994197,-10853.843314
622.048547,344.566454,-1454.836141,-6565.905214
622.051155,-440.279358,-1646.261949,-11389.835576
622.053762,-497.707101,-1263.410333,-11657.831707
622.056370,153.140646,-1244.267752,-6929.614250
622.058977,382.851616,-478.564520,-11351.550414
622.061585,-574.277424,267.996131,-10528.419440
622.064192,287.138712,-1550.549045,-6565.905214
622.066800,-19.142581,-1722.832272,-11447.263318
622.069408,-669.990328,-1033.699363,-11447.263318
622.072015,172.283227,-1416.550979,-6699.903280
622.074623,421.136778,-823.130974,-10643.274925
622.077230,-612.562586,574.277424,-11332.407834
622.079838,-57.427742,-535.992262,-7006.184573
622.082432,229.710970,-1627.119368,-10298.708470
622.085026,-497.707101,-1186.840010,-11600.403965
622.087620,-76.570323,-1282.552914,-7427.321350
622.090215,229.710970,-842.273555,-9992.427178
622.092809,-459.421939,-172.283227,-11102.696864
622.095403,325.423874,-1435.693560,-7255.038123
622.097997,38.285162,-1339.980656,-10968.698798
622.100592,-650.847747,-957.129040,-11160.124606
622.103186,325.423874,-1225.125171,-7121.040058
622.105780,114.855485,-401.994197,-10145.567824
622.108374,-708.275490,497.707101,-11408.978157
622.110969,287.138712,-995.414202,-7503.891674
622.113563,57.427742,-1512.263883,-9609.575562
622.116157,-612.562586,-1167.697429,-12040.683323
622.118751,133.998066,-1339.980656,-7771.887805
622.121346,57.427742,-612.562586,-9245.866526
622.123940,-478.564520,-19.142581,-11600.403965
622.126534,191.425808,-1091.127106,-7944.171032
622.129128,76.570323,-1531.406464,-8920.442653
622.131722,-574.277424,-861.416136,-12155.538808
622.134317,172.283227,-1205.982590,-7293.323285
622.136911,-38.285162,-574.277424,-9360.722011
622.139505,-306.281293,0.000000,-11772.687192
622.142099,133.998066,-957.129040,-7599.604578
622.144694,267.996131,-1703.689691,-9322.436850
622.147288,-535.992262,-957.129040,-11983.255581
622.149882,-229.710970,-612.562586,-8422.735552
622.152476,478.564520,-650.847747,-9207.581365
622.155071,-497.707101,650.847747,-11198.409768
622.157665,-478.564520,382.851616,-8461.020714
622.160259,746.560651,-1665.404530,-8729.016845
622.162853,-650.847747,-1435.693560,-11810.972354
622.165448,-497.707101,-1741.974853,-8805.587168
622.168042,803.988394,-2679.961312,-8805.587168
622.170636,-555.134843,-1339.980656,-11600.403965
622.173230,-76.570323,-1244.267752,-8059.026517
622.175825,842.273555,-1512.263883,-9131.011042
622.178419,-957.129040,593.420005,-11351.550414
622.181013,-76.570323,344.566454,-8365.307810
622.183607,746.560651,-153.140646,-9207.581365
622.186190,-842.273555,344.566454,-10528.419440
622.188773,-38.285162,-1512.263883,-8958.727814
622.191355,440.279358,-3254.238736,-8882.157491
622.193938,-880.558717,-2163.111630,-11810.972354
622.196521,-229.710970,-1703.689691,-8729.016845
622.199103,746.560651,-937.986459,-9016.155557
622.201686,-937.986459,1320.838075,-10892.128475
622.204268,153.140646,1014.556782,-8958.727814
622.206851,746.560651,-689.132909,-8288.737486
622.209434,-823.130974,-650.847747,-11447.263318
622.212016,325.423874,-1933.400661,-8767.302006
622.214599,57.427742,-2316.252277,-8767.302006
622.217182,-765.703232,-1378.265818,-11466.405899
622.219764,229.710970,-1282.552914,-8997.012976
622.222347,325.423874,-1473.978722,-8001.598774
622.224930,-516.849682,-95.712904,-12308.679454
622.227512,-114.855485,229.710970,-8939.585234
622.230095,440.279358,-57.427742,-7695.317482
622.232678,-287.138712,133.998066,-11504.691061
622.235260,-114.855485,-669.990328,-9609.575562
622.237843,535.992262,-2737.389054,-7369.893608
622.240425,-555.134843,-2354.537438,-11810.972354
622.243008,-440.279358,-2105.683888,-10336.993632
622.245591,440.279358,-1818.545176,-7293.323285
622.248173,-574.277424,765.703232,-11504.691061
622.250756,-95.712904,1225.125171,-8863.014910
622.253339,516.849682,-76.570323,-7771.887805
622.255921,-229.710970,-401.994197,-11906.685258
622.258504,-440.279358,-1167.697429,-9303.294269
622.261087,363.709035,-2163.111630,-7944.171032
622.263669,-210.568389,-1550.549045,-11638.689126
622.266252,-574.277424,-784.845813,-9667.003304
622.268834,497.707101,-2201.396792,-7350.751027
622.271417,-229.710970,-1493.121302,-12078.968485
622.274000,-516.849682,-133.998066,-10068.997501
622.276582,459.421939,-612.562586,-6872.186507
622.279165,76.570323,210.568389,-11466.405899
622.281748,-650.847747,669.990328,-10049.854920
622.284330,421.136778,-1665.404530,-6910.471669
622.286913,-267.996131,-2239.681954,-12212.966550
622.289488,-631.705166,-1473.978722,-9494.720077
622.292062,727.418070,-1933.400661,-7733.602643
622.294637,-229.710970,-325.423874,-11581.261384
622.297211,-440.279358,823.130974,-9839.286531
622.299786,612.562586,-842.273555,-7044.469734
622.302361,-267.996131,-727.418070,-11696.116869
622.304935,-459.421939,-650.847747,-10624.132344
622.307510,574.277424,-1684.547110,-6604.190376
622.310085,-363.709035,-918.843878,-11734.402030
622.312659,-497.707101,-478.564520,-10662.417506
622.315234,1225.125171,-2373.680019,-6910.471669
622.317808,344.566454,-880.558717,-11830.114934
622.320383,-1952.543242,1454.836141,-10413.563955
622.322958,1569.691626,-1186.840010,-7733.602643
622.325532,-957.129040,-689.132909,-10987.841379
622.328107,-669.990328,-937.986459,-10068.997501
622.330681,899.701298,-3598.805190,-7599.604578
622.333256,-708.275490,-2737.389054,-11102.696864
622.335831,191.425808,-2431.107762,-9801.001370
622.338405,957.129040,-976.271621,-5857.629725
622.340980,-1627.119368,2182.254211,-13227.523333
622.343555,-76.570323,1895.115499,-10719.845248
622.346129,765.703232,823.130974,-5111.069074
622.348704,-708.275490,-344.566454,-13208.380752
622.351278,-689.132909,-1359.123237,-10432.706536
622.353853,784.845813,-3560.520029,-5589.633594
622.356428,-535.992262,-3177.668413,-13131.810429
622.359002,-631.705166,-1359.123237,-10394.421374
622.361577,593.420005,-1493.121302,-6853.043926
622.364152,-612.562586,38.285162,-13974.083984
622.366726,-229.710970,1186.840010,-8135.596840
622.369301,631.705166,516.849682,-6891.329088
622.371875,-746.560651,574.277424,-13935.798822
622.374450,-19.142581,-593.420005,-7829.315547
622.377025,516.849682,-2852.244539,-7063.612315
622.379599,-727.418070,-3349.951640,-13820.943338
622.382174,-344.566454,-2277.967115,-8365.307810
622.384749,421.136778,-1933.400661,-7369.893608
622.387323,-478.564520,191.425808,-13323.236237
622.389898,-287.138712,1990.828403,-7944.171032
622.392465,459.421939,1110.269686,-7695.317482
622.395033,-631.705166,95.712904,-13227.523333
622.397600,-0.000000,-995.414202,-7944.171032
622.400167,-57.427742,-2737.389054,-9341.579430
622.402735,-574.277424,-2641.676150,-12863.814298
622.405302,-57.427742,-1722.832272,-6948.756830
622.407870,555.134843,-2220.539373,-9131.011042
622.410437,-803.988394,-1052.841944,-12691.531070
622.413004,57.427742,133.998066,-7618.747158
622.415572,612.562586,-76.570323,-8518.448456
622.418139,-937.986459,1454.836141,-12385.249778
622.420707,248.853550,803.988394,-7810.172966
622.423274,344.566454,-861.416136,-8518.448456
622.425842,-689.132909,-2431.107762,-12308.679454
622.428409,-76.570323,-2756.531635,-8595.018779
622.430976,382.851616,-2737.389054,-8231.309744
622.433544,-727.418070,-1320.838075,-12136.396227
622.436111,191.425808,440.279358,-7312.465866
622.438679,267.996131,478.564520,-9073.583299
622.441246,-497.707101,0.000000,-12002.398162
622.443813,-76.570323,-172.283227,-8116.454259
622.446381,325.423874,-1416.550979,-8729.016845
622.448948,-746.560651,-1588.834206,-12078.968485
622.451516,57.427742,-1397.408398,-8422.735552
622.454083,478.564520,-1665.404530,-8633.303941
622.456650,-861.416136,-1875.972918,-11638.689126
622.459218,-76.570323,-1320.838075,-9169.296203
622.461785,363.709035,-535.992262,-8116.454259
622.464353,-593.420005,631.705166,-11447.263318
622.466920,-95.712904,937.986459,-8997.012976
622.469488,440.279358,-153.140646,-7886.743290
622.472055,-669.990328,-1818.545176,-11389.835576
622.474622,229.710970,-2450.250342,-8939.585234
622.477190,19.142581,-2009.970984,-8001.598774
622.479757,-382.851616,-1167.697429,-12710.673651
622.482325,-19.142581,-57.427742,-8269.594906
622.484892,57.427742,267.996131,-7963.313613
622.487459,-210.568389,-478.564520,-12193.823970
622.490027,-95.712904,-612.562586,-8901.300072
622.492594,267.996131,-823.130974,-8039.883936
622.495074,-210.568389,-1148.554848,-11906.685258
622.497554,-363.709035,-210.568389,-8843.872330
622.500034,344.566454,-1091.127106,-8231.309744
622.502514,-497.707101,-2411.965181,-11370.692995
622.504995,-153.140646,-1799.402595,-9801.001370
622.507475,248.853550,-1397.408398,-7944.171032
622.509955,-382.851616,-574.277424,-11045.269122
622.512435,114.855485,708.275490,-8288.737486
622.514915,19.142581,593.420005,-8365.307810
622.517395,-248.853550,-1110.269686,-11581.261384
622.519875,-153.140646,-1607.976787,-9092.725880
622.522355,133.998066,-2067.398726,-8403.592971
622.524835,-210.568389,-2622.533570,-11428.120738
622.527315,-114.855485,-861.416136,-9322.436850
622.529795,344.566454,-229.710970,-8212.167163
622.532275,-401.994197,-765.703232,-11006.983960
622.534755,-95.712904,-191.425808,-9839.286531
622.537235,191.425808,-306.281293,-8173.882002
622.539715,-153.140646,-823.130974,-11083.554283
622.542195,-95.712904,-440.279358,-9418.149754
622.544676,38.285162,-440.279358,-8307.880067
622.547156,-191.425808,-2086.541307,-10528.419440
622.549636,-76.570323,-1799.402595,-9207.581365
622.552116,-38.285162,-746.560651,-8824.729749
622.554596,-153.140646,-784.845813,-10930.413637
622.557076,-19.142581,248.853550,-9322.436850
622.559556,-0.000000,191.425808,-8499.305875
622.562036,-210.568389,-1301.695494,-10451.849117
622.564516,-0.000000,-1837.687757,-10068.997501
622.566996,-114.855485,-1416.550979,-8556.733618
622.569476,-191.425808,-1512.263883,-10413.563955
622.571956,-172.283227,-382.851616,-10394.421374
622.574436,-57.427742,248.853550,-8001.598774
622.576916,-133.998066,-631.705166,-10432.706536
622.579396,-229.710970,-899.701298,-10375.278794
622.581877,-0.000000,-1167.697429,-8422.735552
622.584357,-248.853550,-1952.543242,-10260.423309
622.586837,-95.712904,-1091.127106,-10088.140082
622.589317,-38.285162,-612.562586,-8384.450390
622.591797,-95.712904,-1895.115499,-10145.567824
622.594296,-172.283227,-1282.552914,-10719.845248
622.596796,-57.427742,-363.709035,-8231.309744
622.599296,-172.283227,-133.998066,-10011.569758
622.601795,114.855485,-19.142581,-10585.847182
622.604295,-191.425808,421.136778,-8078.169098
622.606795,57.427742,-1397.408398,-10241.280728
622.609294,-229.710970,-2067.398726,-10413.563955
622.611794,-0.000000,-1933.400661,-8537.591037
622.614293,114.855485,-2335.394858,-9896.714274
622.616793,-172.283227,-650.847747,-10853.843314
622.619293,95.712904,497.707101,-8307.880067
622.621792,-229.710970,-191.425808,-10164.710405
622.624292,114.855485,-555.134843,-10164.710405
622.626792,-401.994197,0.000000,-8614.161360
622.629291,95.712904,-1588.834206,-10030.712339
622.631791,-325.423874,-1301.695494,-10566.704602
622.634290,-38.285162,-1110.269686,-8231.309744
622.636790,-19.142581,-2009.970984,-10068.997501
622.639290,-191.425808,-1684.547110,-10566.704602
622.641789,-19.142581,-516.849682,-8843.872330
622.644289,-114.855485,-133.998066,-9571.290400
622.646789,-191.425808,401.994197,-10700.702667
622.649288,19.142581,19.142581,-8480.163294
622.651788,-95.712904,-880.558717,-9647.860723
622.654287,-306.281293,-2201.396792,-10490.134278
622.656787,133.998066,-2392.822600,-8882.157491
622.659287,-114.855485,-2086.541307,-9590.432981
622.661786,-153.140646,-746.560651,-10949.556218
622.664286,-325.423874,689.132909,-8231.309744
622.666786,306.281293,-95.712904,-9494.720077
622.669285,-229.710970,-382.851616,-10738.987829
622.671785,-95.712904,-421.136778,-8901.300072
622.674285,19.142581,-1263.410333,-9188.438784
622.676784,-382.851616,-1205.982590,-10968.698798
622.679284,95.712904,-1071.984525,-8729.016845
622.681783,-114.855485,-1282.552914,-9245.866526
622.684283,-153.140646,-2182.254211,-10738.987829
622.686783,-38.285162,-1282.552914,-9207.581365
622.689282,325.423874,-1129.412267,-8824.729749
622.691782,-516.849682,-133.998066,-11064.411702
622.694295,38.285162,612.562586,-8307.880067
622.696808,-19.142581,133.998066,-9571.290400
622.699321,-38.285162,-1282.552914,-10968.698798
622.701834,-210.568389,-1473.978722,-8652.446522
622.704346,-19.142581,-2029.113565,-9590.432981
622.706859,-363.709035,-1473.978722,-11255.837510
622.709372,287.138712,-57.427742,-7791.030386
622.711885,-153.140646,-172.283227,-9360.722011
622.714398,-153.140646,-1378.265818,-11351.550414
622.716910,-95.712904,-957.129040,-8384.450390
622.719423,19.142581,-1339.980656,-9418.149754
622.721936,-325.423874,-1205.982590,-11255.837510
622.724449,38.285162,-344.566454,-8307.880067
622.726962,-153.140646,-19.142581,-9437.292334
622.729474,19.142581,-1512.263883,-10738.987829
622.731987,-153.140646,-918.843878,-8863.014910
622.734500,-133.998066,-861.416136,-9762.716208
622.737013,-95.712904,-1225.125171,-10279.565890
622.739526,38.285162,-153.140646,-8977.870395
622.742039,-0.000000,-421.136778,-9379.864592
622.744551,-191.425808,-1856.830338,-10298.708470
622.747064,-76.570323,-995.414202,-9858.429112
622.749577,-172.283227,-267.996131,-8422.735552
622.752090,-19.142581,-746.560651,-10719.845248
622.754603,-153.140646,-153.140646,-9667.003304
622.757115,-0.000000,-440.279358,-8748.159426
622.759628,-57.427742,-2756.531635,-10317.851051
622.762141,-229.710970,-2507.678085,-10145.567824
622.764654,19.142581,-1895.115499,-8709.874264
622.767167,-76.570323,-1703.689691,-10011.569758
622.769680,-19.142581,478.564520,-9590.432981
622.772192,-0.000000,1052.841944,-8307.880067
622.774705,-19.142581,-133.998066,-10872.985894
622.777218,-153.140646,-478.564520,-9781.858789
622.779731,-0.000000,-1148.554848,-8097.311678
622.782244,-172.283227,-1952.543242,-11255.837510
622.784756,-114.855485,-1397.408398,-9284.151688
622.787269,-95.712904,-1110.269686,-8461.020714
622.789782,19.142581,-2469.392923,-10796.415571
622.792295,-344.566454,-1129.412267,-9973.284597
622.794819,382.851616,-803.988394,-8422.735552
622.797343,-133.998066,-325.423874,-10662.417506
622.799867,-19.142581,1320.838075,-9839.286531
622.802391,-421.136778,1799.402595,-8231.309744
622.804915,306.281293,-1033.699363,-10585.847182
622.807438,-401.994197,-2182.254211,-9360.722011
622.809962,-95.712904,-2488.535504,-8958.727814
622.812486,-76.570323,-2928.814862,-10681.560086
622.815010,-114.855485,-937.986459,-9724.431046
622.817534,-133.998066,325.423874,-8977.870395
622.820058,-0.000000,-325.423874,-9858.429112
622.822582,-153.140646,153.140646,-10202.995566
622.825106,-95.712904,-133.998066,-8977.870395
622.827630,-19.142581,-1301.695494,-9590.432981
622.830154,-153.140646,-842.273555,-10528.419440
622.832678,-57.427742,-593.420005,-8403.592971
622.835202,-153.140646,-1933.400661,-9609.575562
622.837726,-57.427742,-2660.818731,-10987.841379
622.840250,-191.425808,-1435.693560,-8633.303941
622.842774,-19.142581,-1301.695494,-10183.852986
622.845297,-210.568389,267.996131,-10738.987829
622.847821,38.285162,937.986459,-7963.313613
622.850345,-191.425808,765.703232,-10528.419440
622.852869,-153.140646,1550.549045,-10317.851051
622.855393,-57.427742,2469.392923,-8556.733618
622.857917,-210.568389,2086.541307,-10356.136213
622.860441,-133.998066,-765.703232,-10145.567824
622.862965,-363.709035,-478.564520,-9150.153622
622.865489,-76.570323,-516.849682,-10164.710405
622.868013,-0.000000,-708.275490,-9858.429112
622.870537,-76.570323,937.986459,-9284.151688
622.873061,344.566454,2411.965181,-10068.997501
622.875585,19.142581,3426.521963,-9169.296203
622.878109,-133.998066,3254.238736,-10202.995566
622.880633,210.568389,1627.119368,-8920.442653
622.883156,-306.281293,-1761.117434,-9073.583299
622.885680,-38.285162,-5321.637462,-10930.413637
622.888204,-267.996131,-6010.770371,-8997.012976
622.890728,-76.570323,-4900.500685,-9437.292334
622.893252,-248.853550,-1512.263883,-11064.411702
622.895784,-76.570323,2143.969050,-8843.872330
622.898316,210.568389,2660.818731,-8595.018779
622.900847,-267.996131,2354.537438,-11255.837510
622.903379,-19.142581,1129.412267,-8403.592971
622.905911,-57.427742,-1665.404530,-8863.014910
622.908442,-421.136778,-3464.807125,-11504.691061
622.910974,-574.277424,-3177.668413,-8671.589102
622.913506,708.275490,-3751.945837,-8882.157491
622.916037,-727.418070,-1837.687757,-11600.403965
622.918569,382.851616,363.709035,-7925.028451
622.921101,-325.423874,842.273555,-9456.434915
622.923632,-38.285162,880.558717,-11810.972354
622.926164,-38.285162,1646.261949,-7657.032320
622.928696,19.142581,-363.709035,-8920.442653
622.931227,-38.285162,-2124.826469,-11791.829773
622.933759,-133.998066,-2411.965181,-7752.745224
622.936291,-191.425808,-3330.809059,-9934.999435
622.938822,-210.568389,-2833.101958,-11485.548480
622.941354,-76.570323,153.140646,-7829.315547
622.943886,38.285162,1033.699363,-9762.716208
622.946417,-267.996131,612.562586,-11160.124606
622.948949,19.142581,516.849682,-7771.887805
622.951481,-114.855485,-1205.982590,-9494.720077
622.954013,-95.712904,-2354.537438,-11581.261384
622.956544,-57.427742,-1914.258080,-7867.600709
622.959076,-57.427742,-1895.115499,-10738.987829
622.961608,-229.710970,-1033.699363,-10356.136213
622.964139,-0.000000,0.000000,-8135.596840
622.966671,-19.142581,-325.423874,-10470.991698
622.969203,-114.855485,-19.142581,-10145.567824
622.971734,-38.285162,1129.412267,-8384.450390
622.974266,38.285162,-306.281293,-9341.579430
622.976798,-401.994197,-2277.967115,-10470.991698
622.979329,-38.285162,-3311.666478,-9686.145885
622.981861,-172.283227,-3024.527766,-9265.009107
622.984393,-114.855485,-2009.970984,-10700.702667
622.986924,-172.283227,248.853550,-9533.005238
622.989456,57.427742,1301.695494,-8537.591037
622.991988,-38.285162,995.414202,-10796.415571
622.994519,-229.710970,650.847747,-9284.151688
622.997056,478.564520,-1952.543242,-8422.735552
622.999592,-535.992262,-2450.250342,-11064.411702
623.002128,-76.570323,-1799.402595,-9858.429112
623.004665,267.996131,-1837.687757,-8116.454259
623.007201,-344.566454,-1512.263883,-10834.700733
623.009737,-19.142581,-497.707101,-10202.995566
623.012274,-38.285162,-57.427742,-7810.172966
623.014810,-172.283227,-363.709035,-11121.839445
623.017346,-229.710970,287.138712,-10030.712339
623.019883,229.710970,-210.568389,-7350.751027
623.022419,38.285162,-1416.550979,-10815.558152
623.024955,-516.849682,-1493.121302,-10604.989763
623.027492,421.136778,-2526.820666,-7331.608446
623.030028,-516.849682,-1646.261949,-11657.831707
623.032564,-76.570323,325.423874,-9667.003304
623.035101,172.283227,153.140646,-7542.176835
623.037637,-287.138712,-708.275490,-11179.267187
623.040173,191.425808,-823.130974,-10030.712339
623.042710,-19.142581,-1493.121302,-7542.176835
623.045246,-325.423874,-2182.254211,-11753.544611
623.047782,-0.000000,-1225.125171,-9992.427178
623.050319,-57.427742,-95.712904,-7312.465866
623.052855,-114.855485,-593.420005,-11638.689126
623.055391,-153.140646,-478.564520,-10049.854920
623.057928,229.710970,-1186.840010,-6910.471669
623.060464,-229.710970,-1473.978722,-12002.398162
623.063000,-306.281293,-631.705166,-9839.286531
623.065537,248.853550,-76.570323,-7235.895542
623.068073,-267.996131,-842.273555,-11753.544611
623.070609,-57.427742,-842.273555,-9533.005238
623.073146,210.568389,-1627.119368,-7618.747158
623.075682,-440.279358,-1952.543242,-12059.825904
623.078218,-114.855485,-1148.554848,-9303.294269
623.080755,267.996131,-344.566454,-7503.891674
623.083291,-363.709035,-459.421939,-11408.978157
623.085827,-76.570323,-440.279358,-9896.714274
623.088364,-0.000000,-1167.697429,-7159.325219
623.090900,-229.710970,-1493.121302,-11983.255581
623.093436,-497.707101,-957.129040,-9954.142016
623.095973,555.134843,-1071.984525,-7503.891674
623.098512,-401.994197,-1225.125171,-10987.841379
623.101051,-133.998066,-1167.697429,-10604.989763
623.103590,19.142581,-689.132909,-7503.891674
623.106129,-191.425808,-746.560651,-11485.548480
623.108669,-76.570323,-76.570323,-9667.003304
623.111208,287.138712,344.566454,-7905.885870
623.113747,-287.138712,-248.853550,-11274.980091
623.116286,-95.712904,-1148.554848,-9858.429112
623.118826,19.142581,-1799.402595,-7733.602643
623.121365,-306.281293,-2335.394858,-11638.689126
623.123904,-153.140646,-2220.539373,-10011.569758
623.126443,-38.285162,-497.707101,-7503.891674
623.128982,-57.427742,-19.142581,-11179.267187
623.131522,-172.283227,114.855485,-10183.852986
623.134061,114.855485,-267.996131,-7484.749093
623.136600,-153.140646,-1646.261949,-10872.985894
623.139139,-76.570323,-1531.406464,-10509.276859
623.141678,-19.142581,-727.418070,-8269.594906
623.144218,-210.568389,-1091.127106,-11064.411702
623.146757,19.142581,-1225.125171,-9609.575562
623.149296,-19.142581,-765.703232,-8269.594906
623.151835,-172.283227,-1091.127106,-10949.556218
623.154375,-248.853550,-631.705166,-9839.286531
623.156914,38.285162,153.140646,-8097.311678
623.159453,-76.570323,-555.134843,-10490.134278
623.161992,-363.709035,-880.558717,-10470.991698
623.164531,153.140646,-1244.267752,-7886.743290
623.167071,-153.140646,-2143.969050,-10528.419440
623.169610,-210.568389,-1990.828403,-10796.415571
623.172149,114.855485,-535.992262,-8288.737486
623.174688,-95.712904,-344.566454,-9667.003304
623.177227,-172.283227,-325.423874,-11045.269122
623.179767,-0.000000,-229.710970,-7963.313613
623.182306,-19.142581,-1052.841944,-10528.419440
623.184845,-459.421939,-1301.695494,-10604.989763
623.187384,57.427742,-210.568389,-7867.600709
623.189923,76.570323,-976.271621,-10030.712339
623.192463,-306.281293,-1607.976787,-10892.128475
623.195002,-0.000000,-1473.978722,-8212.167163
623.197541,-153.140646,-1416.550979,-9820.143950
623.200084,-153.140646,-823.130974,-11198.409768
623.202626,-57.427742,689.132909,-8422.735552
623.205168,133.998066,133.998066,-8671.589102
623.207711,-401.994197,-440.279358,-11619.546546
623.210253,-19.142581,-976.271621,-8729.016845
623.212796,-172.283227,-2201.396792,-8461.020714
623.215338,-153.140646,-2641.676150,-12002.398162
623.217880,-0.000000,-593.420005,-7829.315547
623.220423,-38.285162,-38.285162,-9954.142016
623.222965,-153.140646,-612.562586,-10968.698798
623.225508,-19.142581,95.712904,-7637.889739
623.228050,-0.000000,-478.564520,-9781.858789
623.230592,-248.853550,-937.986459,-11408.978157
623.233135,-114.855485,-1033.699363,-8020.741355
623.235677,172.283227,-2258.824534,-8920.442653
623.238220,-38.285162,-2565.105827,-12193.823970
623.240762,-153.140646,-1071.984525,-8441.878133
623.243304,19.142581,-746.560651,-8403.592971
623.245847,-229.710970,-153.140646,-12021.540742
623.248389,-114.855485,1416.550979,-8748.159426
623.250932,210.568389,861.416136,-8154.739421
623.253474,-382.851616,-708.275490,-11332.407834
623.256016,-0.000000,-1952.543242,-8480.163294
623.258559,-19.142581,-3139.383251,-8863.014910
623.261101,-344.566454,-2909.672282,-11868.400096
623.263644,-114.855485,-842.273555,-8805.587168
623.266186,114.855485,-76.570323,-8250.452325
623.268728,-191.425808,153.140646,-11638.689126
623.271271,-76.570323,727.418070,-8843.872330
623.273813,153.140646,-535.992262,-8135.596840
623.276356,-401.994197,-1052.841944,-11753.544611
623.278898,-95.712904,-803.988394,-9265.009107
623.281440,-19.142581,-1301.695494,-8001.598774
623.283983,-153.140646,-2048.256146,-11447.263318
623.286525,-153.140646,-1416.550979,-9743.573627
623.289068,210.568389,-1761.117434,-7771.887805
623.291610,-497.707101,-1014.556782,-11715.259450
623.294152,172.283227,153.140646,-8595.018779
623.296695,-133.998066,861.416136,-8078.169098
623.299237,-172.283227,-133.998066,-11676.974288
623.301782,-38.285162,-708.275490,-8939.585234
623.304327,-57.427742,-2201.396792,-7810.172966
623.306872,-38.285162,-2699.103893,-12346.964616
623.309417,-382.851616,-1071.984525,-9284.151688
623.311962,497.707101,-478.564520,-7695.317482
623.314506,-248.853550,-325.423874,-11466.405899
623.317051,-76.570323,0.000000,-9934.999435
623.319596,248.853550,-631.705166,-7580.461997
623.322141,-363.709035,-1301.695494,-11447.263318
623.324686,-172.283227,-823.130974,-9858.429112
623.327231,382.851616,-478.564520,-7886.743290
623.329776,-535.992262,-1033.699363,-11676.974288
623.332320,-95.712904,-1282.552914,-9284.151688
623.334865,248.853550,-2124.826469,-7733.602643
623.337410,-497.707101,-1799.402595,-11830.114934
623.339955,-153.140646,-861.416136,-9992.427178
623.342500,57.427742,306.281293,-7350.751027
623.345045,-95.712904,76.570323,-10930.413637
623.347590,-153.140646,153.140646,-10643.274925
623.350134,-0.000000,-727.418070,-7178.467800
623.352679,-57.427742,-2009.970984,-10834.700733
623.355224,-363.709035,-1895.115499,-10911.271056
623.357769,38.285162,-1167.697429,-7771.887805
623.360314,114.855485,-1550.549045,-9877.571693
623.362859,-631.705166,-516.849682,-11217.552349
623.365404,497.707101,-459.421939,-7637.889739
623.367948,-133.998066,-574.277424,-10336.993632
623.370493,-478.564520,-38.285162,-11217.552349
623.373038,344.566454,19.142581,-7618.747158
623.375583,-172.283227,-976.271621,-9647.860723
623.378128,-363.709035,-1282.552914,-12021.540742
623.380673,-248.853550,-1186.840010,-7618.747158
623.383218,114.855485,-2105.683888,-9686.145885
623.385762,-440.279358,-1646.261949,-11657.831707
623.388307,-401.994197,133.998066,-8020.741355
623.390852,306.281293,-401.994197,-9150.153622
623.393397,-784.845813,-287.138712,-12232.109131
623.395942,-440.279358,-516.849682,-7944.171032
623.398487,803.988394,-2220.539373,-8863.014910
623.401032,-478.564520,-1359.123237,-11102.696864
623.403577,-76.570323,229.710970,-8001.598774
623.406123,593.420005,-650.847747,-8709.874264
623.408668,-689.132909,-727.418070,-10528.419440
623.411214,-95.712904,-2048.256146,-9781.858789
623.413760,708.275490,-3847.658741,-8863.014910
623.416305,57.427742,-2201.396792,-12021.540742
623.418851,-1110.269686,976.271621,-9073.583299
623.421396,957.129040,248.853550,-7197.610381
623.423942,-133.998066,842.273555,-11657.831707
623.426488,-784.845813,1129.412267,-9820.143950
623.429033,516.849682,-1244.267752,-7561.319416
623.431579,-76.570323,-2488.535504,-11121.839445
623.434124,-823.130974,-1607.976787,-10892.128475
623.436670,421.136778,-2048.256146,-7121.040058
623.439216,95.712904,-1933.400661,-10222.138147
623.441761,-593.420005,-287.138712,-10566.704602
623.444307,574.277424,-497.707101,-6910.471669
623.446853,38.285162,-76.570323,-10892.128475
623.449398,-784.845813,1091.127106,-11408.978157
623.451944,363.709035,-555.134843,-6470.192310
623.454489,287.138712,-1722.832272,-10011.569758
623.457035,-1014.556782,-1416.550979,-12193.823970
623.459581,19.142581,-2431.107762,-7484.749093
623.462126,574.277424,-2565.105827,-9322.436850
623.464672,-1033.699363,306.281293,-12289.536874
623.467217,172.283227,497.707101,-7848.458128
623.469763,650.847747,-382.851616,-8269.594906
623.472309,-727.418070,-38.285162,-11944.970419
623.474854,-76.570323,-1359.123237,-8958.727814
623.477400,555.134843,-2201.396792,-8346.165229
623.479945,-823.130974,-669.990328,-11734.402030
623.482491,38.285162,-1167.697429,-8193.024582
623.485037,306.281293,-1110.269686,-8748.159426
623.487582,-555.134843,-153.140646,-11830.114934
623.490128,-153.140646,-574.277424,-9016.155557
623.492673,267.996131,-1091.127106,-8365.307810
623.495219,-229.710970,-76.570323,-11657.831707
623.497765,-401.994197,-19.142581,-8652.446522
623.500310,650.847747,-1607.976787,-8212.167163
623.502856,-325.423874,-1531.406464,-11447.263318
623.505401,-593.420005,-1627.119368,-9590.432981
623.507947,650.847747,-1818.545176,-8652.446522
623.510492,-440.279358,-344.566454,-10911.271056
623.513038,-325.423874,57.427742,-9609.575562
623.515584,516.849682,-650.847747,-8327.022648
623.518129,-516.849682,-421.136778,-10930.413637
623.520675,-95.712904,-1665.404530,-9169.296203
623.523220,172.283227,-1741.974853,-9073.583299
623.525766,-344.566454,-306.281293,-10853.843314
623.528311,-153.140646,-172.283227,-9245.866526
623.530857,459.421939,-1244.267752,-8307.880067
623.533402,-459.421939,-689.132909,-11274.980091
623.535948,-267.996131,-1186.840010,-9322.436850
623.538493,363.709035,-1856.830338,-8384.450390
623.541039,-497.707101,-516.849682,-10968.698798
623.543585,-153.140646,-229.710970,-9437.292334
623.546130,440.279358,-880.558717,-8173.882002
623.548676,-478.564520,-325.423874,-11121.839445
623.551221,-95.712904,-1205.982590,-9858.429112
623.553767,229.710970,-1799.402595,-8729.016845
623.556312,-363.709035,-497.707101,-11370.692995
623.558858,-114.855485,-19.142581,-9418.149754
623.561403,210.568389,-1110.269686,-7408.178770
623.563949,-133.998066,-1244.267752,-11485.548480
623.566495,-440.279358,-1378.265818,-9781.858789
623.569040,114.855485,-1703.689691,-8288.737486
623.571586,-459.421939,-899.701298,-11198.409768
623.574131,-325.423874,-57.427742,-9705.288466
623.576677,612.562586,-593.420005,-7810.172966
623.579222,-306.281293,-76.570323,-10834.700733
623.581768,-535.992262,-727.418070,-10509.276859
623.584313,784.845813,-1971.685822,-7695.317482
623.586859,-440.279358,-803.988394,-10566.704602
623.589404,-421.136778,-133.998066,-10968.698798
623.591950,478.564520,-1282.552914,-6833.901346
623.594496,-421.136778,-1071.984525,-11083.554283
623.597041,-267.996131,-1205.982590,-11006.983960
623.599587,114.855485,-1454.836141,-7944.171032
623.602132,19.142581,-1167.697429,-9839.286531
623.604678,-478.564520,-153.140646,-10987.841379
623.607224,191.425808,-669.990328,-7867.600709
623.609770,38.285162,-631.705166,-10164.710405
623.612317,-440.279358,-708.275490,-10432.706536
623.614863,-57.427742,-1167.697429,-8537.591037
623.617409,-19.142581,-842.273555,-10030.712339
623.619955,-191.425808,-344.566454,-10796.415571
623.622502,-0.000000,-1148.554848,-7657.032320
623.625048,76.570323,-1473.978722,-9915.856854
623.627594,-535.992262,-1052.841944,-11140.982026
623.630141,172.283227,-1512.263883,-8346.165229
623.632687,-95.712904,-880.558717,-10030.712339
623.635233,-459.421939,95.712904,-10336.993632
623.637780,287.138712,-478.564520,-8078.169098
623.640326,-153.140646,-574.277424,-10202.995566
623.642872,-421.136778,-1052.841944,-10183.852986
623.645418,-19.142581,-1569.691626,-8729.016845
623.647965,-0.000000,-1282.552914,-10279.565890
623.650511,-306.281293,-459.421939,-10700.702667
623.653057,76.570323,-784.845813,-7752.745224
623.655604,-0.000000,-1071.984525,-9973.284597
623.658150,-325.423874,-1091.127106,-11121.839445
623.660696,19.142581,-1627.119368,-8403.592971
623.663242,-172.283227,-1033.699363,-9360.722011
623.665789,-38.285162,0.000000,-11447.263318
623.668335,421.136778,-593.420005,-7465.606512
623.670881,-57.427742,-1091.127106,-10011.569758
623.673428,-669.990328,-1091.127106,-11447.263318
623.675974,306.281293,-1416.550979,-8480.163294
623.678520,-555.134843,-669.990328,-9341.579430
623.681066,-95.712904,-19.142581,-11389.835576
623.683613,421.136778,-248.853550,-7752.745224
623.686159,-421.136778,-593.420005,-9150.153622
623.688705,-76.570323,-1799.402595,-11964.113000
623.691252,76.570323,-2373.680019,-8365.307810
623.693798,-382.851616,-1339.980656,-8843.872330
623.696344,-19.142581,-459.421939,-12021.540742
623.698890,-19.142581,-114.855485,-8154.739421
623.701437,-172.283227,19.142581,-8518.448456
623.703983,-38.285162,-401.994197,-12040.683323
623.706529,-19.142581,-1244.267752,-7867.600709
623.709075,-344.566454,-1435.693560,-9150.153622
623.711621,-325.423874,-421.136778,-12021.540742
623.714167,267.996131,-918.843878,-7503.891674
623.716713,-172.283227,-1244.267752,-8729.016845
623.719259,-325.423874,-1205.982590,-12385.249778
623.721805,-76.570323,-1378.265818,-8154.739421
623.724351,76.570323,-1148.554848,-8518.448456
623.726897,-344.566454,-57.427742,-12423.534939
623.729443,-95.712904,-191.425808,-8173.882002
623.731988,172.283227,-574.277424,-7886.743290
623.734534,-306.281293,-669.990328,-12289.536874
623.737080,-114.855485,-1569.691626,-8805.587168
623.739626,229.710970,-1952.543242,-7886.743290
623.742172,-459.421939,-574.277424,-11964.113000
623.744718,114.855485,-210.568389,-8173.882002
623.747264,19.142581,-765.703232,-8154.739421
623.749810,-516.849682,-784.845813,-11830.114934
623.752355,-267.996131,-1875.972918,-8920.442653
623.754901,114.855485,-1933.400661,-8977.870395
623.757447,-95.712904,-918.843878,-11294.122672
623.759993,-516.849682,-19.142581,-8690.731683
623.762539,440.279358,-421.136778,-8499.305875
623.765085,-210.568389,38.285162,-11428.120738
623.767631,-287.138712,-650.847747,-9035.298138
623.770177,497.707101,-1780.260014,-8518.448456
623.772722,-306.281293,-306.281293,-11428.120738
623.775268,-306.281293,-344.566454,-9111.868461
623.777814,612.562586,-1837.687757,-7657.032320
623.780360,-803.988394,-1282.552914,-11964.113000
623.782906,133.998066,-1933.400661,-8690.731683
623.785452,38.285162,-1339.980656,-8729.016845
623.787998,-516.849682,114.855485,-11830.114934
623.790544,133.998066,-76.570323,-8556.733618
623.793089,-0.000000,-172.283227,-7905.885870
623.795635,-210.568389,-555.134843,-11964.113000
623.798181,-38.285162,-1684.547110,-8939.585234
623.800727,19.142581,-1971.685822,-8193.024582
623.803273,-306.281293,-842.273555,-12040.683323
623.805819,937.986459,-1512.263883,-7580.461997
623.808365,-708.275490,-1378.265818,-8307.880067
623.810861,-172.283227,-1473.978722,-13112.667848
623.813357,267.996131,-1416.550979,-7771.887805
623.815853,-669.990328,-382.851616,-8633.303941
623.818349,248.853550,325.423874,-12117.253646
623.820846,-76.570323,1397.408398,-6546.762634
623.823342,-306.281293,459.421939,-10126.425243
623.825838,267.996131,-1148.554848,-12653.245909
623.828334,-38.285162,-2909.672282,-7369.893608
623.830830,-669.990328,-3215.953574,-9245.866526
623.833327,133.998066,-2641.676150,-12806.386555
623.835823,-382.851616,-172.283227,-7255.038123
623.838319,306.281293,57.427742,-8709.874264
623.840815,-363.709035,918.843878,-12940.384621
623.843311,-133.998066,899.701298,-6699.903280
623.845808,133.998066,-1071.984525,-8767.302006
623.848304,-555.134843,-1454.836141,-12978.669782
623.850800,-95.712904,-1493.121302,-7044.469734
623.853296,95.712904,-2967.100024,-11045.269122
623.855792,-459.421939,-2029.113565,-12136.396227
623.858289,210.568389,-1454.836141,-5704.489078
623.860785,-172.283227,-516.849682,-11408.978157
623.863281,-229.710970,765.703232,-12059.825904
623.865777,133.998066,1684.547110,-5589.633594
623.868273,-0.000000,229.710970,-10509.276859
623.870769,-248.853550,-1167.697429,-12672.388490
623.873266,-114.855485,-2297.109696,-5819.344563
623.875762,191.425808,-3675.375514,-10624.132344
623.878258,-727.418070,-2431.107762,-12461.820101
623.880754,306.281293,-765.703232,-6297.909083
623.883250,-19.142581,-153.140646,-10202.995566
623.885747,-478.564520,727.418070,-12327.822035
623.888243,229.710970,708.275490,-6183.053598
623.890739,-191.425808,-1014.556782,-12078.968485
623.893235,-306.281293,-1359.123237,-11006.983960
623.895731,248.853550,-1205.982590,-6049.055533
623.898228,-210.568389,-1761.117434,-11447.263318
623.900724,-248.853550,-1703.689691,-11447.263318
623.903220,172.283227,-1205.982590,-6317.051664
623.905716,-191.425808,-1416.550979,-11217.552349
623.908212,-210.568389,-516.849682,-11581.261384
623.910720,172.283227,746.560651,-6508.477472
623.913229,-76.570323,-19.142581,-10336.993632
623.915737,-210.568389,-535.992262,-11657.831707
623.918245,229.710970,-689.132909,-6967.899411
623.920753,-76.570323,-1990.828403,-10298.708470
623.923261,-363.709035,-2182.254211,-11715.259450
623.925769,19.142581,-631.705166,-7331.608446
623.928277,-210.568389,-1167.697429,-10911.271056
623.930785,-114.855485,-2258.824534,-11255.837510
623.933293,-440.279358,-1301.695494,-6853.043926
623.935802,267.996131,-1703.689691,-11140.982026
623.938310,-248.853550,38.285162,-11026.126541
623.940818,-133.998066,2009.970984,-7389.036189
623.943326,344.566454,746.560651,-9820.143950
623.945834,-229.710970,0.000000,-11217.552349
623.948342,-38.285162,-497.707101,-8135.596840
623.950850,76.570323,-2679.961312,-9590.432981
623.953358,-497.707101,-3139.383251,-11370.692995
623.955866,-95.712904,-1493.121302,-8403.592971
623.958375,57.427742,-1071.984525,-9016.155557
623.960883,-401.994197,-823.130974,-11294.122672
623.963391,-0.000000,363.709035,-8690.731683
623.965899,76.570323,-421.136778,-9743.573627
623.968407,-363.709035,-535.992262,-11715.259450
623.970915,-76.570323,-516.849682,-7963.313613
623.973423,267.996131,-2124.826469,-8729.016845
623.975931,-191.425808,-2143.969050,-12021.540742
623.978440,-114.855485,-1071.984525,-8384.450390
623.980948,57.427742,-1512.263883,-8575.876198
623.983456,-497.707101,-976.271621,-11810.972354
623.985964,38.285162,918.843878,-8690.731683
623.988472,19.142581,937.986459,-8193.024582
623.990980,38.285162,-1014.556782,-10853.843314
623.993488,-191.425808,-1435.693560,-9437.292334
623.995996,191.425808,-2545.963246,-8441.878133
623.998504,-478.564520,-2469.392923,-11734.402030
624.001013,-57.427742,-918.843878,-9284.151688
624.003521,-0.000000,114.855485,-8556.733618
624.006029,-95.712904,95.712904,-11925.827838
624.008537,57.427742,191.425808,-8882.157491
624.011054,-172.283227,-1397.408398,-8059.026517
624.013571,-172.283227,-2469.392923,-11944.970419
624.016089,-153.140646,-325.423874,-9054.440718
624.018606,-57.427742,-133.998066,-7886.743290
624.021123,-172.283227,-1052.841944,-11619.546546
624.023641,-210.568389,-612.562586,-9379.864592
624.026158,229.710970,-1473.978722,-7982.456194
624.028675,-440.279358,-1665.404530,-11868.400096
624.031192,-76.570323,-784.845813,-8977.870395
624.033710,172.283227,-172.283227,-7886.743290
624.036227,-440.279358,-535.992262,-11581.261384
624.038744,191.425808,-1167.697429,-8441.878133
624.041261,-229.710970,-1952.543242,-8499.305875
624.043779,-95.712904,-2048.256146,-11676.974288
624.046296,-172.283227,172.283227,-9169.296203
624.048813,-76.570323,267.996131,-8020.741355
624.051331,-95.712904,-861.416136,-11313.265253
624.053848,-172.283227,-133.998066,-9494.720077
624.056365,-19.142581,-1129.412267,-7695.317482
624.058882,-229.710970,-2086.541307,-12078.968485
624.061400,-38.285162,-1435.693560,-9073.583299
624.063917,133.998066,-803.988394,-8078.169098
624.066434,-401.994197,-1167.697429,-11485.548480
624.068952,-38.285162,-937.986459,-9590.432981
624.071469,38.285162,-612.562586,-7523.034254
624.073986,-172.283227,-727.418070,-11944.970419
624.076503,-153.140646,-191.425808,-9418.149754
624.079021,-38.285162,114.855485,-7599.604578
624.081538,-153.140646,-1263.410333,-11428.120738
624.084055,-95.712904,-1359.123237,-9954.142016
624.086572,-0.000000,-2182.254211,-7484.749093
624.089090,-382.851616,-2660.818731,-11887.542677
624.091607,-19.142581,-1186.840010,-9513.862658
624.094124,-57.427742,650.847747,-7848.458128
624.096642,-76.570323,229.710970,-11140.982026
624.099159,-248.853550,229.710970,-9858.429112
624.101676,191.425808,-708.275490,-7389.036189
624.104193,-363.709035,-2163.111630,-11810.972354
624.106711,-306.281293,-2143.969050,-10126.425243
624.109228,172.283227,-689.132909,-7446.463931
624.111753,-382.851616,-497.707101,-10987.841379
624.114277,-19.142581,-631.705166,-9877.571693
624.116802,19.142581,-899.701298,-7465.606512
624.119327,-593.420005,-1378.265818,-11504.691061
624.121851,153.140646,-1454.836141,-10030.712339
624.124376,38.285162,-229.710970,-7523.034254
624.126901,-727.418070,-574.277424,-11026.126541
624.129426,421.136778,-1359.123237,-10490.134278
624.131950,-210.568389,-497.707101,-7063.612315
624.134475,-95.712904,-1569.691626,-11810.972354
624.137000,-153.140646,-1550.549045,-10298.708470
624.139524,57.427742,229.710970,-7331.608446
624.142049,76.570323,-325.423874,-10968.698798
624.144574,-401.994197,-593.420005,-10432.706536
624.147099,114.855485,-1033.699363,-7503.891674
624.149623,-133.998066,-2067.398726,-10700.702667
624.152148,-114.855485,-1473.978722,-9686.145885
624.154673,229.710970,-325.423874,-8020.741355
624.157197,-172.283227,-880.558717,-10777.272990
624.159722,-114.855485,-976.271621,-10222.138147
624.162247,-76.570323,-229.710970,-8097.311678
624.164772,-114.855485,-1091.127106,-10853.843314
624.167296,-153.140646,-976.271621,-10164.710405
624.169821,-95.712904,401.994197,-8173.882002
624.172346,229.710970,-823.130974,-10375.278794
624.174870,-363.709035,-1627.119368,-10777.272990
624.177395,-57.427742,-1205.982590,-7886.743290
624.179920,-76.570323,-1761.117434,-9954.142016
624.182444,-133.998066,-1244.267752,-11026.126541
624.184969,-38.285162,344.566454,-8193.024582
624.187494,-38.285162,-114.855485,-9475.577496
624.190019,-95.712904,-746.560651,-10202.995566
624.192543,19.142581,-765.703232,-8116.454259
624.195068,-210.568389,-1952.543242,-10834.700733
624.197593,-133.998066,-2143.969050,-10241.280728
624.200117,-57.427742,-306.281293,-8078.169098
624.202642,-38.285162,-459.421939,-10490.134278
624.205167,-172.283227,-861.416136,-10183.852986
624.207692,-57.427742,-593.420005,-8288.737486
624.210216,-19.142581,-1761.117434,-10375.278794
624.212702,-172.283227,-1531.406464,-10490.134278
624.215187,-0.000000,-76.570323,-8671.589102
624.217672,-133.998066,-191.425808,-9322.436850
624.220157,-38.285162,-727.418070,-10719.845248
624.222643,-114.855485,-191.425808,-8863.014910
624.225128,-19.142581,-1761.117434,-9188.438784
624.227613,-153.140646,-1914.258080,-10356.136213
624.230099,-114.855485,-57.427742,-8518.448456
624.232584,95.712904,-210.568389,-9724.431046
624.235069,-306.281293,-612.562586,-10451.849117
624.237554,-57.427742,-631.705166,-8614.161360
624.240040,-0.000000,-1895.115499,-9379.864592
624.242525,-172.283227,-2124.826469,-11026.126541
624.245010,-38.285162,-516.849682,-8939.585234
624.247496,-95.712904,-497.707101,-8882.157491
624.249981,-19.142581,-842.273555,-10872.985894
624.252466,-38.285162,153.140646,-9169.296203
624.254951,-19.142581,-727.418070,-8556.733618
624.257437,-153.140646,-1588.834206,-11255.837510
624.259922,-95.712904,-593.420005,-9418.149754
624.262407,-19.142581,-669.990328,-8173.882002
624.264893,-172.283227,-1493.121302,-11102.696864
624.267378,-38.285162,-689.132909,-8997.012976
624.269863,-76.570323,-1378.265818,-8748.159426
624.272349,-267.996131,-1569.691626,-11351.550414
624.274834,-57.427742,-287.138712,-8939.585234
624.277319,-172.283227,-133.998066,-8480.163294
624.279804,-114.855485,-899.701298,-11408.978157
624.282290,-57.427742,-593.420005,-9054.440718
624.284775,-133.998066,-1531.406464,-8173.882002
624.287260,-19.142581,-2201.396792,-11600.403965
624.289746,-153.140646,-555.134843,-9284.151688
624.292231,38.285162,-172.283227,-8307.880067
624.294716,-210.568389,-650.847747,-10968.698798
624.297201,-306.281293,-287.138712,-9647.860723
624.299687,267.996131,-1454.836141,-8269.594906
624.302172,-784.845813,-1837.687757,-11026.126541
624.304657,478.564520,-1129.412267,-9303.294269
624.307143,-191.425808,287.138712,-8193.024582
624.309628,-0.000000,-497.707101,-11389.835576
