#time,accel_x,accel_y,accel_z
255.097594,2911.162892,-0.000000,9400.615463
255.097903,2528.115143,-0.000000,9548.656652
255.098211,3140.991542,-296.082377,9400.615463
255.098519,3064.381992,-0.000000,9474.636058
255.098827,3447.429741,-0.000000,9474.636058
255.099135,3524.039291,814.226536,8882.471304
255.099443,3600.648841,740.205942,9474.636058
255.099751,3907.087040,592.164754,9252.574275
255.100059,3830.477490,888.247130,9104.533087
255.100367,3600.648841,962.267725,8734.430116
255.100676,3370.820191,1036.288319,8882.471304
255.100984,3524.039291,888.247130,8882.471304
255.101292,3447.429741,1110.308913,9474.636058
255.101600,2834.553343,592.164754,9474.636058
255.101908,2681.334243,148.041188,9770.718434
255.102216,2451.505594,-148.041188,10436.903782
255.102524,2068.457845,-666.185348,10881.027347
255.102832,1991.848295,-1110.308913,11029.068536
255.103140,1915.238745,-1332.370696,11177.109724
255.103448,2604.724693,-1332.370696,11251.130318
255.103757,2681.334243,-1036.288319,10807.006753
255.104065,3217.601092,-592.164754,9992.780217
255.104373,3524.039291,-740.205942,9992.780217
255.104681,3753.867940,-296.082377,9548.656652
255.104989,3983.696590,-370.102971,9474.636058
255.105297,3600.648841,-296.082377,9326.594869
255.105605,4290.134789,-444.123565,9178.553681
255.105913,4366.744339,-0.000000,8956.491898
255.106221,4519.963438,-0.000000,8808.450710
255.106530,4366.744339,-0.000000,9030.512492
255.106838,4749.792088,296.082377,9030.512492
255.107146,4596.572988,592.164754,8808.450710
255.107454,4903.011187,592.164754,8586.388927
255.107762,4979.620737,962.267725,8734.430116
255.108070,4826.401637,962.267725,8364.327145
255.108378,5592.497135,814.226536,8512.368333
255.108686,5515.887586,1258.350101,8660.409521
255.108994,5362.668486,1184.329507,8586.388927
255.109303,5056.230287,1184.329507,8882.471304
255.109611,5056.230287,1110.308913,8734.430116
255.109919,4673.182538,1110.308913,9104.533087
255.110227,4519.963438,1110.308913,9326.594869
255.110535,4519.963438,962.267725,9844.739029
255.110843,4213.525239,666.185348,9622.677246
255.111151,3830.477490,666.185348,10658.965565
255.111459,3370.820191,222.061783,10510.924376
255.111767,2834.553343,-0.000000,10807.006753
255.112076,2451.505594,-222.061783,10955.047942
255.112384,2374.896044,-296.082377,11177.109724
255.112692,2145.067394,-1036.288319,11177.109724
255.113000,2681.334243,-888.247130,10881.027347
255.113308,2834.553343,-814.226536,10214.842000
255.113616,2987.772442,-1110.308913,9992.780217
255.113924,3524.039291,-444.123565,10436.903782
255.114232,3983.696590,-222.061783,9844.739029
255.114540,4213.525239,-518.144159,9770.718434
255.114849,4596.572988,-74.020594,9326.594869
255.115157,5056.230287,-370.102971,8956.491898
255.115465,4443.353888,-370.102971,9548.656652
255.115773,5209.449386,-148.041188,9400.615463
255.116081,4903.011187,-444.123565,9326.594869
255.116389,4826.401637,-0.000000,9178.553681
255.116697,4826.401637,-0.000000,9400.615463
255.117005,4903.011187,-0.000000,9326.594869
255.117313,4673.182538,-222.061783,9474.636058
255.117622,4903.011187,-0.000000,9326.594869
255.117930,4519.963438,740.205942,8512.368333
255.118238,4749.792088,518.144159,9030.512492
255.118546,4596.572988,296.082377,8586.388927
255.118854,4213.525239,1554.432478,8438.347739
255.119162,4213.525239,2146.597232,8290.306550
255.119470,3983.696590,2368.659014,7698.141797
255.119778,3677.258390,3182.885551,7846.182985
255.120086,4366.744339,2886.803174,8216.285956
255.120395,4060.306139,2442.679609,8882.471304
255.120703,2987.772442,1554.432478,9918.759623
255.121011,2221.676944,-0.000000,10362.883188
255.121319,689.485948,-1184.329507,11843.295072
255.121627,76.609550,-3108.864956,13323.706956
255.121935,-459.657299,-4071.132681,14137.933492
255.122243,-689.485948,-4441.235652,14137.933492
255.122551,306.438199,-4441.235652,13175.665768
255.122859,1991.848295,-3775.050304,11917.315666
255.123167,3294.210641,-1406.391290,10214.842000
255.123476,5209.449386,370.102971,8512.368333
255.123784,6588.421283,2146.597232,6809.894666
255.124092,8197.221829,3256.906145,6291.750507
255.124400,7814.174080,4515.256246,4737.318029
255.124708,7048.078582,4959.379811,4219.173869
255.125016,6511.811733,4663.297435,5403.503377
255.125324,4826.401637,4145.153275,6143.709319
255.125632,2681.334243,3627.009116,6957.935855
255.125940,1532.190996,2738.761985,8512.368333
255.126249,766.095498,1110.308913,9918.759623
255.126557,-229.828649,-444.123565,10362.883188
255.126865,-1762.019645,-1554.432478,11547.212695
255.127173,-1685.410096,-3256.906145,13693.809927
255.127481,-2451.505594,-4737.318029,14804.118840
255.127789,-2221.676944,-4515.256246,14952.160028
255.128097,-995.924147,-4145.153275,14434.015869
255.128405,-919.314598,-4071.132681,12953.603985
255.128713,383.047749,-3330.926739,12287.418637
255.129022,1302.362347,-2220.617826,11103.089130
255.129330,2911.162892,-1924.535449,10436.903782
255.129638,2681.334243,-148.041188,8290.306550
255.129946,3370.820191,1332.370696,7624.121203
255.130254,4519.963438,1702.473667,7402.059420
255.130562,4749.792088,2442.679609,6513.812290
255.130870,3983.696590,3701.029710,5625.565159
255.131179,4290.134789,3923.091493,5107.421000
255.131487,4136.915689,3256.906145,6217.729913
255.131795,2987.772442,2664.741391,6439.791695
255.132103,2221.676944,1332.370696,8512.368333
255.132411,995.924147,-592.164754,10288.862594
255.132719,-612.876398,-1702.473667,11695.253884
255.133028,-1302.362347,-2294.638420,12879.583391
255.133336,0.000000,-2368.659014,12435.459826
255.133644,-229.828649,-1702.473667,12509.480420
255.133952,383.047749,-1110.308913,11029.068536
255.134260,1455.581446,-74.020594,9770.718434
255.134568,2221.676944,1110.308913,8216.285956
255.134877,3064.381992,2738.761985,6883.915261
255.135185,3140.991542,3552.988522,7179.997637
255.135493,3907.087040,4293.194464,7031.956449
255.135801,3447.429741,3330.926739,8142.265362
255.136109,1762.019645,1850.514855,9030.512492
255.136418,153.219100,518.144159,10510.924376
255.136726,-1608.800546,-1924.535449,12361.439231
255.137034,-2528.115143,-3627.009116,14211.954086
255.137342,-2528.115143,-4589.276840,15174.221811
255.137650,-1915.238745,-4441.235652,14137.933492
255.137958,-536.266849,-4071.132681,12953.603985
255.138267,1378.971896,-2072.576638,11103.089130
255.138575,2451.505594,370.102971,7994.224174
255.138883,4136.915689,2220.617826,6439.791695
255.139191,4596.572988,3923.091493,5329.482782
255.139499,5286.058936,4959.379811,4737.318029
255.139807,5439.278036,5329.482782,3775.050304
255.140116,5056.230287,4885.359217,4441.235652
255.140424,3524.039291,2812.782580,6587.832884
255.140732,383.047749,-1406.391290,10140.821405
255.141040,-1532.190996,-3108.864956,12953.603985
255.141348,-4366.744339,-5699.585753,14508.036463
255.141656,-4826.401637,-7698.141797,16432.571912
255.141965,-4136.915689,-7031.956449,16062.468941
255.142273,-2298.286494,-4959.379811,14063.912898
255.142581,459.657299,-3182.885551,11547.212695
255.142889,2604.724693,-74.020594,8512.368333
255.143197,4749.792088,3627.009116,5699.585753
255.143505,5898.935335,5773.606348,4367.215058
255.143814,7660.954980,7772.162391,3775.050304
255.144122,7354.516781,8364.327145,2368.659014
255.144430,6511.811733,7402.059420,3478.967927
255.144738,4443.353888,4293.194464,6735.874072
255.145046,1378.971896,-222.061783,10658.965565
255.145354,-2757.943793,-3997.112087,13841.851115
255.145663,-4903.011187,-5921.647536,15396.283594
255.145971,-5592.497135,-7254.018232,16654.633695
255.146279,-4519.963438,-7328.038826,17172.777854
255.146587,-1991.848295,-4737.318029,14582.057057
255.146895,536.266849,-1332.370696,10807.006753
255.147203,2911.162892,1036.288319,7476.080014
255.147512,4673.182538,4885.359217,5255.462188
255.147820,6128.763984,7105.977043,4885.359217
255.148128,7277.907231,8364.327145,3404.947333
255.148436,6435.202183,9252.574275,2072.576638
255.148744,5209.449386,6735.874072,4071.132681
255.149052,2068.457845,2146.597232,8142.265362
255.149361,-1762.019645,-2220.617826,12509.480420
255.149669,-5362.668486,-5847.626942,15470.304188
255.149977,-7277.907231,-8956.491898,17024.736666
255.150285,-6894.859482,-10066.800811,17912.983796
255.150593,-4136.915689,-7254.018232,16802.674883
255.150901,-536.266849,-2886.803174,12361.439231
255.151210,2451.505594,-222.061783,7846.182985
255.151518,4903.011187,3478.967927,4441.235652
255.151826,6588.421283,7105.977043,3034.844362
255.152134,8273.831378,8512.368333,3182.885551
255.152442,7584.345430,9104.533087,2442.679609
255.152750,4903.011187,8512.368333,2146.597232
255.153059,2451.505594,4145.153275,6883.915261
255.153367,-1149.143247,-1036.288319,11843.295072
255.153675,-4903.011187,-5033.400406,15322.262999
255.153983,-8580.269578,-8290.306550,18357.107362
255.154291,-9729.412825,-11473.192101,20133.601622
255.154599,-8044.002729,-10510.924376,19245.354492
255.154908,-4519.963438,-6513.812290,16062.468941
255.155216,-919.314598,-2590.720797,10362.883188
255.155524,2451.505594,1036.288319,5699.585753
255.155832,4673.182538,6069.688724,3775.050304
255.156140,7048.078582,8586.388927,3034.844362
255.156448,7814.174080,9622.677246,1998.556043
255.156757,6818.249932,10288.862594,814.226536
255.157065,5515.887586,7846.182985,2294.638420
255.157373,2604.724693,3701.029710,6513.812290
255.157681,-842.705048,-1998.556043,12953.603985
255.157989,-5056.230287,-5921.647536,16136.489536
255.158297,-8044.002729,-8216.285956,16432.571912
255.158606,-8427.050478,-9474.636058,18135.045579
255.158914,-5592.497135,-7179.997637,16728.654289
255.159222,-1915.238745,-3182.885551,12657.521608
255.159530,1838.629195,444.123565,8364.327145
255.159838,4519.963438,3923.091493,4515.256246
255.160147,6818.249932,7476.080014,3701.029710
255.160455,7967.393179,8068.244768,3849.070898
255.160763,6588.421283,8660.409521,2368.659014
255.161071,4519.963438,7476.080014,3182.885551
255.161379,1608.800546,2812.782580,7994.224174
255.161687,-1225.752797,-2664.741391,13619.789333
255.161996,-4519.963438,-6365.771101,17024.736666
255.162304,-7201.297681,-8808.450710,17764.942608
255.162612,-9039.926876,-12139.377449,18801.230927
255.162920,-7584.345430,-11029.068536,19097.313304
255.163228,-4519.963438,-6143.709319,15470.304188
255.163536,0.000000,-1480.411884,9844.739029
255.163845,3830.477490,2590.720797,4515.256246
255.164153,6588.421283,6661.853478,1776.494261
255.164461,9269.755526,9252.574275,1258.350101
255.164769,9882.631924,9918.759623,222.061783
255.165077,9193.145976,9696.697840,-148.041188
255.165385,6511.811733,7105.977043,2812.782580
255.165694,3064.381992,1702.473667,7698.141797
255.166002,-1532.190996,-3627.009116,12509.480420
255.166310,-4903.011187,-6439.791695,15988.448347
255.166618,-7431.126331,-8956.491898,16654.633695
255.166926,-7277.907231,-10066.800811,18801.230927
255.167234,-4749.792088,-6735.874072,16432.571912
255.167543,-1149.143247,-3182.885551,13027.624579
255.167851,2068.457845,1184.329507,7402.059420
255.168159,5592.497135,5181.441594,4145.153275
255.168467,7660.954980,8438.347739,3849.070898
255.168775,8886.707777,8438.347739,3849.070898
255.169083,7201.297681,9104.533087,2590.720797
255.169392,4903.011187,7254.018232,4145.153275
255.169700,1762.019645,2072.576638,8660.409521
255.170008,-1915.238745,-3034.844362,14878.139434
255.170316,-4903.011187,-6217.729913,17690.922014
255.170624,-7277.907231,-8142.265362,17987.004391
255.170932,-8197.221829,-10510.924376,18801.230927
255.171241,-6358.592633,-8734.430116,17764.942608
255.171549,-2145.067394,-3997.112087,13619.789333
255.171857,1608.800546,370.102971,8586.388927
255.172165,5822.325785,4515.256246,3627.009116
255.172473,8273.831378,8734.430116,2146.597232
255.172781,9499.584175,9474.636058,2146.597232
255.173090,9729.412825,9696.697840,518.144159
255.173398,7048.078582,8882.471304,518.144159
255.173706,4443.353888,5033.400406,5477.523971
255.174014,995.924147,-962.267725,11029.068536
255.174322,-2834.553343,-4441.235652,15026.180623
255.174630,-5745.716235,-6439.791695,15692.365970
255.174939,-7967.393179,-10140.821405,17690.922014
255.175247,-6741.640382,-10510.924376,18727.210333
255.175555,-4749.792088,-5625.565159,15988.448347
255.175863,0.000000,-1924.535449,11843.295072
255.176171,3217.601092,2072.576638,6809.894666
255.176479,5822.325785,6661.853478,2738.761985
255.176788,7890.783629,8512.368333,3182.885551
255.177096,8503.660028,7846.182985,3478.967927
255.177404,5745.716235,7994.224174,2738.761985
255.177712,3753.867940,6069.688724,5033.400406
255.178020,1149.143247,-0.000000,10436.903782
255.178328,-3370.820191,-4663.297435,15100.201217
255.178637,-6128.763984,-6661.853478,17024.736666
255.178945,-7967.393179,-9104.533087,17838.963202
255.179253,-8350.440928,-10881.027347,18283.086767
255.179561,-5898.935335,-7105.977043,17172.777854
255.179869,-1532.190996,-2294.638420,11843.295072
255.180177,842.705048,1998.556043,5625.565159
255.180486,5439.278036,6587.832884,2442.679609
255.180794,7354.516781,7698.141797,3034.844362
255.181102,8120.612279,9252.574275,1998.556043
255.181410,7048.078582,9474.636058,370.102971
255.181718,4826.401637,6365.771101,3552.988522
255.182026,2145.067394,2590.720797,8142.265362
255.182335,-1532.190996,-2072.576638,13027.624579
255.182643,-4903.011187,-5773.606348,15618.345376
255.182951,-7737.564530,-7920.203579,15766.386565
255.183259,-7890.783629,-9992.780217,17838.963202
255.183567,-6205.373534,-7550.100608,17320.819043
255.183876,-3447.429741,-4219.173869,13841.851115
255.184184,766.095498,-370.102971,10066.800811
255.184492,4443.353888,3701.029710,4663.297435
255.184800,6435.202183,7920.203579,2812.782580
255.185108,8503.660028,7254.018232,3552.988522
255.185416,7048.078582,8364.327145,2072.576638
255.185725,5209.449386,7254.018232,3256.906145
255.186033,1991.848295,2960.823768,7624.121203
255.186341,-1532.190996,-2368.659014,13545.768739
255.186649,-4673.182538,-5477.523971,16210.510130
255.186957,-7277.907231,-8068.244768,16506.592507
255.187265,-8044.002729,-9918.759623,18135.045579
255.187574,-7048.078582,-8660.409521,17616.901420
255.187882,-3064.381992,-4663.297435,14804.118840
255.188190,229.828649,-74.020594,9178.553681
255.188498,4443.353888,4441.235652,4367.215058
255.188806,7660.954980,7624.121203,2072.576638
255.189114,8810.098227,7698.141797,2960.823768
255.189423,8810.098227,8808.450710,518.144159
255.189731,6511.811733,8068.244768,814.226536
255.190039,4290.134789,5033.400406,5551.544565
255.190347,995.924147,444.123565,9622.677246
255.190655,-2298.286494,-3775.050304,14656.077652
255.190963,-4903.011187,-6143.709319,16210.510130
255.191272,-7124.688131,-8586.388927,16506.592507
255.191580,-6588.421283,-8438.347739,18135.045579
255.191888,-3677.258390,-5255.462188,15692.365970
255.192196,-689.485948,-2220.617826,11695.253884
255.192504,2298.286494,2442.679609,7550.100608
255.192812,5745.716235,6439.791695,4515.256246
255.193121,7354.516781,6513.812290,4071.132681
255.193429,7814.174080,7254.018232,3034.844362
255.193737,6358.592633,7846.182985,2146.597232
255.194045,3907.087040,4367.215058,5995.668130
255.194353,1225.752797,370.102971,10066.800811
255.194661,-2374.896044,-4071.132681,15100.201217
255.194970,-4443.353888,-6143.709319,16950.716072
255.195278,-6818.249932,-8364.327145,16580.613101
255.195586,-6818.249932,-8734.430116,17172.777854
255.195894,-4060.306139,-5477.523971,15322.262999
255.196202,-689.485948,-2368.659014,11843.295072
255.196510,3677.258390,2368.659014,7105.977043
255.196819,6128.763984,6439.791695,2960.823768
255.197127,7737.564530,7105.977043,3034.844362
255.197435,8810.098227,8364.327145,2368.659014
255.197743,7507.735880,8882.471304,740.205942
255.198051,5745.716235,6143.709319,3478.967927
255.198359,3140.991542,2220.617826,8068.244768
255.198668,-919.314598,-1998.556043,12213.398043
255.198976,-3907.087040,-5847.626942,15914.427753
255.199284,-6435.202183,-7920.203579,16432.571912
255.199592,-7507.735880,-8808.450710,17616.901420
255.199900,-5898.935335,-6883.915261,17098.757260
255.200208,-2451.505594,-3701.029710,13397.727550
255.200517,842.705048,-0.000000,9548.656652
255.200825,3753.867940,4737.318029,4959.379811
255.201133,6205.373534,6587.832884,3849.070898
255.201441,7814.174080,7476.080014,4219.173869
255.201749,6971.469032,7994.224174,2590.720797
255.202057,5439.278036,6661.853478,3627.009116
255.202366,2298.286494,3034.844362,7550.100608
255.202674,-842.705048,-1776.494261,13101.645173
255.202982,-3600.648841,-5181.441594,16062.468941
255.203290,-6818.249932,-7624.121203,17024.736666
255.203598,-7584.345430,-9326.594869,17468.860231
255.203906,-6665.030833,-7698.141797,17246.798449
255.204215,-2987.772442,-4219.173869,14656.077652
255.204523,383.047749,-148.041188,9104.533087
255.204831,4213.525239,5033.400406,3997.112087
255.205139,6358.592633,6513.812290,2590.720797
255.205447,8044.002729,8068.244768,2812.782580
255.205755,8197.221829,8956.491898,740.205942
255.206064,6358.592633,7550.100608,1480.411884
255.206372,4213.525239,3997.112087,5921.647536
255.206680,1149.143247,148.041188,9474.636058
255.206988,-2911.162892,-3701.029710,14582.057057
255.207296,-5515.887586,-6439.791695,15618.345376
255.207605,-6818.249932,-7920.203579,16284.530724
255.207913,-6435.202183,-8068.244768,17912.983796
255.208221,-4366.744339,-5033.400406,14878.139434
255.208529,-766.095498,-2146.597232,12287.418637
255.208837,2604.724693,2294.638420,7179.997637
255.209145,5592.497135,5921.647536,3775.050304
255.209454,7354.516781,5847.626942,3552.988522
255.209762,7660.954980,7031.956449,2886.803174
255.210070,6205.373534,7772.162391,2442.679609
255.210378,3753.867940,4663.297435,5699.585753
255.210686,842.705048,-74.020594,10658.965565
255.210994,-2834.553343,-3997.112087,15618.345376
255.211303,-5898.935335,-6735.874072,16876.695478
255.211611,-7354.516781,-8956.491898,17394.839637
255.211919,-7354.516781,-8734.430116,17394.839637
255.212227,-5209.449386,-5773.606348,15766.386565
255.212535,-1685.410096,-2220.617826,12287.418637
255.212843,2451.505594,2664.741391,6957.935855
255.213152,5515.887586,6439.791695,2220.617826
255.213460,7354.516781,6365.771101,3182.885551
255.213768,8580.269578,7698.141797,2146.597232
255.214076,6128.763984,8734.430116,370.102971
255.214384,5362.668486,5625.565159,4293.194464
255.214692,2298.286494,1998.556043,7402.059420
255.215001,-1302.362347,-2072.576638,12435.459826
255.215309,-3907.087040,-4959.379811,15914.427753
255.215617,-6435.202183,-7105.977043,15766.386565
255.215925,-7277.907231,-8808.450710,17320.819043
255.216233,-4903.011187,-6217.729913,16358.551318
255.216541,-2068.457845,-3701.029710,13249.686362
255.216850,1072.533697,592.164754,9622.677246
255.217158,4749.792088,4885.359217,4293.194464
255.217466,6358.592633,6439.791695,3478.967927
255.217774,7507.735880,7550.100608,3478.967927
255.218082,6971.469032,7550.100608,3108.864956
255.218390,4290.134789,5773.606348,4959.379811
255.218699,1762.019645,1258.350101,8586.388927
255.219007,-1532.190996,-2664.741391,13323.706956
255.219315,-4749.792088,-5625.565159,16358.551318
255.219623,-6971.469032,-8290.306550,17764.942608
255.219931,-7354.516781,-9178.553681,17764.942608
255.220239,-6205.373534,-7105.977043,16802.674883
255.220548,-3217.601092,-4293.194464,14211.954086
255.220856,1225.752797,370.102971,9400.615463
255.221164,4519.963438,4885.359217,4145.153275
255.221472,6281.983084,5995.668130,3182.885551
255.221780,8044.002729,7920.203579,2368.659014
255.222088,7354.516781,8882.471304,1406.391290
255.222397,5975.544884,7476.080014,2442.679609
255.222705,3907.087040,3775.050304,5699.585753
255.223013,766.095498,222.061783,10288.862594
255.223321,-1991.848295,-3330.926739,14211.954086
255.223629,-4903.011187,-6587.832884,15396.283594
255.223937,-6818.249932,-7920.203579,15914.427753
255.224246,-5439.278036,-7328.038826,17320.819043
255.224554,-3753.867940,-4441.235652,14434.015869
255.224862,0.000000,-1036.288319,11103.089130
255.225170,3140.991542,3627.009116,6069.688724
255.225478,5209.449386,5477.523971,3997.112087
255.225786,7431.126331,7254.018232,3478.967927
255.226095,7124.688131,7402.059420,2738.761985
255.226403,5286.058936,6439.791695,3701.029710
255.226711,2834.553343,3034.844362,7031.956449
255.227019,0.000000,-666.185348,11621.233289
255.227327,-2911.162892,-4589.276840,15618.345376
255.227635,-6281.983084,-7328.038826,16728.654289
255.227944,-7048.078582,-8734.430116,17987.004391
255.228252,-7277.907231,-8068.244768,17468.860231
255.228560,-4749.792088,-5773.606348,15100.201217
255.228868,0.000000,-1406.391290,11843.295072
255.229176,3753.867940,4219.173869,5033.400406
255.229484,5745.716235,5995.668130,2886.803174
255.229793,7890.783629,7994.224174,2664.741391
255.230101,8503.660028,8734.430116,888.247130
255.230409,7354.516781,8734.430116,296.082377
255.230717,5286.058936,4737.318029,4589.276840
255.231025,2145.067394,1998.556043,7624.121203
255.231334,0.000000,-1998.556043,12361.439231
255.231642,-4443.353888,-5847.626942,14878.139434
255.231950,-6281.983084,-7402.059420,16062.468941
255.232258,-6588.421283,-7920.203579,17542.880825
255.232566,-5132.839837,-6143.709319,16580.613101
255.232874,-2298.286494,-3478.967927,12657.521608
255.233182,1149.143247,1110.308913,9548.656652
255.233491,4903.011187,5329.482782,5181.441594
255.233799,6358.592633,6143.709319,3923.091493
255.234107,7354.516781,7402.059420,3552.988522
255.234415,6052.154434,8142.265362,2368.659014
255.234723,4366.744339,5255.462188,4959.379811
255.235031,1685.410096,962.267725,9104.533087
255.235339,-1532.190996,-3404.947333,14211.954086
255.235648,-4749.792088,-6143.709319,17246.798449
255.235956,-7354.516781,-8882.471304,17024.736666
255.236264,-6894.859482,-9696.697840,18209.066173
255.236572,-5975.544884,-6661.853478,16284.530724
255.236880,-2068.457845,-3997.112087,13323.706956
255.237188,1455.581446,1554.432478,7772.162391
255.237496,5132.839837,6069.688724,4441.235652
255.237805,7201.297681,5995.668130,2368.659014
255.238113,8427.050478,8882.471304,1258.350101
255.238421,8886.707777,9474.636058,0.000000
255.238729,6894.859482,7402.059420,2146.597232
255.239037,3447.429741,3997.112087,5477.523971
255.239345,306.438199,-296.082377,11251.130318
255.239653,-2834.553343,-3923.091493,14878.139434
255.239962,-6511.811733,-6957.935855,16210.510130
255.240270,-7584.345430,-9548.656652,17542.880825
255.240578,-6511.811733,-7624.121203,18357.107362
255.240886,-4366.744339,-5699.585753,15396.283594
255.241194,-1225.752797,-2072.576638,12435.459826
255.241502,2528.115143,3404.947333,6513.812290
255.241811,5362.668486,5255.462188,4367.215058
255.242119,6894.859482,7772.162391,3182.885551
255.242427,7584.345430,8438.347739,1628.453072
255.242735,6665.030833,7179.997637,3256.906145
255.243043,3217.601092,3923.091493,6661.853478
255.243351,229.828649,-444.123565,11325.150913
255.243659,-2221.676944,-4441.235652,16358.551318
255.243968,-6971.469032,-7328.038826,16876.695478
255.244276,-7967.393179,-9178.553681,17690.922014
255.244584,-7967.393179,-8734.430116,17838.963202
255.244892,-5362.668486,-5551.544565,16210.510130
255.245200,-306.438199,-2368.659014,11547.212695
255.245508,3217.601092,4367.215058,5255.462188
255.245816,6052.154434,4811.338623,4293.194464
255.246125,7660.954980,7698.141797,2220.617826
255.246433,8580.269578,9030.512492,814.226536
255.246741,6971.469032,8290.306550,962.267725
255.247049,5286.058936,5403.503377,4071.132681
255.247357,2221.676944,2368.659014,8142.265362
255.247665,-383.047749,-1554.432478,12805.562797
255.247973,-4290.134789,-5551.544565,14952.160028
255.248282,-6205.373534,-7550.100608,15914.427753
255.248590,-6588.421283,-8364.327145,17024.736666
255.248898,-5439.278036,-6143.709319,16136.489536
255.249206,-2145.067394,-3627.009116,13101.645173
255.249514,1225.752797,1702.473667,9030.512492
255.249822,4519.963438,4737.318029,4589.276840
255.250131,6894.859482,5847.626942,3478.967927
255.250439,7507.735880,7550.100608,3182.885551
255.250747,6741.640382,7476.080014,1998.556043
255.251055,4673.182538,5107.421000,4885.359217
255.251363,1838.629195,962.267725,8734.430116
255.251671,-1072.533697,-3256.906145,14211.954086
255.251979,-4903.011187,-6439.791695,16432.571912
255.252288,-6741.640382,-8882.471304,17394.839637
255.252596,-6971.469032,-9252.574275,17912.983796
255.252904,-5515.887586,-6809.894666,16062.468941
255.253212,-1915.238745,-3923.091493,13027.624579
255.253520,2145.067394,2368.659014,7772.162391
255.253828,5209.449386,5477.523971,3997.112087
255.254136,7354.516781,5995.668130,2664.741391
255.254445,8350.440928,7994.224174,1184.329507
255.254753,8197.221829,8956.491898,0.000000
255.255061,6358.592633,7179.997637,2368.659014
255.255369,3983.696590,3701.029710,5995.668130
255.255677,1072.533697,-0.000000,10362.883188
255.255985,-2604.724693,-4145.153275,14063.912898
255.256293,-5898.935335,-6587.832884,15766.386565
255.256602,-6971.469032,-8734.430116,16950.716072
255.256910,-6971.469032,-7624.121203,17394.839637
255.257218,-4060.306139,-5181.441594,15248.242405
255.257526,0.000000,-1258.350101,11547.212695
255.257834,2528.115143,3330.926739,7179.997637
255.258142,5975.544884,6143.709319,3108.864956
255.258450,7507.735880,7772.162391,2368.659014
255.258759,7660.954980,8512.368333,2812.782580
255.259067,6511.811733,7105.977043,3997.112087
255.259375,3370.820191,3775.050304,7254.018232
255.259683,229.828649,-666.185348,11917.315666
255.259991,-3600.648841,-4885.359217,15248.242405
255.260299,-5592.497135,-7105.977043,17838.963202
255.260608,-7584.345430,-9104.533087,17764.942608
255.260916,-6741.640382,-8216.285956,17838.963202
255.261224,-4290.134789,-5995.668130,15840.407159
255.261532,-229.828649,-1036.288319,10881.027347
255.261840,3370.820191,2738.761985,6957.935855
255.262148,6511.811733,5773.606348,2664.741391
255.262456,7431.126331,7698.141797,1554.432478
255.262765,8350.440928,7698.141797,1776.494261
255.263073,7814.174080,8290.306550,1702.473667
255.263381,4903.011187,5921.647536,4367.215058
255.263689,2451.505594,2590.720797,8216.285956
255.263997,-1378.971896,-1998.556043,12065.356855
255.264305,-4979.620737,-5181.441594,14952.160028
255.264613,-6435.202183,-7698.141797,17246.798449
255.264922,-7431.126331,-8512.368333,18357.107362
255.265230,-6281.983084,-6513.812290,16358.551318
255.265538,-2911.162892,-2886.803174,13471.748144
255.265846,1378.971896,1480.411884,8808.450710
255.266154,4673.182538,4367.215058,4811.338623
255.266462,6588.421283,7105.977043,2516.700203
255.266770,7507.735880,7920.203579,1998.556043
255.267079,7354.516781,7254.018232,3256.906145
255.267387,4366.744339,5329.482782,4885.359217
255.267695,1455.581446,1628.453072,8882.471304
255.268003,-1915.238745,-2664.741391,14211.954086
255.268311,-5515.887586,-5773.606348,15766.386565
255.268619,-7277.907231,-8068.244768,17098.757260
255.268927,-7814.174080,-8734.430116,17912.983796
255.269236,-6052.154434,-7624.121203,16654.633695
255.269544,-2374.896044,-4441.235652,13545.768739
255.269852,1685.410096,1406.391290,7328.038826
255.270160,4979.620737,4441.235652,3256.906145
255.270468,7048.078582,6513.812290,1850.514855
255.270776,8580.269578,8364.327145,1554.432478
255.271085,8503.660028,8364.327145,1110.308913
255.271393,5898.935335,7105.977043,2294.638420
255.271701,3447.429741,3849.070898,5921.647536
255.272009,229.828649,-518.144159,10436.903782
255.272317,-4060.306139,-4145.153275,14137.933492
255.272625,-6588.421283,-7254.018232,15988.448347
255.272933,-7354.516781,-8956.491898,17320.819043
255.273242,-7201.297681,-8216.285956,17468.860231
255.273550,-4519.963438,-5107.421000,15026.180623
255.273858,153.219100,-1110.308913,11547.212695
255.274166,3907.087040,3404.947333,5847.626942
255.274474,5439.278036,5625.565159,2442.679609
255.274782,8503.660028,6957.935855,3404.947333
255.275090,7431.126331,7994.224174,2516.700203
255.275399,6052.154434,6365.771101,4071.132681
255.275707,2911.162892,2960.823768,7105.977043
255.276015,-536.266849,-1036.288319,12065.356855
255.276323,-3677.258390,-4219.173869,15618.345376
255.276631,-6281.983084,-6883.915261,16432.571912
255.276939,-7431.126331,-9030.512492,18579.169144
255.277247,-6205.373534,-8142.265362,17468.860231
255.277556,-3294.210641,-5403.503377,15618.345376
255.277864,919.314598,-1406.391290,11029.068536
255.278172,3907.087040,3330.926739,5329.482782
255.278480,7124.688131,6069.688724,2886.803174
255.278788,7814.174080,7550.100608,2146.597232
255.279096,8503.660028,8882.471304,1850.514855
255.279405,6511.811733,8290.306550,1998.556043
255.279713,4749.792088,6143.709319,4737.318029
255.280021,2068.457845,2072.576638,8660.409521
255.280329,-1378.971896,-2220.617826,12657.521608
255.280637,-4749.792088,-5107.421000,16062.468941
255.280945,-6588.421283,-7772.162391,16580.613101
255.281253,-6741.640382,-8586.388927,18579.169144
255.281562,-4826.401637,-5699.585753,17024.736666
255.281870,-1915.238745,-3182.885551,12879.583391
255.282178,2374.896044,1554.432478,8586.388927
255.282486,5898.935335,5255.462188,3997.112087
255.282794,7048.078582,7994.224174,3182.885551
255.283102,7660.954980,8290.306550,3034.844362
255.283410,6818.249932,7624.121203,3552.988522
255.283719,3294.210641,5477.523971,5181.441594
255.284027,689.485948,888.247130,10436.903782
255.284335,-2451.505594,-3404.947333,14656.077652
255.284643,-4826.401637,-5625.565159,16580.613101
255.284951,-6665.030833,-9030.512492,17098.757260
255.285259,-7048.078582,-9474.636058,18283.086767
255.285567,-5286.058936,-7179.997637,17098.757260
255.285876,-1991.848295,-3923.091493,13545.768739
255.286184,2221.676944,814.226536,7105.977043
255.286492,5056.230287,5181.441594,2664.741391
255.286800,7584.345430,6439.791695,2886.803174
255.287108,8197.221829,8290.306550,1850.514855
255.287416,7967.393179,8882.471304,814.226536
255.287724,6128.763984,7105.977043,2960.823768
255.288033,3447.429741,4071.132681,5329.482782
255.288341,459.657299,-0.000000,10510.924376
255.288649,-2834.553343,-3923.091493,13841.851115
255.288957,-5822.325785,-6513.812290,15026.180623
255.289265,-6894.859482,-8956.491898,16728.654289
255.289573,-5822.325785,-7846.182985,17690.922014
255.289882,-3983.696590,-4737.318029,14359.995275
255.290190,153.219100,-1184.329507,10362.883188
255.290498,3447.429741,3923.091493,5551.544565
255.290806,5898.935335,6143.709319,3034.844362
255.291114,7124.688131,7476.080014,3404.947333
255.291422,6894.859482,7698.141797,2590.720797
255.291730,4519.963438,6365.771101,3627.009116
255.292039,2451.505594,3108.864956,7476.080014
255.292347,-919.314598,-1702.473667,12065.356855
255.292655,-4443.353888,-4737.318029,15174.221811
255.292963,-6818.249932,-7254.018232,16580.613101
255.293271,-8120.612279,-9400.615463,18135.045579
255.293579,-7124.688131,-9104.533087,18209.066173
255.293887,-3600.648841,-5921.647536,15914.427753
255.294196,-459.657299,-1924.535449,10658.965565
255.294504,3524.039291,2368.659014,5181.441594
255.294812,6205.373534,5847.626942,2072.576638
255.295120,7584.345430,7772.162391,2072.576638
255.295428,8350.440928,8438.347739,2220.617826
255.295736,7048.078582,8734.430116,962.267725
255.296044,4979.620737,6291.750507,3701.029710
255.296353,2451.505594,2072.576638,7994.224174
255.296661,-1225.752797,-1776.494261,12287.418637
255.296969,-4903.011187,-5181.441594,15174.221811
255.297277,-6741.640382,-7698.141797,16654.633695
255.297585,-6818.249932,-8438.347739,18283.086767
255.297893,-5132.839837,-5847.626942,16580.613101
255.298201,-1685.410096,-2590.720797,12731.542202
255.298510,1685.410096,1480.411884,8660.409521
255.298818,5209.449386,5255.462188,4367.215058
255.299126,7354.516781,6513.812290,3552.988522
255.299434,7584.345430,7328.038826,2738.761985
255.299742,6281.983084,7179.997637,3478.967927
255.300050,3830.477490,5107.421000,6069.688724
255.300359,306.438199,1036.288319,9622.677246
255.300667,-2987.772442,-3404.947333,15248.242405
255.300975,-4903.011187,-5477.523971,17098.757260
255.301283,-7354.516781,-7920.203579,16950.716072
255.301591,-6741.640382,-9104.533087,18209.066173
255.301899,-4903.011187,-7031.956449,16580.613101
255.302207,-1455.581446,-3552.988522,13323.706956
255.302516,2145.067394,888.247130,8290.306550
255.302824,5132.839837,4885.359217,3627.009116
255.303132,7507.735880,6069.688724,3034.844362
255.303440,8656.879127,7920.203579,1998.556043
255.303748,8350.440928,8586.388927,444.123565
255.304056,6971.469032,7105.977043,3256.906145
255.304364,3753.867940,3923.091493,5625.565159
255.304673,919.314598,148.041188,10140.821405
255.304981,-2068.457845,-3478.967927,13915.871710
255.305289,-5439.278036,-6217.729913,15544.324782
255.305597,-6971.469032,-7698.141797,16432.571912
255.305905,-5975.544884,-7105.977043,17172.777854
255.306213,-3907.087040,-4663.297435,14656.077652
255.306521,383.047749,-888.247130,10288.862594
255.306830,4673.182538,3256.906145,6735.874072
255.307138,5669.106685,4737.318029,3627.009116
255.307446,7124.688131,6883.915261,2812.782580
255.307754,6511.811733,7328.038826,3182.885551
255.308062,4903.011187,6291.750507,4663.297435
255.308370,2298.286494,2886.803174,7179.997637
255.308679,-612.876398,-1554.432478,12435.459826
255.308987,-3217.601092,-4367.215058,15988.448347
255.309295,-6281.983084,-7031.956449,16136.489536
255.309603,-7354.516781,-8660.409521,17394.839637
255.309911,-7124.688131,-8068.244768,17468.860231
255.310219,-3983.696590,-6365.771101,15396.283594
255.310527,-153.219100,-1628.453072,10807.006753
255.310836,3447.429741,3404.947333,4959.379811
255.311144,6588.421283,4959.379811,3182.885551
255.311452,8197.221829,7402.059420,1702.473667
255.311760,9193.145976,8142.265362,1406.391290
255.312068,6971.469032,8364.327145,666.185348
255.312376,5286.058936,5773.606348,4071.132681
255.312684,2374.896044,2146.597232,7772.162391
255.312993,-995.924147,-1924.535449,11695.253884
255.313301,-4826.401637,-5625.565159,14804.118840
255.313609,-6435.202183,-7254.018232,16506.592507
255.313917,-6818.249932,-7772.162391,17912.983796
255.314225,-5898.935335,-6143.709319,16358.551318
255.314533,-1685.410096,-3330.926739,13397.727550
255.314841,2145.067394,1332.370696,8882.471304
255.315150,4443.353888,3997.112087,4885.359217
255.315458,6435.202183,6735.874072,3256.906145
255.315766,6588.421283,7105.977043,3330.926739
255.316074,5439.278036,6957.935855,4441.235652
255.316382,3447.429741,5033.400406,6735.874072
255.316690,0.000000,1110.308913,10362.883188
255.316998,-2911.162892,-2738.761985,14582.057057
255.317307,-5745.716235,-5625.565159,16358.551318
255.317615,-7277.907231,-7550.100608,17246.798449
255.317923,-7507.735880,-8364.327145,18135.045579
255.318231,-5439.278036,-6957.935855,17320.819043
255.318539,-1915.238745,-3552.988522,13249.686362
255.318847,2911.162892,1554.432478,8512.368333
255.319156,5439.278036,3775.050304,3923.091493
255.319464,7890.783629,6439.791695,1258.350101
255.319772,8656.879127,8586.388927,1628.453072
255.320080,8810.098227,9030.512492,1332.370696
255.320388,6741.640382,7550.100608,2294.638420
255.320696,4213.525239,4071.132681,5995.668130
255.321004,1608.800546,518.144159,9918.759623
255.321313,-2834.553343,-3627.009116,13619.789333
255.321621,-5669.106685,-7031.956449,15988.448347
255.321929,-6818.249932,-8216.285956,17098.757260
255.322237,-6511.811733,-6957.935855,17320.819043
255.322545,-3677.258390,-4737.318029,14804.118840
255.322853,536.266849,-444.123565,11177.109724
255.323161,3217.601092,2368.659014,6957.935855
255.323470,5669.106685,5033.400406,3404.947333
255.323778,6741.640382,6587.832884,3701.029710
255.324086,7507.735880,7105.977043,3552.988522
255.324394,5362.668486,5921.647536,4145.153275
255.324702,2374.896044,2886.803174,7550.100608
255.325010,-536.266849,-814.226536,11843.295072
255.325318,-3907.087040,-4663.297435,15174.221811
255.325627,-5975.544884,-7105.977043,16432.571912
255.325935,-7814.174080,-8290.306550,17987.004391
255.326243,-6358.592633,-8142.265362,17468.860231
255.326551,-3830.477490,-5773.606348,15100.201217
255.326859,76.609550,-1776.494261,10658.965565
255.327167,4136.915689,3034.844362,5477.523971
255.327475,6358.592633,4293.194464,2738.761985
255.327784,7814.174080,6957.935855,1628.453072
255.328092,8886.707777,8512.368333,814.226536
255.328400,7201.297681,8290.306550,1406.391290
255.328708,4903.011187,5403.503377,3627.009116
255.329016,2681.334243,1924.535449,7624.121203
255.329324,-1149.143247,-1480.411884,12509.480420
255.329633,-4596.572988,-5107.421000,14434.015869
255.329941,-6435.202183,-7476.080014,16062.468941
255.330249,-7201.297681,-7698.141797,17616.901420
255.330557,-5439.278036,-6217.729913,16284.530724
255.330865,-1991.848295,-3404.947333,13175.665768
255.331173,2451.505594,1406.391290,8734.430116
255.331481,4979.620737,3775.050304,4589.276840
255.331790,6205.373534,6735.874072,3182.885551
255.332098,6971.469032,7550.100608,2960.823768
255.332406,6052.154434,7328.038826,3701.029710
255.332714,4060.306139,5033.400406,5403.503377
255.333022,919.314598,1554.432478,9400.615463
255.333330,-2221.676944,-2294.638420,13545.768739
255.333638,-5132.839837,-5403.503377,16358.551318
255.333946,-6894.859482,-7772.162391,17838.963202
255.334255,-7737.564530,-9104.533087,18579.169144
255.334563,-6052.154434,-7994.224174,17542.880825
255.334871,-2604.724693,-4959.379811,14063.912898
255.335179,995.924147,148.041188,8290.306550
255.335487,5975.544884,4515.256246,3997.112087
255.335795,6665.030833,5847.626942,2886.803174
255.336103,7660.954980,7698.141797,2220.617826
255.336411,8580.269578,8882.471304,814.226536
255.336719,6511.811733,7698.141797,1924.535449
255.337027,4443.353888,4367.215058,5403.503377
255.337335,1149.143247,370.102971,9918.759623
255.337644,-2145.067394,-2960.823768,13915.871710
255.337952,-5745.716235,-6143.709319,15470.304188
255.338260,-6435.202183,-7920.203579,16950.716072
255.338568,-6205.373534,-6809.894666,17320.819043
255.338876,-3907.087040,-4811.338623,15100.201217
255.339184,0.000000,-518.144159,11103.089130
255.339492,3447.429741,2664.741391,6809.894666
255.339800,5592.497135,5921.647536,3182.885551
255.340108,6358.592633,7179.997637,3330.926739
255.340416,6971.469032,7254.018232,4145.153275
255.340724,5209.449386,6587.832884,4441.235652
255.341033,3064.381992,3478.967927,7772.162391
255.341341,306.438199,-222.061783,11843.295072
255.341649,-3677.258390,-3923.091493,15544.324782
255.341957,-6205.373534,-6365.771101,16802.674883
255.342265,-7507.735880,-8290.306550,17912.983796
255.342573,-6741.640382,-8364.327145,18505.148550
255.342881,-3907.087040,-6365.771101,16062.468941
255.343189,-383.047749,-2368.659014,11547.212695
255.343497,3140.991542,2664.741391,5921.647536
255.343805,6281.983084,4145.153275,3997.112087
255.344114,7354.516781,7328.038826,2146.597232
255.344422,8656.879127,8586.388927,1628.453072
255.344730,7967.393179,8290.306550,888.247130
255.345038,5745.716235,6661.853478,3404.947333
255.345346,3370.820191,2812.782580,7402.059420
255.345654,-306.438199,-1258.350101,11325.150913
255.345962,-4366.744339,-4589.276840,14359.995275
255.346270,-6052.154434,-7402.059420,15988.448347
255.346578,-6971.469032,-8216.285956,17838.963202
255.346886,-5515.887586,-6587.832884,16580.613101
255.347194,-2298.286494,-3775.050304,13323.706956
255.347503,1455.581446,1184.329507,8438.347739
255.347811,4519.963438,3478.967927,5625.565159
255.348119,6052.154434,5699.585753,4441.235652
255.348427,6205.373534,7031.956449,3256.906145
255.348735,6052.154434,7328.038826,3552.988522
255.349043,4443.353888,5551.544565,5551.544565
255.349351,1608.800546,2146.597232,8660.409521
255.349659,-1455.581446,-1776.494261,13101.645173
255.349967,-4443.353888,-4885.359217,15544.324782
255.350275,-6511.811733,-7254.018232,16728.654289
255.350583,-7277.907231,-8734.430116,18357.107362
255.350892,-6358.592633,-7402.059420,17468.860231
255.351200,-2451.505594,-5181.441594,13767.830521
255.351508,1302.362347,518.144159,7994.224174
255.351816,4366.744339,3478.967927,5181.441594
255.352124,6741.640382,6069.688724,2590.720797
255.352432,7507.735880,7698.141797,2294.638420
255.352740,8503.660028,7994.224174,1184.329507
255.353048,7354.516781,7550.100608,1924.535449
255.353356,4749.792088,4441.235652,5329.482782
255.353664,1991.848295,962.267725,9178.553681
255.353972,-2451.505594,-3256.906145,13323.706956
255.354281,-5209.449386,-5995.668130,15618.345376
255.354589,-7201.297681,-8142.265362,17024.736666
255.354897,-6894.859482,-7476.080014,17542.880825
255.355205,-4519.963438,-5329.482782,15544.324782
255.355513,306.438199,-888.247130,11547.212695
255.355821,2681.334243,2072.576638,6809.894666
255.356129,4979.620737,4737.318029,3627.009116
255.356437,5745.716235,6809.894666,3775.050304
255.356745,6435.202183,7402.059420,3701.029710
255.357053,4979.620737,6513.812290,4589.276840
255.357362,2528.115143,3627.009116,7105.977043
255.357670,-306.438199,148.041188,11399.171507
255.357978,-3983.696590,-3849.070898,15322.262999
255.358286,-5669.106685,-6809.894666,16728.654289
255.358594,-8273.831378,-8660.409521,18135.045579
255.358902,-7737.564530,-8956.491898,18653.189738
255.359210,-4903.011187,-6513.812290,16062.468941
255.359518,-689.485948,-962.267725,10732.986159
255.359826,2681.334243,2368.659014,6439.791695
255.360134,6511.811733,4515.256246,4219.173869
255.360442,7507.735880,7550.100608,1332.370696
255.360751,8810.098227,9326.594869,740.205942
255.361059,8197.221829,8364.327145,1628.453072
255.361367,5669.106685,6439.791695,3552.988522
255.361675,3064.381992,2812.782580,6883.915261
255.361983,-536.266849,-1406.391290,11695.253884
255.362291,-3677.258390,-5403.503377,14211.954086
255.362599,-6435.202183,-7254.018232,16358.551318
255.362907,-6818.249932,-7624.121203,17764.942608
255.363215,-4903.011187,-5847.626942,16506.592507
255.363523,-1608.800546,-2664.741391,13323.706956
255.363831,1762.019645,444.123565,9548.656652
255.364140,4596.572988,3849.070898,5033.400406
255.364448,5669.106685,6069.688724,3923.091493
255.364756,7124.688131,7402.059420,3552.988522
255.365064,6281.983084,7254.018232,3701.029710
255.365372,3983.696590,5477.523971,5477.523971
255.365680,1455.581446,2294.638420,9104.533087
255.365988,-1532.190996,-2368.659014,13175.665768
255.366296,-4979.620737,-5255.462188,15914.427753
255.366604,-7124.688131,-7772.162391,17542.880825
255.366912,-7814.174080,-8882.471304,18209.066173
255.367220,-5898.935335,-8364.327145,16950.716072
255.367529,-1608.800546,-3849.070898,13767.830521
255.367837,1532.190996,-148.041188,8290.306550
255.368145,5822.325785,3478.967927,3775.050304
255.368453,7048.078582,6587.832884,2220.617826
255.368761,9039.926876,8660.409521,1628.453072
255.369069,9116.536426,9178.553681,518.144159
255.369377,7277.907231,7624.121203,2368.659014
255.369685,4979.620737,4959.379811,5181.441594
255.369993,1455.581446,296.082377,9400.615463
255.370301,-2145.067394,-3923.091493,13175.665768
255.370610,-5362.668486,-6439.791695,15248.242405
255.370918,-7201.297681,-8586.388927,17320.819043
255.371226,-6511.811733,-7624.121203,17616.901420
255.371534,-3600.648841,-5033.400406,14804.118840
255.371842,-229.828649,-1184.329507,11029.068536
255.372150,3217.601092,2220.617826,6587.832884
255.372458,5362.668486,5329.482782,3478.967927
255.372766,6971.469032,7772.162391,3256.906145
255.373074,7584.345430,7624.121203,3849.070898
255.373382,5515.887586,7105.977043,4071.132681
255.373690,3217.601092,4145.153275,6365.771101
255.373999,-229.828649,-296.082377,10881.027347
255.374307,-3830.477490,-4367.215058,15026.180623
255.374615,-6894.859482,-6957.935855,17542.880825
255.374923,-7967.393179,-9548.656652,18727.210333
255.375231,-7967.393179,-9252.574275,18579.169144
255.375539,-4673.182538,-6217.729913,16432.571912
255.375847,-612.876398,-1850.514855,10955.047942
255.376155,3140.991542,2220.617826,5995.668130
255.376463,5745.716235,5551.544565,2516.700203
255.376771,7660.954980,7550.100608,1628.453072
255.377079,9193.145976,8660.409521,1332.370696
255.377388,8197.221829,8438.347739,740.205942
255.377696,6205.373534,6587.832884,3182.885551
255.378004,2681.334243,2368.659014,6957.935855
255.378312,-1072.533697,-1332.370696,11621.233289
255.378620,-4903.011187,-5107.421000,15248.242405
255.378928,-6894.859482,-7994.224174,17172.777854
255.379236,-7584.345430,-8586.388927,18505.148550
255.379544,-5286.058936,-6809.894666,16210.510130
255.379852,-2757.943793,-3404.947333,13249.686362
255.380160,1685.410096,-0.000000,9548.656652
255.380468,4519.963438,3923.091493,5551.544565
255.380777,6665.030833,6661.853478,3182.885551
255.381085,7201.297681,7624.121203,2664.741391
255.381393,6818.249932,7254.018232,3627.009116
255.381701,4826.401637,5625.565159,5033.400406
255.382009,1608.800546,2442.679609,8364.327145
255.382317,-2451.505594,-2516.700203,13471.748144
255.382625,-5209.449386,-5921.647536,16284.530724
255.382933,-7277.907231,-8142.265362,18505.148550
255.383241,-7890.783629,-9178.553681,18949.272115
255.383549,-6205.373534,-7624.121203,16950.716072
255.383858,-2987.772442,-4515.256246,13545.768739
255.384166,919.314598,-0.000000,8734.430116
255.384474,4596.572988,3775.050304,5107.421000
255.384782,7048.078582,6365.771101,2664.741391
255.385090,8350.440928,8882.471304,1702.473667
255.385398,8427.050478,8882.471304,1110.308913
255.385706,7277.907231,8290.306550,1776.494261
255.386014,5132.839837,5107.421000,4663.297435
255.386322,1225.752797,518.144159,9474.636058
255.386630,-2604.724693,-2812.782580,13767.830521
255.386938,-5669.106685,-6217.729913,16506.592507
255.387247,-7354.516781,-8734.430116,18061.024985
255.387555,-6665.030833,-7920.203579,18431.127956
255.387863,-3753.867940,-5255.462188,14730.098246
255.388171,0.000000,-1258.350101,11547.212695
255.388479,3140.991542,2738.761985,7254.018232
255.388787,5592.497135,5255.462188,3701.029710
255.389095,6971.469032,7254.018232,3256.906145
255.389403,7660.954980,7550.100608,3256.906145
255.389711,5975.544884,6957.935855,3552.988522
255.390019,3830.477490,3923.091493,6587.832884
255.390327,383.047749,-74.020594,10510.924376
255.390636,-3447.429741,-4293.194464,14952.160028
255.390944,-6128.763984,-6735.874072,17320.819043
255.391252,-7660.954980,-8808.450710,18283.086767
255.391560,-7354.516781,-8660.409521,17394.839637
255.391868,-4366.744339,-5847.626942,15470.304188
255.392176,0.000000,-2220.617826,11251.130318
255.392484,3064.381992,2368.659014,6735.874072
255.392792,6358.592633,4663.297435,3701.029710
255.393100,7507.735880,7550.100608,1554.432478
255.393408,8810.098227,8586.388927,1258.350101
255.393717,8044.002729,8660.409521,1110.308913
255.394025,5975.544884,7031.956449,2590.720797
255.394333,3370.820191,2738.761985,6957.935855
255.394641,-766.095498,-1184.329507,11029.068536
255.394949,-4213.525239,-5477.523971,14878.139434
255.395257,-7277.907231,-7994.224174,16876.695478
255.395565,-7354.516781,-8734.430116,17987.004391
255.395873,-5592.497135,-6809.894666,16506.592507
255.396181,-2451.505594,-3701.029710,13619.789333
255.396489,995.924147,-222.061783,9696.697840
255.396797,4213.525239,3478.967927,5699.585753
255.397106,6281.983084,5699.585753,4293.194464
255.397414,7354.516781,7179.997637,2294.638420
255.397722,6588.421283,7550.100608,3552.988522
255.398030,5132.839837,5329.482782,5403.503377
255.398338,1608.800546,2812.782580,7031.956449
255.398646,-1991.848295,-2146.597232,13027.624579
255.398954,-4749.792088,-5033.400406,16136.489536
255.399262,-7660.954980,-7328.038826,17394.839637
255.399570,-7890.783629,-8956.491898,18209.066173
255.399878,-6588.421283,-7772.162391,17024.736666
255.400186,-3217.601092,-4219.173869,13027.624579
255.400495,612.876398,-0.000000,9178.553681
255.400803,4290.134789,3627.009116,5847.626942
255.401111,6665.030833,6143.709319,2590.720797
255.401419,8580.269578,8512.368333,1332.370696
255.401727,8580.269578,8364.327145,1110.308913
255.402035,7431.126331,7772.162391,2072.576638
255.402343,4826.401637,5625.565159,5181.441594
255.402651,536.266849,518.144159,9622.677246
255.402959,-2681.334243,-3182.885551,13619.789333
255.403267,-5592.497135,-6069.688724,16358.551318
255.403575,-6894.859482,-7994.224174,17690.922014
255.403884,-6358.592633,-7550.100608,17912.983796
255.404192,-3753.867940,-5033.400406,14878.139434
255.404500,-689.485948,-1628.453072,11695.253884
255.404808,3447.429741,2146.597232,7994.224174
255.405116,5362.668486,4811.338623,4885.359217
255.405424,7048.078582,6883.915261,3182.885551
255.405732,7431.126331,7476.080014,2812.782580
255.406040,6281.983084,6735.874072,3849.070898
255.406348,4213.525239,4145.153275,6217.729913
255.406656,0.000000,370.102971,10214.842000
255.406965,-2757.943793,-4441.235652,14878.139434
255.407273,-5515.887586,-6587.832884,17542.880825
255.407581,-7737.564530,-8142.265362,18209.066173
255.407889,-7201.297681,-8586.388927,18653.189738
255.408197,-4979.620737,-5773.606348,15544.324782
255.408505,-995.924147,-1776.494261,11177.109724
255.408813,2911.162892,1924.535449,7328.038826
255.409121,5975.544884,4885.359217,4071.132681
255.409429,7048.078582,7328.038826,2368.659014
255.409737,8427.050478,8438.347739,1554.432478
255.410045,8273.831378,8364.327145,1406.391290
255.410354,5669.106685,7105.977043,2664.741391
255.410662,2911.162892,3182.885551,6735.874072
255.410970,-919.314598,-1110.308913,11177.109724
255.411278,-4673.182538,-4367.215058,14804.118840
255.411586,-6741.640382,-7402.059420,16728.654289
255.411894,-7354.516781,-8216.285956,17764.942608
255.412202,-5439.278036,-6217.729913,16802.674883
255.412510,-1762.019645,-3034.844362,12879.583391
255.412818,1302.362347,370.102971,9548.656652
255.413126,4213.525239,3627.009116,5773.606348
255.413434,6741.640382,6439.791695,3182.885551
255.413743,7814.174080,7402.059420,2294.638420
255.414051,7354.516781,6957.935855,2812.782580
255.414359,5439.278036,5773.606348,4663.297435
255.414667,2145.067394,2146.597232,7846.182985
255.414975,-1915.238745,-2590.720797,12805.562797
255.415283,-5132.839837,-5847.626942,16654.633695
255.415591,-7584.345430,-7994.224174,17764.942608
255.415899,-8733.488677,-9474.636058,18653.189738
255.416207,-6894.859482,-7920.203579,17616.901420
255.416515,-2834.553343,-4293.194464,13397.727550
255.416823,689.485948,296.082377,8956.491898
255.417132,4596.572988,3182.885551,5403.503377
255.417440,6741.640382,5921.647536,2368.659014
255.417748,7890.783629,7624.121203,1332.370696
255.418056,8733.488677,7994.224174,1628.453072
255.418364,6665.030833,7328.038826,1998.556043
255.418672,4673.182538,5033.400406,4441.235652
255.418980,919.314598,592.164754,8882.471304
255.419288,-2221.676944,-3478.967927,13175.665768
255.419596,-5898.935335,-6069.688724,15692.365970
255.419904,-6894.859482,-7698.141797,17098.757260
255.420213,-6435.202183,-7402.059420,17098.757260
255.420521,-4213.525239,-4737.318029,14730.098246
255.420829,-612.876398,-888.247130,11103.089130
255.421137,2681.334243,2664.741391,7476.080014
255.421445,5362.668486,5181.441594,3923.091493
255.421753,7354.516781,7179.997637,2516.700203
255.422061,7507.735880,7031.956449,3034.844362
255.422369,6052.154434,6513.812290,3997.112087
255.422677,3140.991542,3701.029710,5995.668130
255.422985,0.000000,-74.020594,10584.944971
255.423293,-3753.867940,-4441.235652,15544.324782
255.423602,-6741.640382,-7105.977043,18431.127956
255.423910,-8273.831378,-8660.409521,18579.169144
255.424218,-6894.859482,-8660.409521,18653.189738
255.424526,-4749.792088,-5773.606348,16580.613101
255.424834,-766.095498,-1480.411884,11843.295072
255.425142,2987.772442,2516.700203,6809.894666
255.425450,6052.154434,5329.482782,3701.029710
255.425758,7890.783629,7846.182985,1406.391290
255.426066,9499.584175,8364.327145,1480.411884
255.426374,8350.440928,9030.512492,2516.700203
255.426682,5822.325785,6735.874072,2886.803174
255.426991,3064.381992,3404.947333,6513.812290
255.427299,-689.485948,-962.267725,11473.192101
255.427607,-4290.134789,-4441.235652,15026.180623
255.427915,-6511.811733,-7179.997637,16728.654289
255.428223,-6818.249932,-7920.203579,18061.024985
255.428531,-5439.278036,-6661.853478,17098.757260
255.428839,-2528.115143,-3108.864956,13027.624579
255.429147,995.924147,370.102971,9622.677246
255.429455,3983.696590,3478.967927,5477.523971
255.429763,6665.030833,6365.771101,3478.967927
255.430071,7584.345430,7402.059420,2960.823768
255.430380,7124.688131,7031.956449,3182.885551
255.430688,5669.106685,5181.441594,4737.318029
255.430996,1991.848295,1776.494261,7920.203579
255.431304,-2298.286494,-2590.720797,12953.603985
255.431612,-4673.182538,-6439.791695,17024.736666
255.431920,-6741.640382,-8216.285956,17912.983796
255.432228,-7660.954980,-8586.388927,17987.004391
255.432536,-6281.983084,-8068.244768,17320.819043
255.432844,-2681.334243,-3775.050304,13323.706956
255.433152,1149.143247,222.061783,8586.388927
255.433460,4903.011187,3404.947333,4811.338623
255.433768,7584.345430,6883.915261,1998.556043
255.434076,9269.755526,8512.368333,592.164754
255.434384,9193.145976,8512.368333,1184.329507
255.434692,7354.516781,8290.306550,1480.411884
255.435000,4596.572988,5033.400406,3923.091493
255.435308,1225.752797,740.205942,8808.450710
255.435616,-2604.724693,-3552.988522,13249.686362
255.435925,-5669.106685,-6957.935855,15914.427753
255.436233,-6665.030833,-8660.409521,17616.901420
255.436541,-6741.640382,-8290.306550,17690.922014
255.436849,-4903.011187,-5107.421000,14434.015869
255.437157,-689.485948,-1628.453072,11917.315666
255.437465,2451.505594,2294.638420,7550.100608
255.437773,5209.449386,5107.421000,4589.276840
255.438081,7277.907231,7254.018232,2960.823768
255.438389,7431.126331,7105.977043,3034.844362
255.438697,5898.935335,6069.688724,3478.967927
255.439005,4213.525239,3701.029710,6587.832884
255.439313,0.000000,222.061783,9696.697840
255.439621,-3907.087040,-4441.235652,15692.365970
255.439929,-5592.497135,-7772.162391,18135.045579
255.440237,-8656.879127,-8438.347739,17320.819043
255.440545,-7737.564530,-9474.636058,19393.395680
255.440853,-4366.744339,-6513.812290,15544.324782
255.441161,-1608.800546,-1998.556043,11251.130318
255.441469,2987.772442,1998.556043,7698.141797
255.441777,5592.497135,5477.523971,2886.803174
255.442085,8273.831378,8142.265362,1554.432478
255.442393,9193.145976,9252.574275,740.205942
255.442701,8503.660028,9104.533087,1110.308913
255.443009,6281.983084,7476.080014,2146.597232
255.443317,3064.381992,3478.967927,6957.935855
255.443626,-1072.533697,-1332.370696,11991.336260
255.443934,-4443.353888,-5403.503377,15914.427753
255.444242,-6818.249932,-8142.265362,18283.086767
255.444550,-8427.050478,-8438.347739,18209.066173
255.444858,-5975.544884,-6883.915261,17468.860231
255.445166,-3140.991542,-3034.844362,13841.851115
255.445474,612.876398,370.102971,9918.759623
255.445782,3677.258390,3701.029710,6735.874072
255.446090,6741.640382,6513.812290,3256.906145
255.446398,7967.393179,8364.327145,2590.720797
255.446706,7660.954980,7550.100608,2590.720797
255.447014,5439.278036,6291.750507,4219.173869
255.447322,1838.629195,2590.720797,8068.244768
255.447630,-1762.019645,-2516.700203,13915.871710
255.447938,-5209.449386,-6217.729913,17542.880825
255.448246,-7277.907231,-8808.450710,18061.024985
255.448554,-8427.050478,-9548.656652,18949.272115
255.448862,-6818.249932,-8216.285956,17098.757260
255.449170,-3447.429741,-4515.256246,14211.954086
255.449478,689.485948,-74.020594,9474.636058
255.449786,4903.011187,3849.070898,5107.421000
255.450094,7431.126331,6809.894666,2146.597232
255.450402,9729.412825,8956.491898,592.164754
255.450710,10189.070123,9326.594869,666.185348
255.451018,8044.002729,8808.450710,518.144159
255.451326,4903.011187,5477.523971,3552.988522
255.451635,1225.752797,962.267725,8660.409521
255.451943,-2681.334243,-3034.844362,13471.748144
255.452251,-5515.887586,-6883.915261,16580.613101
255.452559,-7431.126331,-8512.368333,17690.922014
255.452867,-7584.345430,-8512.368333,17838.963202
255.453175,-5286.058936,-5847.626942,15470.304188
255.453483,-1072.533697,-1924.535449,12509.480420
255.453791,2451.505594,2072.576638,8734.430116
255.454099,5209.449386,4885.359217,4367.215058
255.454407,7124.688131,7402.059420,2442.679609
255.454715,8503.660028,7772.162391,2294.638420
255.455023,6818.249932,6883.915261,2664.741391
255.455331,3907.087040,4663.297435,5181.441594
255.455639,919.314598,222.061783,10436.903782
255.455947,-3677.258390,-4515.256246,14804.118840
255.456255,-6281.983084,-7550.100608,17690.922014
255.456563,-7967.393179,-9400.615463,18357.107362
255.456871,-7967.393179,-9548.656652,17838.963202
255.457179,-5975.544884,-6587.832884,15322.262999
255.457487,-1378.971896,-2590.720797,13175.665768
255.457795,2911.162892,1036.288319,8364.327145
255.458103,4826.401637,5255.462188,2738.761985
255.458411,8656.879127,6513.812290,2368.659014
255.458719,9576.193725,9400.615463,74.020594
255.459027,8810.098227,8808.450710,1258.350101
255.459336,5745.716235,7698.141797,2220.617826
255.459644,3524.039291,3849.070898,5773.606348
255.459952,-383.047749,-1184.329507,11547.212695
255.460260,-4596.572988,-4589.276840,14656.077652
255.460568,-6052.154434,-8142.265362,17542.880825
255.460876,-7737.564530,-8956.491898,17172.777854
255.461184,-6971.469032,-7105.977043,17172.777854
255.461492,-3907.087040,-3404.947333,13619.789333
255.461800,459.657299,-0.000000,10732.986159
255.462108,3983.696590,3627.009116,6957.935855
255.462416,6511.811733,6661.853478,2664.741391
255.462724,8656.879127,7846.182985,2886.803174
255.463032,7584.345430,7402.059420,2738.761985
255.463340,5975.544884,6143.709319,4367.215058
255.463648,2374.896044,2516.700203,8216.285956
255.463956,-1455.581446,-2220.617826,12657.521608
255.464264,-4443.353888,-5847.626942,16802.674883
255.464572,-6894.859482,-7920.203579,17912.983796
255.464880,-7507.735880,-9030.512492,17987.004391
255.465188,-5898.935335,-7920.203579,17098.757260
255.465496,-2911.162892,-4219.173869,14285.974681
255.465804,1072.533697,-370.102971,10362.883188
255.466112,4136.915689,3627.009116,5995.668130
255.466420,7048.078582,6513.812290,2442.679609
255.466728,8427.050478,8734.430116,296.082377
255.467036,9193.145976,9252.574275,1110.308913
255.467345,7737.564530,8290.306550,2220.617826
255.467653,4979.620737,6217.729913,4367.215058
255.467961,1302.362347,1480.411884,9178.553681
255.468269,-2451.505594,-3182.885551,14211.954086
255.468577,-5592.497135,-6809.894666,16580.613101
255.468885,-7660.954980,-8808.450710,17987.004391
255.469193,-7507.735880,-7994.224174,17764.942608
255.469501,-4673.182538,-5181.441594,15396.283594
255.469809,-1532.190996,-1406.391290,11917.315666
255.470117,2451.505594,1924.535449,8216.285956
255.470425,6052.154434,4885.359217,4441.235652
255.470733,7584.345430,7328.038826,2146.597232
255.471041,8273.831378,7550.100608,2294.638420
255.471349,6588.421283,6587.832884,3034.844362
255.471657,3677.258390,4367.215058,5773.606348
255.471965,536.266849,-0.000000,10140.821405
255.472273,-3064.381992,-4515.256246,14656.077652
255.472581,-5975.544884,-7624.121203,17320.819043
255.472889,-7507.735880,-9104.533087,18135.045579
255.473197,-7431.126331,-8586.388927,18357.107362
255.473505,-4826.401637,-6439.791695,15396.283594
255.473813,-1149.143247,-2294.638420,11547.212695
255.474121,3140.991542,1702.473667,7550.100608
255.474429,6588.421283,5329.482782,2812.782580
255.474737,8197.221829,8364.327145,740.205942
255.475046,9499.584175,9178.553681,0.000000
255.475354,8733.488677,9178.553681,1036.288319
255.475662,6511.811733,7179.997637,2738.761985
255.475970,2834.553343,3478.967927,6217.729913
255.476278,-842.705048,-1776.494261,11843.295072
255.476586,-4519.963438,-5403.503377,15322.262999
255.476894,-7277.907231,-8142.265362,17098.757260
255.477202,-8350.440928,-8734.430116,18135.045579
255.477510,-6665.030833,-6735.874072,16802.674883
255.477818,-2987.772442,-3330.926739,14211.954086
255.478126,995.924147,370.102971,10066.800811
255.478434,4136.915689,3775.050304,6217.729913
255.478742,6435.202183,6587.832884,2960.823768
255.479050,7431.126331,7698.141797,2664.741391
255.479358,7354.516781,7402.059420,2812.782580
255.479666,4213.525239,5847.626942,5403.503377
255.479974,1685.410096,2220.617826,9400.615463
255.480282,-1915.238745,-3182.885551,13545.768739
255.480590,-5822.325785,-5699.585753,16802.674883
255.480898,-7814.174080,-8512.368333,18135.045579
255.481206,-8197.221829,-9178.553681,18505.148550
255.481514,-6741.640382,-7328.038826,16876.695478
255.481822,-3217.601092,-4071.132681,13915.871710
255.482130,1608.800546,370.102971,8586.388927
255.482438,4979.620737,3478.967927,4885.359217
255.482747,7737.564530,6217.729913,1924.535449
255.483055,8810.098227,9400.615463,-74.020594
255.483363,9959.241474,9400.615463,814.226536
255.483671,7737.564530,8290.306550,1702.473667
255.483979,4596.572988,5625.565159,4219.173869
255.484287,1149.143247,666.185348,9548.656652
255.484595,-2451.505594,-3330.926739,13841.851115
255.484903,-5822.325785,-7105.977043,16506.592507
255.485211,-8350.440928,-8438.347739,17690.922014
255.485519,-7201.297681,-7994.224174,18431.127956
255.485827,-5132.839837,-4367.215058,14804.118840
255.486135,-995.924147,-1332.370696,11769.274478
255.486443,2757.943793,2146.597232,8586.388927
255.486751,5515.887586,5107.421000,3775.050304
255.487059,7048.078582,6291.750507,2516.700203
255.487367,7431.126331,7031.956449,2516.700203
255.487675,6205.373534,6069.688724,3627.009116
255.487983,3294.210641,3552.988522,6883.915261
255.488291,-306.438199,-518.144159,10807.006753
255.488599,-3217.601092,-5181.441594,15174.221811
255.488907,-6435.202183,-7105.977043,16432.571912
255.489215,-7660.954980,-9030.512492,17616.901420
255.489523,-6971.469032,-8734.430116,17690.922014
255.489831,-3983.696590,-5921.647536,15692.365970
255.490139,0.000000,-1850.514855,11695.253884
255.490447,3524.039291,1480.411884,6735.874072
255.490756,7048.078582,5107.421000,2664.741391
255.491064,8656.879127,7698.141797,666.185348
255.491372,9499.584175,9252.574275,0.000000
255.491680,8963.317327,9104.533087,1406.391290
255.491988,6741.640382,6735.874072,2664.741391
255.492296,3447.429741,3330.926739,6661.853478
255.492604,-995.924147,-1554.432478,11473.192101
255.492912,-4060.306139,-5107.421000,15322.262999
255.493220,-6894.859482,-8216.285956,17690.922014
255.493528,-7967.393179,-8142.265362,18283.086767
255.493836,-5745.716235,-6143.709319,16802.674883
255.494144,-2834.553343,-2960.823768,13619.789333
255.494452,842.705048,370.102971,10288.862594
255.494760,4673.182538,3701.029710,6143.709319
255.495068,6435.202183,6661.853478,3108.864956
255.495376,7584.345430,8364.327145,2368.659014
255.495684,7201.297681,7994.224174,3330.926739
255.495992,4903.011187,5773.606348,5477.523971
255.496300,2298.286494,2590.720797,8290.306550
255.496608,-1608.800546,-2146.597232,12583.501014
255.496916,-4673.182538,-5477.523971,16580.613101
255.497224,-7277.907231,-8216.285956,17690.922014
255.497532,-8580.269578,-8808.450710,18653.189738
255.497840,-6358.592633,-7179.997637,17987.004391
255.498148,-2987.772442,-4219.173869,14137.933492
255.498457,1455.581446,-74.020594,9770.718434
255.498765,5132.839837,3701.029710,4737.318029
255.499073,7507.735880,6217.729913,1850.514855
255.499381,8963.317327,7994.224174,814.226536
255.499689,9039.926876,9030.512492,1036.288319
255.499997,6588.421283,8142.265362,2960.823768
255.500305,4749.792088,4885.359217,5551.544565
255.500613,766.095498,740.205942,9178.553681
255.500921,-2834.553343,-3627.009116,13693.809927
255.501229,-6435.202183,-6661.853478,16358.551318
255.501537,-8810.098227,-8142.265362,17912.983796
255.501845,-6818.249932,-7624.121203,18283.086767
255.502153,-4673.182538,-4737.318029,15100.201217
255.502461,-1072.533697,-962.267725,12213.398043
255.502769,3447.429741,1776.494261,7846.182985
255.503077,5515.887586,5033.400406,3923.091493
255.503385,6818.249932,6883.915261,2738.761985
255.503693,7584.345430,7624.121203,2516.700203
255.504001,6052.154434,6735.874072,3923.091493
255.504309,3294.210641,3404.947333,6587.832884
255.504617,153.219100,-296.082377,10214.842000
255.504925,-3447.429741,-4145.153275,14434.015869
255.505233,-5822.325785,-7105.977043,16654.633695
255.505541,-7967.393179,-7846.182985,17394.839637
255.505849,-7354.516781,-7994.224174,17987.004391
255.506158,-4903.011187,-5477.523971,15692.365970
255.506466,-536.266849,-2294.638420,11473.192101
255.506774,3140.991542,1480.411884,7920.203579
255.507082,5898.935335,4515.256246,3256.906145
255.507390,7201.297681,6735.874072,1258.350101
255.507698,8733.488677,7846.182985,1332.370696
255.508006,7967.393179,8586.388927,1628.453072
255.508314,5439.278036,6365.771101,3478.967927
255.508622,2757.943793,3182.885551,6735.874072
255.508930,-383.047749,-1332.370696,10955.047942
255.509238,-4136.915689,-4737.318029,14730.098246
255.509546,-7277.907231,-6735.874072,16136.489536
255.509854,-7354.516781,-7772.162391,17690.922014
255.510162,-6205.373534,-6587.832884,16432.571912
255.510470,-2987.772442,-3627.009116,13619.789333
255.510778,842.705048,-592.164754,10436.903782
255.511086,3600.648841,3108.864956,6143.709319
255.511394,6128.763984,5551.544565,3552.988522
255.511702,7660.954980,6809.894666,2960.823768
255.512010,6588.421283,7254.018232,3256.906145
255.512318,4749.792088,5107.421000,4959.379811
255.512626,2221.676944,2664.741391,7698.141797
255.512934,-766.095498,-1628.453072,11695.253884
255.513242,-4290.134789,-4811.338623,15248.242405
255.513550,-6588.421283,-7105.977043,16950.716072
255.513858,-7967.393179,-8142.265362,17987.004391
255.514167,-6358.592633,-7328.038826,16950.716072
255.514475,-2911.162892,-4145.153275,14211.954086
255.514783,1225.752797,-518.144159,10214.842000
255.515091,4443.353888,2886.803174,5551.544565
255.515399,6741.640382,5847.626942,2664.741391
255.515707,8580.269578,8216.285956,1776.494261
255.516015,8427.050478,9030.512492,1036.288319
255.516323,7967.393179,7920.203579,2886.803174
255.516631,5515.887586,5181.441594,4219.173869
255.516939,2145.067394,888.247130,8808.450710
255.517247,-2221.676944,-3256.906145,12657.521608
255.517555,-5439.278036,-5921.647536,15692.365970
255.517863,-6894.859482,-7624.121203,17987.004391
255.518171,-7124.688131,-7031.956449,17542.880825
255.518479,-4519.963438,-4737.318029,15692.365970
255.518787,-689.485948,-1924.535449,12435.459826
255.519095,3294.210641,1406.391290,8068.244768
255.519403,5286.058936,4515.256246,4145.153275
255.519711,7124.688131,6439.791695,3108.864956
255.520019,6971.469032,6883.915261,3108.864956
255.520327,5898.935335,6217.729913,4071.132681
255.520635,3753.867940,3701.029710,6809.894666
255.520943,612.876398,592.164754,9548.656652
255.521251,-2451.505594,-3478.967927,13545.768739
255.521559,-5209.449386,-6513.812290,16580.613101
255.521868,-7431.126331,-7920.203579,17764.942608
255.522176,-7124.688131,-7846.182985,17764.942608
255.522484,-4826.401637,-5847.626942,15470.304188
255.522792,-612.876398,-2516.700203,11769.274478
255.523100,2681.334243,1258.350101,7476.080014
255.523408,5822.325785,4293.194464,3775.050304
255.523716,7660.954980,6587.832884,2146.597232
255.524024,8963.317327,8290.306550,1480.411884
255.524332,8810.098227,8068.244768,1998.556043
255.524640,6128.763984,6217.729913,3701.029710
255.524948,3370.820191,2960.823768,5921.647536
255.525256,-766.095498,-1258.350101,10732.986159
255.525564,-4136.915689,-4737.318029,14952.160028
255.525872,-6818.249932,-6883.915261,16358.551318
255.526180,-7431.126331,-7105.977043,17320.819043
255.526488,-5822.325785,-6291.750507,16580.613101
255.526796,-2068.457845,-3404.947333,13619.789333
255.527104,1455.581446,-222.061783,9918.759623
255.527412,4060.306139,3552.988522,5773.606348
255.527720,5592.497135,5329.482782,3997.112087
255.528028,6971.469032,7105.977043,3627.009116
255.528336,6511.811733,6735.874072,3404.947333
255.528644,4826.401637,5329.482782,4885.359217
255.528952,2757.943793,2368.659014,7846.182985
255.529260,-1455.581446,-1480.411884,12139.377449
255.529569,-4673.182538,-4663.297435,15766.386565
255.529877,-6894.859482,-6957.935855,17394.839637
255.530185,-7660.954980,-7994.224174,17690.922014
255.530493,-6894.859482,-7105.977043,16580.613101
255.530801,-3217.601092,-4663.297435,13989.892304
255.531109,689.485948,-1036.288319,10214.842000
255.531417,3753.867940,2812.782580,5921.647536
255.531725,6281.983084,5477.523971,3404.947333
255.532033,7890.783629,7550.100608,1628.453072
255.532341,8427.050478,8808.450710,1036.288319
255.532649,7354.516781,7402.059420,2886.803174
255.532957,4903.011187,5255.462188,4515.256246
255.533265,1225.752797,1258.350101,7920.203579
255.533573,-2298.286494,-3034.844362,13397.727550
255.533881,-5745.716235,-5847.626942,15544.324782
255.534189,-6971.469032,-7994.224174,17394.839637
255.534497,-7201.297681,-7254.018232,17468.860231
255.534805,-3983.696590,-5181.441594,15100.201217
255.535114,-842.705048,-1924.535449,11843.295072
255.535422,2374.896044,1850.514855,8512.368333
255.535730,5362.668486,4737.318029,4959.379811
255.536038,6971.469032,6661.853478,3256.906145
255.536346,7431.126331,7476.080014,2664.741391
255.536654,6894.859482,6069.688724,3478.967927
255.536962,4673.182538,4441.235652,6513.812290
255.537270,766.095498,1036.288319,9696.697840
255.537578,-2834.553343,-3034.844362,14211.954086
255.537887,-5439.278036,-5773.606348,16728.654289
255.538195,-7737.564530,-7772.162391,17616.901420
255.538503,-8197.221829,-8216.285956,17690.922014
255.538811,-4443.353888,-6587.832884,16210.510130
255.539119,-1838.629195,-2664.741391,11621.233289
255.539427,2451.505594,1110.308913,8290.306550
255.539735,5745.716235,4589.276840,5033.400406
255.540043,7277.907231,7328.038826,1850.514855
255.540351,7890.783629,8290.306550,1554.432478
255.540659,8350.440928,8586.388927,1924.535449
255.540968,5975.544884,6513.812290,3849.070898
255.541276,3140.991542,3552.988522,6735.874072
255.541584,-689.485948,-740.205942,11251.130318
255.541892,-3830.477490,-4219.173869,14804.118840
255.542200,-7048.078582,-7105.977043,16654.633695
255.542508,-7354.516781,-7772.162391,17764.942608
255.542816,-5132.839837,-6809.894666,16580.613101
255.543124,-2374.896044,-3256.906145,12805.562797
255.543432,1378.971896,222.061783,9474.636058
255.543740,4826.401637,3552.988522,6513.812290
255.544049,6588.421283,5847.626942,3330.926739
255.544357,8120.612279,6883.915261,2812.782580
255.544665,7814.174080,7105.977043,2516.700203
255.544973,5745.716235,5181.441594,4737.318029
255.545281,2757.943793,2368.659014,7328.038826
255.545589,-1225.752797,-1628.453072,12065.356855
255.545897,-4673.182538,-5255.462188,16062.468941
255.546205,-7814.174080,-7105.977043,17024.736666
255.546513,-7737.564530,-8586.388927,18505.148550
255.546822,-6894.859482,-7920.203579,17172.777854
255.547130,-3447.429741,-4737.318029,13915.871710
255.547438,76.609550,-518.144159,10140.821405
255.547746,3677.258390,2812.782580,5921.647536
255.548054,5975.544884,5403.503377,3330.926739
255.548362,7507.735880,7476.080014,1924.535449
255.548670,8656.879127,8142.265362,1628.453072
255.548978,7354.516781,7698.141797,2146.597232
255.549286,4519.963438,5847.626942,4589.276840
255.549594,1532.190996,1332.370696,9030.512492
255.549903,-2528.115143,-2516.700203,13027.624579
255.550211,-5286.058936,-5477.523971,15396.283594
255.550519,-7048.078582,-7698.141797,16506.592507
255.550827,-6435.202183,-8068.244768,17098.757260
255.551135,-4060.306139,-5181.441594,14730.098246
255.551443,-306.438199,-2072.576638,11251.130318
255.551751,2681.334243,1998.556043,8438.347739
255.552059,5286.058936,4737.318029,4663.297435
255.552367,6741.640382,6735.874072,3108.864956
255.552675,7354.516781,7476.080014,2368.659014
255.552984,7277.907231,6809.894666,3404.947333
255.553292,3907.087040,4441.235652,5477.523971
255.553600,-689.485948,1406.391290,9400.615463
255.553908,-3447.429741,-3478.967927,14434.015869
255.554216,-6128.763984,-5773.606348,17320.819043
255.554524,-8273.831378,-8142.265362,18727.210333
255.554832,-7967.393179,-9104.533087,18209.066173
255.555140,-6281.983084,-6661.853478,15692.365970
255.555448,-2298.286494,-3256.906145,13101.645173
255.555756,1685.410096,962.267725,8512.368333
255.556065,4596.572988,4145.153275,5033.400406
255.556373,7737.564530,6809.894666,2960.823768
255.556681,8580.269578,8882.471304,888.247130
255.556989,8963.317327,8512.368333,888.247130
255.557297,7048.078582,7254.018232,2516.700203
255.557605,3907.087040,4293.194464,5847.626942
255.557913,0.000000,-0.000000,11103.089130
255.558221,-3524.039291,-3775.050304,14656.077652
255.558529,-6205.373534,-6587.832884,15618.345376
255.558838,-7124.688131,-7994.224174,17098.757260
255.559146,-5669.106685,-6439.791695,16432.571912
255.559454,-2451.505594,-3256.906145,13249.686362
255.559762,766.095498,222.061783,10362.883188
255.560070,4136.915689,3552.988522,6883.915261
255.560378,6894.859482,5773.606348,3627.009116
255.560686,8350.440928,6809.894666,2960.823768
255.560994,7660.954980,6143.709319,2516.700203
255.561302,6052.154434,4737.318029,4811.338623
255.561610,2298.286494,2590.720797,7846.182985
255.561919,-1302.362347,-1702.473667,12287.418637
255.562227,-4519.963438,-4959.379811,15914.427753
255.562535,-6894.859482,-7402.059420,17172.777854
255.562843,-8044.002729,-9474.636058,18357.107362
255.563151,-7124.688131,-7772.162391,17024.736666
255.563459,-3753.867940,-4885.359217,14137.933492
255.563767,459.657299,-74.020594,9992.780217
255.564075,4213.525239,3256.906145,6217.729913
255.564383,7354.516781,6217.729913,2812.782580
255.564691,8350.440928,8882.471304,222.061783
255.565000,9576.193725,8586.388927,740.205942
255.565308,7890.783629,8216.285956,1776.494261
255.565616,5132.839837,6143.709319,3997.112087
255.565924,1685.410096,1480.411884,9474.636058
255.566232,-2528.115143,-2368.659014,13323.706956
255.566540,-5975.544884,-5921.647536,15988.448347
255.566848,-7354.516781,-7920.203579,17246.798449
255.567156,-6894.859482,-7624.121203,17394.839637
255.567464,-4290.134789,-5625.565159,15248.242405
255.567772,-842.705048,-1850.514855,12065.356855
255.568081,2298.286494,1554.432478,8808.450710
255.568389,4826.401637,3849.070898,5033.400406
255.568697,6818.249932,6217.729913,3775.050304
255.569005,7124.688131,7031.956449,3034.844362
255.569313,6281.983084,6587.832884,3478.967927
255.569621,3217.601092,4589.276840,6365.771101
255.569929,383.047749,666.185348,10288.862594
255.570237,-3447.429741,-3108.864956,14359.995275
255.570545,-6205.373534,-6365.771101,17098.757260
255.570854,-7660.954980,-8808.450710,18875.251521
255.571162,-7737.564530,-8364.327145,18579.169144
255.571470,-5515.887586,-6513.812290,15914.427753
255.571778,-2145.067394,-2294.638420,11991.336260
255.572086,1991.848295,2220.617826,7624.121203
255.572394,6052.154434,5033.400406,3997.112087
255.572702,7660.954980,7476.080014,1184.329507
255.573010,9652.803275,8586.388927,518.144159
255.573318,8963.317327,8364.327145,592.164754
255.573626,5975.544884,6957.935855,3182.885551
255.573935,3217.601092,3404.947333,6513.812290
255.574243,-536.266849,-1332.370696,11547.212695
255.574551,-4290.134789,-4589.276840,14730.098246
255.574859,-6741.640382,-7772.162391,16580.613101
255.575167,-7507.735880,-8808.450710,17987.004391
255.575475,-5822.325785,-7031.956449,16284.530724
255.575783,-2221.676944,-4071.132681,12953.603985
255.576091,1225.752797,148.041188,10288.862594
255.576399,4136.915689,3404.947333,6291.750507
255.576707,6665.030833,5551.544565,3775.050304
255.577016,7890.783629,7254.018232,2294.638420
255.577324,7584.345430,7105.977043,2294.638420
255.577632,5669.106685,5699.585753,4441.235652
255.577940,3524.039291,2960.823768,7624.121203
255.578248,-612.876398,-1554.432478,12361.439231
255.578556,-4060.306139,-5181.441594,15766.386565
255.578864,-6818.249932,-7994.224174,17246.798449
255.579172,-8273.831378,-9770.718434,18283.086767
255.579480,-7431.126331,-8290.306550,17542.880825
255.579789,-3447.429741,-4367.215058,14063.912898
255.580097,536.266849,222.061783,9770.718434
255.580405,4826.401637,3849.070898,5551.544565
255.580713,7354.516781,6513.812290,2220.617826
255.581021,8963.317327,8216.285956,1036.288319
255.581329,9039.926876,8438.347739,1110.308913
255.581637,7507.735880,7994.224174,1998.556043
255.581945,4903.011187,5477.523971,4885.359217
255.582253,919.314598,962.267725,9474.636058
255.582561,-2757.943793,-3775.050304,13619.789333
255.582870,-5822.325785,-6809.894666,16506.592507
255.583178,-8273.831378,-8512.368333,17987.004391
255.583486,-7660.954980,-8364.327145,18061.024985
255.583794,-4749.792088,-5255.462188,15618.345376
255.584102,-1149.143247,-1480.411884,12065.356855
255.584410,2834.553343,2368.659014,8216.285956
255.584718,6435.202183,5107.421000,3997.112087
255.585026,8120.612279,7402.059420,2072.576638
255.585334,8580.269578,7402.059420,2072.576638
255.585642,7507.735880,7476.080014,2812.782580
255.585951,4673.182538,4885.359217,5773.606348
255.586259,1072.533697,814.226536,9770.718434
255.586567,-3140.991542,-3404.947333,14359.995275
255.586875,-6052.154434,-6809.894666,17468.860231
255.587183,-8197.221829,-9104.533087,18357.107362
255.587491,-8733.488677,-9400.615463,19171.333898
255.587799,-6435.202183,-6217.729913,16506.592507
255.588107,-2221.676944,-2294.638420,12953.603985
255.588415,1225.752797,2220.617826,8142.265362
255.588723,5132.839837,5255.462188,4367.215058
255.589032,7814.174080,7698.141797,2072.576638
255.589340,8427.050478,8734.430116,888.247130
255.589648,7814.174080,8364.327145,1406.391290
255.589956,5975.544884,6439.791695,3404.947333
255.590264,2221.676944,2886.803174,7179.997637
255.590572,-1149.143247,-1628.453072,12361.439231
255.590880,-4826.401637,-5329.482782,14952.160028
255.591188,-7354.516781,-7920.203579,17246.798449
255.591496,-7967.393179,-9178.553681,18579.169144
255.591805,-6128.763984,-6957.935855,16580.613101
255.592113,-2451.505594,-3256.906145,13693.809927
255.592421,1685.410096,370.102971,9474.636058
255.592729,4903.011187,3627.009116,5033.400406
255.593037,7507.735880,6291.750507,3034.844362
255.593345,8963.317327,7920.203579,2590.720797
255.593653,8427.050478,7920.203579,1406.391290
255.593961,6205.373534,6587.832884,3404.947333
255.594269,3600.648841,2886.803174,7328.038826
255.594577,-689.485948,-962.267725,11547.212695
255.594886,-4213.525239,-5033.400406,15692.365970
255.595194,-7354.516781,-8290.306550,17394.839637
255.595502,-9116.536426,-9992.780217,18949.272115
255.595810,-8580.269578,-8216.285956,18283.086767
255.596118,-4749.792088,-4737.318029,15026.180623
255.596426,0.000000,-0.000000,10140.821405
255.596734,3753.867940,3552.988522,5477.523971
255.597042,7354.516781,6143.709319,2738.761985
255.597350,8503.660028,7698.141797,1258.350101
255.597658,8580.269578,8216.285956,814.226536
255.597967,7967.393179,7476.080014,1924.535449
255.598275,5056.230287,4811.338623,4737.318029
255.598583,1302.362347,444.123565,9918.759623
255.598891,-2298.286494,-3701.029710,13619.789333
255.599199,-5898.935335,-6587.832884,15766.386565
255.599507,-7507.735880,-9326.594869,18357.107362
255.599815,-7277.907231,-8512.368333,17987.004391
255.600123,-4903.011187,-4885.359217,14804.118840
255.600431,-383.047749,-1554.432478,11695.253884
255.600739,4060.306139,2664.741391,7476.080014
255.601048,6741.640382,5551.544565,3478.967927
255.601356,8120.612279,7254.018232,2220.617826
255.601664,8886.707777,8364.327145,1480.411884
255.601972,7660.954980,7550.100608,2812.782580
255.602280,5362.668486,4811.338623,5921.647536
255.602588,1225.752797,370.102971,9844.739029
255.602896,-2757.943793,-3404.947333,13989.892304
255.603204,-6281.983084,-6217.729913,17246.798449
255.603512,-8656.879127,-9326.594869,18949.272115
255.603821,-9346.365076,-9178.553681,19171.333898
255.604129,-6128.763984,-6513.812290,16654.633695
255.604437,-2221.676944,-2368.659014,11843.295072
255.604745,2374.896044,1924.535449,7920.203579
255.605053,6128.763984,4219.173869,3923.091493
255.605361,8197.221829,7254.018232,2072.576638
255.605669,8733.488677,8290.306550,1110.308913
255.605977,8120.612279,8364.327145,1332.370696
255.606285,6281.983084,6809.894666,3552.988522
255.606593,2757.943793,3034.844362,7105.977043
255.606902,0.000000,-1258.350101,11695.253884
255.607210,-3983.696590,-4663.297435,14508.036463
255.607518,-7124.688131,-7550.100608,16728.654289
255.607826,-7507.735880,-8586.388927,18875.251521
255.608134,-6435.202183,-6143.709319,16728.654289
255.608442,-2604.724693,-2812.782580,13841.851115
255.608750,1225.752797,592.164754,9770.718434
255.609058,4519.963438,3701.029710,5477.523971
255.609366,6818.249932,6217.729913,3627.009116
255.609674,7890.783629,7179.997637,2886.803174
255.609983,7584.345430,7698.141797,2442.679609
255.610291,5286.058936,6365.771101,4441.235652
255.610599,2987.772442,2960.823768,7772.162391
255.610907,-1302.362347,-1332.370696,11991.336260
255.611215,-4519.963438,-4737.318029,15692.365970
255.611523,-7660.954980,-7920.203579,17542.880825
255.611831,-9116.536426,-9548.656652,18949.272115
255.612139,-7814.174080,-8808.450710,18431.127956
255.612447,-4519.963438,-4515.256246,14359.995275
255.612756,383.047749,-296.082377,10066.800811
255.613064,3600.648841,3108.864956,5921.647536
255.613372,6894.859482,5773.606348,2886.803174
255.613680,8350.440928,7994.224174,1110.308913
255.613988,9039.926876,8512.368333,666.185348
255.614296,7967.393179,7624.121203,2072.576638
255.614604,4979.620737,5329.482782,4515.256246
255.614912,1072.533697,1036.288319,9326.594869
255.615220,-2528.115143,-3108.864956,12583.501014
255.615528,-5286.058936,-5995.668130,15174.221811
255.615837,-7507.735880,-8438.347739,17616.901420
255.616145,-7507.735880,-7772.162391,17690.922014
255.616453,-4903.011187,-4737.318029,14952.160028
255.616761,0.000000,-1702.473667,11621.233289
255.617069,3294.210641,2072.576638,7254.018232
255.617377,5975.544884,4663.297435,3404.947333
255.617685,7431.126331,6143.709319,2812.782580
255.617993,7814.174080,7179.997637,2294.638420
255.618301,7048.078582,6957.935855,2664.741391
255.618609,4596.572988,4219.173869,5995.668130
255.618918,689.485948,666.185348,9548.656652
255.619226,-2987.772442,-3923.091493,14137.933492
255.619534,-5975.544884,-6661.853478,16580.613101
255.619842,-8273.831378,-8882.471304,18357.107362
255.620150,-8580.269578,-9474.636058,19171.333898
255.620458,-6052.154434,-6661.853478,15988.448347
255.620766,-1838.629195,-2738.761985,12213.398043
255.621074,2528.115143,1406.391290,7994.224174
255.621382,5822.325785,4441.235652,3627.009116
255.621690,7890.783629,6587.832884,2294.638420
255.621999,8197.221829,7624.121203,1110.308913
255.622307,7890.783629,7994.224174,1850.514855
255.622615,6281.983084,6291.750507,3108.864956
255.622923,3217.601092,3627.009116,6365.771101
255.623231,-536.266849,-740.205942,11251.130318
255.623539,-4060.306139,-3775.050304,14211.954086
255.623847,-6741.640382,-6069.688724,16876.695478
255.624155,-7431.126331,-7624.121203,18209.066173
255.624463,-6205.373534,-6365.771101,16210.510130
255.624772,-2528.115143,-2516.700203,13397.727550
255.625080,1302.362347,370.102971,9622.677246
255.625388,4366.744339,3849.070898,5773.606348
255.625696,6588.421283,5625.565159,3775.050304
255.626004,7431.126331,7105.977043,3404.947333
255.626312,7354.516781,7179.997637,3108.864956
255.626620,5362.668486,5699.585753,5329.482782
255.626928,2451.505594,2738.761985,8364.327145
255.627236,-1302.362347,-1480.411884,13101.645173
255.627544,-4136.915689,-4663.297435,16506.592507
255.627853,-7124.688131,-7105.977043,17468.860231
255.628161,-8120.612279,-8364.327145,18727.210333
255.628469,-7048.078582,-7254.018232,17394.839637
255.628777,-3294.210641,-4145.153275,13915.871710
255.629085,842.705048,-0.000000,10066.800811
255.629393,4519.963438,2664.741391,5847.626942
255.629701,6588.421283,5551.544565,3108.864956
255.630009,8350.440928,7105.977043,2072.576638
255.630317,7890.783629,7994.224174,1110.308913
255.630625,6741.640382,7105.977043,2886.803174
255.630934,4443.353888,4885.359217,4959.379811
255.631242,766.095498,1036.288319,9030.512492
255.631550,-1915.238745,-3256.906145,13397.727550
255.631858,-5132.839837,-5033.400406,15766.386565
255.632166,-7124.688131,-7476.080014,17690.922014
255.632474,-7354.516781,-7402.059420,17616.901420
255.632782,-4443.353888,-4589.276840,14582.057057
255.633090,-689.485948,-1036.288319,10732.986159
255.633398,3064.381992,2442.679609,7254.018232
255.633706,5362.668486,4737.318029,4071.132681
255.634015,6665.030833,6217.729913,3478.967927
255.634323,7584.345430,6957.935855,2960.823768
255.634631,6435.202183,6069.688724,3182.885551
255.634939,3907.087040,3330.926739,6217.729913
255.635247,612.876398,370.102971,9844.739029
255.635555,-2757.943793,-3701.029710,14359.995275
255.635863,-5669.106685,-6587.832884,17098.757260
255.636171,-7967.393179,-8512.368333,17764.942608
255.636479,-7354.516781,-8734.430116,18357.107362
255.636787,-5132.839837,-6439.791695,15248.242405
255.637095,-919.314598,-1554.432478,10584.944971
255.637403,4060.306139,1554.432478,7624.121203
255.637711,6205.373534,4441.235652,3701.029710
255.638019,7584.345430,6883.915261,1702.473667
255.638327,8273.831378,8364.327145,1480.411884
255.638635,8273.831378,7772.162391,1850.514855
255.638943,5898.935335,5921.647536,3849.070898
255.639251,2145.067394,3404.947333,6513.812290
255.639559,0.000000,-1036.288319,12139.377449
255.639867,-4596.572988,-4071.132681,14508.036463
255.640175,-7737.564530,-6439.791695,17098.757260
255.640483,-7967.393179,-8364.327145,18357.107362
255.640792,-6128.763984,-5995.668130,15840.407159
255.641100,-2374.896044,-2812.782580,12731.542202
255.641408,1762.019645,592.164754,9178.553681
255.641716,3907.087040,3627.009116,5403.503377
255.642024,5975.544884,5107.421000,3997.112087
255.642332,7431.126331,6587.832884,3034.844362
255.642640,7354.516781,6513.812290,2590.720797
255.642948,5439.278036,5107.421000,4737.318029
255.643256,2604.724693,2294.638420,7846.182985
255.643564,-1149.143247,-1850.514855,12583.501014
255.643872,-4673.182538,-4737.318029,16136.489536
255.644180,-6818.249932,-7698.141797,18061.024985
255.644488,-7354.516781,-9104.533087,18209.066173
255.644796,-6894.859482,-7402.059420,16284.530724
255.645104,-2604.724693,-4441.235652,13619.789333
255.645412,1532.190996,222.061783,9178.553681
255.645720,4903.011187,3330.926739,5033.400406
255.646028,7124.688131,5107.421000,3182.885551
255.646336,8197.221829,7772.162391,1850.514855
255.646644,8427.050478,7772.162391,1850.514855
255.646952,6588.421283,7031.956449,3256.906145
255.647260,4519.963438,5107.421000,5329.482782
255.647568,536.266849,1406.391290,9326.594869
255.647876,-2604.724693,-2368.659014,13545.768739
255.648184,-5898.935335,-4959.379811,15914.427753
255.648492,-8120.612279,-7179.997637,17764.942608
255.648800,-7048.078582,-7698.141797,18357.107362
255.649108,-4519.963438,-4071.132681,14582.057057
255.649416,-612.876398,-888.247130,10881.027347
255.649724,2911.162892,2664.741391,7550.100608
255.650032,5822.325785,5107.421000,4293.194464
255.650341,7048.078582,5995.668130,3627.009116
255.650649,7354.516781,6809.894666,2738.761985
255.650957,6588.421283,5773.606348,3404.947333
255.651265,3983.696590,3404.947333,6069.688724
255.651573,306.438199,-0.000000,10881.027347
255.651881,-2604.724693,-3701.029710,14656.077652
255.652189,-4903.011187,-5995.668130,17394.839637
255.652497,-7354.516781,-8216.285956,17838.963202
255.652805,-7431.126331,-8142.265362,17246.798449
255.653113,-4596.572988,-5551.544565,15100.201217
255.653421,0.000000,-1184.329507,10584.944971
255.653729,3983.696590,2442.679609,6143.709319
255.654037,5669.106685,4219.173869,3849.070898
255.654345,7277.907231,6069.688724,2220.617826
255.654653,7737.564530,7402.059420,1628.453072
255.654961,7201.297681,6809.894666,2590.720797
255.655269,4979.620737,5625.565159,4219.173869
255.655577,1532.190996,2516.700203,7698.141797
255.655885,-1915.238745,-1924.535449,12731.542202
255.656193,-4749.792088,-4367.215058,14952.160028
255.656501,-6894.859482,-6439.791695,16654.633695
255.656809,-7431.126331,-8364.327145,17764.942608
255.657117,-6128.763984,-5995.668130,15914.427753
255.657425,-1838.629195,-2220.617826,12139.377449
255.657733,1915.238745,1184.329507,8660.409521
255.658041,4979.620737,4145.153275,4811.338623
255.658349,7124.688131,5847.626942,3256.906145
255.658657,7737.564530,6883.915261,2516.700203
255.658965,7814.174080,6735.874072,2664.741391
255.659273,5056.230287,5107.421000,4737.318029
255.659581,2451.505594,2146.597232,8142.265362
255.659890,-1378.971896,-1998.556043,12583.501014
255.660198,-4443.353888,-4737.318029,15988.448347
255.660506,-6894.859482,-7550.100608,17320.819043
255.660814,-8350.440928,-9104.533087,18061.024985
255.661122,-6205.373534,-7254.018232,16654.633695
255.661430,-3064.381992,-4071.132681,12583.501014
255.661738,1685.410096,1036.288319,8438.347739
255.662046,4826.401637,3478.967927,5329.482782
255.662354,6894.859482,5329.482782,3330.926739
255.662662,7431.126331,7105.977043,1924.535449
255.662970,7584.345430,7402.059420,2072.576638
255.663278,6205.373534,6143.709319,3478.967927
255.663586,3600.648841,4293.194464,6069.688724
255.663894,0.000000,370.102971,10140.821405
255.664202,-2681.334243,-3552.988522,14508.036463
255.664510,-6052.154434,-5329.482782,16136.489536
255.664818,-7354.516781,-7698.141797,17912.983796
255.665126,-7201.297681,-7328.038826,17320.819043
255.665434,-3447.429741,-3701.029710,13693.809927
255.665742,842.705048,370.102971,9548.656652
255.666050,4596.572988,3701.029710,6365.771101
255.666358,6741.640382,4959.379811,3034.844362
255.666666,7277.907231,7105.977043,3849.070898
255.666974,7890.783629,7328.038826,3182.885551
255.667282,5745.716235,6883.915261,4071.132681
255.667590,3217.601092,4219.173869,7624.121203
255.667898,-459.657299,-0.000000,11695.253884
255.668206,-3753.867940,-3256.906145,15322.262999
255.668514,-6205.373534,-5995.668130,17838.963202
255.668822,-8273.831378,-8438.347739,19171.333898
255.669130,-7584.345430,-8142.265362,18801.230927
255.669439,-4060.306139,-5329.482782,15618.345376
255.669747,0.000000,-1110.308913,10584.944971
255.670055,3600.648841,2146.597232,6439.791695
255.670363,6358.592633,3997.112087,4367.215058
255.670671,7814.174080,6661.853478,2294.638420
255.670979,8120.612279,7254.018232,1554.432478
255.671287,8273.831378,7179.997637,2220.617826
255.671595,5439.278036,5477.523971,3923.091493
255.671903,2374.896044,2146.597232,8068.244768
255.672211,-1685.410096,-2146.597232,12583.501014
255.672519,-4673.182538,-4663.297435,14804.118840
255.672827,-7277.907231,-7402.059420,17320.819043
255.673135,-7354.516781,-8364.327145,17764.942608
255.673443,-5286.058936,-5329.482782,15248.242405
255.673751,-1455.581446,-888.247130,11251.130318
255.674059,2451.505594,2146.597232,7105.977043
255.674367,5822.325785,4293.194464,3701.029710
255.674675,7277.907231,6217.729913,2960.823768
255.674983,7737.564530,7179.997637,2294.638420
255.675291,7431.126331,6439.791695,2960.823768
255.675599,5056.230287,4441.235652,4737.318029
255.675907,1685.410096,740.205942,8808.450710
255.676215,-2451.505594,-3034.844362,14063.912898
255.676523,-5975.544884,-6217.729913,16580.613101
255.676831,-8044.002729,-9252.574275,18431.127956
255.677139,-8427.050478,-9474.636058,18949.272115
255.677447,-5975.544884,-7550.100608,16802.674883
255.677755,-1991.848295,-3256.906145,11991.336260
255.678063,2681.334243,888.247130,7476.080014
255.678371,6588.421283,3552.988522,4663.297435
255.678679,8120.612279,5773.606348,2442.679609
255.678988,8427.050478,7698.141797,1332.370696
255.679296,8503.660028,8068.244768,1258.350101
255.679604,6665.030833,6809.894666,2812.782580
255.679912,3677.258390,4367.215058,5847.626942
255.680220,153.219100,-148.041188,10362.883188
255.680528,-3907.087040,-2960.823768,14359.995275
255.680836,-6665.030833,-6439.791695,16580.613101
255.681144,-8503.660028,-8364.327145,18727.210333
255.681452,-6894.859482,-7105.977043,16876.695478
255.681760,-3524.039291,-3182.885551,13471.748144
255.682068,919.314598,666.185348,9178.553681
255.682376,3830.477490,4219.173869,5477.523971
255.682684,6281.983084,4885.359217,4515.256246
255.682992,7201.297681,7254.018232,3478.967927
255.683300,7584.345430,7179.997637,3256.906145
255.683608,5056.230287,5107.421000,4589.276840
255.683916,2451.505594,2812.782580,7772.162391
255.684224,-842.705048,-1110.308913,12583.501014
255.684532,-4290.134789,-4293.194464,15470.304188
255.684840,-6818.249932,-7105.977043,18283.086767
255.685148,-8580.269578,-8882.471304,18949.272115
255.685456,-6665.030833,-8512.368333,18061.024985
255.685764,-3677.258390,-5255.462188,13915.871710
255.686072,536.266849,-74.020594,9770.718434
255.686380,5056.230287,2516.700203,5403.503377
255.686688,7277.907231,5107.421000,3256.906145
255.686996,8120.612279,7179.997637,2368.659014
255.687304,8580.269578,7846.182985,1702.473667
255.687612,7354.516781,7179.997637,2516.700203
255.687920,5132.839837,5255.462188,5107.421000
255.688228,1072.533697,1702.473667,8734.430116
255.688537,-2528.115143,-1702.473667,13545.768739
255.688845,-5362.668486,-4811.338623,16062.468941
255.689153,-7584.345430,-7105.977043,17987.004391
255.689461,-7660.954980,-7254.018232,18283.086767
255.689769,-5286.058936,-4737.318029,14878.139434
255.690077,-995.924147,-518.144159,10807.006753
255.690385,2681.334243,2590.720797,6735.874072
255.690693,5439.278036,4663.297435,4663.297435
255.691001,6894.859482,5921.647536,4515.256246
255.691309,7660.954980,7105.977043,2516.700203
255.691617,6435.202183,6513.812290,2960.823768
255.691925,4136.915689,4589.276840,5995.668130
255.692233,919.314598,962.267725,9918.759623
255.692541,-2528.115143,-2960.823768,14211.954086
255.692849,-5132.839837,-5773.606348,16580.613101
255.693157,-7354.516781,-8438.347739,17616.901420
255.693465,-7354.516781,-8660.409521,18357.107362
255.693773,-5286.058936,-6883.915261,16284.530724
255.694081,-612.876398,-2368.659014,11399.171507
255.694389,3294.210641,1998.556043,6587.832884
255.694697,5898.935335,3997.112087,3997.112087
255.695005,7354.516781,5699.585753,2590.720797
255.695313,8350.440928,7254.018232,1776.494261
255.695621,7660.954980,7031.956449,2146.597232
255.695929,6205.373534,5403.503377,4145.153275
255.696237,2911.162892,2812.782580,6365.771101
255.696545,-995.924147,-1406.391290,11473.192101
255.696853,-4060.306139,-4145.153275,14508.036463
255.697161,-6894.859482,-6439.791695,16580.613101
255.697469,-7737.564530,-8142.265362,18061.024985
255.697777,-6741.640382,-6735.874072,16580.613101
255.698086,-2374.896044,-2738.761985,12583.501014
255.698394,1532.190996,1258.350101,8438.347739
255.698702,4903.011187,4145.153275,5033.400406
255.699010,6281.983084,5551.544565,3701.029710
255.699318,7277.907231,7105.977043,2664.741391
255.699626,7277.907231,7179.997637,2516.700203
255.699934,5515.887586,5551.544565,4219.173869
255.700242,1991.848295,3108.864956,7846.182985
255.700550,-1072.533697,-1184.329507,12435.459826
255.700858,-4596.572988,-4441.235652,14952.160028
255.701166,-6894.859482,-7179.997637,17320.819043
255.701474,-8120.612279,-8586.388927,18431.127956
255.701782,-6971.469032,-7624.121203,17394.839637
255.702090,-3217.601092,-4589.276840,14211.954086
255.702398,1072.533697,-444.123565,9622.677246
255.702706,4826.401637,2368.659014,5477.523971
255.703014,6741.640382,4515.256246,3701.029710
255.703322,7660.954980,6661.853478,2664.741391
255.703630,7814.174080,7328.038826,1628.453072
255.703938,6971.469032,6661.853478,3108.864956
255.704246,4290.134789,4811.338623,5255.462188
255.704554,689.485948,1406.391290,8290.306550
255.704862,-2757.943793,-2516.700203,13471.748144
255.705170,-5362.668486,-5033.400406,16062.468941
255.705478,-7048.078582,-7105.977043,17246.798449
255.705786,-6894.859482,-6957.935855,17690.922014
255.706094,-4903.011187,-4367.215058,15026.180623
255.706402,-919.314598,-296.082377,10510.924376
255.706710,2681.334243,2886.803174,7105.977043
255.707018,5669.106685,4885.359217,4737.318029
255.707326,7048.078582,5921.647536,3627.009116
255.707634,7354.516781,6957.935855,2886.803174
255.707943,6894.859482,5921.647536,3478.967927
255.708251,4136.915689,4367.215058,6365.771101
255.708559,459.657299,1036.288319,10288.862594
255.708867,-2528.115143,-3108.864956,14211.954086
255.709175,-5362.668486,-5255.462188,16136.489536
255.709483,-7431.126331,-7772.162391,18135.045579
255.709791,-6971.469032,-8882.471304,18357.107362
255.710099,-4596.572988,-5995.668130,15840.407159
255.710407,-1149.143247,-2220.617826,11917.315666
255.710715,3140.991542,1480.411884,7254.018232
255.711023,6052.154434,3627.009116,4515.256246
255.711331,7431.126331,5329.482782,3330.926739
255.711639,8197.221829,7105.977043,1924.535449
255.711947,7814.174080,7328.038826,2146.597232
255.712255,6358.592633,5773.606348,4071.132681
255.712563,2834.553343,3108.864956,6587.832884
255.712871,-459.657299,-1036.288319,10807.006753
255.713179,-3600.648841,-3923.091493,14878.139434
255.713487,-6588.421283,-6069.688724,16432.571912
255.713795,-7431.126331,-7550.100608,17987.004391
255.714103,-6358.592633,-5995.668130,16654.633695
255.714411,-2757.943793,-2220.617826,12657.521608
255.714719,1378.971896,1332.370696,8438.347739
255.715027,4903.011187,4367.215058,5551.544565
255.715335,6205.373534,5329.482782,3923.091493
255.715643,6971.469032,7105.977043,3182.885551
255.715951,7201.297681,6735.874072,3034.844362
255.716259,5362.668486,5329.482782,4737.318029
255.716567,2145.067394,2516.700203,7772.162391
255.716875,-1072.533697,-1406.391290,11917.315666
255.717183,-3753.867940,-4515.256246,15322.262999
255.717492,-6894.859482,-7105.977043,17098.757260
255.717800,-7584.345430,-8808.450710,18283.086767
255.718108,-6435.202183,-8216.285956,17320.819043
255.718416,-3294.210641,-4737.318029,13693.809927
255.718724,1149.143247,-962.267725,9622.677246
255.719032,4903.011187,2812.782580,5477.523971
255.719340,6894.859482,4885.359217,3034.844362
255.719648,8503.660028,6587.832884,2146.597232
255.719956,8503.660028,7846.182985,1184.329507
255.720264,7584.345430,6735.874072,2516.700203
255.720572,4443.353888,5329.482782,4811.338623
255.720880,1302.362347,1480.411884,8660.409521
255.721188,-2604.724693,-2516.700203,12953.603985
255.721496,-5898.935335,-5033.400406,15988.448347
255.721804,-8350.440928,-7920.203579,18357.107362
255.722112,-8273.831378,-7920.203579,18283.086767
255.722420,-5362.668486,-4959.379811,15100.201217
255.722728,-766.095498,-888.247130,10881.027347
255.723036,2528.115143,1850.514855,7402.059420
255.723344,5209.449386,4737.318029,4293.194464
255.723652,6665.030833,6291.750507,3404.947333
255.723960,7584.345430,6957.935855,2960.823768
255.724268,6511.811733,6957.935855,3108.864956
255.724576,3677.258390,4367.215058,5995.668130
255.724884,459.657299,1110.308913,9696.697840
255.725192,-3064.381992,-2516.700203,13619.789333
255.725500,-5975.544884,-5329.482782,17024.736666
255.725808,-7967.393179,-7402.059420,18357.107362
255.726116,-7967.393179,-8512.368333,18801.230927
255.726424,-5822.325785,-5921.647536,15840.407159
255.726732,-995.924147,-2368.659014,11991.336260
255.727041,2911.162892,1258.350101,7031.956449
255.727349,6281.983084,4367.215058,4515.256246
255.727657,8120.612279,5773.606348,2960.823768
255.727965,8197.221829,7402.059420,592.164754
255.728273,8120.612279,7698.141797,1776.494261
255.728581,6358.592633,5995.668130,3256.906145
255.728889,3294.210641,3256.906145,6587.832884
255.729197,-459.657299,-1258.350101,11325.150913
255.729505,-4366.744339,-4367.215058,14730.098246
255.729813,-6665.030833,-7402.059420,17246.798449
255.730121,-8350.440928,-8956.491898,18431.127956
255.730429,-6588.421283,-6735.874072,16728.654289
255.730737,-2681.334243,-3034.844362,13175.665768
255.731045,1838.629195,1110.308913,8586.388927
255.731353,5056.230287,4145.153275,4959.379811
255.731661,6818.249932,5403.503377,3849.070898
255.731969,7584.345430,6661.853478,3108.864956
255.732277,7354.516781,7328.038826,2738.761985
255.732585,6205.373534,5847.626942,4145.153275
255.732893,2604.724693,2664.741391,7328.038826
255.733201,-1072.533697,-444.123565,11325.150913
255.733509,-4060.306139,-3849.070898,15322.262999
255.733817,-7124.688131,-6587.832884,17320.819043
255.734125,-7737.564530,-8808.450710,18505.148550
255.734433,-7124.688131,-8216.285956,18061.024985
255.734741,-3524.039291,-5033.400406,14730.098246
255.735049,153.219100,-1184.329507,9992.780217
255.735357,4596.572988,2368.659014,5773.606348
255.735665,6665.030833,4663.297435,3256.906145
255.735973,7737.564530,6365.771101,1998.556043
255.736281,8580.269578,7846.182985,1554.432478
255.736590,8580.269578,7402.059420,2294.638420
255.736897,5439.278036,4811.338623,4515.256246
255.737205,1915.238745,1628.453072,7772.162391
255.737513,-1302.362347,-2738.761985,12805.562797
255.737821,-5439.278036,-5329.482782,15692.365970
255.738129,-7660.954980,-7550.100608,17172.777854
255.738437,-6971.469032,-7698.141797,18579.169144
255.738745,-4826.401637,-4959.379811,14952.160028
255.739053,-689.485948,-888.247130,10510.924376
255.739361,3447.429741,2294.638420,6883.915261
255.739669,6205.373534,5329.482782,3552.988522
255.739977,6971.469032,6217.729913,3627.009116
255.740285,7354.516781,7402.059420,2664.741391
255.740593,6435.202183,7179.997637,2812.782580
255.740901,3907.087040,4737.318029,6217.729913
255.741209,536.266849,1776.494261,8956.491898
255.741517,-3064.381992,-2442.679609,13397.727550
255.741825,-5898.935335,-5699.585753,16580.613101
255.742133,-8350.440928,-8364.327145,18061.024985
255.742441,-8656.879127,-9104.533087,19319.375086
255.742749,-6818.249932,-7328.038826,17246.798449
255.743057,-2221.676944,-3701.029710,12435.459826
255.743365,1762.019645,-0.000000,8290.306550
255.743673,5286.058936,3627.009116,4663.297435
255.743981,7124.688131,5773.606348,2812.782580
255.744288,8273.831378,7402.059420,1776.494261
255.744596,9269.755526,8142.265362,1036.288319
255.744904,6894.859482,6809.894666,2738.761985
255.745212,4366.744339,3923.091493,5921.647536
255.745520,-306.438199,-0.000000,9844.739029
255.745828,-3370.820191,-3552.988522,14582.057057
255.746136,-6894.859482,-6809.894666,16876.695478
255.746444,-8350.440928,-8808.450710,18579.169144
255.746752,-6665.030833,-7105.977043,17172.777854
255.747060,-3677.258390,-3182.885551,13397.727550
255.747368,1149.143247,518.144159,9770.718434
255.747676,4519.963438,3330.926739,6365.771101
255.747984,5745.716235,5255.462188,3552.988522
255.748292,7048.078582,6439.791695,3552.988522
255.748600,7354.516781,7179.997637,3034.844362
255.748908,4903.011187,6291.750507,4071.132681
255.749216,2298.286494,3034.844362,7550.100608
255.749524,-612.876398,148.041188,11769.274478
255.749832,-4366.744339,-3701.029710,14878.139434
255.750140,-6665.030833,-6513.812290,17987.004391
255.750448,-8044.002729,-8290.306550,18875.251521
255.750756,-7431.126331,-8660.409521,18727.210333
255.751064,-4136.915689,-5255.462188,14656.077652
255.751372,689.485948,-962.267725,9918.759623
255.751679,4060.306139,2738.761985,5995.668130
255.751987,7431.126331,5107.421000,3997.112087
255.752295,7967.393179,7105.977043,2072.576638
255.752603,8886.707777,7772.162391,962.267725
255.752911,8810.098227,7550.100608,1850.514855
255.753219,5898.935335,5995.668130,3330.926739
255.753527,2374.896044,2368.659014,7550.100608
255.753835,-1072.533697,-2220.617826,12361.439231
255.754143,-4903.011187,-4811.338623,15470.304188
255.754451,-7277.907231,-8142.265362,17616.901420
255.754759,-7890.783629,-8808.450710,18949.272115
255.755067,-5592.497135,-5921.647536,15914.427753
255.755375,-1532.190996,-2072.576638,11695.253884
255.755683,2834.553343,1258.350101,8290.306550
255.755991,5209.449386,4071.132681,4885.359217
255.756299,7277.907231,5403.503377,3701.029710
255.756607,8120.612279,6365.771101,2516.700203
255.756915,7431.126331,7105.977043,2442.679609
255.757223,5439.278036,5181.441594,5477.523971
255.757531,1838.629195,1998.556043,8512.368333
255.757839,-1991.848295,-1110.308913,12731.542202
255.758147,-5056.230287,-4737.318029,16062.468941
255.758455,-7431.126331,-7254.018232,17616.901420
255.758763,-8273.831378,-8660.409521,18949.272115
255.759070,-6511.811733,-7328.038826,17098.757260
255.759378,-2528.115143,-3404.947333,12139.377449
255.759686,2451.505594,814.226536,7476.080014
255.759994,5056.230287,3478.967927,4737.318029
255.760302,7277.907231,5847.626942,2516.700203
255.760610,8273.831378,7994.224174,1258.350101
255.760918,8886.707777,8364.327145,1036.288319
255.761226,7507.735880,7846.182985,1776.494261
255.761534,4749.792088,4737.318029,5403.503377
255.761842,306.438199,518.144159,10288.862594
255.762150,-3524.039291,-3849.070898,14656.077652
255.762458,-6665.030833,-6661.853478,16506.592507
255.762766,-8044.002729,-8808.450710,18579.169144
255.763074,-7354.516781,-7846.182985,18061.024985
255.763382,-3907.087040,-3997.112087,14359.995275
255.763690,459.657299,-444.123565,10362.883188
255.763998,4060.306139,2886.803174,6883.915261
255.764306,6358.592633,4737.318029,4145.153275
255.764614,7507.735880,5625.565159,3923.091493
255.764922,7277.907231,7254.018232,2664.741391
255.765230,5669.106685,6365.771101,3701.029710
255.765538,2987.772442,3478.967927,7105.977043
255.765846,-842.705048,-0.000000,11251.130318
255.766154,-4596.572988,-4219.173869,15248.242405
255.766461,-6971.469032,-6439.791695,16950.716072
255.766769,-8503.660028,-8734.430116,19097.313304
255.767077,-8656.879127,-9030.512492,18949.272115
255.767385,-5286.058936,-5995.668130,15100.201217
255.767693,-842.705048,-1184.329507,10510.924376
255.768001,3370.820191,2516.700203,5921.647536
255.768309,6128.763984,5107.421000,3552.988522
255.768617,8580.269578,6957.935855,2368.659014
255.768925,9346.365076,8364.327145,518.144159
255.769233,8810.098227,8364.327145,1184.329507
255.769541,5975.544884,6291.750507,3552.988522
255.769849,2757.943793,2886.803174,7105.977043
255.770157,-1149.143247,-1776.494261,12361.439231
255.770465,-4673.182538,-4737.318029,15248.242405
255.770773,-7354.516781,-7402.059420,17320.819043
255.771081,-8044.002729,-8808.450710,18653.189738
255.771389,-6052.154434,-5995.668130,15914.427753
255.771697,-1225.752797,-1480.411884,12287.418637
255.772005,2374.896044,1406.391290,8438.347739
255.772313,5439.278036,3849.070898,5625.565159
255.772621,6358.592633,5477.523971,3775.050304
255.772929,6971.469032,6439.791695,3701.029710
255.773237,6511.811733,6513.812290,3182.885551
255.773545,4443.353888,4589.276840,5773.606348
255.773852,1762.019645,1554.432478,9474.636058
255.774160,-2221.676944,-1998.556043,12953.603985
255.774468,-4903.011187,-5033.400406,16654.633695
255.774776,-7431.126331,-7846.182985,17764.942608
255.775084,-8273.831378,-8438.347739,18653.189738
255.775392,-6128.763984,-7476.080014,17098.757260
255.775700,-2451.505594,-2886.803174,12065.356855
255.776008,2528.115143,1258.350101,8808.450710
255.776316,5745.716235,3849.070898,4071.132681
255.776624,7277.907231,6439.791695,2368.659014
255.776932,9039.926876,7920.203579,1258.350101
255.777240,9576.193725,8808.450710,296.082377
255.777548,7660.954980,7254.018232,2294.638420
255.777856,4596.572988,4589.276840,4885.359217
255.778164,1532.190996,-0.000000,9622.677246
255.778472,-2834.553343,-3478.967927,13693.809927
255.778780,-5669.106685,-6513.812290,16358.551318
255.779088,-7890.783629,-8586.388927,18431.127956
255.779396,-6435.202183,-7476.080014,17468.860231
255.779704,-3064.381992,-3627.009116,13915.871710
255.780012,842.705048,-0.000000,9770.718434
255.780320,4136.915689,2664.741391,6957.935855
255.780628,5286.058936,4737.318029,4515.256246
255.780936,7354.516781,6217.729913,3923.091493
255.781243,7277.907231,7031.956449,3330.926739
255.781551,5745.716235,6291.750507,3404.947333
255.781859,3370.820191,3627.009116,7476.080014
255.782167,-229.828649,-74.020594,10658.965565
255.782475,-4213.525239,-3552.988522,14730.098246
255.782783,-7124.688131,-6587.832884,16950.716072
255.783091,-8427.050478,-8808.450710,18801.230927
255.783399,-8427.050478,-8660.409521,18579.169144
255.783707,-4749.792088,-5625.565159,14952.160028
255.784015,-306.438199,-666.185348,10436.903782
255.784323,3064.381992,2812.782580,5995.668130
255.784631,5898.935335,5107.421000,3701.029710
255.784939,7507.735880,7402.059420,2294.638420
255.785247,8503.660028,8586.388927,1110.308913
255.785555,7890.783629,8068.244768,1554.432478
255.785863,5286.058936,5477.523971,4589.276840
255.786171,2451.505594,2368.659014,7179.997637
255.786479,-1991.848295,-2072.576638,11769.274478
255.786787,-5056.230287,-5181.441594,14730.098246
255.787095,-7354.516781,-7402.059420,17098.757260
255.787403,-7431.126331,-8290.306550,18061.024985
255.787711,-4903.011187,-6143.709319,15396.283594
255.788019,-1532.190996,-1998.556043,11621.233289
255.788327,2451.505594,814.226536,8808.450710
255.788634,5592.497135,3701.029710,5625.565159
255.788942,6971.469032,5773.606348,3775.050304
255.789250,7277.907231,6809.894666,3330.926739
255.789558,7124.688131,6809.894666,2812.782580
255.789866,4749.792088,5255.462188,5551.544565
255.790174,1532.190996,1406.391290,9104.533087
255.790482,-2221.676944,-2812.782580,12509.480420
255.790790,-5669.106685,-5995.668130,16210.510130
255.791098,-8197.221829,-8512.368333,18727.210333
255.791406,-8733.488677,-9474.636058,19615.457463
255.791714,-6971.469032,-7328.038826,17616.901420
255.792022,-2221.676944,-3034.844362,12361.439231
255.792330,2068.457845,1776.494261,7105.977043
255.792638,6128.763984,4219.173869,4441.235652
255.792946,8044.002729,6587.832884,2368.659014
255.793254,8656.879127,8290.306550,1036.288319
255.793562,9193.145976,8364.327145,888.247130
255.793870,6971.469032,7179.997637,2960.823768
255.794178,4060.306139,4219.173869,5847.626942
255.794486,229.828649,-0.000000,10214.842000
255.794794,-3524.039291,-3997.112087,14285.974681
255.795102,-6741.640382,-6661.853478,16580.613101
255.795410,-8273.831378,-9104.533087,18801.230927
255.795718,-6741.640382,-7105.977043,18283.086767
255.796025,-2987.772442,-3404.947333,14285.974681
255.796333,1378.971896,592.164754,9770.718434
255.796641,4596.572988,3182.885551,5921.647536
255.796949,6818.249932,5625.565159,3552.988522
255.797257,8044.002729,6883.915261,3478.967927
255.797565,8044.002729,7624.121203,2368.659014
255.797873,6741.640382,6439.791695,3627.009116
255.798181,3370.820191,2738.761985,6957.935855
255.798489,0.000000,-444.123565,10140.821405
255.798797,-3753.867940,-4367.215058,14730.098246
255.799105,-6665.030833,-6883.915261,17098.757260
255.799413,-8503.660028,-9104.533087,19171.333898
255.799721,-7967.393179,-8734.430116,18431.127956
255.800029,-4673.182538,-5551.544565,14878.139434
255.800337,76.609550,-814.226536,10288.862594
255.800645,3830.477490,2516.700203,6069.688724
255.800953,6588.421283,4885.359217,3552.988522
255.801261,7814.174080,7179.997637,2146.597232
255.801569,8886.707777,8438.347739,814.226536
255.801877,7967.393179,8142.265362,1332.370696
255.802185,5592.497135,5995.668130,4515.256246
255.802493,1991.848295,2368.659014,7550.100608
255.802801,-1915.238745,-2368.659014,11843.295072
255.803108,-5056.230287,-5551.544565,15026.180623
255.803416,-7507.735880,-7994.224174,17098.757260
255.803724,-8044.002729,-8660.409521,18505.148550
255.804032,-5439.278036,-6365.771101,15988.448347
255.804340,-1378.971896,-1850.514855,11547.212695
255.804648,2451.505594,1184.329507,8290.306550
255.804956,5056.230287,3923.091493,4811.338623
255.805264,6894.859482,6291.750507,3701.029710
255.805572,8120.612279,6957.935855,3404.947333
255.805880,7201.297681,7031.956449,2886.803174
255.806188,4826.401637,5403.503377,5477.523971
255.806496,1378.971896,1258.350101,9030.512492
255.806804,-2834.553343,-2146.597232,13175.665768
255.807112,-5975.544884,-5625.565159,16284.530724
255.807420,-8580.269578,-8216.285956,18357.107362
255.807728,-9499.584175,-9252.574275,19467.416275
255.808036,-7507.735880,-7920.203579,17320.819043
255.808344,-2681.334243,-3108.864956,12065.356855
255.808652,2068.457845,1554.432478,8290.306550
255.808960,5286.058936,4145.153275,4071.132681
255.809268,7890.783629,6883.915261,2146.597232
255.809576,8886.707777,8364.327145,1332.370696
255.809884,8656.879127,8808.450710,370.102971
255.810192,6971.469032,7105.977043,3256.906145
255.810499,3907.087040,4441.235652,6217.729913
255.810807,-306.438199,-74.020594,10140.821405
255.811115,-3600.648841,-4367.215058,14211.954086
255.811423,-7277.907231,-6587.832884,16580.613101
255.811731,-8733.488677,-8438.347739,18949.272115
255.812039,-6971.469032,-7624.121203,18579.169144
255.812347,-3294.210641,-3849.070898,14211.954086
255.812655,842.705048,222.061783,9548.656652
255.812963,4060.306139,2738.761985,6809.894666
255.813271,6741.640382,5107.421000,4219.173869
255.813579,7890.783629,6513.812290,3330.926739
255.813887,8120.612279,7624.121203,2664.741391
255.814195,6741.640382,6809.894666,3182.885551
255.814503,3983.696590,3627.009116,6809.894666
255.814811,306.438199,-148.041188,10732.986159
255.815119,-3600.648841,-4145.153275,15248.242405
255.815427,-6511.811733,-6809.894666,17912.983796
255.815735,-8120.612279,-9474.636058,18727.210333
255.816043,-8273.831378,-9178.553681,18505.148550
255.816351,-4596.572988,-5403.503377,15174.221811
255.816659,153.219100,-666.185348,10732.986159
255.816967,4136.915689,3182.885551,5403.503377
255.817275,7048.078582,5477.523971,3552.988522
255.817583,8733.488677,7105.977043,2368.659014
255.817890,9193.145976,8734.430116,814.226536
255.818198,8733.488677,7920.203579,1850.514855
255.818506,5362.668486,5773.606348,4663.297435
255.818814,1991.848295,2146.597232,7698.141797
255.819122,-1838.629195,-2294.638420,12657.521608
255.819430,-5132.839837,-5181.441594,15396.283594
255.819738,-7507.735880,-7105.977043,17320.819043
255.820046,-7737.564530,-8512.368333,18949.272115
255.820354,-5056.230287,-6217.729913,16210.510130
255.820662,-1915.238745,-1998.556043,11917.315666
255.820970,2528.115143,1702.473667,7994.224174
255.821278,5592.497135,4515.256246,4959.379811
255.821586,7277.907231,6513.812290,3256.906145
255.821894,8197.221829,7550.100608,2442.679609
255.822202,8886.707777,7846.182985,1998.556043
255.822510,5898.935335,5551.544565,3997.112087
255.822818,2757.943793,1702.473667,8142.265362
255.823126,-995.924147,-2294.638420,12139.377449
255.823434,-5286.058936,-5625.565159,16062.468941
255.823742,-8120.612279,-8586.388927,18431.127956
255.824050,-8963.317327,-9992.780217,18949.272115
255.824358,-7277.907231,-7994.224174,17690.922014
255.824666,-3294.210641,-4071.132681,13323.706956
255.824974,1915.238745,666.185348,8142.265362
255.825281,5362.668486,3627.009116,4441.235652
255.825589,7660.954980,5551.544565,2664.741391
255.825897,8580.269578,7476.080014,1628.453072
255.826205,8120.612279,8512.368333,1110.308913
255.826513,6435.202183,6809.894666,3034.844362
255.826821,3524.039291,3849.070898,5847.626942
255.827129,459.657299,-148.041188,9918.759623
255.827437,-3753.867940,-3849.070898,14211.954086
255.827745,-6281.983084,-6291.750507,16136.489536
255.828053,-8120.612279,-8660.409521,18653.189738
255.828361,-7354.516781,-7476.080014,17838.963202
255.828669,-4136.915689,-3923.091493,14359.995275
255.828977,459.657299,-74.020594,10140.821405
255.829285,3983.696590,2886.803174,6217.729913
255.829593,6358.592633,5181.441594,3775.050304
255.829901,7354.516781,6365.771101,3108.864956
255.830209,8197.221829,7402.059420,2146.597232
255.830517,6435.202183,6513.812290,2590.720797
255.830825,4060.306139,3923.091493,6883.915261
255.831133,0.000000,-0.000000,10732.986159
255.831441,-3600.648841,-3775.050304,14804.118840
255.831749,-6358.592633,-6809.894666,17542.880825
255.832057,-7737.564530,-9030.512492,19023.292709
255.832365,-8427.050478,-8734.430116,18801.230927
255.832672,-5592.497135,-5921.647536,15914.427753
255.832980,-459.657299,-1258.350101,11177.109724
255.833288,3294.210641,2812.782580,5995.668130
255.833596,6128.763984,5329.482782,3775.050304
255.833904,8120.612279,7328.038826,2442.679609
255.834212,8810.098227,8512.368333,814.226536
255.834520,8273.831378,8068.244768,1628.453072
255.834828,5439.278036,6143.709319,4589.276840
255.835136,2221.676944,2516.700203,7994.224174
255.835444,-1225.752797,-2368.659014,12435.459826
255.835752,-5209.449386,-4737.318029,15322.262999
255.836060,-7814.174080,-7920.203579,17912.983796
255.836368,-8120.612279,-8734.430116,18949.272115
255.836676,-5975.544884,-6439.791695,16580.613101
255.836984,-1762.019645,-2368.659014,12435.459826
255.837292,2068.457845,1480.411884,8142.265362
255.837600,4979.620737,3997.112087,4811.338623
255.837908,7124.688131,6069.688724,4145.153275
255.838216,8427.050478,7846.182985,2886.803174
255.838524,7431.126331,7772.162391,2072.576638
255.838832,5745.716235,5181.441594,4737.318029
255.839140,2145.067394,1702.473667,8586.388927
255.839448,-2145.067394,-2516.700203,13175.665768
255.839756,-5209.449386,-5477.523971,17024.736666
255.840064,-7890.783629,-8734.430116,18209.066173
255.840372,-8120.612279,-9770.718434,19245.354492
255.840680,-6741.640382,-7550.100608,17246.798449
255.840988,-2221.676944,-3330.926739,12583.501014
255.841296,2374.896044,1184.329507,7105.977043
255.841604,5822.325785,4589.276840,3552.988522
255.841912,8044.002729,6143.709319,1998.556043
255.842220,9422.974625,7994.224174,962.267725
255.842528,9729.412825,8216.285956,518.144159
255.842836,6971.469032,7254.018232,1776.494261
255.843144,3370.820191,4885.359217,5329.482782
255.843452,1378.971896,-814.226536,11917.315666
255.843760,-4903.011187,-3034.844362,12879.583391
255.844068,-7354.516781,-6661.853478,17764.942608
255.844376,-8963.317327,-10140.821405,20207.622217
255.844684,-9039.926876,-8216.285956,17616.901420
255.844992,-4519.963438,-5255.462188,15692.365970
255.845300,612.876398,-74.020594,9252.574275
255.845608,3370.820191,2664.741391,6439.791695
255.845916,5592.497135,4737.318029,3701.029710
255.846224,7737.564530,6587.832884,3330.926739
255.846532,8273.831378,7179.997637,3182.885551
255.846840,6588.421283,6439.791695,2368.659014
255.847148,3447.429741,4145.153275,6957.935855
255.847456,0.000000,-1110.308913,11103.089130
255.847764,-4136.915689,-3997.112087,14878.139434
255.848072,-7048.078582,-6439.791695,16876.695478
255.848380,-8427.050478,-9104.533087,18727.210333
255.848688,-7967.393179,-8956.491898,18135.045579
255.848996,-4366.744339,-5255.462188,14656.077652
255.849304,306.438199,-814.226536,10288.862594
255.849612,3677.258390,2738.761985,5033.400406
255.849920,6818.249932,5551.544565,3404.947333
255.850228,8503.660028,7179.997637,1258.350101
255.850536,9576.193725,8512.368333,444.123565
255.850844,8580.269578,8068.244768,1480.411884
255.851152,5362.668486,6365.771101,3997.112087
255.851460,2451.505594,2368.659014,7846.182985
255.851768,-1608.800546,-2146.597232,12583.501014
255.852076,-5898.935335,-4885.359217,15914.427753
255.852384,-7660.954980,-7698.141797,18209.066173
255.852692,-8427.050478,-9104.533087,19393.395680
255.853000,-5898.935335,-6883.915261,16654.633695
255.853308,-2528.115143,-2442.679609,12213.398043
255.853616,1991.848295,962.267725,8660.409521
255.853924,5592.497135,4219.173869,5181.441594
255.854232,7354.516781,6069.688724,4219.173869
255.854540,8120.612279,6661.853478,3404.947333
255.854848,8273.831378,7179.997637,2442.679609
255.855156,5592.497135,5625.565159,4663.297435
255.855464,1991.848295,1998.556043,8882.471304
255.855772,-1915.238745,-2368.659014,13619.789333
255.856080,-5592.497135,-5107.421000,16506.592507
255.856388,-7737.564530,-8068.244768,18135.045579
255.856696,-8350.440928,-9030.512492,19023.292709
255.857004,-7048.078582,-7328.038826,17172.777854
255.857312,-1378.971896,-3775.050304,13249.686362
255.857620,1915.238745,1258.350101,6809.894666
255.857928,6052.154434,4145.153275,4145.153275
255.858236,7814.174080,5921.647536,2220.617826
255.858544,9346.365076,8364.327145,370.102971
255.858852,9806.022374,8586.388927,666.185348
255.859160,8197.221829,7476.080014,1998.556043
255.859468,4596.572988,5033.400406,5255.462188
255.859776,689.485948,-74.020594,10658.965565
255.860084,-3370.820191,-3478.967927,14434.015869
255.860392,-6741.640382,-6217.729913,16654.633695
255.860700,-8580.269578,-9030.512492,18949.272115
255.861008,-7967.393179,-8364.327145,18949.272115
255.861316,-5515.887586,-5033.400406,14878.139434
255.861624,-536.266849,-666.185348,10658.965565
255.861932,3830.477490,2812.782580,6661.853478
255.862240,6128.763984,5625.565159,3997.112087
255.862548,8120.612279,7031.956449,3256.906145
255.862856,8427.050478,7772.162391,2294.638420
255.863164,7354.516781,7550.100608,2664.741391
255.863472,4136.915689,4589.276840,6439.791695
255.863780,842.705048,-0.000000,10807.006753
255.864088,-3524.039291,-3849.070898,14656.077652
255.864396,-6894.859482,-6809.894666,17172.777854
255.864704,-7737.564530,-9770.718434,19023.292709
255.865012,-8197.221829,-9104.533087,18209.066173
255.865320,-4903.011187,-6365.771101,15248.242405
