#time,accel_x,accel_y,accel_z
227.241676,2528.115143,-0.000000,9918.759623
227.241984,2451.505594,-370.102971,9770.718434
227.242293,3294.210641,-296.082377,10140.821405
227.242601,2911.162892,-222.061783,9918.759623
227.242909,2987.772442,-74.020594,9622.677246
227.243217,3217.601092,370.102971,9400.615463
227.243525,3447.429741,370.102971,9622.677246
227.243833,4060.306139,296.082377,9548.656652
227.244142,3907.087040,592.164754,9474.636058
227.244450,4060.306139,592.164754,9104.533087
227.244758,3677.258390,888.247130,8882.471304
227.245066,3370.820191,1036.288319,9252.574275
227.245374,3217.601092,1184.329507,9622.677246
227.245682,3140.991542,740.205942,9326.594869
227.245991,2604.724693,962.267725,9400.615463
227.246299,2604.724693,296.082377,10140.821405
227.246607,2681.334243,-444.123565,10658.965565
227.246915,1838.629195,-740.205942,10807.006753
227.247223,2298.286494,-1110.308913,11103.089130
227.247531,2221.676944,-888.247130,11103.089130
227.247839,2528.115143,-962.267725,11029.068536
227.248148,2987.772442,-518.144159,10288.862594
227.248456,3140.991542,-148.041188,9770.718434
227.248764,4060.306139,-370.102971,9770.718434
227.249072,2834.553343,-222.061783,9548.656652
227.249380,3907.087040,-444.123565,9252.574275
227.249688,4213.525239,-666.185348,9252.574275
227.249997,3983.696590,-222.061783,9178.553681
227.250305,4060.306139,-222.061783,9178.553681
227.250613,4136.915689,-0.000000,9030.512492
227.250921,4443.353888,-74.020594,9622.677246
227.251229,4366.744339,-222.061783,9252.574275
227.251537,4749.792088,-0.000000,9252.574275
227.251845,4903.011187,296.082377,9104.533087
227.252154,5132.839837,444.123565,9030.512492
227.252462,5515.887586,740.205942,8586.388927
227.252770,5286.058936,740.205942,8142.265362
227.253078,5515.887586,592.164754,9030.512492
227.253386,5362.668486,962.267725,8512.368333
227.253694,4903.011187,518.144159,8364.327145
227.254003,5592.497135,1184.329507,8882.471304
227.254311,4903.011187,1702.473667,9104.533087
227.254619,4979.620737,1258.350101,9178.553681
227.254927,5286.058936,1850.514855,9030.512492
227.255235,4826.401637,1480.411884,9622.677246
227.255543,4366.744339,1184.329507,9844.739029
227.255851,3524.039291,592.164754,9918.759623
227.256160,3217.601092,-0.000000,10732.986159
227.256468,1915.238745,-148.041188,11251.130318
227.256776,1838.629195,-444.123565,11325.150913
227.257084,2298.286494,-1110.308913,10807.006753
227.257392,1991.848295,-1110.308913,11325.150913
227.257700,2374.896044,-740.205942,11473.192101
227.258009,2604.724693,-666.185348,10955.047942
227.258317,3140.991542,-518.144159,10584.944971
227.258625,3983.696590,-74.020594,10066.800811
227.258933,4826.401637,-148.041188,9622.677246
227.259241,4290.134789,-0.000000,9474.636058
227.259549,4903.011187,-444.123565,9178.553681
227.259858,4749.792088,-0.000000,9104.533087
227.260166,4826.401637,-222.061783,9178.553681
227.260474,4673.182538,-444.123565,9252.574275
227.260782,4749.792088,-0.000000,9104.533087
227.261090,4596.572988,-0.000000,8956.491898
227.261398,4826.401637,740.205942,8660.409521
227.261706,5209.449386,518.144159,8438.347739
227.262015,5056.230287,814.226536,8364.327145
227.262323,4903.011187,1480.411884,8290.306550
227.262631,4749.792088,1924.535449,7994.224174
227.262939,4136.915689,2220.617826,7698.141797
227.263247,3753.867940,2442.679609,8290.306550
227.263555,3294.210641,2368.659014,8216.285956
227.263864,2145.067394,2738.761985,8956.491898
227.264172,2221.676944,2738.761985,9252.574275
227.264480,2528.115143,2220.617826,9474.636058
227.264788,1302.362347,1702.473667,9474.636058
227.265096,612.876398,592.164754,10362.883188
227.265404,229.828649,-1258.350101,11843.295072
227.265712,-842.705048,-2294.638420,12509.480420
227.266021,-1455.581446,-3552.988522,13397.727550
227.266329,-2221.676944,-4959.379811,14211.954086
227.266637,-1991.848295,-5107.421000,14211.954086
227.266945,-1149.143247,-4145.153275,13027.624579
227.267253,536.266849,-3182.885551,12065.356855
227.267561,2221.676944,-1998.556043,10658.965565
227.267870,3294.210641,-0.000000,8364.327145
227.268178,4903.011187,1628.453072,7550.100608
227.268486,6205.373534,2516.700203,6957.935855
227.268794,5898.935335,2812.782580,5773.606348
227.269102,5132.839837,2738.761985,5033.400406
227.269410,4290.134789,2516.700203,5773.606348
227.269718,3447.429741,2516.700203,6735.874072
227.270027,2298.286494,2368.659014,6661.853478
227.270335,1762.019645,2664.741391,7254.018232
227.270643,1685.410096,1998.556043,7550.100608
227.270951,842.705048,1628.453072,8734.430116
227.271259,383.047749,1258.350101,10362.883188
227.271567,0.000000,-592.164754,10140.821405
227.271876,-1072.533697,-1110.308913,10584.944971
227.272184,-995.924147,-2294.638420,12657.521608
227.272492,-1915.238745,-3330.926739,13619.789333
227.272800,-2451.505594,-3627.009116,14137.933492
227.273108,-2298.286494,-3775.050304,13619.789333
227.273416,-1762.019645,-3701.029710,13915.871710
227.273725,-1378.971896,-3256.906145,12583.501014
227.274033,459.657299,-1998.556043,11695.253884
227.274341,1838.629195,-814.226536,9992.780217
227.274649,2528.115143,666.185348,7772.162391
227.274957,3600.648841,1998.556043,6661.853478
227.275265,4443.353888,3478.967927,6439.791695
227.275573,5132.839837,4145.153275,5921.647536
227.275881,4826.401637,5477.523971,4737.318029
227.276189,4519.963438,5255.462188,4515.256246
227.276497,3677.258390,4737.318029,5921.647536
227.276805,1991.848295,4071.132681,6365.771101
227.277113,919.314598,2516.700203,8956.491898
227.277421,-995.924147,148.041188,10288.862594
227.277728,-2757.943793,-2368.659014,12805.562797
227.278036,-3600.648841,-3997.112087,14508.036463
227.278344,-4366.744339,-4589.276840,14508.036463
227.278652,-3830.477490,-5033.400406,14804.118840
227.278960,-2451.505594,-4737.318029,13841.851115
227.279268,-1378.971896,-2664.741391,12509.480420
227.279576,919.314598,-1998.556043,11029.068536
227.279884,2757.943793,-148.041188,8512.368333
227.280192,3447.429741,1702.473667,7105.977043
227.280499,4673.182538,2738.761985,6365.771101
227.280807,4903.011187,3627.009116,7031.956449
227.281115,4596.572988,3701.029710,5773.606348
227.281423,3677.258390,3775.050304,5477.523971
227.281731,3064.381992,3034.844362,6291.750507
227.282039,2451.505594,1628.453072,7402.059420
227.282347,842.705048,370.102971,8882.471304
227.282655,153.219100,-814.226536,10732.986159
227.282963,-689.485948,-2220.617826,11991.336260
227.283271,-1532.190996,-2960.823768,12879.583391
227.283578,-1225.752797,-3701.029710,13249.686362
227.283886,-306.438199,-2960.823768,12879.583391
227.284194,76.609550,-2368.659014,11843.295072
227.284502,995.924147,-1110.308913,10807.006753
227.284810,2298.286494,296.082377,9474.636058
227.285118,2757.943793,1332.370696,7920.203579
227.285426,3217.601092,2664.741391,7254.018232
227.285734,3524.039291,3108.864956,7105.977043
227.286042,3294.210641,3701.029710,6069.688724
227.286349,3064.381992,4145.153275,6809.894666
227.286657,2451.505594,3404.947333,7476.080014
227.286965,1378.971896,2368.659014,8068.244768
227.287273,153.219100,740.205942,9252.574275
227.287581,-919.314598,-1110.308913,11103.089130
227.287889,-1991.848295,-2738.761985,12953.603985
227.288197,-2681.334243,-3182.885551,13619.789333
227.288505,-2451.505594,-3552.988522,13767.830521
227.288813,-1762.019645,-2812.782580,13027.624579
227.289120,0.000000,-1110.308913,11843.295072
227.289428,1608.800546,-0.000000,10288.862594
227.289736,3140.991542,1332.370696,7994.224174
227.290044,4366.744339,2294.638420,6661.853478
227.290352,4903.011187,2738.761985,5773.606348
227.290660,4596.572988,2886.803174,5625.565159
227.290968,3524.039291,3108.864956,6217.729913
227.291276,2604.724693,3330.926739,6735.874072
227.291584,1608.800546,2442.679609,7402.059420
227.291892,0.000000,1184.329507,8808.450710
227.292199,-766.095498,-0.000000,10881.027347
227.292507,-2068.457845,-1702.473667,12287.418637
227.292815,-4366.744339,-4145.153275,14211.954086
227.293123,-3600.648841,-4293.194464,15470.304188
227.293431,-3524.039291,-4663.297435,15396.283594
227.293739,-2681.334243,-4293.194464,14952.160028
227.294047,-1991.848295,-2146.597232,12361.439231
227.294355,-383.047749,-814.226536,10881.027347
227.294663,1455.581446,1036.288319,9104.533087
227.294970,2451.505594,1924.535449,7550.100608
227.295278,3524.039291,3404.947333,6217.729913
227.295586,3830.477490,3404.947333,5329.482782
227.295894,4519.963438,4071.132681,5107.421000
227.296202,3600.648841,4885.359217,3997.112087
227.296510,3217.601092,4145.153275,5403.503377
227.296818,2451.505594,2886.803174,7031.956449
227.297126,689.485948,1406.391290,8734.430116
227.297434,-919.314598,-444.123565,10510.924376
227.297741,-2145.067394,-2146.597232,11843.295072
227.298049,-3140.991542,-3404.947333,13767.830521
227.298357,-4290.134789,-3775.050304,13915.871710
227.298665,-3447.429741,-3330.926739,14285.974681
227.298973,-2528.115143,-2738.761985,13545.768739
227.299281,-1225.752797,-1110.308913,11325.150913
227.299589,689.485948,-0.000000,9548.656652
227.299897,2145.067394,1110.308913,8142.265362
227.300205,2681.334243,2146.597232,7105.977043
227.300513,3064.381992,2220.617826,7105.977043
227.300820,3217.601092,2664.741391,6957.935855
227.301128,2451.505594,2590.720797,6365.771101
227.301436,2451.505594,2516.700203,6957.935855
227.301744,2145.067394,2220.617826,7328.038826
227.302052,1608.800546,814.226536,8438.347739
227.302360,153.219100,-666.185348,10214.842000
227.302668,-766.095498,-2368.659014,11843.295072
227.302976,-2145.067394,-4219.173869,12805.562797
227.303284,-2987.772442,-4515.256246,13841.851115
227.303591,-2451.505594,-4219.173869,14137.933492
227.303899,-1838.629195,-3108.864956,13175.665768
227.304207,-612.876398,-2146.597232,11843.295072
227.304515,76.609550,-740.205942,9918.759623
227.304823,2068.457845,592.164754,8290.306550
227.305131,2834.553343,1998.556043,6809.894666
227.305439,3753.867940,2812.782580,5625.565159
227.305747,4443.353888,3108.864956,5847.626942
227.306055,4136.915689,4293.194464,5699.585753
227.306362,3370.820191,3923.091493,5181.441594
227.306670,2757.943793,3108.864956,5995.668130
227.306978,1455.581446,2294.638420,7550.100608
227.307286,0.000000,370.102971,9622.677246
227.307594,-1532.190996,-1554.432478,11547.212695
227.307902,-2604.724693,-2294.638420,12953.603985
227.308210,-3294.210641,-3923.091493,14063.912898
227.308518,-3217.601092,-3627.009116,14211.954086
227.308826,-2451.505594,-2738.761985,13767.830521
227.309134,-842.705048,-1702.473667,12657.521608
227.309441,383.047749,-370.102971,10807.006753
227.309749,2451.505594,1406.391290,8882.471304
227.310057,3524.039291,1776.494261,7328.038826
227.310365,4136.915689,2886.803174,6587.832884
227.310673,3983.696590,3256.906145,6291.750507
227.310981,4136.915689,3552.988522,6587.832884
227.311289,3140.991542,3478.967927,6365.771101
227.311597,2834.553343,2960.823768,7254.018232
227.311905,2145.067394,2072.576638,8734.430116
227.312212,306.438199,370.102971,9992.780217
227.312520,-766.095498,-1480.411884,11843.295072
227.312828,-2374.896044,-3108.864956,13693.809927
227.313136,-3600.648841,-4293.194464,14878.139434
227.313444,-4213.525239,-4293.194464,15396.283594
227.313752,-2834.553343,-4071.132681,14656.077652
227.314060,-1915.238745,-3108.864956,13323.706956
227.314368,0.000000,-1332.370696,11769.274478
227.314676,1532.190996,592.164754,9326.594869
227.314984,3753.867940,2368.659014,7105.977043
227.315291,4060.306139,3034.844362,6217.729913
227.315599,4290.134789,4293.194464,5329.482782
227.315907,4903.011187,4663.297435,5033.400406
227.316215,4213.525239,4293.194464,4737.318029
227.316523,3294.210641,3997.112087,5477.523971
227.316831,2757.943793,2812.782580,7402.059420
227.317139,842.705048,888.247130,9252.574275
227.317447,-919.314598,-814.226536,11029.068536
227.317755,-1915.238745,-2146.597232,12509.480420
227.318062,-3217.601092,-3330.926739,13619.789333
227.318370,-4443.353888,-4219.173869,14656.077652
227.318678,-3370.820191,-3701.029710,14434.015869
227.318986,-2145.067394,-2516.700203,13619.789333
227.319294,-459.657299,-1406.391290,11843.295072
227.319602,1378.971896,592.164754,9326.594869
227.319910,3524.039291,2146.597232,7624.121203
227.320218,3753.867940,2738.761985,6365.771101
227.320526,4136.915689,2960.823768,5921.647536
227.320833,4136.915689,4145.153275,5995.668130
227.321141,3370.820191,3404.947333,5847.626942
227.321449,2681.334243,2516.700203,6217.729913
227.321757,2221.676944,2368.659014,7476.080014
227.322065,842.705048,592.164754,9400.615463
227.322373,-1149.143247,-1036.288319,10732.986159
227.322681,-1915.238745,-2368.659014,12361.439231
227.322989,-3447.429741,-4071.132681,13915.871710
227.323297,-4060.306139,-5255.462188,14508.036463
227.323605,-3677.258390,-4737.318029,15026.180623
227.323912,-2987.772442,-3552.988522,14211.954086
227.324220,-1149.143247,-2442.679609,11917.315666
227.324528,229.828649,-518.144159,9474.636058
227.324836,2757.943793,1702.473667,7105.977043
227.325144,3447.429741,3034.844362,6365.771101
227.325452,4290.134789,3330.926739,5773.606348
227.325760,4673.182538,4589.276840,4959.379811
227.326068,3983.696590,4663.297435,4145.153275
227.326376,3217.601092,3923.091493,4811.338623
227.326683,2604.724693,3034.844362,6143.709319
227.326991,1532.190996,2072.576638,7994.224174
227.327299,76.609550,-0.000000,10510.924376
227.327607,-2068.457845,-1850.514855,11473.192101
227.327915,-3524.039291,-3404.947333,12435.459826
227.328223,-4060.306139,-4145.153275,14211.954086
227.328531,-3983.696590,-4071.132681,14656.077652
227.328839,-2987.772442,-2738.761985,14063.912898
227.329147,-995.924147,-2146.597232,12657.521608
227.329454,229.828649,-148.041188,10140.821405
227.329762,2068.457845,1998.556043,8586.388927
227.330070,3753.867940,2294.638420,7402.059420
227.330378,3830.477490,3182.885551,5921.647536
227.330686,3753.867940,3849.070898,5699.585753
227.330994,3447.429741,3627.009116,5921.647536
227.331302,2757.943793,3182.885551,6291.750507
227.331610,2298.286494,2960.823768,7254.018232
227.331918,1762.019645,1850.514855,8586.388927
227.332226,153.219100,-0.000000,10066.800811
227.332533,-1378.971896,-1776.494261,11843.295072
227.332841,-2528.115143,-3182.885551,13545.768739
227.333149,-4060.306139,-5033.400406,15174.221811
227.333457,-3830.477490,-5255.462188,15322.262999
227.333765,-3370.820191,-4145.153275,14656.077652
227.334073,-1915.238745,-3108.864956,13175.665768
227.334381,-612.876398,-1406.391290,10881.027347
227.334689,2757.943793,962.267725,9104.533087
227.334997,3140.991542,2368.659014,6143.709319
227.335304,4136.915689,3034.844362,6069.688724
227.335612,4673.182538,3108.864956,5625.565159
227.335920,3983.696590,4737.318029,4293.194464
227.336228,3677.258390,3256.906145,5255.462188
227.336536,3064.381992,3552.988522,5403.503377
227.336844,2451.505594,3108.864956,7254.018232
227.337152,1225.752797,1184.329507,8586.388927
227.337460,-306.438199,-370.102971,10362.883188
227.337768,-2374.896044,-1850.514855,11695.253884
227.338075,-3294.210641,-3330.926739,12731.542202
227.338383,-3524.039291,-4071.132681,14508.036463
227.338691,-3217.601092,-3627.009116,14285.974681
227.338999,-1838.629195,-2960.823768,13619.789333
227.339307,-153.219100,-1628.453072,11399.171507
227.339615,1915.238745,444.123565,9992.780217
227.339923,3294.210641,1036.288319,8438.347739
227.340231,3983.696590,2368.659014,6143.709319
227.340539,4213.525239,3478.967927,6365.771101
227.340847,4060.306139,3256.906145,6291.750507
227.341154,3983.696590,3256.906145,6217.729913
227.341462,3370.820191,3108.864956,6661.853478
227.341770,2145.067394,3256.906145,7550.100608
227.342078,1685.410096,1480.411884,8808.450710
227.342386,383.047749,-814.226536,10510.924376
227.342694,-1455.581446,-1776.494261,11695.253884
227.343002,-3140.991542,-4219.173869,13545.768739
227.343310,-3677.258390,-5329.482782,15248.242405
227.343618,-3524.039291,-4737.318029,15322.262999
227.343925,-2451.505594,-4219.173869,14211.954086
227.344233,-766.095498,-2738.761985,12287.418637
227.344541,995.924147,-296.082377,9992.780217
227.344849,3524.039291,2220.617826,8142.265362
227.345157,4749.792088,2442.679609,6883.915261
227.345465,4826.401637,3627.009116,4885.359217
227.345773,4749.792088,4885.359217,4367.215058
227.346081,4519.963438,4071.132681,4811.338623
227.346389,3370.820191,3627.009116,5033.400406
227.346697,2604.724693,3256.906145,6809.894666
227.347004,2145.067394,1998.556043,8882.471304
227.347312,-689.485948,740.205942,9548.656652
227.347620,-1532.190996,-1332.370696,11843.295072
227.347928,-2834.553343,-2368.659014,12361.439231
227.348236,-4136.915689,-4293.194464,14211.954086
227.348544,-3830.477490,-4145.153275,14878.139434
227.348852,-2757.943793,-3034.844362,13989.892304
227.349160,-1608.800546,-2442.679609,12583.501014
227.349468,153.219100,592.164754,9696.697840
227.349775,2834.553343,1184.329507,8956.491898
227.350083,3907.087040,3182.885551,7105.977043
227.350391,4060.306139,3627.009116,5477.523971
227.350699,3983.696590,4441.235652,5995.668130
227.351007,3524.039291,3034.844362,6143.709319
227.351315,2987.772442,3552.988522,6513.812290
227.351623,2451.505594,2960.823768,7476.080014
227.351931,1225.752797,1258.350101,8438.347739
227.352239,-459.657299,-592.164754,10584.944971
227.352546,-1991.848295,-2220.617826,11991.336260
227.352854,-3600.648841,-3997.112087,13841.851115
227.353162,-4826.401637,-5329.482782,15100.201217
227.353470,-4673.182538,-5477.523971,15988.448347
227.353778,-3600.648841,-4589.276840,14804.118840
227.354086,-2528.115143,-3034.844362,12731.542202
227.354394,76.609550,-1036.288319,10140.821405
227.354702,2987.772442,1998.556043,7920.203579
227.355010,3830.477490,2294.638420,6735.874072
227.355318,4366.744339,3256.906145,4663.297435
227.355625,4673.182538,4737.318029,4737.318029
227.355933,3753.867940,3997.112087,4663.297435
227.356241,3830.477490,3108.864956,5181.441594
227.356549,2604.724693,2886.803174,5995.668130
227.356857,1455.581446,2368.659014,7328.038826
227.357165,459.657299,370.102971,9400.615463
227.357473,-1608.800546,-888.247130,10807.006753
227.357781,-2757.943793,-2072.576638,12213.398043
227.358089,-3983.696590,-3701.029710,12953.603985
227.358396,-4060.306139,-4145.153275,14878.139434
227.358704,-3447.429741,-3552.988522,14359.995275
227.359012,-2221.676944,-2442.679609,13323.706956
227.359320,-995.924147,-444.123565,10658.965565
227.359628,1302.362347,888.247130,9474.636058
227.359936,2911.162892,2294.638420,7920.203579
227.360244,3294.210641,2516.700203,6291.750507
227.360552,3983.696590,3256.906145,5995.668130
227.360860,3600.648841,2812.782580,6069.688724
227.361167,3294.210641,3034.844362,6661.853478
227.361475,3064.381992,2664.741391,7105.977043
227.361783,2221.676944,2368.659014,7994.224174
227.362091,1149.143247,740.205942,9178.553681
227.362399,-229.828649,-888.247130,11103.089130
227.362707,-2068.457845,-2220.617826,12361.439231
227.363015,-3140.991542,-3997.112087,13767.830521
227.363323,-3294.210641,-4737.318029,15026.180623
227.363631,-3524.039291,-4071.132681,14508.036463
227.363939,-1838.629195,-3256.906145,13915.871710
227.364246,536.266849,-1776.494261,11843.295072
227.364554,2068.457845,962.267725,9030.512492
227.364862,3907.087040,1406.391290,8068.244768
227.365170,4213.525239,2738.761985,5995.668130
227.365478,4213.525239,3330.926739,5625.565159
227.365786,3983.696590,3478.967927,6217.729913
227.366094,3064.381992,2664.741391,6069.688724
227.366402,2451.505594,3775.050304,6291.750507
227.366710,2757.943793,3256.906145,7105.977043
227.367017,1225.752797,1702.473667,7402.059420
227.367325,229.828649,1184.329507,9474.636058
227.367633,-612.876398,-740.205942,11695.253884
227.367941,-2528.115143,-2442.679609,12435.459826
227.368249,-3370.820191,-3701.029710,14211.954086
227.368557,-2757.943793,-3775.050304,14730.098246
227.368865,-1915.238745,-3182.885551,13989.892304
227.369173,-459.657299,-1998.556043,12583.501014
227.369481,766.095498,-296.082377,10140.821405
227.369788,3064.381992,1554.432478,8512.368333
227.370096,3677.258390,2294.638420,7105.977043
227.370404,4290.134789,3478.967927,6143.709319
227.370712,4213.525239,4219.173869,5625.565159
227.371020,3907.087040,4071.132681,5847.626942
227.371328,2987.772442,3775.050304,6439.791695
227.371636,2757.943793,3404.947333,7402.059420
227.371944,1302.362347,1332.370696,8734.430116
227.372252,-306.438199,-74.020594,9918.759623
227.372560,-1991.848295,-1850.514855,12287.418637
227.372867,-3447.429741,-3627.009116,13989.892304
227.373175,-4213.525239,-5551.544565,15322.262999
227.373483,-4060.306139,-5181.441594,15544.324782
227.373791,-2451.505594,-4515.256246,14508.036463
227.374099,-842.705048,-3552.988522,12139.377449
227.374407,0.000000,-740.205942,10955.047942
227.374715,2451.505594,888.247130,8216.285956
227.375023,3907.087040,2886.803174,6217.729913
227.375331,4443.353888,3775.050304,5625.565159
227.375638,4903.011187,4071.132681,4663.297435
227.375946,4443.353888,4293.194464,5255.462188
227.376254,3600.648841,3997.112087,4737.318029
227.376562,2298.286494,3330.926739,6069.688724
227.376870,1762.019645,1702.473667,7550.100608
227.377178,383.047749,518.144159,8586.388927
227.377486,-1378.971896,-1184.329507,10955.047942
227.377794,-2298.286494,-2960.823768,12583.501014
227.378102,-3524.039291,-4145.153275,13545.768739
227.378410,-3447.429741,-4589.276840,14211.954086
227.378718,-2604.724693,-3997.112087,14063.912898
227.379026,-1991.848295,-2590.720797,13545.768739
227.379334,0.000000,-1332.370696,11029.068536
227.379642,1455.581446,814.226536,8734.430116
227.379950,2757.943793,2294.638420,6957.935855
227.380258,3524.039291,2960.823768,6439.791695
227.380566,3830.477490,3404.947333,6217.729913
227.380874,3294.210641,3627.009116,5921.647536
227.381183,3294.210641,3923.091493,5625.565159
227.381491,2911.162892,3108.864956,6809.894666
227.381799,1608.800546,1554.432478,8216.285956
227.382107,153.219100,-74.020594,10066.800811
227.382415,-1532.190996,-1702.473667,11843.295072
227.382723,-2757.943793,-3034.844362,13397.727550
227.383031,-3524.039291,-4663.297435,14730.098246
227.383339,-4060.306139,-4811.338623,14285.974681
227.383647,-2911.162892,-3701.029710,14063.912898
227.383955,-1608.800546,-2738.761985,12509.480420
227.384263,0.000000,-962.267725,11029.068536
227.384571,1685.410096,814.226536,9252.574275
227.384879,2911.162892,2368.659014,7105.977043
227.385187,3524.039291,3108.864956,6217.729913
227.385495,3983.696590,3552.988522,5847.626942
227.385803,4213.525239,3108.864956,5625.565159
227.386111,2911.162892,3182.885551,5625.565159
227.386419,2068.457845,3256.906145,6217.729913
227.386727,1762.019645,1924.535449,7772.162391
227.387035,459.657299,814.226536,9104.533087
227.387343,-842.705048,-444.123565,10658.965565
227.387651,-1838.629195,-1998.556043,11843.295072
227.387959,-2681.334243,-3034.844362,13175.665768
227.388267,-2834.553343,-3108.864956,13619.789333
227.388575,-2604.724693,-2516.700203,13693.809927
227.388883,-1608.800546,-1776.494261,12953.603985
227.389191,-383.047749,-444.123565,11547.212695
227.389499,919.314598,518.144159,9844.739029
227.389807,2451.505594,1406.391290,8512.368333
227.390115,3370.820191,2590.720797,7179.997637
227.390424,3677.258390,3182.885551,6513.812290
227.390732,3983.696590,3478.967927,6365.771101
227.391040,3677.258390,3404.947333,6883.915261
227.391348,2604.724693,3034.844362,6513.812290
227.391656,2451.505594,2368.659014,7476.080014
227.391964,1149.143247,1110.308913,9400.615463
227.392272,-383.047749,-666.185348,11177.109724
227.392580,-1838.629195,-1998.556043,12657.521608
227.392888,-3064.381992,-3256.906145,13841.851115
227.393196,-3217.601092,-4663.297435,15322.262999
227.393504,-3677.258390,-4293.194464,14508.036463
227.393812,-2068.457845,-3478.967927,13693.809927
227.394120,-1608.800546,-1480.411884,12213.398043
227.394428,995.924147,-370.102971,10362.883188
227.394736,2451.505594,1480.411884,7920.203579
227.395044,3753.867940,2516.700203,6439.791695
227.395352,4213.525239,2812.782580,6143.709319
227.395660,4060.306139,3182.885551,5625.565159
227.395968,3907.087040,3182.885551,5995.668130
227.396276,3907.087040,3034.844362,5477.523971
227.396584,2374.896044,2516.700203,5477.523971
227.396892,2145.067394,1776.494261,7772.162391
227.397200,689.485948,1110.308913,8660.409521
227.397508,-229.828649,-592.164754,10436.903782
227.397816,-1072.533697,-1628.453072,11473.192101
227.398124,-2451.505594,-2812.782580,12805.562797
227.398432,-2681.334243,-3849.070898,13545.768739
227.398740,-2528.115143,-3256.906145,13841.851115
227.399048,-1608.800546,-2516.700203,13175.665768
227.399356,-229.828649,-1258.350101,11251.130318
227.399665,1455.581446,518.144159,9622.677246
227.399973,2681.334243,1480.411884,7698.141797
227.400281,4213.525239,2516.700203,5995.668130
227.400589,3983.696590,3256.906145,5921.647536
227.400897,4366.744339,3256.906145,6365.771101
227.401205,3524.039291,2738.761985,6143.709319
227.401513,2374.896044,2442.679609,7105.977043
227.401821,1608.800546,1702.473667,8364.327145
227.402129,0.000000,-0.000000,9770.718434
227.402437,-1685.410096,-1554.432478,11917.315666
227.402745,-3064.381992,-3034.844362,13249.686362
227.403053,-3830.477490,-4145.153275,14582.057057
227.403361,-4290.134789,-4219.173869,14804.118840
227.403669,-2528.115143,-4071.132681,14211.954086
227.403977,-2374.896044,-2442.679609,12657.521608
227.404285,76.609550,-962.267725,10955.047942
227.404593,1991.848295,666.185348,8808.450710
227.404901,3447.429741,2368.659014,6587.832884
227.405209,4443.353888,2960.823768,6143.709319
227.405517,4366.744339,2886.803174,4885.359217
227.405825,4060.306139,3256.906145,5551.544565
227.406133,3294.210641,3256.906145,5255.462188
227.406441,2528.115143,2516.700203,5551.544565
227.406749,1762.019645,2368.659014,7328.038826
227.407057,766.095498,1628.453072,8438.347739
227.407365,0.000000,148.041188,9918.759623
227.407673,-1302.362347,-1110.308913,11769.274478
227.407981,-1915.238745,-2812.782580,12657.521608
227.408289,-3447.429741,-3627.009116,13619.789333
227.408597,-3600.648841,-3775.050304,14582.057057
227.408906,-2604.724693,-2738.761985,14211.954086
227.409214,-1378.971896,-1480.411884,12805.562797
227.409522,536.266849,-0.000000,10658.965565
227.409830,2374.896044,1332.370696,8216.285956
227.410138,3370.820191,2886.803174,6883.915261
227.410446,4749.792088,3034.844362,5921.647536
227.410754,4213.525239,3849.070898,5995.668130
227.411062,4596.572988,3701.029710,6143.709319
227.411370,3370.820191,2960.823768,6365.771101
227.411678,2145.067394,2220.617826,7328.038826
227.411986,766.095498,888.247130,9400.615463
227.412294,-842.705048,-888.247130,11103.089130
227.412602,-2221.676944,-2442.679609,12657.521608
227.412910,-3677.258390,-3552.988522,13989.892304
227.413218,-4903.011187,-4663.297435,14730.098246
227.413526,-3600.648841,-3701.029710,14878.139434
227.413834,-2451.505594,-2960.823768,14063.912898
227.414142,-459.657299,-1110.308913,11769.274478
227.414450,1225.752797,148.041188,9696.697840
227.414758,2911.162892,1702.473667,8068.244768
227.415066,4060.306139,2146.597232,6587.832884
227.415374,4673.182538,3108.864956,5477.523971
227.415682,4136.915689,2960.823768,6069.688724
227.415990,3370.820191,2812.782580,5847.626942
227.416298,3217.601092,2812.782580,5921.647536
227.416606,2298.286494,2590.720797,6439.791695
227.416914,1838.629195,1628.453072,7476.080014
227.417222,536.266849,592.164754,8882.471304
227.417530,-459.657299,-814.226536,10510.924376
227.417838,-1838.629195,-2368.659014,12583.501014
227.418147,-2451.505594,-2812.782580,13397.727550
227.418455,-3294.210641,-3849.070898,14434.015869
227.418763,-2834.553343,-2960.823768,13471.748144
227.419071,-1378.971896,-2146.597232,12805.562797
227.419379,229.828649,-518.144159,11547.212695
227.419687,2374.896044,1258.350101,9030.512492
227.419995,4060.306139,2368.659014,7179.997637
227.420303,4060.306139,3330.926739,6217.729913
227.420611,4903.011187,3034.844362,5995.668130
227.420919,4213.525239,3034.844362,6365.771101
227.421227,3217.601092,3034.844362,6513.812290
227.421535,2221.676944,2442.679609,7179.997637
227.421843,1225.752797,1406.391290,8438.347739
227.422151,0.000000,-0.000000,10288.862594
227.422459,-1685.410096,-1628.453072,11917.315666
227.422767,-2911.162892,-3108.864956,13471.748144
227.423075,-3830.477490,-3404.947333,14434.015869
227.423383,-3830.477490,-3775.050304,14656.077652
227.423691,-2911.162892,-3256.906145,14137.933492
227.423999,-1532.190996,-2294.638420,12731.542202
227.424307,229.828649,-222.061783,10658.965565
227.424615,2681.334243,1258.350101,9104.533087
227.424923,3294.210641,2146.597232,7476.080014
227.425231,3753.867940,3108.864956,5921.647536
227.425539,3677.258390,2960.823768,5699.585753
227.425847,3600.648841,2886.803174,5477.523971
227.426155,3524.039291,3108.864956,5847.626942
227.426463,2987.772442,3182.885551,5847.626942
227.426771,2451.505594,2442.679609,6587.832884
227.427079,1532.190996,1628.453072,7846.182985
227.427388,689.485948,-148.041188,9474.636058
227.427696,-842.705048,-1554.432478,11917.315666
227.428004,-2374.896044,-2812.782580,13249.686362
227.428312,-3753.867940,-3997.112087,14285.974681
227.428620,-3447.429741,-3627.009116,14211.954086
227.428928,-2298.286494,-2664.741391,13545.768739
227.429236,-995.924147,-1480.411884,12213.398043
227.429544,1072.533697,-74.020594,10140.821405
227.429852,2604.724693,1258.350101,8142.265362
227.430160,4366.744339,1998.556043,6809.894666
227.430468,3677.258390,3256.906145,5625.565159
227.430776,4443.353888,3701.029710,5625.565159
227.431084,4060.306139,3627.009116,5921.647536
227.431392,2757.943793,3552.988522,5847.626942
227.431700,1915.238745,2368.659014,7476.080014
227.432008,536.266849,1332.370696,9326.594869
227.432316,-842.705048,-888.247130,11029.068536
227.432624,-2451.505594,-2294.638420,12805.562797
227.432932,-3830.477490,-3849.070898,14211.954086
227.433240,-4290.134789,-4367.215058,14434.015869
227.433548,-4673.182538,-3997.112087,14508.036463
227.433856,-2834.553343,-3330.926739,14063.912898
227.434164,-1378.971896,-2072.576638,12287.418637
227.434472,1072.533697,148.041188,9770.718434
227.434780,2221.676944,814.226536,8438.347739
227.435088,3524.039291,1850.514855,6439.791695
227.435396,3217.601092,2812.782580,5625.565159
227.435704,3830.477490,3108.864956,5403.503377
227.436012,3524.039291,3404.947333,5329.482782
227.436321,3370.820191,3330.926739,5625.565159
227.436629,2911.162892,2812.782580,5847.626942
227.436937,2145.067394,1924.535449,7105.977043
227.437245,1378.971896,370.102971,8660.409521
227.437553,-919.314598,-1258.350101,10955.047942
227.437861,-2068.457845,-2886.803174,12879.583391
227.438169,-3217.601092,-3627.009116,13841.851115
227.438477,-3447.429741,-3923.091493,14359.995275
227.438785,-2757.943793,-3108.864956,13693.809927
227.439093,-1455.581446,-1998.556043,12509.480420
227.439401,536.266849,-666.185348,11251.130318
227.439709,1991.848295,444.123565,8956.491898
227.440017,3830.477490,2146.597232,7402.059420
227.440325,3294.210641,2812.782580,5921.647536
227.440633,4596.572988,3701.029710,5773.606348
227.440941,4060.306139,3849.070898,6291.750507
227.441249,3217.601092,3701.029710,6365.771101
227.441557,2528.115143,2738.761985,7254.018232
227.441865,1225.752797,1850.514855,8808.450710
227.442173,536.266849,-0.000000,10584.944971
227.442481,-1149.143247,-1998.556043,12139.377449
227.442789,-2451.505594,-2886.803174,13841.851115
227.443097,-3907.087040,-4071.132681,14359.995275
227.443405,-3830.477490,-3330.926739,14582.057057
227.443713,-2834.553343,-2960.823768,14063.912898
227.444021,-1302.362347,-1776.494261,12879.583391
227.444329,76.609550,-148.041188,10807.006753
227.444637,2145.067394,962.267725,9622.677246
227.444945,3217.601092,1702.473667,7476.080014
227.445253,3524.039291,2442.679609,5551.544565
227.445562,3907.087040,3330.926739,5847.626942
227.445870,3983.696590,2738.761985,6143.709319
227.446178,3140.991542,3404.947333,5403.503377
227.446486,2681.334243,2960.823768,6143.709319
227.446794,2068.457845,2220.617826,6809.894666
227.447102,1072.533697,1110.308913,8068.244768
227.447410,-76.609550,-222.061783,10362.883188
227.447718,-1838.629195,-1628.453072,12065.356855
227.448026,-2911.162892,-3256.906145,13249.686362
227.448334,-3370.820191,-3701.029710,14137.933492
227.448642,-3140.991542,-3775.050304,14211.954086
227.448950,-2681.334243,-3108.864956,13249.686362
227.449258,-919.314598,-1554.432478,12139.377449
227.449566,919.314598,-74.020594,10584.944971
227.449874,2451.505594,1258.350101,7920.203579
227.450182,4519.963438,2664.741391,6217.729913
227.450490,4903.011187,3627.009116,5403.503377
227.450798,4596.572988,3627.009116,5625.565159
227.451106,4213.525239,3775.050304,5847.626942
227.451414,3447.429741,3775.050304,6587.832884
227.451722,2068.457845,2146.597232,7550.100608
227.452030,689.485948,592.164754,9104.533087
227.452338,-689.485948,-296.082377,11029.068536
227.452646,-2911.162892,-2590.720797,12731.542202
227.452954,-3677.258390,-3404.947333,13915.871710
227.453262,-4213.525239,-3923.091493,14878.139434
227.453570,-3830.477490,-4145.153275,14656.077652
227.453878,-2757.943793,-3182.885551,13471.748144
227.454186,-1072.533697,-1628.453072,11621.233289
227.454494,1225.752797,-444.123565,9696.697840
227.454803,2451.505594,962.267725,7994.224174
227.455111,3677.258390,2368.659014,6587.832884
227.455419,3983.696590,3182.885551,5625.565159
227.455727,4060.306139,3478.967927,5181.441594
227.456035,3983.696590,3478.967927,5255.462188
227.456343,3600.648841,3552.988522,5551.544565
227.456651,2451.505594,2886.803174,5847.626942
227.456959,2451.505594,1998.556043,7624.121203
227.457267,612.876398,666.185348,8882.471304
227.457575,-919.314598,-1036.288319,11029.068536
227.457883,-2528.115143,-3108.864956,12879.583391
227.458191,-3524.039291,-3923.091493,14211.954086
227.458499,-4060.306139,-4441.235652,14508.036463
227.458807,-2987.772442,-3701.029710,13693.809927
227.459115,-2145.067394,-2368.659014,12657.521608
227.459423,229.828649,-518.144159,11251.130318
227.459731,2604.724693,296.082377,8586.388927
227.460039,3370.820191,2516.700203,6883.915261
227.460347,4519.963438,3182.885551,5773.606348
227.460655,4749.792088,3627.009116,5551.544565
227.460963,4443.353888,3849.070898,5921.647536
227.461271,3830.477490,3182.885551,6661.853478
227.461579,2298.286494,2516.700203,6957.935855
227.461887,842.705048,1184.329507,8068.244768
227.462195,-306.438199,-74.020594,10288.862594
227.462503,-2298.286494,-1554.432478,11917.315666
227.462811,-3294.210641,-2960.823768,13915.871710
227.463119,-4060.306139,-3478.967927,14582.057057
227.463427,-4213.525239,-3627.009116,14508.036463
227.463735,-3370.820191,-3034.844362,14063.912898
227.464044,-1302.362347,-2146.597232,12953.603985
227.464352,383.047749,-1036.288319,11325.150913
227.464660,1455.581446,1184.329507,9326.594869
227.464968,2987.772442,1776.494261,7105.977043
227.465276,3370.820191,2886.803174,6069.688724
227.465584,3907.087040,3256.906145,5625.565159
227.465892,3907.087040,3478.967927,5477.523971
227.466200,3677.258390,3627.009116,5329.482782
227.466508,3140.991542,3108.864956,5773.606348
227.466816,2681.334243,1998.556043,6883.915261
227.467124,1378.971896,888.247130,8142.265362
227.467432,0.000000,-370.102971,10436.903782
227.467740,-1915.238745,-2368.659014,11843.295072
227.468048,-3064.381992,-3849.070898,13619.789333
227.468356,-3983.696590,-4367.215058,14656.077652
227.468664,-2911.162892,-4293.194464,14508.036463
227.468972,-2604.724693,-2886.803174,13471.748144
227.469280,0.000000,-1406.391290,11843.295072
227.469588,1455.581446,370.102971,9104.533087
227.469896,3217.601092,2368.659014,7179.997637
227.470204,4366.744339,3108.864956,5847.626942
227.470512,4979.620737,3849.070898,5477.523971
227.470820,4903.011187,3627.009116,5403.503377
227.471128,4136.915689,3108.864956,5847.626942
227.471436,3370.820191,2664.741391,6365.771101
227.471744,1838.629195,1776.494261,8364.327145
227.472052,-459.657299,-296.082377,9622.677246
227.472360,-1762.019645,-1702.473667,11547.212695
227.472668,-3140.991542,-2738.761985,13545.768739
227.472976,-4060.306139,-3701.029710,14508.036463
227.473285,-4213.525239,-3997.112087,14730.098246
227.473593,-3294.210641,-3627.009116,14359.995275
227.473901,-2068.457845,-2442.679609,13027.624579
227.474209,153.219100,-1110.308913,10955.047942
227.474517,1149.143247,296.082377,9178.553681
227.474825,2451.505594,1924.535449,7328.038826
227.475133,3677.258390,2368.659014,6809.894666
227.475441,3830.477490,3034.844362,5921.647536
227.475749,3907.087040,3182.885551,6069.688724
227.476057,4213.525239,3701.029710,5477.523971
227.476365,3677.258390,2812.782580,5477.523971
227.476673,2834.553343,2146.597232,6439.791695
227.476981,1762.019645,1554.432478,7920.203579
227.477289,536.266849,-0.000000,9474.636058
227.477597,-766.095498,-1628.453072,11325.150913
227.477905,-2451.505594,-3256.906145,12657.521608
227.478213,-2757.943793,-3849.070898,13545.768739
227.478521,-3524.039291,-4219.173869,14211.954086
227.478829,-2528.115143,-3552.988522,13471.748144
227.479137,-1072.533697,-1998.556043,12213.398043
227.479445,153.219100,-740.205942,10214.842000
227.479753,2528.115143,1480.411884,8290.306550
227.480062,4443.353888,2442.679609,6957.935855
227.480370,4673.182538,3330.926739,6069.688724
227.480678,4749.792088,3552.988522,5625.565159
227.480986,4443.353888,2664.741391,5847.626942
227.481294,3217.601092,2960.823768,6661.853478
227.481602,2604.724693,1850.514855,7254.018232
227.481910,1072.533697,1258.350101,8882.471304
227.482218,-459.657299,-0.000000,10510.924376
227.482526,-1685.410096,-1628.453072,11991.336260
227.482834,-2528.115143,-2812.782580,13693.809927
227.483142,-3907.087040,-3775.050304,14582.057057
227.483451,-4060.306139,-4145.153275,14434.015869
227.483759,-3447.429741,-3182.885551,14063.912898
227.484067,-842.705048,-2072.576638,13027.624579
227.484375,229.828649,-74.020594,11473.192101
227.484683,1608.800546,1258.350101,8882.471304
227.484991,2834.553343,2294.638420,7254.018232
227.485299,3677.258390,3256.906145,5921.647536
227.485607,4213.525239,3552.988522,5329.482782
227.485915,3830.477490,3775.050304,5477.523971
227.486223,3447.429741,3404.947333,5329.482782
227.486531,2068.457845,3478.967927,6069.688724
227.486840,2145.067394,1554.432478,6883.915261
227.487148,383.047749,740.205942,8142.265362
227.487456,-766.095498,-888.247130,11103.089130
227.487764,-2834.553343,-2738.761985,12731.542202
227.488072,-3983.696590,-3775.050304,14137.933492
227.488380,-3830.477490,-4737.318029,14730.098246
227.488688,-3677.258390,-3552.988522,14434.015869
227.488996,-2068.457845,-2812.782580,12805.562797
227.489304,0.000000,-740.205942,11325.150913
227.489612,1838.629195,888.247130,9474.636058
227.489920,3064.381992,1998.556043,7328.038826
227.490229,4290.134789,3108.864956,6143.709319
227.490537,4673.182538,3478.967927,6069.688724
227.490845,4366.744339,2960.823768,6069.688724
227.491153,3294.210641,2960.823768,6365.771101
227.491461,2604.724693,2442.679609,6957.935855
227.491769,1149.143247,1480.411884,7772.162391
227.492077,76.609550,518.144159,9178.553681
227.492385,-1072.533697,-1036.288319,11103.089130
227.492693,-2221.676944,-2442.679609,12805.562797
227.493001,-3064.381992,-3330.926739,13841.851115
227.493309,-3600.648841,-4071.132681,14359.995275
227.493618,-2834.553343,-3404.947333,14285.974681
227.493926,-1685.410096,-2368.659014,12805.562797
227.494234,-536.266849,-666.185348,11769.274478
227.494542,1225.752797,370.102971,9918.759623
227.494850,2374.896044,1480.411884,7994.224174
227.495158,3064.381992,2442.679609,6809.894666
227.495466,3294.210641,2516.700203,6143.709319
227.495774,3677.258390,2590.720797,5921.647536
227.496082,3294.210641,3108.864956,6217.729913
227.496390,2834.553343,3256.906145,5921.647536
227.496698,2298.286494,2590.720797,6661.853478
227.497007,1149.143247,1628.453072,7624.121203
227.497315,76.609550,296.082377,9474.636058
227.497623,-1302.362347,-1480.411884,11399.171507
227.497931,-2911.162892,-2368.659014,13619.789333
227.498239,-2757.943793,-3923.091493,13767.830521
227.498547,-2987.772442,-3627.009116,13767.830521
227.498855,-2451.505594,-2664.741391,12805.562797
227.499163,-612.876398,-1480.411884,11917.315666
227.499471,1072.533697,296.082377,9770.718434
227.499779,3140.991542,1110.308913,8068.244768
227.500087,4060.306139,2442.679609,6513.812290
227.500396,4826.401637,3108.864956,5921.647536
227.500704,4903.011187,3034.844362,6217.729913
227.501012,4596.572988,3256.906145,6143.709319
227.501320,3677.258390,2442.679609,6587.832884
227.501628,1608.800546,1924.535449,7328.038826
227.501936,1072.533697,740.205942,9178.553681
227.502244,-766.095498,-444.123565,10066.800811
227.502552,-2068.457845,-1998.556043,12435.459826
227.502860,-3294.210641,-2886.803174,13841.851115
227.503168,-3294.210641,-3627.009116,14656.077652
227.503476,-3753.867940,-3775.050304,14730.098246
227.503785,-2528.115143,-3182.885551,14063.912898
227.504093,-995.924147,-1480.411884,12435.459826
227.504401,766.095498,-148.041188,10732.986159
227.504709,2374.896044,1406.391290,8586.388927
227.505017,2987.772442,2220.617826,7254.018232
227.505325,4060.306139,2590.720797,6291.750507
227.505633,4290.134789,3108.864956,5699.585753
227.505941,3830.477490,3775.050304,5551.544565
227.506249,3830.477490,3478.967927,5329.482782
227.506557,3140.991542,3256.906145,5403.503377
227.506865,2068.457845,2516.700203,6883.915261
227.507174,919.314598,962.267725,8956.491898
227.507482,-766.095498,-592.164754,10732.986159
227.507790,-2451.505594,-2590.720797,12731.542202
227.508098,-3524.039291,-3552.988522,13989.892304
227.508406,-3907.087040,-3849.070898,14730.098246
227.508714,-3217.601092,-3775.050304,13989.892304
227.509022,-2221.676944,-2220.617826,13027.624579
227.509330,229.828649,-814.226536,11103.089130
227.509638,1762.019645,740.205942,9548.656652
227.509946,3064.381992,1998.556043,7179.997637
227.510254,3753.867940,2812.782580,6661.853478
227.510563,5056.230287,2442.679609,7031.956449
227.510871,3600.648841,3330.926739,5403.503377
227.511179,3217.601092,2146.597232,6735.874072
227.511487,2604.724693,2220.617826,7105.977043
227.511795,919.314598,1406.391290,7920.203579
227.512103,-229.828649,-0.000000,9622.677246
227.512411,-1149.143247,-962.267725,11177.109724
227.512719,-2221.676944,-2294.638420,12805.562797
227.513027,-3830.477490,-2738.761985,12953.603985
227.513335,-2987.772442,-3478.967927,14359.995275
227.513643,-3524.039291,-3478.967927,13693.809927
227.513952,-1762.019645,-2146.597232,13175.665768
227.514260,-153.219100,-666.185348,11621.233289
227.514568,919.314598,-0.000000,9548.656652
227.514876,2451.505594,1554.432478,8216.285956
227.515184,3294.210641,2368.659014,6661.853478
227.515492,4060.306139,3552.988522,6217.729913
227.515800,3677.258390,3108.864956,5329.482782
227.516108,3753.867940,3701.029710,5847.626942
227.516416,2834.553343,3256.906145,5773.606348
227.516724,2374.896044,2664.741391,6513.812290
227.517032,1225.752797,1554.432478,8216.285956
227.517341,-229.828649,-0.000000,9992.780217
227.517649,-1915.238745,-1850.514855,11917.315666
227.517957,-3217.601092,-2812.782580,13619.789333
227.518265,-3830.477490,-3923.091493,14730.098246
227.518573,-3677.258390,-3478.967927,14656.077652
227.518881,-2451.505594,-2738.761985,13545.768739
227.519189,-995.924147,-1480.411884,11843.295072
227.519497,1149.143247,-0.000000,10214.842000
227.519805,2987.772442,1332.370696,8068.244768
227.520113,4596.572988,2516.700203,6735.874072
227.520421,4749.792088,3034.844362,5847.626942
227.520730,4826.401637,3256.906145,5699.585753
227.521038,3983.696590,3034.844362,5995.668130
227.521346,3140.991542,2664.741391,6661.853478
227.521654,1532.190996,1998.556043,7328.038826
227.521962,306.438199,740.205942,9474.636058
227.522270,-1532.190996,-666.185348,11103.089130
227.522578,-2451.505594,-1850.514855,12583.501014
227.522886,-3677.258390,-2812.782580,14137.933492
227.523194,-3983.696590,-3701.029710,14508.036463
227.523502,-4290.134789,-3923.091493,14359.995275
227.523810,-2757.943793,-2442.679609,13989.892304
227.524119,-1149.143247,-1480.411884,12065.356855
227.524427,766.095498,-148.041188,10807.006753
227.524735,2221.676944,1036.288319,8512.368333
227.525043,3064.381992,2220.617826,5847.626942
227.525351,4290.134789,2960.823768,6217.729913
227.525659,4826.401637,3627.009116,5625.565159
227.525967,4290.134789,3701.029710,5403.503377
227.526275,3907.087040,3775.050304,5107.421000
227.526583,2911.162892,2886.803174,5477.523971
227.526891,2145.067394,2072.576638,7179.997637
227.527199,995.924147,888.247130,8660.409521
227.527508,-1149.143247,-962.267725,11325.150913
227.527816,-2451.505594,-2368.659014,12287.418637
227.528124,-3064.381992,-3552.988522,13471.748144
227.528432,-3753.867940,-3552.988522,14063.912898
227.528740,-3064.381992,-3552.988522,13619.789333
227.529048,-1915.238745,-2220.617826,12583.501014
227.529356,153.219100,-888.247130,11103.089130
227.529664,1762.019645,-0.000000,8956.491898
227.529972,2757.943793,1702.473667,7254.018232
227.530280,4749.792088,2072.576638,7179.997637
227.530588,4519.963438,2590.720797,5921.647536
227.530897,4213.525239,2442.679609,6439.791695
227.531205,3677.258390,2516.700203,6217.729913
227.531513,2451.505594,2294.638420,6587.832884
227.531821,1608.800546,1406.391290,7920.203579
227.532129,919.314598,296.082377,9548.656652
227.532437,-995.924147,-1702.473667,10584.944971
227.532745,-2451.505594,-2294.638420,12213.398043
227.533053,-3294.210641,-3627.009116,14063.912898
227.533361,-3677.258390,-3849.070898,13841.851115
227.533669,-3217.601092,-3256.906145,14211.954086
227.533977,-1838.629195,-2368.659014,13175.665768
227.534286,-919.314598,-1258.350101,11177.109724
227.534594,1149.143247,-0.000000,9474.636058
227.534902,2528.115143,1110.308913,8364.327145
227.535210,3140.991542,2368.659014,6883.915261
227.535518,3524.039291,2960.823768,5255.462188
227.535826,4060.306139,3404.947333,5551.544565
227.536134,3907.087040,3849.070898,5625.565159
227.536442,2987.772442,3552.988522,5773.606348
227.536750,2298.286494,2960.823768,6217.729913
227.537058,1072.533697,1554.432478,8660.409521
227.537366,-459.657299,-222.061783,10510.924376
227.537675,-2451.505594,-1628.453072,12435.459826
227.537983,-2757.943793,-2812.782580,14063.912898
227.538291,-3370.820191,-3256.906145,14211.954086
227.538599,-2987.772442,-2886.803174,13989.892304
227.538907,-2221.676944,-2146.597232,13545.768739
227.539215,-229.828649,-1036.288319,12139.377449
227.539523,1838.629195,-0.000000,9992.780217
227.539831,3294.210641,1776.494261,8216.285956
227.540139,3907.087040,1998.556043,7179.997637
227.540447,4443.353888,2960.823768,6143.709319
227.540755,4290.134789,3330.926739,6587.832884
227.541064,3907.087040,3330.926739,6513.812290
227.541372,2757.943793,2738.761985,6809.894666
227.541680,1915.238745,2220.617826,7772.162391
227.541988,766.095498,1258.350101,9326.594869
227.542296,-229.828649,-148.041188,11029.068536
227.542604,-1455.581446,-1776.494261,12657.521608
227.542912,-2528.115143,-2886.803174,13915.871710
227.543220,-3753.867940,-3775.050304,14730.098246
227.543528,-3600.648841,-3849.070898,15026.180623
227.543836,-2604.724693,-3182.885551,14137.933492
227.544144,-1685.410096,-2368.659014,12213.398043
227.544453,612.876398,-962.267725,11251.130318
227.544761,2298.286494,370.102971,8882.471304
227.545069,2681.334243,2072.576638,6957.935855
227.545377,4213.525239,2072.576638,6217.729913
227.545685,4290.134789,3627.009116,4737.318029
227.545993,3753.867940,3775.050304,5403.503377
227.546301,4060.306139,4219.173869,5033.400406
227.546609,2987.772442,3775.050304,5477.523971
227.546917,1685.410096,2294.638420,7105.977043
227.547225,306.438199,1184.329507,8364.327145
227.547533,-1072.533697,-814.226536,11103.089130
227.547842,-2374.896044,-2368.659014,12731.542202
227.548150,-4136.915689,-3330.926739,13841.851115
227.548458,-4213.525239,-3478.967927,14211.954086
227.548766,-3140.991542,-3404.947333,13841.851115
227.549074,-1838.629195,-2294.638420,12139.377449
227.549382,0.000000,-1480.411884,11399.171507
227.549690,2145.067394,-0.000000,9474.636058
227.549998,2451.505594,1036.288319,7624.121203
227.550306,3907.087040,2072.576638,6661.853478
227.550614,4290.134789,2738.761985,5847.626942
227.550922,3830.477490,3775.050304,5921.647536
227.551230,3753.867940,3256.906145,6217.729913
227.551539,2451.505594,2960.823768,6513.812290
227.551847,1532.190996,1554.432478,7772.162391
227.552155,0.000000,296.082377,9474.636058
227.552463,-1072.533697,-1628.453072,11843.295072
227.552771,-2528.115143,-3108.864956,13101.645173
227.553079,-3217.601092,-3849.070898,14730.098246
227.553387,-3753.867940,-4219.173869,15026.180623
227.553695,-3064.381992,-4071.132681,14508.036463
227.554003,-1685.410096,-3182.885551,13175.665768
227.554311,0.000000,-1850.514855,11473.192101
227.554619,1838.629195,-592.164754,9474.636058
227.554928,2681.334243,1036.288319,7624.121203
227.555236,3600.648841,2368.659014,5921.647536
227.555544,4519.963438,3627.009116,4737.318029
227.555852,4826.401637,4367.215058,4959.379811
227.556160,4826.401637,4663.297435,4811.338623
227.556468,3677.258390,4367.215058,4959.379811
227.556776,2451.505594,3182.885551,6513.812290
227.557084,919.314598,2294.638420,8438.347739
227.557392,-842.705048,-148.041188,10732.986159
227.557700,-2374.896044,-2072.576638,12731.542202
227.558008,-3447.429741,-2812.782580,13767.830521
227.558317,-3830.477490,-3552.988522,14434.015869
227.558625,-3370.820191,-3108.864956,14211.954086
227.558933,-1991.848295,-2368.659014,13323.706956
227.559241,-383.047749,-1332.370696,11695.253884
227.559549,1915.238745,-222.061783,10288.862594
227.559857,2911.162892,814.226536,8364.327145
227.560165,3677.258390,1850.514855,7179.997637
227.560473,4290.134789,2516.700203,6809.894666
227.560781,4060.306139,3256.906145,6439.791695
227.561089,3524.039291,3330.926739,6587.832884
227.561397,2834.553343,3256.906145,6291.750507
227.561706,2528.115143,2146.597232,7772.162391
227.562014,995.924147,1036.288319,8734.430116
227.562322,-306.438199,-222.061783,10584.944971
227.562630,-2068.457845,-1998.556043,12361.439231
227.562938,-3064.381992,-3330.926739,13767.830521
227.563246,-3447.429741,-3701.029710,14582.057057
227.563554,-3294.210641,-3849.070898,14508.036463
227.563862,-2068.457845,-3182.885551,13915.871710
227.564170,-919.314598,-2146.597232,12509.480420
227.564478,689.485948,-888.247130,10584.944971
227.564786,1762.019645,222.061783,8956.491898
227.565095,2987.772442,1258.350101,7105.977043
227.565403,3524.039291,2590.720797,5921.647536
227.565711,3983.696590,3182.885551,5625.565159
227.566019,3983.696590,4071.132681,4885.359217
227.566327,3830.477490,4293.194464,5033.400406
227.566635,3370.820191,4145.153275,5403.503377
227.566943,2068.457845,2738.761985,7031.956449
227.567251,536.266849,1036.288319,9104.533087
227.567559,-1378.971896,-666.185348,11177.109724
227.567867,-2757.943793,-2072.576638,12953.603985
227.568175,-3983.696590,-3330.926739,13989.892304
227.568484,-4060.306139,-3552.988522,14359.995275
227.568792,-2451.505594,-3404.947333,14211.954086
227.569100,-1915.238745,-2294.638420,12805.562797
227.569408,689.485948,-1184.329507,11177.109724
227.569716,1838.629195,-0.000000,9548.656652
227.570024,3600.648841,1110.308913,7624.121203
227.570332,3677.258390,2368.659014,6439.791695
227.570640,4213.525239,2886.803174,6143.709319
227.570948,4213.525239,3849.070898,5773.606348
227.571256,3677.258390,3849.070898,5773.606348
227.571564,2451.505594,3034.844362,6513.812290
227.571873,1302.362347,2146.597232,8068.244768
227.572181,229.828649,592.164754,9844.739029
227.572489,-2068.457845,-1850.514855,11695.253884
227.572797,-3370.820191,-3256.906145,13471.748144
227.573105,-4519.963438,-4367.215058,14878.139434
227.573413,-4596.572988,-5107.421000,15692.365970
227.573721,-3294.210641,-4367.215058,14730.098246
227.574029,-1838.629195,-3478.967927,13249.686362
227.574337,0.000000,-1998.556043,11399.171507
227.574645,1991.848295,-74.020594,9030.512492
227.574953,3524.039291,1776.494261,7105.977043
227.575262,4366.744339,2812.782580,5995.668130
227.575570,4979.620737,3849.070898,4663.297435
227.575878,5209.449386,4515.256246,4811.338623
227.576186,4519.963438,4811.338623,4441.235652
227.576494,3600.648841,4293.194464,5033.400406
227.576802,2681.334243,3404.947333,6661.853478
227.577110,383.047749,1924.535449,8734.430116
227.577418,-1149.143247,-148.041188,10807.006753
227.577726,-2604.724693,-2072.576638,12509.480420
227.578034,-3830.477490,-3256.906145,13915.871710
227.578342,-4136.915689,-3849.070898,14285.974681
227.578651,-3140.991542,-3923.091493,14211.954086
227.578959,-1302.362347,-2738.761985,13323.706956
227.579267,-229.828649,-1628.453072,11547.212695
227.579575,1532.190996,-0.000000,9918.759623
227.579883,2911.162892,1332.370696,7624.121203
227.580191,3983.696590,2146.597232,6365.771101
227.580499,4519.963438,3330.926739,6069.688724
227.580807,4366.744339,3627.009116,5773.606348
227.581115,3830.477490,3552.988522,6143.709319
227.581423,2911.162892,3182.885551,6439.791695
227.581731,1762.019645,2294.638420,7920.203579
227.582039,306.438199,592.164754,9622.677246
227.582347,-1072.533697,-740.205942,11103.089130
227.582656,-2681.334243,-2368.659014,13027.624579
227.582964,-3447.429741,-3775.050304,14063.912898
227.583272,-3983.696590,-4515.256246,14656.077652
227.583580,-3140.991542,-4663.297435,14804.118840
227.583888,-2528.115143,-3701.029710,13471.748144
227.584196,-766.095498,-2590.720797,11769.274478
227.584504,919.314598,-962.267725,10140.821405
227.584812,2451.505594,814.226536,7994.224174
227.585120,3830.477490,2442.679609,6735.874072
227.585428,4366.744339,3182.885551,5255.462188
227.585736,4443.353888,3923.091493,5033.400406
227.586044,3907.087040,3552.988522,4811.338623
227.586352,3983.696590,3701.029710,5033.400406
227.586661,2221.676944,3256.906145,6069.688724
227.586969,1149.143247,2146.597232,7772.162391
227.587277,-306.438199,666.185348,9474.636058
227.587585,-1991.848295,-1036.288319,11547.212695
227.587893,-3064.381992,-2220.617826,12657.521608
227.588201,-3294.210641,-2886.803174,13841.851115
227.588509,-2987.772442,-3404.947333,14211.954086
227.588817,-2604.724693,-2590.720797,14211.954086
227.589125,-1149.143247,-1924.535449,12435.459826
227.589433,612.876398,-740.205942,11251.130318
227.589741,1915.238745,148.041188,9030.512492
227.590049,3217.601092,1184.329507,7846.182985
227.590357,3600.648841,2368.659014,6957.935855
227.590666,3753.867940,3330.926739,6143.709319
227.590974,4136.915689,3256.906145,6069.688724
227.591282,3294.210641,3849.070898,6143.709319
227.591590,2987.772442,2516.700203,6957.935855
227.591898,1838.629195,2368.659014,7624.121203
227.592206,306.438199,666.185348,10510.924376
227.592514,-1072.533697,-1184.329507,11621.233289
227.592822,-2834.553343,-2368.659014,13323.706956
227.593130,-3600.648841,-4071.132681,14656.077652
227.593438,-4213.525239,-4219.173869,14804.118840
227.593746,-2681.334243,-3923.091493,15026.180623
227.594054,-2068.457845,-2960.823768,13397.727550
227.594362,0.000000,-1628.453072,11769.274478
227.594671,1455.581446,-0.000000,9400.615463
227.594979,3370.820191,1406.391290,7476.080014
227.595287,3677.258390,2960.823768,6143.709319
227.595595,5056.230287,3701.029710,5181.441594
227.595903,4673.182538,4293.194464,5033.400406
227.596211,4596.572988,4367.215058,4589.276840
227.596519,3140.991542,4071.132681,5255.462188
227.596827,1302.362347,3034.844362,6587.832884
227.597135,536.266849,1628.453072,8660.409521
227.597443,-995.924147,148.041188,10955.047942
227.597751,-2681.334243,-1628.453072,11991.336260
227.598059,-3447.429741,-2960.823768,13619.789333
227.598367,-4290.134789,-3627.009116,14582.057057
227.598676,-3447.429741,-3552.988522,14434.015869
227.598984,-2145.067394,-2738.761985,13249.686362
227.599292,-229.828649,-2294.638420,11917.315666
227.599600,1455.581446,-444.123565,9696.697840
227.599908,2911.162892,962.267725,8142.265362
227.600216,3907.087040,2442.679609,6587.832884
227.600524,4673.182538,2886.803174,5551.544565
227.600832,4443.353888,4071.132681,5403.503377
227.601140,4366.744339,4441.235652,5329.482782
227.601448,3983.696590,3552.988522,6069.688724
227.601756,2145.067394,2590.720797,7254.018232
227.602064,536.266849,1110.308913,9030.512492
227.602372,-1072.533697,-1036.288319,11251.130318
227.602681,-2834.553343,-2886.803174,13175.665768
227.602989,-4136.915689,-4589.276840,14285.974681
227.603297,-4213.525239,-4959.379811,15248.242405
227.603605,-3677.258390,-4959.379811,15470.304188
227.603913,-2757.943793,-4071.132681,13915.871710
227.604221,-1149.143247,-2368.659014,12287.418637
227.604529,1378.971896,-518.144159,9844.739029
227.604837,2834.553343,1332.370696,7254.018232
227.605145,4136.915689,2664.741391,5921.647536
227.605453,4903.011187,3775.050304,5255.462188
227.605761,5286.058936,4293.194464,4367.215058
227.606069,4366.744339,4367.215058,4293.194464
227.606378,3983.696590,4219.173869,4737.318029
227.606686,2298.286494,3330.926739,5995.668130
227.606994,1072.533697,1998.556043,7624.121203
227.607302,-306.438199,666.185348,9696.697840
227.607610,-1991.848295,-1628.453072,11695.253884
227.607918,-3830.477490,-2442.679609,13693.809927
227.608226,-3524.039291,-3701.029710,13915.871710
227.608534,-3447.429741,-4145.153275,14359.995275
227.608842,-2221.676944,-3627.009116,13915.871710
227.609150,-1302.362347,-2368.659014,12213.398043
227.609458,306.438199,-740.205942,10658.965565
227.609766,2221.676944,888.247130,9178.553681
227.610074,3370.820191,2368.659014,7105.977043
227.610383,4290.134789,3256.906145,5995.668130
227.610691,4673.182538,3775.050304,5477.523971
227.610999,4443.353888,3701.029710,6143.709319
227.611307,3064.381992,3256.906145,6291.750507
227.611615,1991.848295,2516.700203,7328.038826
227.611923,766.095498,1036.288319,9104.533087
227.612231,-1072.533697,-592.164754,10510.924376
227.612539,-2221.676944,-2294.638420,12805.562797
227.612847,-3677.258390,-3849.070898,14211.954086
227.613155,-4060.306139,-4219.173869,15174.221811
227.613463,-3370.820191,-4441.235652,14878.139434
227.613771,-2451.505594,-3552.988522,14137.933492
227.614079,-1149.143247,-1850.514855,12287.418637
227.614388,919.314598,-370.102971,10807.006753
227.614696,2681.334243,1184.329507,8512.368333
227.615004,3830.477490,2442.679609,6661.853478
227.615312,4826.401637,3108.864956,5847.626942
227.615620,4903.011187,3701.029710,5255.462188
227.615928,5132.839837,3552.988522,5477.523971
227.616236,3677.258390,3034.844362,5477.523971
227.616544,2451.505594,2960.823768,6217.729913
227.616852,1762.019645,2220.617826,7105.977043
227.617160,383.047749,1406.391290,8586.388927
227.617468,-459.657299,-222.061783,10510.924376
227.617776,-2068.457845,-1480.411884,11917.315666
227.618084,-2604.724693,-2886.803174,13471.748144
227.618393,-3370.820191,-3404.947333,14137.933492
227.618701,-2757.943793,-3256.906145,14211.954086
227.619009,-1915.238745,-2368.659014,13027.624579
227.619317,-383.047749,-1480.411884,11695.253884
227.619625,919.314598,-0.000000,9918.759623
227.619933,2987.772442,1110.308913,8512.368333
227.620241,3907.087040,2368.659014,7254.018232
227.620549,4213.525239,2664.741391,6143.709319
227.620857,4826.401637,3108.864956,6217.729913
227.621165,3370.820191,3108.864956,5847.626942
227.621473,3217.601092,2960.823768,6365.771101
227.621781,2145.067394,2368.659014,7179.997637
227.622089,459.657299,1110.308913,9178.553681
227.622398,-1225.752797,-1036.288319,10807.006753
227.622706,-2681.334243,-2368.659014,13249.686362
227.623014,-3830.477490,-3552.988522,14285.974681
227.623322,-4366.744339,-4737.318029,15026.180623
227.623630,-4060.306139,-3997.112087,14508.036463
227.623938,-2528.115143,-3404.947333,13693.809927
227.624246,-995.924147,-2072.576638,11547.212695
227.624554,842.705048,-592.164754,9548.656652
227.624862,2604.724693,592.164754,7698.141797
227.625170,3830.477490,2072.576638,6143.709319
227.625478,4596.572988,2368.659014,5107.421000
227.625786,4136.915689,3108.864956,4737.318029
227.626094,4290.134789,3849.070898,4589.276840
227.626403,3753.867940,3701.029710,5033.400406
227.626711,2451.505594,3330.926739,5847.626942
227.627019,995.924147,2072.576638,7550.100608
227.627327,-229.828649,222.061783,9474.636058
227.627635,-1532.190996,-1480.411884,11843.295072
227.627943,-3064.381992,-2664.741391,12953.603985
227.628251,-4136.915689,-3701.029710,13841.851115
227.628559,-3064.381992,-4145.153275,14211.954086
227.628867,-2757.943793,-3256.906145,13545.768739
227.629175,-1225.752797,-1924.535449,12213.398043
227.629483,919.314598,-444.123565,11029.068536
227.629791,2604.724693,1036.288319,9030.512492
227.630099,4366.744339,1924.535449,6883.915261
227.630408,4979.620737,3404.947333,6143.709319
227.630716,4903.011187,4145.153275,5773.606348
227.631024,4749.792088,4219.173869,5625.565159
227.631332,3983.696590,3849.070898,5921.647536
227.631640,2834.553343,2960.823768,7105.977043
227.631948,919.314598,1258.350101,8438.347739
227.632256,0.000000,-444.123565,10881.027347
227.632564,-2528.115143,-2442.679609,12879.583391
227.632872,-3524.039291,-3330.926739,14285.974681
227.633180,-3983.696590,-4367.215058,14878.139434
227.633488,-3983.696590,-4145.153275,15470.304188
227.633796,-2987.772442,-3330.926739,14211.954086
227.634105,-1072.533697,-1850.514855,12435.459826
227.634413,1072.533697,-222.061783,10436.903782
227.634721,2451.505594,1406.391290,7920.203579
227.635029,3830.477490,2146.597232,6809.894666
227.635337,4673.182538,3330.926739,5995.668130
227.635645,4290.134789,2886.803174,5477.523971
227.635953,3753.867940,3404.947333,5329.482782
227.636261,3294.210641,3256.906145,5551.544565
227.636569,2451.505594,2516.700203,6291.750507
227.636877,1149.143247,1850.514855,7328.038826
227.637185,766.095498,518.144159,9104.533087
227.637493,-766.095498,-814.226536,10362.883188
227.637801,-2374.896044,-2368.659014,12139.377449
227.638110,-2528.115143,-3330.926739,14063.912898
227.638418,-2834.553343,-3701.029710,14063.912898
227.638726,-2528.115143,-2886.803174,13397.727550
227.639034,-1455.581446,-1924.535449,12509.480420
227.639342,153.219100,-814.226536,11251.130318
227.639650,1762.019645,592.164754,9400.615463
227.639958,3677.258390,1776.494261,7624.121203
227.640266,3983.696590,2886.803174,6439.791695
227.640574,4903.011187,2886.803174,6291.750507
227.640882,4060.306139,3701.029710,5699.585753
227.641190,3753.867940,3552.988522,6069.688724
227.641498,2834.553343,2738.761985,7179.997637
227.641806,1149.143247,1702.473667,8142.265362
227.642115,153.219100,222.061783,10362.883188
227.642423,-1915.238745,-1480.411884,12065.356855
227.642731,-3524.039291,-2960.823768,13915.871710
227.643039,-4136.915689,-4219.173869,14804.118840
227.643347,-4673.182538,-3849.070898,14878.139434
227.643655,-3370.820191,-3256.906145,14211.954086
227.643963,-1915.238745,-2368.659014,12583.501014
227.644271,0.000000,-1184.329507,11325.150913
227.644579,1685.410096,-0.000000,9400.615463
227.644887,3524.039291,1776.494261,7624.121203
227.645195,3907.087040,2442.679609,6291.750507
227.645503,3983.696590,2664.741391,5921.647536
227.645811,3983.696590,3330.926739,5551.544565
227.646120,3294.210641,3404.947333,5551.544565
227.646428,2528.115143,2886.803174,5921.647536
227.646736,1991.848295,2664.741391,6587.832884
227.647044,1302.362347,1850.514855,7698.141797
227.647352,-229.828649,148.041188,9696.697840
227.647660,-1225.752797,-1184.329507,11251.130318
227.647968,-2298.286494,-2368.659014,12805.562797
227.648276,-3140.991542,-3182.885551,13841.851115
227.648584,-2834.553343,-3404.947333,13915.871710
227.648892,-2681.334243,-2664.741391,13101.645173
227.649200,-1072.533697,-1924.535449,11991.336260
227.649508,1378.971896,-962.267725,10955.047942
227.649816,1762.019645,444.123565,8882.471304
227.650125,2834.553343,1480.411884,7550.100608
227.650433,4213.525239,2072.576638,7031.956449
227.650741,3830.477490,3182.885551,5995.668130
227.651049,3907.087040,3182.885551,6143.709319
227.651357,3217.601092,2960.823768,5921.647536
227.651665,2068.457845,2368.659014,7105.977043
227.651973,1455.581446,1036.288319,8364.327145
227.652281,-306.438199,-296.082377,10510.924376
227.652589,-2068.457845,-2072.576638,12435.459826
227.652897,-3140.991542,-2886.803174,13619.789333
227.653205,-3600.648841,-3552.988522,14656.077652
227.653513,-3447.429741,-3775.050304,14211.954086
227.653821,-2451.505594,-3034.844362,13693.809927
227.654130,-995.924147,-1998.556043,12361.439231
227.654438,1149.143247,-740.205942,10510.924376
227.654746,2298.286494,444.123565,8586.388927
227.655054,3830.477490,1480.411884,6809.894666
227.655362,4290.134789,2072.576638,5773.606348
227.655670,4213.525239,2886.803174,4811.338623
227.655978,4213.525239,3775.050304,5181.441594
227.656286,3907.087040,3849.070898,5255.462188
227.656594,2834.553343,3701.029710,5921.647536
227.656902,1991.848295,2738.761985,7550.100608
227.657210,306.438199,1480.411884,8882.471304
227.657518,-459.657299,-296.082377,10807.006753
227.657826,-1991.848295,-2220.617826,12287.418637
227.658135,-2834.553343,-3034.844362,13767.830521
227.658443,-3447.429741,-3330.926739,14359.995275
227.658751,-2987.772442,-3330.926739,14359.995275
227.659059,-1532.190996,-2368.659014,13027.624579
227.659367,0.000000,-1332.370696,11547.212695
227.659675,1225.752797,-74.020594,10362.883188
227.659983,3294.210641,1184.329507,7772.162391
227.660291,4290.134789,2738.761985,6809.894666
227.660599,4443.353888,2960.823768,6069.688724
227.660907,4673.182538,3552.988522,5921.647536
227.661215,3677.258390,3701.029710,5995.668130
227.661523,2987.772442,3108.864956,6957.935855
227.661831,1685.410096,2072.576638,7698.141797
227.662140,0.000000,740.205942,9474.636058
227.662448,-1762.019645,-1110.308913,11621.233289
227.662756,-2604.724693,-2220.617826,12879.583391
227.663064,-3524.039291,-3256.906145,14285.974681
227.663372,-3600.648841,-3552.988522,14582.057057
227.663680,-2681.334243,-3182.885551,14063.912898
227.663988,-1915.238745,-2220.617826,12657.521608
227.664296,229.828649,-1332.370696,11029.068536
227.664604,1838.629195,-370.102971,9918.759623
227.664912,2068.457845,814.226536,7994.224174
227.665220,3370.820191,888.247130,7031.956449
227.665528,3294.210641,2220.617826,6143.709319
227.665837,3370.820191,2812.782580,5921.647536
227.666145,3140.991542,2738.761985,5995.668130
227.666453,2757.943793,2960.823768,5921.647536
227.666761,2145.067394,3034.844362,6587.832884
227.667069,689.485948,2442.679609,7550.100608
227.667377,306.438199,888.247130,8882.471304
227.667685,-995.924147,-740.205942,10881.027347
227.667993,-2145.067394,-1924.535449,12213.398043
227.668301,-2834.553343,-3108.864956,13471.748144
227.668609,-2987.772442,-3256.906145,13915.871710
227.668917,-2528.115143,-2886.803174,13545.768739
227.669225,-919.314598,-1998.556043,12287.418637
227.669533,536.266849,-962.267725,11103.089130
227.669842,1685.410096,444.123565,9030.512492
227.670150,3524.039291,1702.473667,7328.038826
227.670458,4213.525239,2738.761985,5995.668130
227.670766,3907.087040,3108.864956,5773.606348
227.671074,4290.134789,3256.906145,5477.523971
227.671382,3830.477490,3256.906145,6217.729913
227.671690,1991.848295,2442.679609,7179.997637
227.671998,612.876398,1110.308913,8956.491898
227.672306,-766.095498,-0.000000,10510.924376
227.672614,-2374.896044,-1628.453072,12435.459826
227.672922,-3983.696590,-2886.803174,13767.830521
227.673230,-4673.182538,-3552.988522,14730.098246
227.673538,-3753.867940,-3552.988522,15100.201217
227.673847,-3064.381992,-3256.906145,13619.789333
227.674155,-1302.362347,-2294.638420,11843.295072
227.674463,612.876398,-1258.350101,9992.780217
227.674771,2298.286494,740.205942,8438.347739
227.675079,3294.210641,2072.576638,7105.977043
227.675387,4290.134789,2664.741391,5847.626942
227.675695,4443.353888,3108.864956,5477.523971
227.676003,4136.915689,3627.009116,4663.297435
227.676311,3830.477490,3849.070898,5033.400406
227.676619,2757.943793,3256.906145,5699.585753
227.676927,2068.457845,2812.782580,7031.956449
227.677235,1072.533697,1110.308913,8808.450710
227.677543,-689.485948,-666.185348,10362.883188
227.677852,-1991.848295,-2294.638420,12583.501014
227.678160,-3140.991542,-3330.926739,13693.809927
227.678468,-3524.039291,-3997.112087,14656.077652
227.678776,-3370.820191,-4071.132681,14359.995275
227.679084,-1991.848295,-3034.844362,13175.665768
227.679392,0.000000,-1702.473667,11325.150913
227.679700,1915.238745,-74.020594,9770.718434
227.680008,3447.429741,1332.370696,7698.141797
227.680316,4596.572988,2516.700203,6217.729913
227.680624,4979.620737,3478.967927,5551.544565
227.680932,4903.011187,3923.091493,5625.565159
227.681240,3753.867940,4071.132681,5699.585753
227.681548,3140.991542,3182.885551,6957.935855
227.681857,1762.019645,1776.494261,8142.265362
227.682165,689.485948,370.102971,9474.636058
227.682473,-1532.190996,-1036.288319,11547.212695
227.682781,-2987.772442,-2368.659014,13027.624579
227.683089,-3753.867940,-3330.926739,14211.954086
227.683397,-4290.134789,-3552.988522,14730.098246
227.683705,-3370.820191,-3182.885551,14434.015869
227.684013,-1838.629195,-2590.720797,12879.583391
227.684321,-306.438199,-1110.308913,11029.068536
227.684629,1378.971896,222.061783,9548.656652
227.684937,2374.896044,1258.350101,7624.121203
227.685245,3140.991542,1776.494261,7031.956449
227.685553,3140.991542,2368.659014,6291.750507
227.685861,3217.601092,3034.844362,5699.585753
227.686170,2987.772442,3627.009116,5847.626942
227.686478,2987.772442,3108.864956,6365.771101
227.686786,2451.505594,1998.556043,6291.750507
227.687094,689.485948,1184.329507,7624.121203
227.687402,0.000000,296.082377,9548.656652
227.687710,-1532.190996,-1406.391290,11473.192101
227.688018,-2604.724693,-2812.782580,13175.665768
227.688326,-3524.039291,-3552.988522,13989.892304
227.688634,-2834.553343,-4145.153275,14211.954086
227.688942,-1915.238745,-3478.967927,13175.665768
227.689250,0.000000,-2294.638420,11695.253884
227.689558,1532.190996,-888.247130,10584.944971
227.689866,2681.334243,592.164754,8734.430116
227.690174,3830.477490,1850.514855,7105.977043
227.690483,4673.182538,2886.803174,5847.626942
227.690791,4749.792088,3627.009116,5403.503377
227.691099,4596.572988,3849.070898,5033.400406
227.691407,3677.258390,3552.988522,5921.647536
227.691715,2604.724693,2812.782580,7550.100608
227.692023,995.924147,1480.411884,8956.491898
227.692331,-842.705048,-222.061783,11177.109724
227.692639,-2604.724693,-1776.494261,12583.501014
227.692947,-3830.477490,-2590.720797,14137.933492
227.693255,-4213.525239,-3404.947333,15100.201217
227.693563,-3677.258390,-3478.967927,15026.180623
227.693871,-2834.553343,-3256.906145,14137.933492
227.694179,-1225.752797,-1924.535449,12213.398043
227.694488,383.047749,-814.226536,10288.862594
227.694796,1991.848295,370.102971,8734.430116
227.695104,2987.772442,1554.432478,7624.121203
227.695412,3753.867940,2590.720797,6513.812290
227.695720,3907.087040,3478.967927,5329.482782
227.696028,4060.306139,3923.091493,5477.523971
227.696336,3370.820191,4219.173869,5033.400406
227.696644,3600.648841,3849.070898,6217.729913
227.696952,1532.190996,2368.659014,6883.915261
227.697260,536.266849,1332.370696,8808.450710
227.697568,-766.095498,-740.205942,10955.047942
227.697876,-2451.505594,-2294.638420,12805.562797
227.698184,-3447.429741,-3552.988522,13841.851115
227.698492,-3677.258390,-3923.091493,14730.098246
227.698801,-3370.820191,-3849.070898,14285.974681
227.699109,-1991.848295,-2960.823768,12287.418637
227.699417,306.438199,-2072.576638,11843.295072
227.699725,1915.238745,-0.000000,9474.636058
227.700033,2911.162892,1628.453072,7105.977043
227.700341,4596.572988,2220.617826,6735.874072
227.700649,4903.011187,3330.926739,5181.441594
227.700957,4903.011187,4145.153275,5181.441594
227.701265,4136.915689,3775.050304,5551.544565
227.701573,3370.820191,2960.823768,6587.832884
227.701881,1532.190996,1850.514855,8142.265362
227.702189,-383.047749,296.082377,9992.780217
227.702497,-1838.629195,-1332.370696,12139.377449
227.702805,-3677.258390,-2738.761985,13323.706956
227.703114,-3983.696590,-3404.947333,14508.036463
227.703422,-3983.696590,-3478.967927,14804.118840
227.703730,-3524.039291,-3330.926739,14137.933492
227.704038,-1225.752797,-2590.720797,12879.583391
227.704346,0.000000,-1332.370696,11325.150913
227.704654,1455.581446,-74.020594,9474.636058
227.704962,2451.505594,814.226536,7772.162391
227.705270,3140.991542,2294.638420,6661.853478
227.705578,3600.648841,2960.823768,6365.771101
227.705886,4213.525239,3478.967927,5255.462188
227.706194,3294.210641,4663.297435,4885.359217
227.706502,3524.039291,3701.029710,5033.400406
227.706810,2681.334243,3330.926739,6143.709319
227.707119,1608.800546,1776.494261,8068.244768
227.707427,-153.219100,-222.061783,9696.697840
227.707735,-1838.629195,-1998.556043,11695.253884
227.708043,-2451.505594,-3404.947333,13471.748144
227.708351,-3753.867940,-4367.215058,14211.954086
227.708659,-3140.991542,-3923.091493,14878.139434
227.708967,-1991.848295,-3404.947333,13545.768739
227.709275,-536.266849,-2146.597232,12731.542202
227.709583,995.924147,-814.226536,10140.821405
227.709891,2528.115143,666.185348,8586.388927
227.710199,4060.306139,2294.638420,6809.894666
227.710507,5209.449386,3034.844362,5699.585753
227.710815,5515.887586,3923.091493,5033.400406
227.711123,4596.572988,4145.153275,4885.359217
227.711432,3677.258390,3182.885551,6069.688724
227.711740,2145.067394,2516.700203,7550.100608
227.712048,229.828649,1184.329507,9400.615463
227.712356,-1762.019645,-814.226536,11695.253884
227.712664,-2987.772442,-2146.597232,13545.768739
227.712972,-4136.915689,-2738.761985,14434.015869
227.713280,-3600.648841,-3404.947333,14804.118840
227.713588,-3447.429741,-3108.864956,14434.015869
227.713896,-1991.848295,-2368.659014,13619.789333
227.714204,-612.876398,-1406.391290,12435.459826
227.714512,1149.143247,-370.102971,10584.944971
227.714820,2451.505594,888.247130,8438.347739
227.715128,2834.553343,1554.432478,7254.018232
227.715437,3600.648841,2960.823768,6587.832884
227.715745,4213.525239,3330.926739,5995.668130
227.716053,3983.696590,3997.112087,5107.421000
227.716361,3447.429741,4219.173869,5625.565159
227.716669,3370.820191,3627.009116,6143.709319
227.716977,1991.848295,2664.741391,7254.018232
227.717285,919.314598,1332.370696,9178.553681
227.717593,-459.657299,-666.185348,10732.986159
227.717901,-2221.676944,-2294.638420,12361.439231
227.718209,-2757.943793,-3923.091493,13249.686362
227.718517,-2834.553343,-3923.091493,14211.954086
227.718825,-1915.238745,-3849.070898,14211.954086
227.719133,-1225.752797,-2516.700203,12657.521608
227.719441,459.657299,-1480.411884,11325.150913
227.719750,1455.581446,-296.082377,9474.636058
227.720058,3294.210641,814.226536,7846.182985
227.720366,4366.744339,2146.597232,6809.894666
227.720674,4749.792088,3182.885551,5921.647536
227.720982,4136.915689,3552.988522,5921.647536
227.721290,3830.477490,3478.967927,6069.688724
227.721598,2911.162892,3034.844362,6661.853478
227.721906,1072.533697,1850.514855,8216.285956
227.722214,-536.266849,148.041188,10436.903782
227.722522,-2221.676944,-1258.350101,12361.439231
227.722830,-3524.039291,-3108.864956,13841.851115
227.723138,-4213.525239,-3627.009116,14730.098246
227.723446,-3677.258390,-3627.009116,15100.201217
227.723754,-3753.867940,-3182.885551,13989.892304
227.724063,-1608.800546,-2590.720797,12435.459826
227.724371,0.000000,-1110.308913,10510.924376
227.724679,919.314598,-0.000000,8586.388927
227.724987,3064.381992,1332.370696,8142.265362
227.725295,3677.258390,2368.659014,5847.626942
227.725603,3830.477490,3552.988522,4811.338623
227.725911,4903.011187,3256.906145,5551.544565
227.726219,4596.572988,5107.421000,3701.029710
227.726527,3140.991542,3849.070898,5995.668130
227.726835,2528.115143,3182.885551,6143.709319
227.727143,612.876398,962.267725,8734.430116
227.727451,-1378.971896,-1258.350101,11473.192101
227.727759,-2834.553343,-2960.823768,12509.480420
227.728068,-3370.820191,-4515.256246,14434.015869
227.728376,-4519.963438,-5033.400406,14952.160028
227.728684,-3447.429741,-4737.318029,14434.015869
227.728992,-2298.286494,-3256.906145,13323.706956
227.729300,0.000000,-2146.597232,12509.480420
227.729608,2145.067394,-148.041188,9178.553681
227.729916,3830.477490,1776.494261,7476.080014
227.730224,5745.716235,2738.761985,6587.832884
227.730532,5592.497135,3849.070898,4959.379811
227.730840,5669.106685,4515.256246,5551.544565
227.731148,4749.792088,4293.194464,5329.482782
227.731456,3370.820191,3701.029710,6291.750507
227.731764,1915.238745,2664.741391,7994.224174
227.732072,-153.219100,1036.288319,9696.697840
227.732381,-1608.800546,-888.247130,11843.295072
227.732689,-2681.334243,-2072.576638,13471.748144
227.732997,-3294.210641,-3108.864956,14285.974681
227.733305,-4060.306139,-3923.091493,14952.160028
227.733613,-3677.258390,-3627.009116,15248.242405
227.733921,-2145.067394,-2664.741391,13027.624579
227.734229,-383.047749,-1258.350101,11843.295072
227.734537,1302.362347,-148.041188,9696.697840
227.734845,2757.943793,1110.308913,7994.224174
227.735153,3677.258390,2368.659014,6809.894666
227.735461,3983.696590,3330.926739,5847.626942
227.735769,4443.353888,3627.009116,5329.482782
227.736077,4060.306139,4589.276840,5181.441594
227.736385,3677.258390,3701.029710,5255.462188
227.736694,2604.724693,3256.906145,6069.688724
227.737002,1532.190996,2072.576638,7476.080014
227.737310,383.047749,518.144159,9400.615463
227.737618,-919.314598,-1554.432478,11177.109724
227.737926,-2451.505594,-2590.720797,12879.583391
227.738234,-3217.601092,-3849.070898,14211.954086
227.738542,-3370.820191,-4071.132681,14730.098246
227.738850,-2528.115143,-3552.988522,13915.871710
227.739158,-919.314598,-2220.617826,11917.315666
227.739466,995.924147,-740.205942,10362.883188
227.739774,2528.115143,148.041188,8734.430116
227.740082,3600.648841,1480.411884,7105.977043
227.740390,4519.963438,1924.535449,6439.791695
227.740699,4136.915689,2368.659014,5921.647536
227.741007,3983.696590,2886.803174,5625.565159
227.741315,3294.210641,2960.823768,6513.812290
227.741623,1991.848295,2516.700203,7550.100608
227.741931,842.705048,1406.391290,8660.409521
227.742239,-689.485948,444.123565,10066.800811
227.742547,-1762.019645,-1184.329507,11917.315666
227.742855,-2681.334243,-2368.659014,12805.562797
227.743163,-3677.258390,-2812.782580,14211.954086
227.743471,-3600.648841,-3108.864956,14434.015869
227.743779,-2834.553343,-2812.782580,13989.892304
227.744087,-1915.238745,-1924.535449,12509.480420
227.744395,0.000000,-888.247130,11103.089130
227.744703,1455.581446,-0.000000,9178.553681
227.745012,2298.286494,1628.453072,7846.182985
227.745320,2757.943793,1998.556043,6957.935855
227.745628,2757.943793,2960.823768,6069.688724
227.745936,3447.429741,3478.967927,5403.503377
227.746244,3600.648841,3997.112087,5403.503377
227.746552,2987.772442,3775.050304,5773.606348
227.746860,2068.457845,3108.864956,6439.791695
227.747168,842.705048,1776.494261,8586.388927
227.747476,-383.047749,-444.123565,10584.944971
227.747784,-2604.724693,-2294.638420,12361.439231
227.748092,-3447.429741,-3478.967927,14211.954086
227.748400,-3983.696590,-4219.173869,14582.057057
227.748708,-3600.648841,-3849.070898,14285.974681
227.749016,-2068.457845,-3108.864956,13027.624579
227.749325,0.000000,-2072.576638,11473.192101
227.749633,1455.581446,-592.164754,9844.739029
227.749941,2757.943793,444.123565,7772.162391
227.750249,4596.572988,1776.494261,6957.935855
227.750557,4826.401637,2812.782580,6291.750507
227.750865,4443.353888,3256.906145,6069.688724
227.751173,4060.306139,3552.988522,5773.606348
227.751481,2987.772442,3330.926739,6661.853478
227.751789,1608.800546,2442.679609,7624.121203
227.752097,689.485948,1406.391290,9474.636058
227.752405,-1149.143247,-0.000000,11325.150913
227.752713,-2451.505594,-1480.411884,12657.521608
227.753021,-3294.210641,-2812.782580,14211.954086
227.753330,-3753.867940,-2960.823768,14508.036463
227.753638,-3294.210641,-3034.844362,14211.954086
227.753946,-1915.238745,-2368.659014,13323.706956
227.754254,-383.047749,-1258.350101,11399.171507
227.754562,1685.410096,-370.102971,9844.739029
227.754870,3064.381992,962.267725,8512.368333
227.755178,3600.648841,1554.432478,6439.791695
227.755486,4060.306139,2590.720797,6513.812290
227.755794,3907.087040,3552.988522,5773.606348
227.756102,4366.744339,4219.173869,5477.523971
227.756410,3447.429741,4219.173869,5329.482782
227.756718,2451.505594,3701.029710,5847.626942
227.757026,1302.362347,2368.659014,7920.203579
227.757334,612.876398,814.226536,9844.739029
227.757643,-1302.362347,-1258.350101,11251.130318
227.757951,-3447.429741,-2516.700203,12953.603985
227.758259,-3447.429741,-3849.070898,14211.954086
227.758567,-3447.429741,-3552.988522,14211.954086
227.758875,-2681.334243,-3182.885551,13471.748144
227.759183,-536.266849,-2368.659014,12287.418637
227.759491,1608.800546,-1406.391290,10584.944971
227.759799,2757.943793,-222.061783,8364.327145
227.760107,3447.429741,814.226536,6735.874072
227.760415,5056.230287,1924.535449,6439.791695
227.760723,4826.401637,2664.741391,5847.626942
227.761031,4749.792088,3034.844362,5551.544565
227.761339,3907.087040,2960.823768,5625.565159
227.761648,2298.286494,2220.617826,7105.977043
227.761956,1455.581446,814.226536,8290.306550
227.762264,-536.266849,-0.000000,10584.944971
227.762572,-2145.067394,-1406.391290,12065.356855
227.762880,-3217.601092,-2516.700203,12879.583391
227.763188,-3524.039291,-2886.803174,14211.954086
227.763496,-3600.648841,-2886.803174,14508.036463
227.763804,-2298.286494,-2368.659014,13915.871710
227.764112,-1225.752797,-1480.411884,12731.542202
227.764420,-383.047749,-962.267725,11251.130318
227.764728,2068.457845,-0.000000,9326.594869
227.765036,2068.457845,1036.288319,7994.224174
227.765344,3140.991542,2368.659014,7179.997637
227.765652,3447.429741,3182.885551,6143.709319
227.765961,3677.258390,3627.009116,5773.606348
227.766269,3370.820191,4293.194464,5551.544565
227.766577,2757.943793,3923.091493,5921.647536
227.766885,1838.629195,2516.700203,6957.935855
227.767193,306.438199,1628.453072,9178.553681
227.767501,-1149.143247,-0.000000,10807.006753
227.767809,-2374.896044,-1480.411884,12361.439231
227.768117,-3140.991542,-2590.720797,13693.809927
227.768425,-3447.429741,-3108.864956,14137.933492
227.768733,-2451.505594,-2886.803174,13767.830521
227.769041,-1378.971896,-2368.659014,12509.480420
227.769349,229.828649,-1036.288319,10955.047942
227.769657,1991.848295,-74.020594,9474.636058
227.769965,3217.601092,222.061783,7772.162391
227.770274,4213.525239,1776.494261,6883.915261
227.770582,4290.134789,2146.597232,6143.709319
227.770890,3907.087040,2442.679609,5773.606348
227.771198,3524.039291,2590.720797,6365.771101
227.771506,2374.896044,2294.638420,6735.874072
227.771814,1072.533697,1776.494261,7846.182985
227.772122,229.828649,370.102971,9770.718434
227.772430,-1378.971896,-666.185348,10732.986159
227.772738,-2834.553343,-1554.432478,12657.521608
227.773046,-2911.162892,-2516.700203,13471.748144
227.773354,-3370.820191,-3404.947333,14063.912898
227.773662,-2834.553343,-3108.864956,13545.768739
227.773970,-1608.800546,-2664.741391,12731.542202
227.774279,-459.657299,-1998.556043,10881.027347
227.774587,766.095498,-1258.350101,9622.677246
227.774895,1838.629195,666.185348,8364.327145
227.775203,2987.772442,962.267725,7105.977043
227.775511,3294.210641,2368.659014,5699.585753
227.775819,3983.696590,3478.967927,5255.462188
227.776127,3983.696590,3923.091493,5033.400406
227.776435,3830.477490,3997.112087,5033.400406
227.776743,2987.772442,3404.947333,5477.523971
227.777051,1762.019645,2442.679609,7254.018232
227.777359,0.000000,370.102971,8956.491898
227.777667,-2068.457845,-666.185348,11621.233289
227.777975,-3370.820191,-2072.576638,13027.624579
227.778283,-3600.648841,-3256.906145,14137.933492
227.778591,-3677.258390,-3330.926739,14211.954086
227.778899,-2757.943793,-2738.761985,13619.789333
227.779207,-383.047749,-1998.556043,11917.315666
227.779515,1149.143247,-888.247130,10807.006753
227.779823,2911.162892,-148.041188,9030.512492
227.780131,3677.258390,888.247130,7328.038826
227.780439,4596.572988,1924.535449,6291.750507
227.780747,4749.792088,2664.741391,5995.668130
227.781055,4060.306139,2960.823768,6069.688724
227.781363,3370.820191,2812.782580,6735.874072
227.781671,2374.896044,2960.823768,7846.182985
227.781979,1149.143247,2368.659014,8660.409521
227.782287,-612.876398,740.205942,9918.759623
227.782595,-1455.581446,-740.205942,12065.356855
227.782903,-2681.334243,-1924.535449,13323.706956
227.783211,-3370.820191,-2886.803174,14211.954086
227.783519,-3830.477490,-3182.885551,14730.098246
227.783827,-2528.115143,-2960.823768,14211.954086
227.784134,-1532.190996,-2516.700203,13101.645173
227.784442,153.219100,-1332.370696,11103.089130
227.784750,1532.190996,-0.000000,9474.636058
227.785058,2451.505594,1332.370696,7698.141797
227.785366,3447.429741,2442.679609,6513.812290
227.785674,4213.525239,3478.967927,5477.523971
227.785982,4443.353888,3997.112087,4959.379811
227.786290,3677.258390,4515.256246,5107.421000
227.786598,2757.943793,3701.029710,6217.729913
227.786906,1532.190996,2368.659014,6957.935855
227.787214,153.219100,1184.329507,8660.409521
227.787522,-1685.410096,-888.247130,10955.047942
227.787830,-2987.772442,-2146.597232,12657.521608
227.788138,-3677.258390,-3182.885551,13989.892304
227.788446,-3447.429741,-3552.988522,14211.954086
227.788754,-2528.115143,-3404.947333,13249.686362
227.789062,-1149.143247,-2368.659014,12213.398043
227.789370,1149.143247,-2072.576638,10584.944971
227.789678,2604.724693,-74.020594,8142.265362
227.789986,3753.867940,1110.308913,7179.997637
227.790294,4826.401637,2072.576638,6365.771101
227.790602,4903.011187,2664.741391,5995.668130
227.790910,4290.134789,2960.823768,6217.729913
227.791218,3370.820191,2664.741391,6957.935855
227.791526,2528.115143,2442.679609,7105.977043
227.791834,1378.971896,1332.370696,8364.327145
227.792142,-459.657299,592.164754,9548.656652
227.792450,-1302.362347,-592.164754,11547.212695
227.792757,-2604.724693,-1924.535449,13027.624579
227.793065,-3064.381992,-2886.803174,13989.892304
227.793373,-3447.429741,-3627.009116,14656.077652
227.793681,-3064.381992,-3552.988522,14359.995275
227.793989,-1762.019645,-3108.864956,13471.748144
227.794297,-229.828649,-2072.576638,11917.315666
227.794605,1455.581446,-962.267725,9770.718434
227.794913,2298.286494,592.164754,7624.121203
227.795221,3907.087040,1924.535449,6735.874072
227.795529,4443.353888,3034.844362,5403.503377
227.795837,4749.792088,3849.070898,4737.318029
227.796145,4903.011187,4219.173869,5033.400406
227.796453,4060.306139,3997.112087,5255.462188
227.796761,2604.724693,3552.988522,5699.585753
227.797069,919.314598,2368.659014,7254.018232
227.797377,-383.047749,444.123565,9474.636058
227.797685,-2298.286494,-814.226536,11473.192101
227.797993,-3447.429741,-2664.741391,13397.727550
227.798301,-4213.525239,-3552.988522,14359.995275
227.798609,-3677.258390,-3775.050304,14359.995275
227.798917,-2221.676944,-3034.844362,13545.768739
227.799225,-842.705048,-1776.494261,11695.253884
227.799533,1685.410096,-888.247130,10362.883188
227.799841,2604.724693,296.082377,8512.368333
227.800149,3370.820191,1628.453072,7105.977043
227.800457,3907.087040,2072.576638,6439.791695
227.800765,4060.306139,2738.761985,6513.812290
227.801073,3370.820191,3034.844362,6217.729913
227.801380,2911.162892,2738.761985,7105.977043
227.801688,2681.334243,2960.823768,7476.080014
227.801996,689.485948,1850.514855,8660.409521
227.802304,0.000000,962.267725,10066.800811
227.802612,-1302.362347,-222.061783,11991.336260
227.802920,-2374.896044,-1924.535449,13693.809927
227.803228,-3370.820191,-2960.823768,14211.954086
227.803536,-3217.601092,-3108.864956,14952.160028
227.803844,-2451.505594,-3182.885551,14285.974681
227.804152,-1608.800546,-2220.617826,12805.562797
227.804460,306.438199,-1184.329507,10955.047942
227.804768,1762.019645,-148.041188,9178.553681
227.805076,2757.943793,1036.288319,7328.038826
227.805384,3677.258390,2220.617826,6217.729913
227.805692,4443.353888,2812.782580,5921.647536
227.806000,4060.306139,3627.009116,5551.544565
227.806308,3294.210641,3997.112087,5477.523971
227.806616,3140.991542,3849.070898,5773.606348
227.806924,1608.800546,2738.761985,7105.977043
227.807232,76.609550,1628.453072,8808.450710
227.807540,-1762.019645,-222.061783,10510.924376
227.807848,-2451.505594,-1998.556043,12435.459826
227.808156,-3830.477490,-3108.864956,13693.809927
227.808464,-3907.087040,-3627.009116,14508.036463
227.808772,-2987.772442,-3404.947333,14211.954086
227.809080,-1685.410096,-2590.720797,12731.542202
227.809388,459.657299,-1332.370696,11103.089130
227.809696,2374.896044,-444.123565,8586.388927
227.810004,3524.039291,962.267725,7179.997637
227.810311,4596.572988,1332.370696,6439.791695
227.810619,4443.353888,2368.659014,5773.606348
227.810927,4443.353888,2886.803174,6217.729913
227.811235,3907.087040,2812.782580,6365.771101
227.811543,2911.162892,2516.700203,6957.935855
227.811851,1455.581446,1776.494261,7624.121203
227.812159,0.000000,1110.308913,8882.471304
227.812467,-1225.752797,-592.164754,11029.068536
227.812775,-2528.115143,-2146.597232,12805.562797
227.813083,-3294.210641,-3404.947333,14211.954086
227.813391,-3830.477490,-3923.091493,14656.077652
227.813699,-3140.991542,-4219.173869,14730.098246
227.814007,-2068.457845,-3330.926739,13027.624579
227.814315,-766.095498,-2442.679609,11843.295072
227.814623,1149.143247,-740.205942,9918.759623
227.814931,2681.334243,444.123565,7920.203579
227.815239,3907.087040,2220.617826,6439.791695
227.815547,4366.744339,3182.885551,5477.523971
227.815855,5056.230287,3849.070898,5181.441594
227.816163,4826.401637,4515.256246,5033.400406
227.816471,3983.696590,4737.318029,5625.565159
227.816779,2528.115143,3552.988522,6217.729913
227.817087,919.314598,2664.741391,7994.224174
227.817395,-306.438199,962.267725,10362.883188
227.817703,-2374.896044,-962.267725,12065.356855
227.818011,-3140.991542,-2072.576638,13471.748144
227.818319,-3447.429741,-3478.967927,14211.954086
227.818627,-3140.991542,-3034.844362,14434.015869
227.818934,-1991.848295,-2738.761985,13323.706956
227.819242,-306.438199,-1480.411884,12287.418637
227.819550,1378.971896,-592.164754,10807.006753
227.819858,2528.115143,148.041188,8660.409521
227.820166,3677.258390,1258.350101,7476.080014
227.820474,4136.915689,2220.617826,7031.956449
227.820782,4366.744339,2590.720797,6883.915261
227.821090,3294.210641,3330.926739,7105.977043
227.821398,2681.334243,3182.885551,7105.977043
227.821706,1455.581446,2664.741391,7994.224174
227.822014,459.657299,1850.514855,8808.450710
227.822322,-766.095498,518.144159,10436.903782
227.822630,-1991.848295,-1036.288319,12435.459826
227.822938,-2911.162892,-2368.659014,13471.748144
227.823246,-3983.696590,-3478.967927,14730.098246
227.823554,-3753.867940,-3552.988522,13915.871710
227.823862,-2451.505594,-3108.864956,13397.727550
227.824170,-1378.971896,-2146.597232,12287.418637
227.824478,612.876398,-1406.391290,10436.903782
227.824786,2145.067394,-0.000000,8512.368333
227.825094,3370.820191,1406.391290,7328.038826
227.825402,4366.744339,2072.576638,5847.626942
227.825710,4519.963438,3404.947333,5107.421000
227.826018,4903.011187,3923.091493,5181.441594
227.826326,4443.353888,3849.070898,4959.379811
227.826634,2604.724693,3627.009116,5477.523971
227.826942,1455.581446,2368.659014,7254.018232
227.827250,-229.828649,962.267725,8956.491898
227.827557,-1838.629195,-740.205942,11177.109724
227.827865,-2987.772442,-2368.659014,12361.439231
227.828173,-4213.525239,-3034.844362,13767.830521
227.828481,-3753.867940,-3775.050304,14063.912898
227.828789,-2757.943793,-2960.823768,13323.706956
227.829097,-1455.581446,-2442.679609,12287.418637
227.829405,0.000000,-1702.473667,10658.965565
227.829713,2068.457845,-222.061783,9030.512492
227.830021,3064.381992,444.123565,7328.038826
227.830329,3907.087040,1332.370696,6439.791695
227.830637,4290.134789,1998.556043,5699.585753
227.830945,4519.963438,2738.761985,5847.626942
227.831253,3524.039291,3404.947333,6365.771101
227.831561,2834.553343,2812.782580,6587.832884
227.831869,1762.019645,2368.659014,7550.100608
227.832177,153.219100,1258.350101,9104.533087
227.832485,-995.924147,-666.185348,11029.068536
227.832793,-2528.115143,-2072.576638,12731.542202
227.833101,-3677.258390,-3404.947333,13693.809927
227.833409,-3753.867940,-4219.173869,14656.077652
227.833717,-4213.525239,-3923.091493,15026.180623
227.834025,-2298.286494,-3034.844362,13989.892304
227.834333,-536.266849,-1924.535449,11621.233289
227.834641,1149.143247,-666.185348,9548.656652
227.834949,2681.334243,592.164754,7994.224174
227.835257,3983.696590,1924.535449,6365.771101
227.835565,4290.134789,3478.967927,5255.462188
227.835873,4903.011187,3923.091493,5255.462188
227.836181,4596.572988,4071.132681,5181.441594
227.836488,3447.429741,4293.194464,5329.482782
227.836796,1685.410096,3330.926739,6883.915261
227.837104,536.266849,2220.617826,8512.368333
227.837412,-1302.362347,814.226536,10436.903782
227.837720,-2145.067394,-1110.308913,12139.377449
227.838028,-3294.210641,-1998.556043,13397.727550
227.838336,-3830.477490,-3108.864956,14359.995275
227.838644,-3370.820191,-3034.844362,14582.057057
227.838952,-1838.629195,-2368.659014,13545.768739
227.839260,-612.876398,-1480.411884,11769.274478
227.839568,1302.362347,-888.247130,10584.944971
227.839876,2681.334243,592.164754,8586.388927
227.840184,3294.210641,1554.432478,7476.080014
227.840492,4366.744339,2072.576638,6883.915261
227.840800,4673.182538,3330.926739,6069.688724
227.841108,4519.963438,4145.153275,6365.771101
227.841416,3524.039291,3997.112087,6661.853478
227.841724,2451.505594,3034.844362,7476.080014
227.842032,919.314598,1998.556043,8882.471304
227.842340,-766.095498,222.061783,10510.924376
227.842648,-1685.410096,-1554.432478,12287.418637
227.842956,-3447.429741,-3108.864956,14211.954086
227.843264,-3983.696590,-3997.112087,15248.242405
227.843572,-4213.525239,-4293.194464,14508.036463
227.843880,-2451.505594,-3923.091493,14211.954086
227.844188,-1225.752797,-2516.700203,12287.418637
227.844496,842.705048,-1406.391290,10288.862594
227.844804,2528.115143,296.082377,8660.409521
227.845111,4136.915689,1850.514855,6883.915261
227.845419,5132.839837,2960.823768,5329.482782
227.845727,4979.620737,3701.029710,5033.400406
227.846035,5439.278036,3923.091493,4811.338623
227.846343,3907.087040,4145.153275,5033.400406
227.846651,2834.553343,3478.967927,5921.647536
227.846959,919.314598,2516.700203,7105.977043
227.847267,-306.438199,962.267725,9252.574275
227.847575,-1378.971896,-518.144159,10955.047942
227.847883,-2987.772442,-2146.597232,12361.439231
227.848191,-3064.381992,-3034.844362,13471.748144
227.848499,-3830.477490,-3849.070898,14137.933492
227.848807,-2604.724693,-3849.070898,13397.727550
227.849115,-1302.362347,-2368.659014,12361.439231
227.849423,229.828649,-1628.453072,10955.047942
227.849731,2145.067394,-370.102971,8882.471304
227.850039,3677.258390,1036.288319,7476.080014
227.850347,4213.525239,1924.535449,6439.791695
227.850655,4749.792088,2960.823768,6069.688724
227.850963,4673.182538,3775.050304,5551.544565
227.851271,3830.477490,3997.112087,6217.729913
227.851579,2757.943793,3034.844362,6809.894666
227.851887,1149.143247,2220.617826,8290.306550
227.852195,-459.657299,666.185348,9622.677246
227.852503,-2145.067394,-962.267725,11843.295072
227.852811,-3064.381992,-2812.782580,14063.912898
227.853119,-3753.867940,-3923.091493,15174.221811
227.853427,-4366.744339,-4441.235652,15322.262999
227.853735,-3447.429741,-4145.153275,14730.098246
227.854042,-1991.848295,-2516.700203,12731.542202
227.854350,0.000000,-1036.288319,11177.109724
227.854658,1915.238745,-0.000000,9252.574275
227.854966,3447.429741,1406.391290,7476.080014
227.855274,5209.449386,2738.761985,5773.606348
227.855582,5286.058936,3849.070898,4885.359217
227.855890,4673.182538,3923.091493,5181.441594
227.856198,4060.306139,4367.215058,5403.503377
227.856506,2451.505594,4145.153275,5551.544565
227.856814,1455.581446,2886.803174,7105.977043
227.857122,0.000000,1702.473667,9030.512492
227.857430,-1608.800546,592.164754,10510.924376
227.857738,-2374.896044,-1554.432478,12509.480420
227.858046,-3524.039291,-2590.720797,13693.809927
227.858354,-3983.696590,-3627.009116,14211.954086
227.858662,-3217.601092,-3404.947333,14434.015869
227.858970,-1991.848295,-2516.700203,12805.562797
227.859278,0.000000,-1406.391290,11473.192101
227.859586,1838.629195,-592.164754,9992.780217
227.859894,3140.991542,444.123565,8216.285956
227.860202,4213.525239,1480.411884,6957.935855
227.860510,4290.134789,2442.679609,5995.668130
227.860818,4136.915689,3182.885551,6143.709319
227.861126,3524.039291,3552.988522,6587.832884
227.861434,2374.896044,3182.885551,7031.956449
227.861742,1378.971896,2664.741391,7328.038826
227.862050,229.828649,1332.370696,8956.491898
227.862358,-1149.143247,-148.041188,11029.068536
227.862665,-2757.943793,-1850.514855,12731.542202
227.862973,-3753.867940,-3478.967927,14211.954086
227.863281,-4060.306139,-4219.173869,15248.242405
227.863589,-3753.867940,-4589.276840,14656.077652
227.863897,-2528.115143,-3552.988522,13471.748144
227.864205,-689.485948,-2368.659014,11843.295072
227.864513,1225.752797,-962.267725,10066.800811
227.864821,3294.210641,518.144159,7624.121203
227.865129,4443.353888,1628.453072,6365.771101
227.865437,4519.963438,2368.659014,5255.462188
227.865745,5286.058936,2812.782580,4737.318029
227.866053,4596.572988,3997.112087,4959.379811
227.866361,3830.477490,3923.091493,5181.441594
227.866669,2374.896044,3552.988522,5921.647536
227.866977,1225.752797,2220.617826,7402.059420
227.867285,-766.095498,1110.308913,9696.697840
227.867593,-1608.800546,-592.164754,11325.150913
227.867901,-2528.115143,-2072.576638,12879.583391
227.868209,-3370.820191,-2738.761985,14137.933492
227.868517,-3370.820191,-3108.864956,14359.995275
227.868825,-2681.334243,-2886.803174,13915.871710
227.869133,-1225.752797,-1776.494261,12657.521608
227.869441,612.876398,-1184.329507,10807.006753
227.869749,2298.286494,-0.000000,9326.594869
227.870057,3524.039291,1554.432478,7994.224174
227.870365,4136.915689,2516.700203,7328.038826
227.870673,4443.353888,2738.761985,6291.750507
227.870981,3983.696590,3627.009116,6069.688724
227.871288,3370.820191,3627.009116,6439.791695
227.871596,2834.553343,3256.906145,7031.956449
227.871904,689.485948,2220.617826,8364.327145
227.872212,-306.438199,666.185348,10436.903782
227.872520,-1838.629195,-888.247130,12213.398043
227.872828,-3447.429741,-2590.720797,13471.748144
227.873136,-4136.915689,-3775.050304,14804.118840
227.873444,-3907.087040,-3775.050304,14730.098246
227.873752,-3217.601092,-3478.967927,14137.933492
227.874060,-1455.581446,-2442.679609,12583.501014
227.874368,459.657299,-1406.391290,10510.924376
227.874676,2834.553343,-148.041188,9400.615463
227.874984,3600.648841,1184.329507,7476.080014
227.875292,4903.011187,2294.638420,5995.668130
227.875600,4826.401637,2960.823768,5403.503377
227.875908,4826.401637,3701.029710,4885.359217
227.876216,4060.306139,4293.194464,4959.379811
227.876524,3217.601092,3330.926739,5921.647536
227.876832,1762.019645,2738.761985,6587.832884
227.877140,0.000000,1702.473667,9178.553681
227.877448,-1608.800546,-74.020594,11029.068536
227.877756,-2374.896044,-1406.391290,11917.315666
227.878064,-3217.601092,-2368.659014,13323.706956
227.878372,-3064.381992,-3108.864956,14063.912898
227.878680,-2681.334243,-2738.761985,13841.851115
227.878988,-1455.581446,-2146.597232,12805.562797
227.879296,76.609550,-1184.329507,11695.253884
227.879604,1685.410096,-518.144159,9622.677246
227.879911,2911.162892,666.185348,7994.224174
227.880219,4290.134789,1776.494261,7105.977043
227.880527,4290.134789,2294.638420,6143.709319
227.880835,4290.134789,2738.761985,6439.791695
227.881143,3600.648841,3256.906145,5995.668130
227.881451,2451.505594,3182.885551,6217.729913
227.881759,1685.410096,1628.453072,8216.285956
227.882067,76.609550,444.123565,9622.677246
227.882375,-1455.581446,-444.123565,11547.212695
227.882683,-3064.381992,-2368.659014,12805.562797
227.882991,-3753.867940,-3404.947333,13915.871710
227.883299,-4060.306139,-3701.029710,14434.015869
227.883607,-3370.820191,-3552.988522,14434.015869
227.883915,-1991.848295,-2442.679609,12953.603985
227.884223,-383.047749,-1406.391290,11103.089130
227.884531,1762.019645,-888.247130,9178.553681
227.884839,3524.039291,592.164754,7624.121203
227.885147,4060.306139,1628.453072,6143.709319
227.885455,4290.134789,2516.700203,5995.668130
227.885762,4290.134789,2960.823768,5255.462188
227.886070,3753.867940,3478.967927,5033.400406
227.886378,2834.553343,2886.803174,5551.544565
227.886686,1991.848295,2812.782580,6661.853478
227.886994,919.314598,1554.432478,8068.244768
227.887302,-766.095498,-0.000000,9622.677246
227.887610,-1762.019645,-1258.350101,11843.295072
227.887918,-3064.381992,-2072.576638,13027.624579
227.888226,-3370.820191,-2738.761985,13323.706956
227.888534,-3217.601092,-2738.761985,14211.954086
227.888842,-2298.286494,-2664.741391,13545.768739
227.889150,-1302.362347,-1628.453072,11843.295072
227.889458,1072.533697,-740.205942,10584.944971
227.889766,2604.724693,-0.000000,9252.574275
227.890074,3217.601092,1480.411884,7994.224174
227.890382,3983.696590,2072.576638,6365.771101
227.890690,4290.134789,2590.720797,6365.771101
227.890998,3907.087040,3404.947333,6143.709319
227.891306,3600.648841,3330.926739,6291.750507
227.891613,2145.067394,3330.926739,7328.038826
227.891921,919.314598,2368.659014,8660.409521
227.892229,0.000000,814.226536,10362.883188
227.892537,-2145.067394,-740.205942,12287.418637
227.892845,-3294.210641,-2516.700203,13323.706956
227.893153,-3830.477490,-2960.823768,14359.995275
227.893461,-3983.696590,-3330.926739,15026.180623
227.893769,-2834.553343,-2960.823768,14508.036463
227.894077,-2068.457845,-2368.659014,12583.501014
227.894385,459.657299,-1554.432478,10807.006753
227.894693,2374.896044,148.041188,9178.553681
227.895001,3830.477490,888.247130,7328.038826
227.895309,4366.744339,1776.494261,6587.832884
227.895617,4519.963438,2886.803174,5551.544565
227.895925,4366.744339,3404.947333,5255.462188
227.896233,3677.258390,3478.967927,5477.523971
227.896541,3370.820191,3256.906145,6143.709319
227.896849,1685.410096,3108.864956,7031.956449
227.897157,766.095498,1776.494261,8734.430116
227.897465,-995.924147,-0.000000,10362.883188
227.897772,-2221.676944,-1406.391290,12065.356855
227.898080,-3447.429741,-2368.659014,13249.686362
227.898388,-3447.429741,-3182.885551,13989.892304
227.898696,-2681.334243,-3182.885551,13915.871710
227.899004,-1838.629195,-2738.761985,12805.562797
227.899312,153.219100,-1924.535449,11103.089130
227.899620,1991.848295,-740.205942,9918.759623
227.899928,3370.820191,592.164754,7846.182985
227.900236,4136.915689,1332.370696,6513.812290
227.900544,4749.792088,2442.679609,6143.709319
227.900852,4826.401637,2960.823768,5699.585753
227.901160,3830.477490,3330.926739,5921.647536
227.901468,2451.505594,2960.823768,6661.853478
227.901776,1838.629195,2442.679609,7846.182985
227.902084,0.000000,814.226536,9326.594869
227.902392,-842.705048,-814.226536,11399.171507
227.902700,-3064.381992,-2368.659014,12879.583391
227.903008,-4366.744339,-3552.988522,13915.871710
227.903316,-4060.306139,-3775.050304,14656.077652
227.903623,-3447.429741,-3552.988522,14211.954086
227.903931,-2221.676944,-2960.823768,12879.583391
227.904239,0.000000,-1702.473667,11547.212695
227.904547,1991.848295,-296.082377,9474.636058
227.904855,3064.381992,296.082377,7476.080014
227.905163,4366.744339,1628.453072,6513.812290
227.905471,4673.182538,2368.659014,5477.523971
227.905779,4366.744339,2886.803174,5107.421000
227.906087,3983.696590,3404.947333,4885.359217
227.906395,3140.991542,3256.906145,5847.626942
227.906703,2374.896044,2738.761985,6291.750507
227.907011,536.266849,1776.494261,7550.100608
227.907319,-459.657299,222.061783,9474.636058
227.907627,-1838.629195,-1036.288319,11325.150913
227.907935,-2987.772442,-2146.597232,12731.542202
227.908243,-3370.820191,-2738.761985,13767.830521
227.908551,-2987.772442,-2960.823768,13989.892304
227.908859,-2681.334243,-3108.864956,13693.809927
227.909167,-536.266849,-1998.556043,12287.418637
227.909475,612.876398,-1184.329507,10807.006753
227.909782,2221.676944,518.144159,9400.615463
227.910090,3677.258390,1406.391290,7624.121203
227.910398,4596.572988,2368.659014,6291.750507
227.910706,4443.353888,2886.803174,6217.729913
227.911014,3983.696590,3330.926739,6217.729913
227.911322,2987.772442,3256.906145,6883.915261
227.911630,1838.629195,2664.741391,7772.162391
227.911938,612.876398,1924.535449,9030.512492
227.912246,-1378.971896,-0.000000,10881.027347
227.912554,-2451.505594,-1332.370696,12509.480420
227.912862,-3600.648841,-1924.535449,13619.789333
227.913170,-3830.477490,-2738.761985,14434.015869
227.913478,-3524.039291,-2664.741391,14285.974681
227.913786,-2757.943793,-2072.576638,13915.871710
227.914094,-1225.752797,-1406.391290,12361.439231
227.914402,1302.362347,-518.144159,10881.027347
227.914710,2451.505594,814.226536,9178.553681
227.915018,3677.258390,1110.308913,6809.894666
227.915326,4213.525239,2072.576638,6365.771101
227.915633,4366.744339,2220.617826,6217.729913
227.915941,4136.915689,2738.761985,5699.585753
227.916249,3140.991542,2664.741391,5921.647536
227.916557,2298.286494,3108.864956,6365.771101
227.916865,2068.457845,2368.659014,7179.997637
227.917173,536.266849,1628.453072,8660.409521
227.917481,-459.657299,-0.000000,10436.903782
227.917789,-1915.238745,-814.226536,11621.233289
227.918097,-2834.553343,-2294.638420,13175.665768
227.918405,-2451.505594,-2960.823768,14063.912898
227.918713,-2681.334243,-3034.844362,13915.871710
227.919021,-1302.362347,-3034.844362,12953.603985
227.919329,-306.438199,-1554.432478,11547.212695
227.919637,1608.800546,-592.164754,9992.780217
227.919945,2911.162892,518.144159,8290.306550
227.920253,4060.306139,1258.350101,7031.956449
227.920561,4519.963438,2220.617826,6069.688724
227.920869,4366.744339,2516.700203,6069.688724
227.921177,3677.258390,3034.844362,6217.729913
227.921485,2834.553343,2886.803174,6217.729913
227.921792,1838.629195,2294.638420,7031.956449
227.922100,-153.219100,962.267725,9104.533087
227.922408,-1762.019645,-296.082377,11399.171507
227.922716,-2911.162892,-1776.494261,12583.501014
227.923024,-3753.867940,-2368.659014,13545.768739
227.923332,-3830.477490,-2960.823768,13915.871710
227.923640,-3600.648841,-2960.823768,14137.933492
227.923948,-2528.115143,-1924.535449,12805.562797
227.924256,0.000000,-1554.432478,11547.212695
227.924564,1532.190996,-740.205942,9474.636058
227.924872,2834.553343,222.061783,7772.162391
227.925180,3830.477490,1110.308913,6883.915261
227.925488,4136.915689,1998.556043,6069.688724
227.925796,4290.134789,2368.659014,5625.565159
227.926104,4290.134789,2886.803174,5107.421000
227.926412,3524.039291,3108.864956,5773.606348
227.926720,2374.896044,3034.844362,6217.729913
227.927028,995.924147,1998.556043,7254.018232
227.927336,-153.219100,592.164754,9770.718434
227.927643,-2068.457845,-592.164754,11325.150913
227.927951,-3064.381992,-2146.597232,12953.603985
227.928259,-2911.162892,-2738.761985,13767.830521
227.928567,-3370.820191,-3330.926739,14137.933492
227.928875,-2604.724693,-3034.844362,13767.830521
227.929183,-766.095498,-2516.700203,12361.439231
227.929491,766.095498,-1036.288319,10881.027347
227.929799,2221.676944,222.061783,8882.471304
227.930107,3830.477490,1554.432478,7105.977043
227.930415,4903.011187,2812.782580,5847.626942
227.930723,5669.106685,3701.029710,5551.544565
227.931031,5132.839837,4219.173869,5329.482782
227.931339,4366.744339,3997.112087,5995.668130
227.931647,2834.553343,3108.864956,7254.018232
227.931955,919.314598,2368.659014,8512.368333
227.932263,-1149.143247,592.164754,10732.986159
227.932571,-3140.991542,-1554.432478,12953.603985
227.932879,-4443.353888,-2590.720797,14359.995275
227.933187,-4673.182538,-3997.112087,15026.180623
227.933494,-4673.182538,-3923.091493,15470.304188
227.933802,-3447.429741,-2960.823768,14285.974681
227.934110,-1838.629195,-2072.576638,12879.583391
227.934418,536.266849,-592.164754,11029.068536
227.934726,2451.505594,592.164754,8586.388927
227.935034,3907.087040,1480.411884,7105.977043
227.935342,4596.572988,2738.761985,5995.668130
227.935650,4979.620737,2590.720797,4811.338623
227.935958,4903.011187,3182.885551,5181.441594
227.936266,4136.915689,3330.926739,5255.462188
227.936574,2604.724693,3330.926739,5995.668130
227.936882,1608.800546,2442.679609,7402.059420
227.937190,0.000000,962.267725,9104.533087
227.937498,-1532.190996,-518.144159,10881.027347
227.937806,-2834.553343,-1850.514855,12657.521608
227.938114,-3753.867940,-2960.823768,13841.851115
227.938422,-3524.039291,-3997.112087,14211.954086
227.938730,-2911.162892,-3108.864956,14211.954086
227.939038,-1915.238745,-2516.700203,13619.789333
227.939346,383.047749,-1628.453072,11251.130318
227.939653,1608.800546,-148.041188,9548.656652
227.939961,3600.648841,740.205942,7920.203579
227.940269,4213.525239,2072.576638,6439.791695
227.940577,5132.839837,2738.761985,5921.647536
227.940885,5209.449386,3256.906145,5995.668130
227.941193,3677.258390,3108.864956,5995.668130
227.941501,2604.724693,2812.782580,6809.894666
227.941809,1455.581446,2368.659014,7846.182985
227.942117,-229.828649,1184.329507,9474.636058
227.942425,-1915.238745,-666.185348,11769.274478
227.942733,-3217.601092,-1776.494261,12953.603985
227.943041,-3907.087040,-2590.720797,13915.871710
227.943349,-3983.696590,-3256.906145,14508.036463
227.943657,-2451.505594,-2664.741391,13989.892304
227.943965,-1915.238745,-2294.638420,12583.501014
227.944273,0.000000,-1184.329507,11399.171507
227.944581,2221.676944,-148.041188,9326.594869
227.944889,2757.943793,962.267725,7550.100608
227.945197,3830.477490,962.267725,6661.853478
227.945504,4060.306139,1924.535449,5403.503377
227.945812,3600.648841,2368.659014,5847.626942
227.946120,3907.087040,2516.700203,5773.606348
227.946428,2604.724693,3182.885551,5847.626942
227.946736,1838.629195,2664.741391,6735.874072
227.947044,766.095498,1850.514855,7920.203579
227.947352,-459.657299,962.267725,9548.656652
227.947660,-1685.410096,-814.226536,11621.233289
227.947968,-2528.115143,-2368.659014,12657.521608
227.948276,-3217.601092,-3182.885551,13027.624579
227.948584,-3447.429741,-3256.906145,14434.015869
227.948892,-2374.896044,-3182.885551,13693.809927
227.949200,-919.314598,-2072.576638,11843.295072
227.949508,1149.143247,-962.267725,10362.883188
227.949816,2757.943793,296.082377,8142.265362
227.950124,4136.915689,1406.391290,7105.977043
227.950432,4826.401637,2294.638420,6365.771101
227.950740,5362.668486,2590.720797,5625.565159
227.951048,4826.401637,3923.091493,5773.606348
227.951356,4136.915689,3923.091493,6439.791695
227.951663,2374.896044,3404.947333,7031.956449
227.951971,689.485948,2072.576638,9030.512492
227.952279,-842.705048,370.102971,10807.006753
227.952587,-2604.724693,-1110.308913,12509.480420
227.952895,-3447.429741,-2294.638420,14063.912898
227.953203,-4213.525239,-3034.844362,14211.954086
227.953511,-3830.477490,-3182.885551,14359.995275
227.953819,-2604.724693,-2886.803174,14211.954086
227.954127,-1378.971896,-1628.453072,12065.356855
227.954435,1072.533697,-1036.288319,10436.903782
227.954743,2528.115143,-0.000000,8364.327145
227.955051,3677.258390,962.267725,7328.038826
227.955359,4749.792088,2072.576638,6809.894666
227.955667,4519.963438,2146.597232,5625.565159
227.955975,4136.915689,2960.823768,5107.421000
227.956283,4136.915689,3627.009116,5107.421000
227.956591,3447.429741,3775.050304,5625.565159
227.956899,1915.238745,2960.823768,6439.791695
227.957207,689.485948,1850.514855,8512.368333
227.957514,-689.485948,-370.102971,10807.006753
227.957822,-2374.896044,-2072.576638,12287.418637
227.958130,-3753.867940,-3034.844362,13915.871710
227.958438,-3983.696590,-3923.091493,14359.995275
227.958746,-3370.820191,-3997.112087,14137.933492
227.959054,-2068.457845,-3108.864956,13027.624579
227.959362,-153.219100,-1924.535449,11399.171507
227.959670,1762.019645,-814.226536,9844.739029
227.959978,3370.820191,962.267725,7698.141797
227.960286,4596.572988,2368.659014,6217.729913
227.960594,5745.716235,2812.782580,6217.729913
227.960902,5439.278036,3330.926739,4885.359217
227.961210,4596.572988,3775.050304,5699.585753
227.961518,3140.991542,3330.926739,6291.750507
227.961826,1225.752797,2368.659014,7846.182985
227.962134,-612.876398,888.247130,9918.759623
227.962442,-2528.115143,-888.247130,11769.274478
227.962750,-3907.087040,-2442.679609,13249.686362
227.963058,-4443.353888,-3256.906145,13989.892304
227.963365,-3907.087040,-3034.844362,14359.995275
227.963673,-3600.648841,-2812.782580,13915.871710
227.963981,-1762.019645,-1998.556043,12657.521608
227.964289,0.000000,-1036.288319,10955.047942
227.964597,1762.019645,-296.082377,9696.697840
227.964905,2681.334243,592.164754,7698.141797
227.965213,3753.867940,1554.432478,6883.915261
227.965521,4443.353888,2368.659014,6291.750507
227.965829,4290.134789,3256.906145,5477.523971
227.966137,3907.087040,3627.009116,5255.462188
227.966445,3217.601092,3701.029710,5477.523971
227.966753,2145.067394,3330.926739,6587.832884
227.967061,766.095498,2220.617826,8290.306550
227.967369,-995.924147,-0.000000,10584.944971
227.967677,-2451.505594,-1998.556043,12509.480420
227.967985,-3064.381992,-2738.761985,13397.727550
227.968293,-3677.258390,-3701.029710,14656.077652
227.968601,-3600.648841,-3775.050304,14285.974681
227.968909,-2221.676944,-3034.844362,13693.809927
227.969217,-612.876398,-1702.473667,11769.274478
227.969524,1685.410096,-666.185348,10584.944971
227.969832,3907.087040,444.123565,8586.388927
227.970140,4213.525239,2516.700203,5921.647536
227.970448,5669.106685,2368.659014,6587.832884
227.970756,4903.011187,3404.947333,5181.441594
227.971064,4136.915689,3627.009116,6143.709319
227.971372,2987.772442,3330.926739,6513.812290
227.971680,1225.752797,2664.741391,7698.141797
227.971988,-459.657299,1184.329507,10214.842000
227.972296,-2374.896044,-370.102971,11251.130318
227.972604,-3447.429741,-1628.453072,13619.789333
227.972912,-4443.353888,-2738.761985,14211.954086
227.973220,-4443.353888,-3256.906145,14434.015869
227.973528,-3677.258390,-2886.803174,14582.057057
227.973836,-2374.896044,-2368.659014,13249.686362
227.974144,-689.485948,-1332.370696,11547.212695
227.974452,1532.190996,-592.164754,9844.739029
227.974760,3830.477490,-0.000000,7994.224174
227.975068,3907.087040,1332.370696,6809.894666
227.975375,4826.401637,1924.535449,5773.606348
227.975683,4749.792088,2368.659014,4811.338623
227.975991,4826.401637,3256.906145,4737.318029
227.976299,4443.353888,3627.009116,5107.421000
227.976607,3140.991542,3108.864956,5477.523971
227.976915,1532.190996,2368.659014,7254.018232
227.977223,383.047749,592.164754,9400.615463
227.977531,-1762.019645,-1184.329507,11251.130318
227.977839,-3064.381992,-2886.803174,12731.542202
227.978147,-3677.258390,-3701.029710,14434.015869
227.978455,-3907.087040,-4071.132681,14137.933492
227.978763,-3140.991542,-3627.009116,14063.912898
227.979071,-1685.410096,-2664.741391,12731.542202
227.979379,536.266849,-1406.391290,11103.089130
227.979687,3140.991542,-740.205942,9474.636058
227.979995,4290.134789,1036.288319,7105.977043
227.980303,5592.497135,1776.494261,6217.729913
227.980611,5898.935335,2368.659014,5699.585753
227.980919,4903.011187,3108.864956,5403.503377
227.981227,4366.744339,3108.864956,5921.647536
227.981534,2834.553343,2738.761985,6809.894666
227.981842,1072.533697,2146.597232,8068.244768
227.982150,-306.438199,888.247130,9622.677246
227.982458,-1455.581446,-518.144159,11843.295072
227.982766,-3294.210641,-1628.453072,12731.542202
227.983074,-3524.039291,-2294.638420,14063.912898
227.983382,-4136.915689,-2368.659014,13989.892304
227.983690,-3447.429741,-2590.720797,14063.912898
227.983997,-1762.019645,-1776.494261,13027.624579
227.984305,-306.438199,-666.185348,11399.171507
227.984613,1149.143247,-370.102971,9770.718434
227.984921,2068.457845,666.185348,8142.265362
227.985229,3983.696590,1258.350101,7031.956449
227.985537,4136.915689,2072.576638,6587.832884
227.985845,3983.696590,3034.844362,5403.503377
227.986153,3677.258390,3330.926739,5699.585753
227.986461,2834.553343,3182.885551,5847.626942
227.986769,2068.457845,2886.803174,7105.977043
227.987077,229.828649,1924.535449,8512.368333
227.987385,-612.876398,-0.000000,10362.883188
227.987693,-2374.896044,-1480.411884,12065.356855
227.988001,-3677.258390,-2812.782580,12879.583391
227.988309,-3907.087040,-3108.864956,14285.974681
227.988616,-3600.648841,-3627.009116,14285.974681
227.988924,-2604.724693,-2516.700203,13323.706956
227.989232,-383.047749,-1924.535449,11991.336260
227.989540,1915.238745,-740.205942,10066.800811
227.989848,2834.553343,296.082377,8512.368333
227.990156,4443.353888,1702.473667,6957.935855
227.990464,4673.182538,2590.720797,6217.729913
227.990772,4903.011187,2738.761985,6143.709319
227.991080,4213.525239,3478.967927,5773.606348
227.991388,3064.381992,3256.906145,6291.750507
227.991696,1838.629195,2738.761985,7476.080014
227.992004,0.000000,1406.391290,9326.594869
227.992312,-1838.629195,-74.020594,11399.171507
227.992620,-3217.601092,-1702.473667,12879.583391
227.992928,-4136.915689,-2368.659014,14211.954086
227.993236,-4443.353888,-3108.864956,14285.974681
227.993544,-4213.525239,-3034.844362,14508.036463
227.993851,-2911.162892,-2516.700203,13619.789333
227.994159,-536.266849,-1332.370696,11917.315666
227.994467,1608.800546,-0.000000,10066.800811
227.994775,3524.039291,1036.288319,8290.306550
227.995083,4596.572988,2146.597232,6661.853478
227.995391,4749.792088,2368.659014,5847.626942
227.995699,5439.278036,2738.761985,5847.626942
227.996007,4213.525239,3330.926739,4811.338623
227.996315,3524.039291,3404.947333,5625.565159
227.996623,2451.505594,2738.761985,6883.915261
227.996931,766.095498,2220.617826,7328.038826
227.997239,0.000000,222.061783,9918.759623
227.997547,-1991.848295,-1110.308913,10881.027347
227.997855,-2757.943793,-2738.761985,13175.665768
227.998163,-3907.087040,-3404.947333,13471.748144
227.998471,-3524.039291,-3552.988522,14211.954086
227.998779,-2757.943793,-3404.947333,13767.830521
227.999086,-842.705048,-2146.597232,12065.356855
227.999394,1455.581446,-888.247130,11029.068536
227.999702,3677.258390,-148.041188,8216.285956
228.000010,4673.182538,1110.308913,6513.812290
228.000318,5439.278036,2146.597232,5921.647536
228.000626,5439.278036,2368.659014,5995.668130
228.000934,4826.401637,2886.803174,5699.585753
228.001242,3677.258390,2812.782580,5921.647536
228.001550,2528.115143,2664.741391,7031.956449
228.001858,1072.533697,888.247130,8142.265362
228.002166,-842.705048,592.164754,9918.759623
228.002474,-2145.067394,-1036.288319,11843.295072
228.002782,-3524.039291,-2220.617826,13175.665768
228.003090,-4443.353888,-2960.823768,14211.954086
228.003398,-4136.915689,-2812.782580,14285.974681
228.003706,-3064.381992,-2590.720797,14211.954086
228.004014,-1608.800546,-1628.453072,12657.521608
228.004321,0.000000,-444.123565,10732.986159
228.004629,2374.896044,148.041188,9770.718434
228.004937,3140.991542,666.185348,7698.141797
228.005245,4366.744339,2220.617826,6513.812290
228.005553,4366.744339,2516.700203,5921.647536
228.005861,4443.353888,3182.885551,5255.462188
228.006169,3907.087040,3478.967927,5403.503377
228.006477,3524.039291,3182.885551,5847.626942
228.006785,1838.629195,2516.700203,7179.997637
228.007093,536.266849,1628.453072,8660.409521
228.007401,-1455.581446,-148.041188,10510.924376
228.007709,-2757.943793,-1554.432478,12287.418637
228.008017,-3600.648841,-2738.761985,13767.830521
228.008325,-4060.306139,-2960.823768,14285.974681
228.008633,-3217.601092,-3404.947333,14359.995275
228.008941,-1991.848295,-2146.597232,13101.645173
228.009249,0.000000,-1554.432478,11917.315666
228.009556,1838.629195,-296.082377,10214.842000
228.009864,3830.477490,592.164754,7994.224174
228.010172,4749.792088,1850.514855,7105.977043
228.010480,4903.011187,2516.700203,5995.668130
228.010788,4596.572988,2664.741391,6291.750507
228.011096,3830.477490,2812.782580,6365.771101
228.011404,3370.820191,2738.761985,6735.874072
228.011712,1225.752797,1924.535449,7624.121203
228.012020,153.219100,740.205942,9696.697840
228.012328,-2145.067394,-296.082377,11843.295072
228.012636,-3140.991542,-1554.432478,12953.603985
228.012944,-3983.696590,-2368.659014,13619.789333
