#time,accel_x,accel_y,accel_z
242.707652,919.314598,-666.185348,9400.615463
242.707960,1072.533697,-666.185348,9844.739029
242.708267,842.705048,-888.247130,9696.697840
242.708575,459.657299,-962.267725,9622.677246
242.708883,1608.800546,-740.205942,9622.677246
242.709191,1915.238745,-148.041188,9548.656652
242.709499,2298.286494,-296.082377,9622.677246
242.709807,2451.505594,-148.041188,9400.615463
242.710114,2298.286494,-148.041188,9474.636058
242.710422,2757.943793,-0.000000,9474.636058
242.710730,2451.505594,-0.000000,9474.636058
242.711038,2834.553343,370.102971,9548.656652
242.711346,2604.724693,222.061783,9326.594869
242.711654,2604.724693,518.144159,9326.594869
242.711961,2604.724693,592.164754,9474.636058
242.712269,2987.772442,592.164754,9400.615463
242.712577,2298.286494,814.226536,9474.636058
242.712885,2834.553343,814.226536,9474.636058
242.713193,2757.943793,1036.288319,9696.697840
242.713501,2451.505594,888.247130,9548.656652
242.713808,2298.286494,1332.370696,9696.697840
242.714116,2145.067394,1110.308913,9696.697840
242.714424,2068.457845,1258.350101,9696.697840
242.714732,1838.629195,962.267725,9844.739029
242.715040,1608.800546,814.226536,9696.697840
242.715348,1915.238745,518.144159,9770.718434
242.715655,1685.410096,148.041188,10066.800811
242.715963,1532.190996,296.082377,9696.697840
242.716271,1149.143247,-0.000000,9844.739029
242.716579,1149.143247,444.123565,9844.739029
242.716887,1302.362347,518.144159,9770.718434
242.717195,1302.362347,518.144159,9622.677246
242.717502,1455.581446,-0.000000,9474.636058
242.717810,1685.410096,-148.041188,9474.636058
242.718118,1608.800546,-0.000000,9178.553681
242.718426,1685.410096,592.164754,9326.594869
242.718734,1149.143247,370.102971,9030.512492
242.719042,1149.143247,666.185348,9326.594869
242.719349,1225.752797,666.185348,8956.491898
242.719657,1072.533697,740.205942,9030.512492
242.719965,1149.143247,444.123565,9030.512492
242.720273,1455.581446,370.102971,9252.574275
242.720581,842.705048,-370.102971,9400.615463
242.720888,536.266849,-296.082377,10214.842000
242.721196,0.000000,-962.267725,10362.883188
242.721504,-229.828649,-740.205942,10214.842000
242.721812,-153.219100,-888.247130,10362.883188
242.722120,-153.219100,-1036.288319,10066.800811
242.722428,0.000000,-888.247130,9770.718434
242.722735,76.609550,-666.185348,9622.677246
242.723043,1149.143247,-518.144159,9178.553681
242.723351,536.266849,-296.082377,9252.574275
242.723659,842.705048,-222.061783,8882.471304
242.723967,612.876398,-0.000000,9030.512492
242.724275,306.438199,-0.000000,9400.615463
242.724582,0.000000,-222.061783,9622.677246
242.724890,76.609550,-0.000000,9474.636058
242.725198,0.000000,-74.020594,9770.718434
242.725506,-306.438199,-148.041188,9844.739029
242.725814,153.219100,-222.061783,9844.739029
242.726122,0.000000,-296.082377,9770.718434
242.726429,0.000000,444.123565,9696.697840
242.726737,153.219100,370.102971,9548.656652
242.727045,229.828649,370.102971,9696.697840
242.727353,0.000000,296.082377,9696.697840
242.727661,153.219100,370.102971,9918.759623
242.727969,0.000000,296.082377,9844.739029
242.728276,229.828649,222.061783,10214.842000
242.728584,76.609550,296.082377,9992.780217
242.728892,76.609550,370.102971,9992.780217
242.729200,306.438199,518.144159,9844.739029
242.729508,536.266849,592.164754,9548.656652
242.729816,995.924147,296.082377,9400.615463
242.730123,1302.362347,1110.308913,9474.636058
242.730431,1302.362347,888.247130,9548.656652
242.730739,1302.362347,962.267725,9696.697840
242.731047,1225.752797,962.267725,9474.636058
242.731355,1149.143247,814.226536,9548.656652
242.731663,919.314598,666.185348,9770.718434
242.731970,766.095498,444.123565,9770.718434
242.732278,842.705048,370.102971,9992.780217
242.732586,536.266849,370.102971,10140.821405
242.732894,919.314598,296.082377,9770.718434
242.733202,536.266849,148.041188,9844.739029
242.733510,1225.752797,444.123565,9548.656652
242.733817,1225.752797,370.102971,9474.636058
242.734125,1378.971896,444.123565,9474.636058
242.734433,1455.581446,222.061783,9474.636058
242.734741,1532.190996,-0.000000,9918.759623
242.735049,1072.533697,-0.000000,9622.677246
242.735357,995.924147,-0.000000,9622.677246
242.735664,1149.143247,-148.041188,9548.656652
242.735972,1149.143247,-0.000000,9400.615463
242.736280,766.095498,-0.000000,9474.636058
242.736588,766.095498,-0.000000,9474.636058
242.736896,612.876398,-74.020594,9400.615463
242.737203,689.485948,-0.000000,9474.636058
242.737511,766.095498,-0.000000,9474.636058
242.737819,689.485948,-0.000000,9474.636058
242.738127,383.047749,148.041188,9400.615463
242.738435,153.219100,-0.000000,9474.636058
242.738743,0.000000,148.041188,9548.656652
242.739050,0.000000,-0.000000,9696.697840
242.739358,0.000000,-0.000000,9696.697840
242.739666,-612.876398,444.123565,10214.842000
242.739974,0.000000,370.102971,10140.821405
242.740282,76.609550,-74.020594,9548.656652
242.740590,-153.219100,296.082377,9770.718434
242.740897,76.609550,296.082377,9622.677246
242.741205,229.828649,370.102971,9400.615463
242.741513,76.609550,296.082377,9400.615463
242.741821,229.828649,296.082377,9400.615463
242.742129,229.828649,-0.000000,9696.697840
242.742437,153.219100,-0.000000,9770.718434
242.742744,229.828649,-518.144159,9696.697840
242.743052,0.000000,-370.102971,9622.677246
242.743360,0.000000,-0.000000,9696.697840
242.743668,0.000000,-74.020594,9474.636058
242.743976,153.219100,-0.000000,9770.718434
242.744284,459.657299,-0.000000,9474.636058
242.744591,153.219100,-0.000000,9252.574275
242.744899,766.095498,-0.000000,9918.759623
242.745207,842.705048,148.041188,9992.780217
242.745515,766.095498,296.082377,9474.636058
242.745823,842.705048,-0.000000,9474.636058
242.746131,842.705048,-148.041188,9474.636058
242.746438,766.095498,-74.020594,9474.636058
242.746746,995.924147,-0.000000,9474.636058
242.747054,919.314598,-0.000000,9474.636058
242.747362,1149.143247,-0.000000,9770.718434
242.747670,919.314598,592.164754,9992.780217
242.747978,919.314598,148.041188,9400.615463
242.748285,1302.362347,370.102971,9474.636058
242.748593,1302.362347,296.082377,9474.636058
242.748901,1149.143247,370.102971,9770.718434
242.749209,1455.581446,-0.000000,9770.718434
242.749517,1225.752797,148.041188,9918.759623
242.749825,995.924147,-0.000000,9326.594869
242.750132,1225.752797,444.123565,9696.697840
242.750440,1072.533697,444.123565,9696.697840
242.750748,1072.533697,518.144159,9770.718434
242.751056,1302.362347,740.205942,9770.718434
242.751364,1149.143247,518.144159,9622.677246
242.751672,1225.752797,666.185348,9622.677246
242.751979,1608.800546,518.144159,9770.718434
242.752287,1072.533697,592.164754,9474.636058
242.752595,1455.581446,592.164754,9770.718434
242.752903,1072.533697,592.164754,9622.677246
242.753211,842.705048,592.164754,9696.697840
242.753518,1072.533697,518.144159,9696.697840
242.753826,842.705048,370.102971,9696.697840
242.754134,995.924147,444.123565,9548.656652
242.754442,1149.143247,592.164754,9770.718434
242.754750,766.095498,518.144159,9548.656652
242.755058,766.095498,370.102971,9474.636058
242.755366,842.705048,370.102971,9622.677246
242.755673,842.705048,222.061783,9400.615463
242.755981,689.485948,222.061783,9548.656652
242.756289,459.657299,-0.000000,9548.656652
242.756597,1072.533697,-0.000000,9474.636058
242.756905,153.219100,-74.020594,9770.718434
242.757213,459.657299,-0.000000,9622.677246
242.757521,459.657299,370.102971,9844.739029
242.757829,612.876398,-148.041188,9474.636058
242.758136,306.438199,-0.000000,9474.636058
242.758444,229.828649,-148.041188,9474.636058
242.758752,306.438199,-74.020594,9474.636058
242.759060,459.657299,-74.020594,9474.636058
242.759368,536.266849,-148.041188,9400.615463
242.759676,0.000000,-0.000000,9622.677246
242.759984,76.609550,-0.000000,9474.636058
242.760292,0.000000,-370.102971,9252.574275
242.760599,0.000000,-74.020594,9474.636058
242.760907,0.000000,-0.000000,9548.656652
242.761215,0.000000,148.041188,9474.636058
242.761523,306.438199,-148.041188,9474.636058
242.761831,0.000000,296.082377,9474.636058
242.762139,76.609550,-148.041188,9474.636058
242.762447,0.000000,-444.123565,9474.636058
242.762755,0.000000,-0.000000,9548.656652
242.763062,0.000000,-148.041188,9622.677246
242.763370,0.000000,-0.000000,9548.656652
242.763678,76.609550,-0.000000,9474.636058
242.763986,0.000000,518.144159,9474.636058
242.764294,612.876398,-0.000000,9548.656652
242.764602,536.266849,148.041188,9474.636058
242.764910,76.609550,296.082377,9770.718434
242.765218,229.828649,296.082377,9696.697840
242.765526,153.219100,-0.000000,9622.677246
242.765833,536.266849,296.082377,9622.677246
242.766141,306.438199,222.061783,9474.636058
242.766449,766.095498,-74.020594,9400.615463
242.766757,1072.533697,148.041188,9622.677246
242.767065,842.705048,370.102971,9622.677246
242.767373,1149.143247,222.061783,9770.718434
242.767681,995.924147,222.061783,9696.697840
242.767989,536.266849,370.102971,9548.656652
242.768296,1072.533697,444.123565,9696.697840
242.768604,995.924147,222.061783,9474.636058
242.768912,919.314598,444.123565,9622.677246
242.769220,919.314598,222.061783,9918.759623
242.769528,1302.362347,-0.000000,9770.718434
242.769836,1378.971896,370.102971,9622.677246
242.770144,919.314598,370.102971,9622.677246
242.770452,1072.533697,518.144159,9548.656652
242.770759,1149.143247,296.082377,9548.656652
242.771067,1225.752797,222.061783,9622.677246
242.771375,1225.752797,-0.000000,9622.677246
242.771683,306.438199,222.061783,9844.739029
242.771991,1455.581446,444.123565,9992.780217
242.772299,1225.752797,-0.000000,9400.615463
242.772607,689.485948,222.061783,9548.656652
242.772915,1225.752797,444.123565,9474.636058
242.773222,1072.533697,296.082377,9548.656652
242.773530,1149.143247,296.082377,9548.656652
242.773838,1225.752797,370.102971,9474.636058
242.774146,689.485948,296.082377,9844.739029
242.774454,689.485948,814.226536,9918.759623
242.774762,842.705048,222.061783,9918.759623
242.775070,689.485948,370.102971,9696.697840
242.775378,306.438199,370.102971,9696.697840
242.775685,612.876398,222.061783,9696.697840
242.775993,536.266849,296.082377,9548.656652
242.776301,383.047749,-0.000000,9474.636058
242.776609,459.657299,-0.000000,10066.800811
242.776917,1072.533697,370.102971,9622.677246
242.777225,842.705048,-74.020594,9474.636058
242.777533,459.657299,148.041188,9696.697840
242.777841,383.047749,296.082377,9622.677246
242.778149,229.828649,-0.000000,9696.697840
242.778456,153.219100,-222.061783,9696.697840
242.778764,153.219100,-0.000000,9844.739029
242.779072,459.657299,-370.102971,9474.636058
242.779380,153.219100,-0.000000,9548.656652
242.779688,612.876398,-0.000000,9622.677246
242.779996,612.876398,370.102971,9548.656652
242.780304,459.657299,296.082377,9474.636058
242.780612,689.485948,-0.000000,9474.636058
242.780919,1302.362347,-0.000000,9548.656652
242.781227,459.657299,-0.000000,9696.697840
242.781535,459.657299,-0.000000,9770.718434
242.781843,0.000000,222.061783,9770.718434
242.782151,306.438199,-0.000000,9696.697840
242.782459,612.876398,222.061783,9474.636058
242.782767,536.266849,-0.000000,9474.636058
242.783075,383.047749,148.041188,9548.656652
242.783382,612.876398,222.061783,9548.656652
242.783690,1149.143247,-0.000000,9400.615463
242.783998,766.095498,-0.000000,9252.574275
242.784306,766.095498,-0.000000,9548.656652
242.784614,459.657299,-0.000000,9548.656652
242.784922,229.828649,296.082377,9548.656652
242.785230,612.876398,296.082377,9696.697840
242.785538,536.266849,222.061783,9548.656652
242.785845,306.438199,296.082377,9622.677246
242.786153,459.657299,148.041188,9696.697840
242.786461,459.657299,-0.000000,9474.636058
242.786769,766.095498,518.144159,9696.697840
242.787077,612.876398,370.102971,9548.656652
242.787385,459.657299,370.102971,9622.677246
242.787693,612.876398,370.102971,9548.656652
242.788001,766.095498,444.123565,9548.656652
242.788309,536.266849,370.102971,9622.677246
242.788616,536.266849,296.082377,9622.677246
242.788924,689.485948,296.082377,9992.780217
242.789232,536.266849,-0.000000,9770.718434
242.789540,612.876398,222.061783,9696.697840
242.789848,536.266849,444.123565,9696.697840
242.790156,689.485948,296.082377,9696.697840
242.790464,766.095498,518.144159,9548.656652
242.790772,842.705048,296.082377,9474.636058
242.791079,1378.971896,-0.000000,9770.718434
242.791387,1225.752797,-0.000000,9400.615463
242.791695,995.924147,-0.000000,9622.677246
242.792003,612.876398,-0.000000,9548.656652
242.792311,766.095498,222.061783,9474.636058
242.792619,689.485948,222.061783,9548.656652
242.792927,536.266849,148.041188,9548.656652
242.793235,459.657299,-148.041188,9474.636058
242.793542,1072.533697,-0.000000,9622.677246
242.793850,919.314598,370.102971,9622.677246
242.794158,689.485948,-0.000000,9696.697840
242.794466,536.266849,-0.000000,9474.636058
242.794774,459.657299,-0.000000,9474.636058
242.795082,536.266849,-0.000000,9696.697840
242.795390,383.047749,-0.000000,9622.677246
242.795698,689.485948,-0.000000,9770.718434
242.796005,536.266849,-0.000000,9696.697840
242.796313,919.314598,-0.000000,9696.697840
242.796621,612.876398,-0.000000,9696.697840
242.796929,689.485948,-0.000000,9474.636058
242.797237,306.438199,222.061783,9400.615463
242.797545,689.485948,-0.000000,9548.656652
242.797853,459.657299,-0.000000,9622.677246
242.798161,612.876398,-74.020594,9474.636058
242.798468,842.705048,-0.000000,9548.656652
242.798776,76.609550,-0.000000,9622.677246
242.799084,612.876398,148.041188,9622.677246
242.799392,536.266849,444.123565,9696.697840
242.799700,459.657299,296.082377,9548.656652
242.800008,766.095498,370.102971,9474.636058
242.800316,612.876398,296.082377,9474.636058
242.800624,766.095498,444.123565,9474.636058
242.800932,995.924147,-0.000000,9548.656652
242.801239,1149.143247,148.041188,9548.656652
242.801547,1149.143247,-222.061783,9696.697840
242.801855,689.485948,222.061783,9548.656652
242.802163,842.705048,148.041188,9622.677246
242.802471,842.705048,222.061783,9696.697840
242.802779,689.485948,-0.000000,9474.636058
242.803087,766.095498,148.041188,9770.718434
242.803395,459.657299,222.061783,9622.677246
242.803702,1378.971896,-0.000000,9622.677246
242.804010,766.095498,222.061783,9770.718434
242.804318,766.095498,296.082377,9474.636058
242.804626,766.095498,222.061783,9474.636058
242.804934,766.095498,222.061783,9622.677246
242.805242,689.485948,148.041188,9696.697840
242.805550,612.876398,148.041188,9474.636058
242.805858,536.266849,-0.000000,9770.718434
242.806165,536.266849,-0.000000,9474.636058
242.806473,1149.143247,-0.000000,9548.656652
242.806781,689.485948,740.205942,9622.677246
242.807089,842.705048,518.144159,9474.636058
242.807397,842.705048,444.123565,9770.718434
242.807705,689.485948,296.082377,9696.697840
242.808013,383.047749,-0.000000,9548.656652
242.808321,383.047749,296.082377,9622.677246
242.808628,306.438199,222.061783,9918.759623
242.808936,459.657299,-0.000000,9696.697840
242.809244,766.095498,370.102971,9622.677246
242.809552,383.047749,222.061783,9548.656652
242.809860,459.657299,444.123565,9548.656652
242.810168,689.485948,444.123565,9770.718434
242.810476,766.095498,296.082377,9622.677246
242.810784,459.657299,296.082377,9918.759623
242.811091,229.828649,-0.000000,9622.677246
242.811399,0.000000,-148.041188,9696.697840
242.811707,536.266849,222.061783,9622.677246
242.812015,229.828649,370.102971,9622.677246
242.812323,229.828649,296.082377,9622.677246
242.812631,383.047749,148.041188,9548.656652
242.812939,536.266849,-296.082377,9548.656652
242.813247,919.314598,-0.000000,9474.636058
242.813555,766.095498,518.144159,9844.739029
242.813862,689.485948,222.061783,9696.697840
242.814170,689.485948,-0.000000,9474.636058
242.814478,536.266849,148.041188,9622.677246
242.814786,383.047749,-0.000000,9548.656652
242.815094,612.876398,-0.000000,9696.697840
242.815402,612.876398,222.061783,9400.615463
242.815710,383.047749,148.041188,9696.697840
242.816018,766.095498,-0.000000,9770.718434
242.816325,842.705048,-0.000000,9474.636058
242.816633,766.095498,148.041188,9474.636058
242.816941,842.705048,296.082377,9474.636058
242.817249,612.876398,296.082377,9400.615463
242.817557,536.266849,148.041188,9474.636058
242.817865,459.657299,-74.020594,9548.656652
242.818173,766.095498,-0.000000,9622.677246
242.818481,612.876398,-0.000000,9474.636058
242.818788,0.000000,370.102971,9844.739029
242.819096,306.438199,370.102971,9548.656652
242.819404,383.047749,222.061783,9696.697840
242.819712,766.095498,148.041188,9696.697840
242.820020,612.876398,444.123565,9474.636058
242.820328,536.266849,-0.000000,9474.636058
242.820636,536.266849,-74.020594,9474.636058
242.820944,536.266849,148.041188,9696.697840
242.821251,612.876398,-0.000000,9696.697840
242.821559,536.266849,296.082377,9770.718434
242.821867,766.095498,370.102971,9696.697840
242.822175,612.876398,-0.000000,9622.677246
242.822483,612.876398,-0.000000,9474.636058
242.822791,612.876398,-0.000000,9770.718434
242.823099,766.095498,296.082377,9992.780217
242.823407,689.485948,-0.000000,9622.677246
242.823715,1072.533697,518.144159,9548.656652
242.824022,689.485948,444.123565,9548.656652
242.824330,766.095498,444.123565,9770.718434
242.824638,919.314598,-0.000000,9622.677246
242.824946,689.485948,148.041188,9474.636058
242.825254,536.266849,296.082377,9992.780217
242.825562,536.266849,296.082377,9770.718434
242.825870,383.047749,-0.000000,9696.697840
242.826178,842.705048,222.061783,9400.615463
242.826485,536.266849,370.102971,9474.636058
242.826793,766.095498,222.061783,9474.636058
242.827101,766.095498,296.082377,9474.636058
242.827409,536.266849,-0.000000,9548.656652
242.827717,995.924147,-148.041188,9696.697840
242.828025,536.266849,370.102971,9918.759623
242.828333,689.485948,-0.000000,9474.636058
242.828641,766.095498,-0.000000,9622.677246
242.828948,383.047749,222.061783,9548.656652
242.829256,536.266849,148.041188,9548.656652
242.829564,766.095498,222.061783,9696.697840
242.829872,689.485948,-74.020594,9622.677246
242.830180,919.314598,-0.000000,9770.718434
242.830488,919.314598,-148.041188,9474.636058
242.830796,306.438199,-148.041188,9400.615463
242.831104,766.095498,148.041188,9696.697840
242.831411,383.047749,148.041188,9548.656652
242.831719,536.266849,-0.000000,9622.677246
242.832027,689.485948,148.041188,9474.636058
242.832335,76.609550,296.082377,9622.677246
242.832643,0.000000,-0.000000,9474.636058
242.832951,536.266849,-0.000000,9474.636058
242.833259,766.095498,296.082377,9326.594869
242.833567,383.047749,518.144159,9400.615463
242.833874,919.314598,222.061783,9548.656652
242.834182,536.266849,-0.000000,9474.636058
242.834490,383.047749,-0.000000,9474.636058
242.834798,766.095498,-0.000000,9918.759623
242.835106,229.828649,296.082377,9622.677246
242.835414,689.485948,-74.020594,9770.718434
242.835722,689.485948,-0.000000,9844.739029
242.836030,689.485948,-0.000000,9400.615463
242.836338,383.047749,-0.000000,9474.636058
242.836645,766.095498,148.041188,9474.636058
242.836953,459.657299,222.061783,9622.677246
242.837261,919.314598,222.061783,9696.697840
242.837569,612.876398,-0.000000,9548.656652
242.837877,459.657299,-0.000000,9622.677246
242.838185,689.485948,222.061783,9696.697840
242.838493,612.876398,370.102971,9622.677246
242.838801,612.876398,-0.000000,9548.656652
242.839108,536.266849,370.102971,9696.697840
242.839416,689.485948,-0.000000,9474.636058
242.839724,383.047749,-0.000000,9622.677246
242.840032,459.657299,222.061783,9844.739029
242.840340,1225.752797,222.061783,9474.636058
242.840648,689.485948,-0.000000,9696.697840
242.840956,612.876398,-0.000000,9400.615463
242.841264,766.095498,370.102971,9622.677246
242.841571,842.705048,222.061783,9622.677246
242.841879,612.876398,-0.000000,9474.636058
242.842187,842.705048,148.041188,9474.636058
242.842495,1072.533697,148.041188,9696.697840
242.842803,612.876398,-0.000000,9622.677246
242.843111,1302.362347,-0.000000,9622.677246
242.843419,766.095498,370.102971,9622.677246
242.843727,612.876398,-0.000000,9548.656652
242.844034,536.266849,296.082377,9474.636058
242.844342,766.095498,296.082377,9548.656652
242.844650,995.924147,222.061783,9548.656652
242.844958,612.876398,222.061783,10066.800811
242.845266,995.924147,-0.000000,9474.636058
242.845574,612.876398,-0.000000,9474.636058
242.845882,612.876398,296.082377,9770.718434
242.846190,766.095498,222.061783,9474.636058
242.846498,459.657299,370.102971,9696.697840
242.846805,612.876398,296.082377,9622.677246
242.847113,689.485948,-0.000000,9474.636058
242.847421,689.485948,148.041188,9474.636058
242.847729,766.095498,-0.000000,9770.718434
242.848037,536.266849,222.061783,9622.677246
242.848345,459.657299,296.082377,9696.697840
242.848653,229.828649,222.061783,9622.677246
242.848961,612.876398,222.061783,9474.636058
242.849268,689.485948,148.041188,9622.677246
242.849576,919.314598,444.123565,9770.718434
242.849884,842.705048,296.082377,9622.677246
242.850192,612.876398,-0.000000,9548.656652
242.850500,612.876398,-0.000000,9400.615463
242.850808,536.266849,222.061783,9696.697840
242.851116,612.876398,148.041188,9696.697840
242.851424,536.266849,222.061783,9696.697840
242.851731,383.047749,-0.000000,9622.677246
242.852039,766.095498,-74.020594,9770.718434
242.852347,459.657299,-148.041188,9696.697840
242.852655,842.705048,-0.000000,9844.739029
242.852963,995.924147,-370.102971,9474.636058
242.853271,689.485948,148.041188,9548.656652
242.853579,919.314598,-0.000000,9696.697840
242.853887,842.705048,-148.041188,9844.739029
242.854195,995.924147,-518.144159,9992.780217
242.854503,842.705048,-814.226536,9696.697840
242.854811,1149.143247,-1258.350101,9918.759623
242.855120,689.485948,-666.185348,9992.780217
242.855428,1378.971896,-592.164754,10066.800811
242.855736,1762.019645,148.041188,9178.553681
242.856044,2068.457845,666.185348,8956.491898
242.856352,2451.505594,814.226536,8734.430116
242.856661,2528.115143,888.247130,8882.471304
242.856969,2604.724693,814.226536,9104.533087
242.857277,2145.067394,370.102971,9252.574275
242.857585,2604.724693,-0.000000,9474.636058
242.857893,1685.410096,-148.041188,9770.718434
242.858202,1991.848295,-0.000000,9918.759623
242.858510,1838.629195,-0.000000,9918.759623
242.858818,1532.190996,-74.020594,10214.842000
242.859126,1762.019645,-296.082377,10214.842000
242.859434,2221.676944,-222.061783,10140.821405
242.859743,2374.896044,-74.020594,9548.656652
242.860051,3140.991542,296.082377,9326.594869
242.860359,2757.943793,370.102971,9400.615463
242.860667,2834.553343,666.185348,9548.656652
242.860975,2911.162892,518.144159,9474.636058
242.861284,2834.553343,518.144159,9474.636058
242.861592,2451.505594,370.102971,9696.697840
242.861900,2911.162892,-0.000000,9918.759623
242.862208,2681.334243,-0.000000,9992.780217
242.862516,2604.724693,-0.000000,9696.697840
242.862824,2604.724693,-0.000000,9918.759623
242.863133,2757.943793,-296.082377,9622.677246
242.863441,2834.553343,-222.061783,10288.862594
242.863749,2911.162892,-148.041188,10288.862594
242.864057,3064.381992,-0.000000,9918.759623
242.864365,3217.601092,-0.000000,9918.759623
242.864674,3217.601092,-0.000000,9770.718434
242.864982,3907.087040,592.164754,9326.594869
242.865290,4749.792088,518.144159,8956.491898
242.865598,4443.353888,888.247130,8956.491898
242.865906,4519.963438,1110.308913,8956.491898
242.866215,4290.134789,740.205942,9104.533087
242.866523,4213.525239,370.102971,9252.574275
242.866831,4290.134789,296.082377,9178.553681
242.867139,3677.258390,-74.020594,9326.594869
242.867447,3600.648841,-370.102971,9696.697840
242.867756,3677.258390,-0.000000,9696.697840
242.868064,4060.306139,370.102971,9400.615463
242.868372,4060.306139,518.144159,9252.574275
242.868680,4596.572988,888.247130,8882.471304
242.868988,4290.134789,666.185348,8660.409521
242.869297,3907.087040,518.144159,8956.491898
242.869605,4213.525239,666.185348,9474.636058
242.869913,3907.087040,370.102971,9400.615463
242.870221,4060.306139,296.082377,9622.677246
242.870529,3447.429741,296.082377,9622.677246
242.870837,3677.258390,444.123565,9770.718434
242.871146,2834.553343,370.102971,9770.718434
242.871454,2834.553343,-0.000000,9992.780217
242.871762,3140.991542,-0.000000,9992.780217
242.872070,3140.991542,222.061783,9918.759623
242.872378,2987.772442,814.226536,9548.656652
242.872687,2451.505594,814.226536,9548.656652
242.872995,2681.334243,814.226536,9474.636058
242.873303,2374.896044,444.123565,9474.636058
242.873611,1991.848295,222.061783,9844.739029
242.873919,1455.581446,-222.061783,10362.883188
242.874228,1072.533697,-740.205942,10436.903782
242.874536,766.095498,-1406.391290,11251.130318
242.874844,842.705048,-1480.411884,11029.068536
242.875152,1838.629195,-1850.514855,10510.924376
242.875460,1302.362347,-2146.597232,10510.924376
242.875769,2451.505594,-1924.535449,10584.944971
242.876077,2757.943793,-1850.514855,10288.862594
242.876385,3600.648841,-1628.453072,9622.677246
242.876693,3217.601092,-888.247130,9104.533087
242.877001,4213.525239,-592.164754,9104.533087
242.877310,4903.011187,-0.000000,9030.512492
242.877618,4596.572988,740.205942,8216.285956
242.877926,4903.011187,814.226536,8586.388927
242.878234,4749.792088,740.205942,7920.203579
242.878542,4749.792088,518.144159,8808.450710
242.878850,4213.525239,296.082377,8660.409521
242.879159,3600.648841,-222.061783,9474.636058
242.879467,3677.258390,-0.000000,9474.636058
242.879775,3753.867940,222.061783,9400.615463
242.880083,3370.820191,888.247130,9030.512492
242.880391,4136.915689,1998.556043,8512.368333
242.880700,4290.134789,2664.741391,8142.265362
242.881008,4826.401637,3701.029710,7476.080014
242.881316,4826.401637,4071.132681,7624.121203
242.881624,4519.963438,3775.050304,8216.285956
242.881932,3447.429741,2960.823768,8882.471304
242.882241,2757.943793,1184.329507,10288.862594
242.882549,919.314598,-814.226536,11325.150913
242.882857,0.000000,-1776.494261,12139.377449
242.883165,-842.705048,-3330.926739,14137.933492
242.883473,-995.924147,-4219.173869,14656.077652
242.883782,-536.266849,-4071.132681,13989.892304
242.884090,229.828649,-3627.009116,13101.645173
242.884398,2757.943793,-2442.679609,11769.274478
242.884706,3907.087040,-666.185348,9474.636058
242.885014,5822.325785,1258.350101,8068.244768
242.885323,6971.469032,2664.741391,6957.935855
242.885631,7584.345430,3849.070898,5773.606348
242.885939,7201.297681,4737.318029,5181.441594
242.886247,6971.469032,4737.318029,4885.359217
242.886555,5439.278036,4071.132681,5403.503377
242.886863,3983.696590,3627.009116,6365.771101
242.887172,2987.772442,2368.659014,7328.038826
242.887480,1302.362347,1110.308913,9030.512492
242.887788,0.000000,-0.000000,10214.842000
242.888096,-689.485948,-1480.411884,11325.150913
242.888404,-689.485948,-2368.659014,12213.398043
242.888713,-1072.533697,-3478.967927,12879.583391
242.889021,-1225.752797,-3775.050304,12879.583391
242.889329,-153.219100,-3997.112087,13767.830521
242.889637,459.657299,-3182.885551,13545.768739
242.889945,383.047749,-2812.782580,11843.295072
242.890254,1762.019645,-2294.638420,11547.212695
242.890562,2221.676944,-1332.370696,10436.903782
242.890870,2528.115143,222.061783,8586.388927
242.891178,3447.429741,962.267725,8068.244768
242.891486,3677.258390,1406.391290,7328.038826
242.891795,4443.353888,2368.659014,6069.688724
242.892103,4519.963438,3256.906145,5477.523971
242.892411,4290.134789,3627.009116,5403.503377
242.892719,3677.258390,3182.885551,5773.606348
242.893027,2681.334243,2146.597232,7105.977043
242.893336,1762.019645,1036.288319,8438.347739
242.893644,766.095498,-444.123565,9918.759623
242.893952,-766.095498,-1702.473667,11843.295072
242.894260,-919.314598,-2738.761985,12953.603985
242.894568,-995.924147,-2960.823768,12435.459826
242.894876,-919.314598,-1332.370696,12879.583391
242.895185,153.219100,-1628.453072,11695.253884
242.895493,1302.362347,-74.020594,10214.842000
242.895801,2451.505594,1184.329507,8882.471304
242.896109,2757.943793,2368.659014,7105.977043
242.896417,3600.648841,3256.906145,7179.997637
242.896726,3140.991542,3627.009116,7402.059420
242.897034,3217.601092,4293.194464,7476.080014
242.897342,1685.410096,3108.864956,7772.162391
242.897650,536.266849,2072.576638,8734.430116
242.897958,-995.924147,222.061783,10510.924376
242.898267,-2451.505594,-1998.556043,13175.665768
242.898575,-3140.991542,-3775.050304,14582.057057
242.898883,-4290.134789,-4959.379811,15322.262999
242.899191,-3753.867940,-5033.400406,15174.221811
242.899499,-2987.772442,-4145.153275,14508.036463
242.899808,-536.266849,-2368.659014,12435.459826
242.900116,1378.971896,-592.164754,9474.636058
242.900424,2834.553343,1702.473667,7179.997637
242.900732,4366.744339,3404.947333,5551.544565
242.901040,5209.449386,4737.318029,4737.318029
242.901349,5362.668486,5625.565159,3552.988522
242.901657,5286.058936,5847.626942,3330.926739
242.901965,4443.353888,4663.297435,4811.338623
242.902273,2374.896044,2368.659014,7254.018232
242.902581,383.047749,-888.247130,10362.883188
242.902889,-2451.505594,-3330.926739,12879.583391
242.903198,-4366.744339,-5477.523971,14359.995275
242.903506,-4903.011187,-7179.997637,16136.489536
242.903814,-4290.134789,-6661.853478,16506.592507
242.904122,-3370.820191,-4959.379811,14730.098246
242.904430,-383.047749,-2442.679609,12213.398043
242.904739,2451.505594,888.247130,8512.368333
242.905047,4749.792088,4515.256246,5329.482782
242.905355,6741.640382,6439.791695,4293.194464
242.905663,7507.735880,8438.347739,3108.864956
242.905971,7354.516781,8586.388927,2294.638420
242.906280,6205.373534,7254.018232,3034.844362
242.906588,3447.429741,4737.318029,6217.729913
242.906896,76.609550,148.041188,10140.821405
242.907204,-3064.381992,-3256.906145,12879.583391
242.907512,-5286.058936,-5847.626942,15840.407159
242.907821,-6818.249932,-7994.224174,17542.880825
242.908129,-6971.469032,-8290.306550,17764.942608
242.908437,-4826.401637,-7105.977043,17172.777854
242.908745,-1532.190996,-3701.029710,14878.139434
242.909053,536.266849,-1258.350101,10436.903782
242.909362,2757.943793,2590.720797,6661.853478
242.909670,4903.011187,5847.626942,4441.235652
242.909978,6281.983084,7772.162391,3627.009116
242.910286,6665.030833,9474.636058,1998.556043
242.910594,6665.030833,9252.574275,1924.535449
242.910902,4290.134789,5995.668130,3552.988522
242.911211,2068.457845,1924.535449,7179.997637
242.911519,-1762.019645,-3701.029710,11251.130318
242.911827,-5286.058936,-6809.894666,14582.057057
242.912135,-7660.954980,-9622.677246,16654.633695
242.912443,-7890.783629,-10140.821405,17764.942608
242.912752,-6052.154434,-8882.471304,17024.736666
242.913060,-3294.210641,-5847.626942,14508.036463
242.913368,153.219100,-2294.638420,10658.965565
242.913676,3524.039291,2590.720797,5847.626942
242.913984,7048.078582,6291.750507,2368.659014
242.914293,8120.612279,8364.327145,2664.741391
242.914601,8197.221829,10732.986159,1628.453072
242.914909,7584.345430,10510.924376,1036.288319
242.915217,5975.544884,7550.100608,2590.720797
242.915525,2221.676944,3701.029710,6809.894666
242.915834,-2145.067394,-2664.741391,13175.665768
242.916142,-6818.249932,-6957.935855,16210.510130
242.916450,-9422.974625,-9548.656652,18875.251521
242.916758,-10265.679673,-11473.192101,20133.601622
242.917066,-8197.221829,-10214.842000,19541.436869
242.917375,-4443.353888,-7550.100608,17616.901420
242.917683,-1378.971896,-3034.844362,12065.356855
242.917991,2757.943793,1554.432478,8068.244768
242.918299,5898.935335,6735.874072,3923.091493
242.918607,7277.907231,7105.977043,4293.194464
242.918915,8427.050478,11473.192101,2442.679609
242.919224,8350.440928,12435.459826,-1036.288319
242.919532,6588.421283,9770.718434,1036.288319
242.919840,4596.572988,5921.647536,5033.400406
242.920148,1685.410096,1628.453072,9992.780217
242.920456,-2681.334243,-4145.153275,13841.851115
242.920765,-6665.030833,-8364.327145,15914.427753
242.921073,-7890.783629,-9474.636058,17764.942608
242.921381,-8197.221829,-9992.780217,17987.004391
242.921689,-5056.230287,-8364.327145,16950.716072
242.921997,-1072.533697,-4885.359217,13915.871710
242.922306,2298.286494,-148.041188,8438.347739
242.922614,5439.278036,4293.194464,5107.421000
242.922922,8886.707777,7328.038826,2812.782580
242.923230,8503.660028,9770.718434,1110.308913
242.923538,9039.926876,10658.965565,592.164754
242.923847,8350.440928,9844.739029,1480.411884
242.924155,4903.011187,5995.668130,4589.276840
242.924463,2221.676944,1332.370696,9548.656652
242.924771,-2221.676944,-3775.050304,13249.686362
242.925079,-6741.640382,-8364.327145,16950.716072
242.925388,-9882.631924,-11473.192101,18431.127956
242.925696,-9039.926876,-12139.377449,20503.704593
242.926004,-6511.811733,-9696.697840,19097.313304
242.926312,-3064.381992,-6217.729913,15174.221811
242.926620,1762.019645,-1998.556043,9104.533087
242.926928,4903.011187,2590.720797,4737.318029
242.927237,7354.516781,6661.853478,3330.926739
242.927545,10035.851024,9326.594869,3478.967927
242.927853,8963.317327,10436.903782,1258.350101
242.928161,8044.002729,11473.192101,-666.185348
242.928469,6128.763984,9400.615463,1628.453072
242.928778,3140.991542,4589.276840,6143.709319
242.929086,-766.095498,-740.205942,11473.192101
242.929394,-4136.915689,-5699.585753,16210.510130
242.929702,-7890.783629,-8142.265362,17024.736666
242.930010,-9729.412825,-10288.862594,17987.004391
242.930319,-8733.488677,-9844.739029,18949.272115
242.930627,-4673.182538,-6439.791695,17246.798449
242.930935,-1378.971896,-3478.967927,12583.501014
242.931243,2987.772442,1332.370696,7920.203579
242.931551,6894.859482,6217.729913,3923.091493
242.931860,8350.440928,7328.038826,4367.215058
242.932168,7967.393179,10214.842000,666.185348
242.932476,7890.783629,11843.295072,296.082377
242.932784,5439.278036,8142.265362,3552.988522
242.933092,3600.648841,4811.338623,6735.874072
242.933401,-153.219100,1110.308913,11695.253884
242.933709,-2911.162892,-3701.029710,15544.324782
242.934017,-7354.516781,-8068.244768,15470.304188
242.934325,-9652.803275,-10658.965565,17764.942608
242.934633,-10189.070123,-11399.171507,20503.704593
242.934941,-7431.126331,-9844.739029,19319.375086
242.935250,-3677.258390,-5329.482782,14804.118840
242.935558,1149.143247,-1036.288319,9696.697840
242.935866,5056.230287,3478.967927,4145.153275
242.936174,7584.345430,8142.265362,1850.514855
242.936482,8733.488677,9104.533087,2220.617826
242.936791,8580.269578,10732.986159,888.247130
242.937099,6894.859482,9992.780217,592.164754
242.937407,4213.525239,7031.956449,2812.782580
242.937715,1378.971896,2368.659014,7476.080014
242.938023,-1762.019645,-2812.782580,12583.501014
242.938332,-5286.058936,-6069.688724,14656.077652
242.938640,-8427.050478,-9548.656652,16062.468941
242.938948,-9652.803275,-11547.212695,19393.395680
242.939256,-8044.002729,-9770.718434,18727.210333
242.939564,-4290.134789,-5773.606348,15396.283594
242.939873,0.000000,-2220.617826,10732.986159
242.940181,3370.820191,1776.494261,5773.606348
242.940489,7507.735880,7105.977043,3478.967927
242.940797,9039.926876,6513.812290,3108.864956
242.941105,8963.317327,9992.780217,74.020594
242.941414,7584.345430,10732.986159,296.082377
242.941722,5975.544884,7476.080014,3775.050304
242.942030,2374.896044,3330.926739,7105.977043
242.942338,-459.657299,222.061783,12213.398043
242.942646,-3524.039291,-4367.215058,15100.201217
242.942954,-6894.859482,-8142.265362,15618.345376
242.943263,-8963.317327,-9622.677246,17912.983796
242.943571,-7814.174080,-9474.636058,20059.581028
242.943879,-5515.887586,-7994.224174,18061.024985
242.944187,-2068.457845,-4367.215058,13915.871710
242.944495,2221.676944,-74.020594,9400.615463
242.944804,5056.230287,4219.173869,4811.338623
242.945112,7354.516781,6439.791695,3701.029710
242.945420,8733.488677,7402.059420,3404.947333
242.945728,7890.783629,9696.697840,666.185348
242.946036,6818.249932,9326.594869,1036.288319
242.946345,4903.011187,5403.503377,4959.379811
242.946653,2145.067394,2812.782580,7772.162391
242.946961,-842.705048,-2368.659014,12139.377449
242.947269,-4443.353888,-6069.688724,14508.036463
242.947577,-6435.202183,-8142.265362,15692.365970
242.947886,-7584.345430,-9918.759623,17616.901420
242.948194,-5515.887586,-7624.121203,17394.839637
242.948502,-3217.601092,-5255.462188,14730.098246
242.948810,766.095498,-1184.329507,10584.944971
242.949118,4366.744339,2812.782580,6217.729913
242.949427,7124.688131,7031.956449,3923.091493
242.949735,9116.536426,6735.874072,3478.967927
242.950043,7890.783629,9696.697840,148.041188
242.950351,7814.174080,10807.006753,1702.473667
242.950659,5745.716235,5921.647536,5181.441594
242.950967,1225.752797,3108.864956,7624.121203
242.951276,-842.705048,-1036.288319,13323.706956
242.951584,-3830.477490,-5033.400406,16062.468941
242.951892,-7737.564530,-8142.265362,16654.633695
242.952200,-8810.098227,-10140.821405,18949.272115
242.952508,-8197.221829,-9104.533087,19615.457463
242.952817,-5515.887586,-7624.121203,18579.169144
242.953125,-2757.943793,-3478.967927,13471.748144
242.953433,1608.800546,518.144159,9696.697840
242.953741,5592.497135,4663.297435,5329.482782
242.954049,7124.688131,6291.750507,3923.091493
242.954358,8197.221829,9474.636058,1110.308913
242.954666,8810.098227,11769.274478,-518.144159
242.954974,7048.078582,8734.430116,1924.535449
242.955282,4903.011187,5921.647536,4737.318029
242.955590,2604.724693,2442.679609,8290.306550
242.955898,-1455.581446,-2590.720797,12657.521608
242.956206,-6052.154434,-6735.874072,14878.139434
242.956514,-7890.783629,-8882.471304,16284.530724
242.956822,-8503.660028,-8808.450710,17690.922014
242.957130,-7507.735880,-8882.471304,17912.983796
242.957438,-3753.867940,-5477.523971,15396.283594
242.957747,0.000000,-2442.679609,10658.965565
242.958055,2834.553343,2368.659014,6513.812290
242.958363,6588.421283,6069.688724,3997.112087
242.958671,7967.393179,7105.977043,3108.864956
242.958979,7890.783629,9474.636058,888.247130
242.959287,7048.078582,9844.739029,666.185348
242.959595,5132.839837,6143.709319,4959.379811
242.959903,1915.238745,2220.617826,7254.018232
242.960212,-1225.752797,-1628.453072,12583.501014
242.960520,-4290.134789,-5625.565159,15470.304188
242.960828,-7431.126331,-9252.574275,16358.551318
242.961136,-9039.926876,-10436.903782,18061.024985
242.961444,-8044.002729,-9326.594869,18135.045579
242.961752,-4903.011187,-7402.059420,17098.757260
242.962060,-995.924147,-2886.803174,12509.480420
242.962368,2681.334243,740.205942,7550.100608
242.962677,5592.497135,5107.421000,5329.482782
242.962985,7890.783629,5921.647536,3330.926739
242.963293,8963.317327,8882.471304,1036.288319
242.963601,8044.002729,11251.130318,-518.144159
242.963909,6894.859482,8290.306550,2590.720797
242.964217,4443.353888,5329.482782,4811.338623
242.964525,919.314598,1924.535449,8660.409521
242.964833,-1685.410096,-3034.844362,13915.871710
242.965142,-5132.839837,-7476.080014,15470.304188
242.965450,-8044.002729,-8364.327145,16210.510130
242.965758,-7967.393179,-8290.306550,17616.901420
242.966066,-6894.859482,-8290.306550,18061.024985
242.966374,-3140.991542,-4811.338623,14952.160028
242.966682,842.705048,-888.247130,10288.862594
242.966990,4136.915689,3923.091493,5033.400406
242.967298,6358.592633,5477.523971,4737.318029
242.967607,8810.098227,8438.347739,3701.029710
242.967915,8273.831378,10807.006753,370.102971
242.968223,7048.078582,9326.594869,2368.659014
242.968531,5209.449386,5477.523971,5773.606348
242.968839,1685.410096,3182.885551,7846.182985
242.969147,-612.876398,-1850.514855,12583.501014
242.969455,-4903.011187,-6439.791695,15174.221811
242.969763,-7277.907231,-8512.368333,17098.757260
242.970071,-9193.145976,-9992.780217,18801.230927
242.970380,-7890.783629,-9696.697840,18727.210333
242.970688,-4366.744339,-6513.812290,16728.654289
242.970996,-536.266849,-2516.700203,12287.418637
242.971304,3064.381992,1110.308913,7254.018232
242.971612,6205.373534,5107.421000,4737.318029
242.971920,7814.174080,6809.894666,3701.029710
242.972228,9422.974625,9474.636058,1184.329507
242.972536,8427.050478,11399.171507,-592.164754
242.972845,6971.469032,8512.368333,2960.823768
242.973153,4136.915689,4737.318029,5033.400406
242.973461,842.705048,1332.370696,9030.512492
242.973769,-2068.457845,-3775.050304,14359.995275
242.974077,-6052.154434,-7402.059420,15544.324782
242.974385,-8273.831378,-9400.615463,17098.757260
242.974693,-8197.221829,-8808.450710,17838.963202
242.975001,-6665.030833,-7698.141797,17320.819043
242.975310,-2834.553343,-4589.276840,14359.995275
242.975618,919.314598,-740.205942,9844.739029
242.975926,4979.620737,3997.112087,6513.812290
242.976234,7124.688131,5625.565159,3923.091493
242.976542,8273.831378,8586.388927,1480.411884
242.976850,7967.393179,11325.150913,222.061783
242.977158,7201.297681,8512.368333,2664.741391
242.977466,4596.572988,5625.565159,5551.544565
242.977775,1608.800546,2368.659014,9178.553681
242.978083,-1302.362347,-2294.638420,14063.912898
242.978391,-5515.887586,-6883.915261,15396.283594
242.978699,-7967.393179,-9696.697840,17320.819043
242.979007,-8963.317327,-10288.862594,18875.251521
242.979315,-7890.783629,-9770.718434,18875.251521
242.979623,-4519.963438,-7105.977043,16654.633695
242.979931,0.000000,-2738.761985,11695.253884
242.980240,3524.039291,888.247130,6587.832884
242.980548,6588.421283,5699.585753,4219.173869
242.980856,8503.660028,6883.915261,2368.659014
242.981164,9576.193725,10362.883188,0.000000
242.981472,8886.707777,11029.068536,-518.144159
242.981780,7201.297681,8808.450710,1998.556043
242.982088,4826.401637,4737.318029,5255.462188
242.982396,842.705048,-0.000000,10214.842000
242.982704,-3064.381992,-4367.215058,14359.995275
242.983013,-7048.078582,-8290.306550,16136.489536
242.983321,-8503.660028,-9548.656652,17246.798449
242.983629,-8656.879127,-9104.533087,18283.086767
242.983937,-6818.249932,-7772.162391,17320.819043
242.984245,-2604.724693,-4219.173869,14359.995275
242.984553,2374.896044,-1036.288319,9844.739029
242.984861,3983.696590,4811.338623,4737.318029
242.985169,7431.126331,5921.647536,5033.400406
242.985478,8656.879127,9178.553681,1702.473667
242.985786,7737.564530,11473.192101,296.082377
242.986094,6894.859482,8586.388927,3108.864956
242.986402,4596.572988,5699.585753,5255.462188
242.986710,1685.410096,1850.514855,9548.656652
242.987018,-995.924147,-2220.617826,13323.706956
242.987326,-4519.963438,-6883.915261,15840.407159
242.987634,-8120.612279,-9622.677246,17468.860231
242.987943,-9116.536426,-10362.883188,18357.107362
242.988251,-7354.516781,-9400.615463,18949.272115
242.988559,-4060.306139,-6957.935855,16358.551318
242.988867,0.000000,-1406.391290,11473.192101
242.989175,3753.867940,3627.009116,5995.668130
242.989483,6588.421283,5773.606348,3775.050304
242.989791,8427.050478,7698.141797,3182.885551
242.990099,9576.193725,10807.006753,-444.123565
242.990408,8963.317327,11325.150913,-1110.308913
242.990716,6741.640382,8068.244768,3108.864956
242.991024,3830.477490,4737.318029,5477.523971
242.991332,0.000000,-296.082377,10510.924376
242.991640,-3677.258390,-5773.606348,14434.015869
242.991948,-7814.174080,-8734.430116,16876.695478
242.992256,-9576.193725,-9992.780217,17987.004391
242.992564,-8886.707777,-9252.574275,18727.210333
242.992873,-6281.983084,-8142.265362,17912.983796
242.993181,-2451.505594,-3404.947333,13397.727550
242.993489,2451.505594,814.226536,8660.409521
242.993797,5362.668486,5477.523971,4145.153275
242.994105,8120.612279,6735.874072,3923.091493
242.994413,9576.193725,9992.780217,888.247130
242.994721,8044.002729,12731.542202,-1480.411884
242.995029,7814.174080,7550.100608,3256.906145
242.995338,4136.915689,5181.441594,5107.421000
242.995646,689.485948,1110.308913,10658.965565
242.995954,-2221.676944,-3923.091493,15100.201217
242.996262,-6511.811733,-8364.327145,16506.592507
242.996570,-8656.879127,-11103.089130,18727.210333
242.996878,-9346.365076,-11547.212695,19763.498651
242.997186,-7507.735880,-10510.924376,19541.436869
242.997494,-4673.182538,-5847.626942,15692.365970
242.997802,766.095498,-814.226536,10955.047942
242.998111,5286.058936,3627.009116,5255.462188
242.998419,6818.249932,5921.647536,3256.906145
242.998727,9576.193725,9474.636058,740.205942
242.999035,10265.679673,12139.377449,-1554.432478
242.999343,8963.317327,10510.924376,1110.308913
242.999651,6665.030833,7254.018232,3256.906145
242.999959,2911.162892,3701.029710,6735.874072
243.000267,0.000000,-814.226536,11917.315666
243.000576,-4826.401637,-6587.832884,14952.160028
243.000884,-7507.735880,-9104.533087,16802.674883
243.001192,-9422.974625,-9844.739029,18135.045579
243.001500,-9116.536426,-10584.944971,19541.436869
243.001808,-5822.325785,-7920.203579,17172.777854
243.002116,-1532.190996,-3775.050304,12879.583391
243.002424,2834.553343,1850.514855,7031.956449
243.002732,5822.325785,5477.523971,4219.173869
243.003041,8886.707777,8364.327145,3256.906145
243.003349,9729.412825,11621.233289,-518.144159
243.003657,9346.365076,11843.295072,-666.185348
243.003965,6971.469032,8142.265362,3404.947333
243.004273,3600.648841,4515.256246,5921.647536
243.004581,306.438199,370.102971,10807.006753
243.004889,-3294.210641,-5329.482782,15766.386565
243.005197,-7124.688131,-8956.491898,17468.860231
243.005506,-9499.584175,-10807.006753,18357.107362
243.005814,-9806.022374,-11473.192101,20355.663405
243.006122,-7660.954980,-9548.656652,18949.272115
243.006430,-2757.943793,-4811.338623,14878.139434
243.006738,1302.362347,-0.000000,9326.594869
243.007046,6052.154434,4145.153275,3775.050304
243.007354,7354.516781,6957.935855,2590.720797
243.007662,10342.289223,9770.718434,1110.308913
243.007971,9882.631924,11917.315666,-1332.370696
243.008279,8197.221829,10436.903782,666.185348
243.008587,6052.154434,6957.935855,4663.297435
243.008895,2298.286494,3330.926739,7179.997637
243.009203,-1608.800546,-1332.370696,11991.336260
243.009511,-4749.792088,-6883.915261,15840.407159
243.009819,-7737.564530,-9474.636058,16876.695478
243.010127,-9806.022374,-10288.862594,18727.210333
243.010435,-8733.488677,-9770.718434,19393.395680
243.010744,-5286.058936,-7031.956449,17246.798449
243.011052,-842.705048,-2294.638420,11843.295072
243.011360,3370.820191,2220.617826,6883.915261
243.011668,6741.640382,6587.832884,3182.885551
243.011976,8886.707777,8142.265362,2442.679609
243.012284,9499.584175,11177.109724,222.061783
243.012592,8120.612279,11621.233289,-370.102971
243.012900,5898.935335,7550.100608,4071.132681
243.013209,2221.676944,3404.947333,7179.997637
243.013517,-1225.752797,-1332.370696,12731.542202
243.013825,-4519.963438,-5551.544565,16358.551318
243.014133,-7660.954980,-9030.512492,16950.716072
243.014441,-9422.974625,-11991.336260,19245.354492
243.014749,-9576.193725,-11621.233289,20503.704593
243.015057,-6588.421283,-9030.512492,18653.189738
243.015365,-2145.067394,-3775.050304,13323.706956
243.015674,2681.334243,592.164754,8142.265362
243.015982,6281.983084,4737.318029,3404.947333
243.016290,8350.440928,8512.368333,1258.350101
243.016598,10648.727422,9992.780217,1702.473667
243.016906,9806.022374,11251.130318,148.041188
243.017214,7354.516781,9696.697840,814.226536
243.017522,4673.182538,6661.853478,3478.967927
243.017830,1685.410096,2516.700203,7772.162391
243.018139,-2374.896044,-3034.844362,13101.645173
243.018447,-5439.278036,-7328.038826,15618.345376
243.018755,-8427.050478,-9474.636058,17394.839637
243.019063,-8886.707777,-11769.274478,19467.416275
243.019371,-7048.078582,-9400.615463,18949.272115
243.019679,-3524.039291,-5477.523971,15174.221811
243.019987,306.438199,-1480.411884,10584.944971
243.020295,3983.696590,3108.864956,5625.565159
243.020604,7584.345430,7476.080014,2886.803174
243.020912,9193.145976,9696.697840,1850.514855
243.021220,9116.536426,11177.109724,1776.494261
243.021528,7660.954980,10066.800811,1258.350101
243.021836,4749.792088,7179.997637,3775.050304
243.022144,1762.019645,2738.761985,7920.203579
243.022452,-1455.581446,-2516.700203,13471.748144
243.022760,-5209.449386,-6439.791695,16580.613101
243.023069,-8120.612279,-9844.739029,17616.901420
243.023377,-9269.755526,-12805.562797,19467.416275
243.023685,-8733.488677,-11325.150913,20799.786970
243.023993,-5209.449386,-7772.162391,16950.716072
243.024301,-842.705048,-3256.906145,12509.480420
243.024609,3370.820191,1480.411884,7328.038826
243.024917,7048.078582,5773.606348,3108.864956
243.025225,8963.317327,9326.594869,1480.411884
243.025533,10189.070123,9474.636058,2072.576638
243.025842,9193.145976,11177.109724,-1036.288319
243.026150,7660.954980,9252.574275,1406.391290
243.026458,5515.887586,5403.503377,4367.215058
243.026766,1915.238745,1332.370696,8290.306550
243.027074,-2451.505594,-3997.112087,13767.830521
243.027382,-5515.887586,-7105.977043,15840.407159
243.027690,-8733.488677,-10288.862594,16802.674883
243.027998,-8886.707777,-10510.924376,18949.272115
243.028307,-6741.640382,-8216.285956,17912.983796
243.028615,-3217.601092,-4959.379811,14434.015869
243.028923,1608.800546,-888.247130,10214.842000
243.029231,5898.935335,3997.112087,4737.318029
243.029539,6665.030833,7920.203579,3256.906145
243.029847,9652.803275,8512.368333,2886.803174
243.030155,8197.221829,11621.233289,0.000000
243.030463,6818.249932,9474.636058,1850.514855
243.030772,5362.668486,6143.709319,5773.606348
243.031080,1838.629195,2516.700203,8068.244768
243.031388,-1915.238745,-2960.823768,13841.851115
243.031696,-5669.106685,-7179.997637,15396.283594
243.032004,-8273.831378,-9992.780217,17172.777854
243.032312,-10342.289223,-11547.212695,19615.457463
243.032620,-7967.393179,-10140.821405,19319.375086
243.032928,-4673.182538,-6735.874072,16654.633695
243.033237,0.000000,-2146.597232,11991.336260
243.033545,4060.306139,1776.494261,6513.812290
243.033853,6741.640382,6365.771101,2738.761985
243.034161,9193.145976,7698.141797,2368.659014
243.034469,9729.412825,10584.944971,148.041188
243.034777,8350.440928,10732.986159,222.061783
243.035085,6435.202183,8068.244768,2812.782580
243.035393,4213.525239,5107.421000,4589.276840
243.035702,0.000000,-0.000000,9548.656652
243.036010,-2834.553343,-4515.256246,13175.665768
243.036318,-6818.249932,-7846.182985,16062.468941
243.036626,-9039.926876,-10658.965565,18135.045579
243.036934,-8733.488677,-9992.780217,19171.333898
243.037242,-6741.640382,-7624.121203,16876.695478
243.037550,-2681.334243,-4219.173869,14434.015869
243.037858,1838.629195,-444.123565,9104.533087
243.038166,4596.572988,5329.482782,3775.050304
243.038475,8273.831378,6735.874072,3997.112087
243.038783,9039.926876,9622.677246,1702.473667
243.039091,7737.564530,10955.047942,666.185348
243.039399,6818.249932,8734.430116,2960.823768
243.039707,4749.792088,5699.585753,5477.523971
243.040015,919.314598,1924.535449,9030.512492
243.040323,-2221.676944,-2590.720797,13397.727550
243.040631,-5286.058936,-6883.915261,16210.510130
243.040940,-8427.050478,-9474.636058,18283.086767
243.041248,-9652.803275,-10658.965565,19985.560434
243.041556,-7814.174080,-10214.842000,18505.148550
243.041864,-4366.744339,-6069.688724,16284.530724
243.042172,153.219100,-1628.453072,11621.233289
243.042480,3983.696590,2812.782580,5921.647536
243.042788,7354.516781,5995.668130,4367.215058
243.043096,8580.269578,7624.121203,2590.720797
243.043405,8810.098227,9548.656652,592.164754
243.043713,7814.174080,9400.615463,1702.473667
243.044021,6511.811733,7105.977043,3775.050304
243.044329,3677.258390,4589.276840,5329.482782
243.044637,612.876398,444.123565,9326.594869
243.044945,-3064.381992,-4145.153275,13471.748144
243.045253,-6128.763984,-7402.059420,15618.345376
243.045561,-8120.612279,-9104.533087,17764.942608
243.045870,-7660.954980,-9104.533087,18061.024985
243.046178,-5439.278036,-7698.141797,16580.613101
243.046486,-2298.286494,-4071.132681,13175.665768
243.046794,1915.238745,666.185348,8734.430116
243.047102,4903.011187,4589.276840,5255.462188
243.047410,7201.297681,6661.853478,3775.050304
243.047718,7814.174080,9326.594869,1702.473667
243.048026,7277.907231,9992.780217,1406.391290
243.048335,6818.249932,7994.224174,3849.070898
243.048643,4290.134789,5181.441594,5255.462188
243.048951,919.314598,1332.370696,9252.574275
243.049259,-2528.115143,-3256.906145,13101.645173
243.049567,-6052.154434,-7031.956449,15692.365970
243.049875,-8886.707777,-9696.697840,18209.066173
243.050183,-9269.755526,-10288.862594,18949.272115
243.050491,-7507.735880,-9474.636058,18653.189738
243.050799,-3294.210641,-5181.441594,15100.201217
243.051108,689.485948,-1554.432478,10362.883188
243.051416,3677.258390,2368.659014,5921.647536
243.051724,6894.859482,6069.688724,3256.906145
243.052032,8044.002729,7254.018232,2738.761985
243.052340,8503.660028,9252.574275,1036.288319
243.052648,8580.269578,9252.574275,1480.411884
243.052956,6205.373534,7402.059420,2738.761985
243.053264,3753.867940,4145.153275,5477.523971
243.053573,1072.533697,-370.102971,9474.636058
243.053881,-2834.553343,-4071.132681,13397.727550
243.054189,-6128.763984,-7550.100608,16284.530724
243.054497,-8273.831378,-9400.615463,17320.819043
243.054805,-7660.954980,-9030.512492,18357.107362
243.055113,-5592.497135,-7402.059420,16210.510130
243.055421,-1608.800546,-3627.009116,13249.686362
243.055729,2298.286494,-74.020594,9178.553681
243.056038,5286.058936,5403.503377,5033.400406
243.056346,7048.078582,6439.791695,4293.194464
243.056654,7660.954980,8956.491898,2072.576638
243.056962,7277.907231,10066.800811,1332.370696
243.057270,6511.811733,7698.141797,3775.050304
243.057578,3677.258390,4737.318029,5625.565159
243.057886,842.705048,666.185348,9622.677246
243.058194,-2757.943793,-3108.864956,13619.789333
243.058503,-6281.983084,-7179.997637,15988.448347
243.058811,-8273.831378,-9326.594869,18283.086767
243.059119,-8886.707777,-9844.739029,19245.354492
243.059427,-7124.688131,-8660.409521,18283.086767
243.059735,-2987.772442,-4811.338623,15174.221811
243.060043,995.924147,-740.205942,10214.842000
243.060351,4903.011187,3627.009116,5551.544565
243.060659,6894.859482,6069.688724,4293.194464
243.060967,8733.488677,7994.224174,2960.823768
243.061275,8350.440928,9548.656652,1036.288319
243.061584,8120.612279,9474.636058,2146.597232
243.061892,6435.202183,7105.977043,3478.967927
243.062200,3600.648841,4219.173869,5921.647536
243.062508,459.657299,-296.082377,10214.842000
243.062816,-3217.601092,-4663.297435,14063.912898
243.063124,-6052.154434,-7476.080014,16210.510130
243.063432,-7584.345430,-9030.512492,17616.901420
243.063740,-7124.688131,-8808.450710,17912.983796
243.064048,-4519.963438,-7105.977043,16580.613101
243.064356,-995.924147,-2886.803174,12139.377449
243.064664,3064.381992,1258.350101,8586.388927
243.064972,5439.278036,3997.112087,5847.626942
243.065280,7737.564530,7402.059420,3404.947333
243.065589,7967.393179,9178.553681,2368.659014
243.065897,7660.954980,9844.739029,2220.617826
243.066205,6128.763984,7476.080014,3923.091493
243.066513,3524.039291,4663.297435,6217.729913
243.066821,689.485948,888.247130,9844.739029
243.067129,-3217.601092,-3997.112087,13915.871710
243.067437,-6128.763984,-7476.080014,16580.613101
243.067745,-9422.974625,-9326.594869,18283.086767
243.068053,-9346.365076,-10066.800811,18727.210333
243.068361,-6281.983084,-9252.574275,17838.963202
243.068669,-3064.381992,-4885.359217,14434.015869
243.068977,919.314598,-1110.308913,10288.862594
243.069286,4673.182538,3034.844362,5477.523971
243.069594,6818.249932,5477.523971,3997.112087
243.069902,8427.050478,8734.430116,1998.556043
243.070210,8120.612279,9770.718434,518.144159
243.070518,8044.002729,9474.636058,2294.638420
243.070826,5209.449386,6809.894666,3034.844362
243.071134,2221.676944,3256.906145,6217.729913
243.071442,-306.438199,-1036.288319,10140.821405
243.071750,-4366.744339,-5403.503377,13915.871710
243.072058,-7124.688131,-8290.306550,16062.468941
243.072366,-8273.831378,-9400.615463,16950.716072
243.072674,-7354.516781,-9252.574275,18283.086767
243.072982,-4673.182538,-6883.915261,15766.386565
243.073291,-842.705048,-2886.803174,12731.542202
243.073599,3217.601092,1480.411884,8438.347739
243.073907,5515.887586,4663.297435,5403.503377
243.074215,7584.345430,7698.141797,2812.782580
243.074523,7737.564530,10288.862594,740.205942
243.074831,8273.831378,9918.759623,2146.597232
243.075139,6665.030833,7698.141797,3552.988522
243.075447,3677.258390,4589.276840,6143.709319
243.075755,536.266849,592.164754,10436.903782
243.076063,-3830.477490,-4441.235652,14063.912898
243.076371,-6971.469032,-7846.182985,16654.633695
243.076679,-9806.022374,-9770.718434,18357.107362
243.076987,-9422.974625,-10510.924376,19171.333898
243.077296,-7201.297681,-8956.491898,17987.004391
243.077604,-3140.991542,-4367.215058,14804.118840
243.077912,919.314598,-740.205942,9622.677246
243.078220,4673.182538,2738.761985,5847.626942
243.078528,7277.907231,6365.771101,3775.050304
243.078836,8350.440928,9104.533087,1332.370696
243.079144,8197.221829,10140.821405,962.267725
243.079452,7967.393179,9400.615463,2220.617826
243.079760,5822.325785,6957.935855,2886.803174
243.080068,2834.553343,3552.988522,6439.791695
243.080376,-536.266849,-1258.350101,10807.006753
243.080684,-4213.525239,-5921.647536,14804.118840
243.080992,-7277.907231,-8438.347739,17394.839637
243.081301,-8503.660028,-9252.574275,17764.942608
243.081609,-7354.516781,-9104.533087,18135.045579
243.081917,-4136.915689,-6513.812290,15692.365970
243.082225,0.000000,-1998.556043,11473.192101
243.082533,3677.258390,1406.391290,8438.347739
243.082841,6818.249932,6291.750507,4367.215058
243.083149,7660.954980,8660.409521,2146.597232
243.083457,8886.707777,10362.883188,2072.576638
243.083765,8197.221829,10140.821405,2516.700203
243.084073,6052.154434,7402.059420,3849.070898
243.084381,3447.429741,4515.256246,6365.771101
243.084689,0.000000,-74.020594,10214.842000
243.084997,-3907.087040,-4737.318029,15248.242405
243.085306,-7201.297681,-8290.306550,17394.839637
243.085614,-9193.145976,-10214.842000,18579.169144
243.085922,-9346.365076,-10288.862594,19393.395680
243.086230,-6281.983084,-8956.491898,17764.942608
243.086538,-2987.772442,-4293.194464,14063.912898
243.086846,2681.334243,-0.000000,10288.862594
243.087154,5286.058936,2960.823768,5477.523971
243.087462,7431.126331,7476.080014,1702.473667
243.087770,8963.317327,9326.594869,1406.391290
243.088078,8656.879127,10658.965565,1184.329507
243.088386,7660.954980,9696.697840,1998.556043
243.088694,5362.668486,6809.894666,4071.132681
243.089002,3217.601092,3330.926739,6957.935855
243.089311,-1225.752797,-2072.576638,10881.027347
243.089619,-4903.011187,-5995.668130,15988.448347
243.089927,-6971.469032,-9400.615463,17172.777854
243.090235,-9039.926876,-9992.780217,17394.839637
243.090543,-7354.516781,-9474.636058,18949.272115
243.090851,-4366.744339,-6661.853478,15618.345376
243.091159,-229.828649,-962.267725,10732.986159
243.091467,3907.087040,1554.432478,7846.182985
243.091775,6588.421283,7031.956449,3478.967927
243.092083,8273.831378,9030.512492,1924.535449
243.092391,8580.269578,10732.986159,814.226536
243.092699,8350.440928,9770.718434,2072.576638
243.093008,5975.544884,7254.018232,3701.029710
243.093316,2987.772442,4071.132681,6809.894666
243.093624,-689.485948,-1480.411884,11325.150913
243.093932,-4826.401637,-5773.606348,15248.242405
243.094240,-8120.612279,-9474.636058,18135.045579
243.094548,-9806.022374,-10807.006753,19689.478057
243.094856,-8810.098227,-11177.109724,20059.581028
243.095164,-6052.154434,-8438.347739,17320.819043
243.095472,-1762.019645,-4293.194464,12657.521608
243.095780,2604.724693,1110.308913,7402.059420
243.096088,5592.497135,4293.194464,4589.276840
243.096396,7967.393179,7698.141797,2812.782580
243.096704,8810.098227,9918.759623,0.000000
243.097013,8963.317327,10807.006753,-296.082377
243.097321,7507.735880,8882.471304,1628.453072
243.097629,5515.887586,5921.647536,3108.864956
243.097937,2451.505594,2146.597232,7402.059420
243.098245,-1685.410096,-3478.967927,12509.480420
243.098553,-5209.449386,-7550.100608,16136.489536
243.098861,-8810.098227,-9918.759623,17690.922014
243.099169,-9576.193725,-10510.924376,19171.333898
243.099477,-7814.174080,-10066.800811,18431.127956
243.099785,-4136.915689,-6217.729913,15544.324782
243.100093,536.266849,-1258.350101,11251.130318
243.100401,4366.744339,2812.782580,5995.668130
243.100709,7201.297681,7254.018232,2812.782580
243.101018,8733.488677,10066.800811,1110.308913
243.101326,9116.536426,11769.274478,0.000000
243.101634,8120.612279,9918.759623,2072.576638
243.101942,5898.935335,7105.977043,5255.462188
243.102250,2987.772442,3182.885551,8290.306550
243.102558,-1532.190996,-2294.638420,11917.315666
243.102866,-4749.792088,-6735.874072,15248.242405
243.103174,-8810.098227,-9252.574275,17912.983796
243.103482,-10801.946522,-10881.027347,20133.601622
243.103790,-9039.926876,-10955.047942,20281.642811
243.104098,-5822.325785,-7476.080014,17024.736666
243.104406,-842.705048,-2738.761985,12879.583391
243.104714,3600.648841,1628.453072,6957.935855
243.105023,6971.469032,4737.318029,4959.379811
243.105331,8656.879127,8956.491898,2294.638420
243.105639,9806.022374,11029.068536,-666.185348
243.105947,9499.584175,11103.089130,592.164754
243.106255,7584.345430,9400.615463,1628.453072
243.106563,4903.011187,6143.709319,4737.318029
243.106871,1608.800546,592.164754,9104.533087
243.107179,-3524.039291,-4663.297435,13619.789333
243.107487,-6818.249932,-8290.306550,17394.839637
243.107795,-9576.193725,-10584.944971,18653.189738
243.108103,-9269.755526,-11029.068536,20059.581028
243.108411,-7354.516781,-9474.636058,18431.127956
243.108719,-2681.334243,-4811.338623,14434.015869
243.109028,2451.505594,296.082377,9696.697840
243.109336,5362.668486,3552.988522,4737.318029
243.109644,8120.612279,7550.100608,1924.535449
243.109952,9959.241474,10732.986159,888.247130
243.110260,8886.707777,11843.295072,222.061783
243.110568,7890.783629,9400.615463,2072.576638
243.110876,4979.620737,6513.812290,5551.544565
243.111184,1762.019645,2146.597232,9474.636058
243.111492,-2757.943793,-3108.864956,13545.768739
243.111800,-5362.668486,-7179.997637,16506.592507
243.112108,-9729.412825,-10140.821405,18727.210333
243.112416,-11184.994271,-11843.295072,20429.683999
243.112725,-9269.755526,-11325.150913,19837.519246
243.113033,-4979.620737,-6883.915261,16210.510130
243.113341,0.000000,-1406.391290,10510.924376
243.113649,4290.134789,1850.514855,7105.977043
243.113957,6665.030833,6661.853478,3182.885551
243.114265,8810.098227,9252.574275,1702.473667
243.114573,9652.803275,11103.089130,518.144159
243.114881,8963.317327,10807.006753,592.164754
243.115189,7354.516781,9030.512492,1924.535449
243.115497,4519.963438,5033.400406,5181.441594
243.115805,459.657299,-222.061783,9326.594869
243.116113,-3524.039291,-4737.318029,13693.809927
243.116421,-7124.688131,-8216.285956,16358.551318
243.116730,-9346.365076,-10732.986159,18061.024985
243.117038,-9116.536426,-10732.986159,19245.354492
243.117346,-7354.516781,-8438.347739,17320.819043
243.117654,-1532.190996,-3923.091493,12065.356855
243.117962,2528.115143,-148.041188,8216.285956
243.118270,6511.811733,4515.256246,4219.173869
243.118578,8350.440928,8734.430116,1258.350101
243.118886,10265.679673,10288.862594,666.185348
243.119194,9193.145976,11029.068536,74.020594
243.119502,7354.516781,8512.368333,2960.823768
243.119810,4443.353888,5403.503377,7105.977043
243.120118,689.485948,592.164754,9918.759623
243.120426,-3294.210641,-4293.194464,14211.954086
243.120735,-7124.688131,-7476.080014,16580.613101
243.121043,-9882.631924,-10510.924376,18801.230927
243.121351,-10189.070123,-11325.150913,20577.725188
243.121659,-8120.612279,-9770.718434,19393.395680
243.121967,-3524.039291,-4737.318029,14508.036463
243.122275,536.266849,-1184.329507,10510.924376
243.122583,4903.011187,3330.926739,6365.771101
243.122891,7124.688131,7105.977043,2368.659014
243.123199,8963.317327,9548.656652,1332.370696
243.123507,9193.145976,11029.068536,148.041188
243.123815,9116.536426,11103.089130,814.226536
243.124123,6511.811733,7994.224174,2960.823768
243.124431,3217.601092,3478.967927,6587.832884
243.124740,-919.314598,-962.267725,10881.027347
243.125048,-4903.011187,-5921.647536,14804.118840
243.125356,-8503.660028,-9030.512492,17246.798449
243.125664,-9806.022374,-10436.903782,19023.292709
243.125972,-8656.879127,-10362.883188,19541.436869
243.126280,-4903.011187,-7105.977043,16580.613101
243.126588,-1149.143247,-3330.926739,12509.480420
243.126896,3600.648841,1036.288319,7994.224174
243.127204,6435.202183,5699.585753,3552.988522
243.127512,8963.317327,8660.409521,2072.576638
243.127820,10265.679673,10510.924376,962.267725
243.128128,9116.536426,10881.027347,1036.288319
243.128436,6741.640382,8216.285956,3330.926739
243.128745,3907.087040,4515.256246,6365.771101
243.129053,1149.143247,518.144159,10362.883188
243.129361,-3447.429741,-4219.173869,14063.912898
243.129669,-6511.811733,-7920.203579,16432.571912
243.129977,-10035.851024,-10881.027347,18949.272115
243.130285,-9882.631924,-10955.047942,20725.766376
243.130593,-7507.735880,-9178.553681,18579.169144
243.130901,-2834.553343,-4959.379811,14582.057057
243.131209,1532.190996,-666.185348,9992.780217
243.131517,4979.620737,3849.070898,5329.482782
243.131825,7507.735880,7698.141797,3552.988522
243.132133,9806.022374,9474.636058,2220.617826
243.132441,8886.707777,11251.130318,0.000000
243.132750,7814.174080,10140.821405,1628.453072
243.133058,5822.325785,7105.977043,3849.070898
243.133366,2451.505594,3701.029710,6883.915261
243.133674,-995.924147,-1702.473667,11547.212695
243.133982,-4826.401637,-5773.606348,14285.974681
243.134290,-8656.879127,-9474.636058,16580.613101
243.134598,-9346.365076,-11103.089130,19393.395680
243.134906,-8120.612279,-9696.697840,18801.230927
243.135214,-4290.134789,-6809.894666,15988.448347
243.135522,-919.314598,-2664.741391,11325.150913
243.135830,3677.258390,1924.535449,6957.935855
243.136138,7277.907231,6217.729913,3923.091493
243.136447,9346.365076,8438.347739,1998.556043
243.136755,10035.851024,10955.047942,592.164754
243.137063,9729.412825,10584.944971,666.185348
243.137371,6511.811733,7550.100608,3478.967927
243.137679,3830.477490,3775.050304,6513.812290
243.137987,689.485948,-444.123565,10732.986159
243.138295,-3907.087040,-5107.421000,14211.954086
243.138603,-7660.954980,-8882.471304,16728.654289
243.138911,-9806.022374,-11103.089130,19393.395680
243.139219,-9346.365076,-11029.068536,20429.683999
243.139527,-6435.202183,-7994.224174,17764.942608
243.139835,-2221.676944,-4145.153275,13989.892304
243.140143,1608.800546,-0.000000,9400.615463
243.140452,5286.058936,3923.091493,5033.400406
243.140760,7507.735880,7624.121203,2664.741391
243.141068,9499.584175,9844.739029,1480.411884
243.141376,9422.974625,10807.006753,370.102971
243.141684,7737.564530,10214.842000,814.226536
243.141992,5439.278036,7031.956449,4071.132681
243.142300,2451.505594,3034.844362,7031.956449
243.142608,-1532.190996,-2294.638420,11103.089130
243.142916,-5669.106685,-6513.812290,15322.262999
243.143224,-8733.488677,-9622.677246,17616.901420
243.143532,-9422.974625,-10288.862594,19023.292709
243.143840,-8427.050478,-9104.533087,18949.272115
243.144148,-4290.134789,-6291.750507,16062.468941
243.144457,-153.219100,-1850.514855,11695.253884
243.144765,3677.258390,2812.782580,7254.018232
243.145073,6818.249932,6587.832884,3701.029710
243.145381,9269.755526,9622.677246,1998.556043
243.145689,9806.022374,11251.130318,444.123565
243.145997,8733.488677,9992.780217,1184.329507
243.146305,6052.154434,7402.059420,4219.173869
243.146613,2757.943793,3552.988522,7402.059420
243.146921,-306.438199,-1184.329507,10881.027347
243.147229,-4366.744339,-5699.585753,14508.036463
243.147537,-8273.831378,-9400.615463,17172.777854
243.147845,-9882.631924,-11251.130318,19911.539840
243.148153,-9576.193725,-10881.027347,20059.581028
243.148462,-6205.373534,-7920.203579,18283.086767
243.148770,-1455.581446,-3701.029710,13915.871710
243.149078,1915.238745,296.082377,8956.491898
243.149386,5592.497135,4515.256246,4811.338623
243.149694,8503.660028,8290.306550,2516.700203
243.150002,9499.584175,10436.903782,740.205942
243.150310,9346.365076,10732.986159,592.164754
243.150618,7737.564530,10066.800811,1554.432478
243.150926,5132.839837,6365.771101,4071.132681
243.151234,1915.238745,1702.473667,7476.080014
243.151542,-1991.848295,-2738.761985,11769.274478
243.151850,-5745.716235,-7328.038826,16210.510130
243.152158,-9039.926876,-10362.883188,18209.066173
243.152467,-9806.022374,-10955.047942,19541.436869
243.152775,-7814.174080,-9474.636058,18875.251521
243.153083,-4443.353888,-5773.606348,15174.221811
243.153391,0.000000,-2146.597232,11473.192101
243.153699,4903.011187,2590.720797,6217.729913
243.154007,7507.735880,7105.977043,3182.885551
243.154315,9806.022374,9844.739029,2146.597232
243.154623,9576.193725,11177.109724,370.102971
243.154931,8580.269578,10362.883188,1850.514855
243.155239,6281.983084,7254.018232,3404.947333
243.155547,2757.943793,3478.967927,6809.894666
243.155855,-766.095498,-1406.391290,11399.171507
243.156163,-4903.011187,-6143.709319,15544.324782
243.156471,-8350.440928,-9770.718434,17838.963202
243.156779,-10725.336972,-11399.171507,19985.560434
243.157087,-9576.193725,-10658.965565,20133.601622
243.157395,-5822.325785,-7402.059420,17394.839637
243.157703,-1762.019645,-3034.844362,12805.562797
243.158011,3140.991542,814.226536,8216.285956
243.158319,5975.544884,5847.626942,3627.009116
243.158627,8963.317327,8808.450710,1998.556043
243.158935,9959.241474,10140.821405,1036.288319
243.159243,9499.584175,10362.883188,888.247130
243.159551,7354.516781,9178.553681,1628.453072
243.159859,4826.401637,5477.523971,4367.215058
243.160167,1072.533697,1258.350101,8068.244768
243.160475,-3140.991542,-3997.112087,12879.583391
243.160783,-6281.983084,-8068.244768,16284.530724
243.161091,-8963.317327,-10362.883188,17764.942608
243.161399,-9499.584175,-10732.986159,18949.272115
243.161707,-7048.078582,-8734.430116,18283.086767
243.162015,-2528.115143,-4737.318029,13841.851115
243.162323,919.314598,-518.144159,9696.697840
243.162631,5669.106685,3404.947333,5255.462188
243.162939,8197.221829,7846.182985,2146.597232
243.163247,10035.851024,9696.697840,1258.350101
243.163555,10112.460574,10436.903782,1110.308913
243.163863,8120.612279,9696.697840,1480.411884
243.164171,5592.497135,6365.771101,4515.256246
243.164479,1838.629195,2664.741391,7772.162391
243.164787,-1378.971896,-1924.535449,12139.377449
243.165095,-5056.230287,-6365.771101,15914.427753
243.165403,-8810.098227,-9474.636058,18209.066173
243.165711,-9422.974625,-11177.109724,20281.642811
243.166019,-9346.365076,-10140.821405,20281.642811
243.166327,-5822.325785,-7105.977043,17690.922014
243.166635,-1378.971896,-2664.741391,13027.624579
243.166943,3140.991542,1554.432478,7772.162391
243.167250,6128.763984,5329.482782,3627.009116
243.167558,8427.050478,8290.306550,2294.638420
243.167866,9269.755526,10066.800811,1258.350101
243.168174,8656.879127,10066.800811,444.123565
243.168482,7201.297681,8512.368333,2294.638420
243.168790,4519.963438,4737.318029,4737.318029
243.169098,766.095498,666.185348,8290.306550
243.169406,-2681.334243,-3997.112087,12287.418637
243.169714,-6205.373534,-7772.162391,15692.365970
243.170022,-9116.536426,-9548.656652,17838.963202
243.170330,-9039.926876,-9770.718434,18801.230927
243.170638,-6665.030833,-7994.224174,17912.983796
243.170946,-2528.115143,-4145.153275,14063.912898
243.171254,1608.800546,-0.000000,9104.533087
243.171562,5592.497135,4145.153275,5033.400406
243.171870,8120.612279,7624.121203,2886.803174
243.172178,9116.536426,9252.574275,2072.576638
243.172486,8656.879127,10214.842000,1776.494261
243.172794,7354.516781,8956.491898,2738.761985
243.173102,5515.887586,5329.482782,5033.400406
243.173410,1838.629195,2072.576638,8364.327145
243.173718,-2298.286494,-3108.864956,13101.645173
243.174026,-5745.716235,-7105.977043,16506.592507
243.174334,-9422.974625,-9474.636058,18209.066173
243.174642,-10112.460574,-11177.109724,20725.766376
243.174950,-8656.879127,-9992.780217,19837.519246
243.175258,-5056.230287,-6365.771101,16506.592507
243.175566,-612.876398,-2442.679609,12879.583391
243.175874,3753.867940,1628.453072,7624.121203
243.176182,6588.421283,5699.585753,3552.988522
243.176490,8733.488677,8660.409521,1776.494261
243.176798,9269.755526,9992.780217,1702.473667
243.177106,8733.488677,10881.027347,1036.288319
243.177414,7048.078582,9326.594869,1924.535449
243.177722,4826.401637,5773.606348,4515.256246
243.178030,1149.143247,370.102971,8216.285956
243.178338,-3830.477490,-3923.091493,12805.562797
243.178646,-6358.592633,-7698.141797,16284.530724
243.178954,-9193.145976,-9844.739029,18283.086767
243.179262,-9729.412825,-9992.780217,18949.272115
243.179570,-6511.811733,-6957.935855,17912.983796
243.179878,-1915.238745,-3997.112087,14063.912898
243.180186,1149.143247,222.061783,9104.533087
243.180494,5592.497135,4219.173869,5329.482782
243.180802,7737.564530,7402.059420,3330.926739
243.181109,8656.879127,9400.615463,2886.803174
243.181417,8273.831378,9326.594869,2220.617826
243.181725,7048.078582,9326.594869,2220.617826
243.182033,4903.011187,5477.523971,4589.276840
243.182341,1608.800546,1776.494261,7698.141797
243.182649,-1685.410096,-2960.823768,12287.418637
243.182957,-5515.887586,-8142.265362,16210.510130
243.183265,-9346.365076,-10510.924376,17838.963202
243.183573,-9959.241474,-12065.356855,20059.581028
243.183881,-9116.536426,-10881.027347,19837.519246
243.184189,-4213.525239,-5847.626942,16284.530724
243.184497,-536.266849,-2220.617826,11177.109724
243.184805,4903.011187,2146.597232,6957.935855
243.185113,7277.907231,6291.750507,2220.617826
243.185421,8810.098227,9474.636058,814.226536
243.185729,9959.241474,9474.636058,1184.329507
243.186037,9269.755526,10807.006753,444.123565
243.186345,7201.297681,9178.553681,1406.391290
243.186653,4366.744339,5033.400406,5033.400406
243.186961,842.705048,-148.041188,8734.430116
243.187269,-3677.258390,-4737.318029,13693.809927
243.187577,-7277.907231,-8586.388927,16580.613101
243.187885,-9729.412825,-10584.944971,18949.272115
243.188193,-9499.584175,-10732.986159,19911.539840
243.188501,-7584.345430,-7105.977043,17764.942608
243.188809,-2451.505594,-4663.297435,13545.768739
243.189117,2068.457845,148.041188,9326.594869
243.189425,5362.668486,4737.318029,4145.153275
243.189733,7660.954980,8216.285956,2294.638420
243.190041,9422.974625,9548.656652,2442.679609
243.190349,8810.098227,10214.842000,1554.432478
243.190657,7048.078582,8734.430116,1998.556043
243.190965,4673.182538,5403.503377,4959.379811
243.191273,1072.533697,888.247130,8882.471304
243.191581,-2451.505594,-3627.009116,13101.645173
243.191889,-6511.811733,-7402.059420,16802.674883
243.192197,-9346.365076,-10807.006753,18875.251521
243.192505,-10725.336972,-11251.130318,20133.601622
243.192813,-8044.002729,-9622.677246,19837.519246
243.193121,-3830.477490,-5551.544565,15692.365970
243.193429,383.047749,-1480.411884,11029.068536
243.193737,4979.620737,3034.844362,5329.482782
243.194045,7277.907231,7031.956449,1776.494261
243.194353,9346.365076,9326.594869,2220.617826
243.194660,9806.022374,10881.027347,518.144159
243.194968,9193.145976,10881.027347,666.185348
243.195276,7124.688131,8586.388927,2072.576638
243.195584,4136.915689,3849.070898,5255.462188
243.195892,383.047749,-740.205942,9918.759623
243.196200,-4136.915689,-5403.503377,14508.036463
243.196508,-7890.783629,-8512.368333,17690.922014
243.196816,-10035.851024,-10214.842000,19319.375086
243.197124,-9269.755526,-9992.780217,19911.539840
243.197432,-6588.421283,-7179.997637,17172.777854
243.197740,-1225.752797,-3256.906145,13989.892304
243.198048,2987.772442,962.267725,8438.347739
243.198356,6358.592633,5551.544565,3849.070898
243.198664,8580.269578,8216.285956,2960.823768
243.198972,9576.193725,10436.903782,1628.453072
243.199280,8810.098227,10807.006753,1184.329507
243.199588,7354.516781,9252.574275,2738.761985
243.199896,4749.792088,5033.400406,5477.523971
243.200204,842.705048,296.082377,9252.574275
243.200512,-2911.162892,-4589.276840,14656.077652
243.200820,-6665.030833,-9030.512492,17320.819043
243.201128,-10342.289223,-11251.130318,19615.457463
243.201436,-10572.117872,-11473.192101,20355.663405
243.201744,-7967.393179,-9400.615463,19319.375086
243.202052,-3064.381992,-4959.379811,15100.201217
243.202360,842.705048,-888.247130,9622.677246
243.202668,5515.887586,3478.967927,5181.441594
243.202976,8427.050478,7402.059420,2072.576638
243.203284,9806.022374,10214.842000,814.226536
243.203592,10648.727422,11029.068536,74.020594
243.203900,9576.193725,10955.047942,370.102971
243.204208,6665.030833,7846.182985,2146.597232
243.204516,3217.601092,4071.132681,5699.585753
243.204824,-919.314598,-1998.556043,10807.006753
243.205132,-5132.839837,-6143.709319,15470.304188
243.205440,-8273.831378,-9030.512492,18431.127956
243.205748,-10418.898773,-10584.944971,20207.622217
243.206056,-9193.145976,-9918.759623,19615.457463
243.206364,-5669.106685,-7179.997637,16802.674883
243.206672,-1532.190996,-2516.700203,11917.315666
243.206980,3524.039291,1702.473667,7402.059420
243.207288,6205.373534,5921.647536,3701.029710
243.207596,8733.488677,9104.533087,2294.638420
243.207904,9729.412825,10362.883188,666.185348
243.208212,8656.879127,10807.006753,444.123565
243.208519,6971.469032,8364.327145,2960.823768
243.208827,3677.258390,4071.132681,6365.771101
243.209135,-306.438199,-814.226536,10436.903782
243.209443,-4060.306139,-5329.482782,15470.304188
243.209751,-7354.516781,-9030.512492,17912.983796
243.210059,-10418.898773,-11325.150913,19615.457463
243.210367,-10035.851024,-11769.274478,20725.766376
243.210675,-6741.640382,-9474.636058,18801.230927
243.210983,-2451.505594,-4441.235652,13471.748144
243.211291,1915.238745,-0.000000,8660.409521
243.211599,6435.202183,4071.132681,4071.132681
243.211907,8656.879127,7624.121203,1702.473667
243.212215,10572.117872,9770.718434,296.082377
243.212523,10418.898773,10362.883188,-666.185348
243.212831,9269.755526,10436.903782,740.205942
243.213139,6588.421283,6809.894666,3034.844362
243.213447,2374.896044,2368.659014,7105.977043
243.213755,-2145.067394,-2738.761985,11991.336260
243.214063,-6281.983084,-7402.059420,16210.510130
243.214371,-9806.022374,-9918.759623,18135.045579
243.214679,-10648.727422,-10807.006753,19911.539840
243.214987,-8656.879127,-10214.842000,19245.354492
243.215295,-4136.915689,-6143.709319,15396.283594
243.215603,-383.047749,-1628.453072,10288.862594
243.215911,4979.620737,2442.679609,6439.791695
243.216219,7124.688131,6587.832884,2590.720797
243.216527,9499.584175,9252.574275,2294.638420
243.216835,10112.460574,10807.006753,74.020594
243.217143,8580.269578,10732.986159,518.144159
243.217451,6588.421283,7550.100608,3849.070898
243.217759,3064.381992,3256.906145,7105.977043
243.218067,-842.705048,-1184.329507,12139.377449
243.218375,-4903.011187,-6143.709319,15988.448347
243.218683,-8273.831378,-9474.636058,18209.066173
243.218991,-10189.070123,-11177.109724,20651.745782
243.219299,-9729.412825,-10807.006753,20651.745782
243.219607,-6358.592633,-8364.327145,18135.045579
243.219915,-2374.896044,-3627.009116,13545.768739
243.220223,2911.162892,1702.473667,8512.368333
243.220531,6971.469032,4885.359217,4293.194464
243.220839,9193.145976,8216.285956,2368.659014
243.221147,10342.289223,10658.965565,222.061783
243.221455,10495.508323,11695.253884,-296.082377
243.221763,8733.488677,10436.903782,1258.350101
243.222070,5745.716235,6439.791695,4219.173869
243.222378,1455.581446,2220.617826,7698.141797
243.222686,-2298.286494,-3034.844362,13693.809927
243.222994,-6435.202183,-7254.018232,16728.654289
243.223302,-9652.803275,-9622.677246,18283.086767
243.223610,-10342.289223,-10066.800811,20133.601622
243.223918,-7967.393179,-8956.491898,18949.272115
243.224226,-3677.258390,-5477.523971,15100.201217
243.224534,-153.219100,-888.247130,10066.800811
243.224842,5362.668486,3108.864956,5773.606348
243.225150,7124.688131,6735.874072,3182.885551
243.225458,10112.460574,10214.842000,1628.453072
243.225766,9729.412825,11399.171507,0.000000
243.226074,8580.269578,10436.903782,1480.411884
243.226382,5515.887586,6809.894666,4441.235652
243.226690,1915.238745,2368.659014,7994.224174
243.226998,-1915.238745,-2220.617826,12583.501014
243.227306,-5745.716235,-7550.100608,16062.468941
243.227614,-9269.755526,-10510.924376,17987.004391
243.227922,-10648.727422,-11843.295072,20799.786970
243.228230,-9652.803275,-11325.150913,20503.704593
243.228538,-5592.497135,-7698.141797,16728.654289
243.228846,-1072.533697,-2664.741391,11547.212695
243.229154,3907.087040,2072.576638,6439.791695
243.229462,7277.907231,4811.338623,3182.885551
243.229770,9882.631924,8586.388927,1332.370696
243.230078,10342.289223,10584.944971,-888.247130
243.230386,10265.679673,10658.965565,-740.205942
243.230694,7660.954980,9400.615463,1110.308913
243.231002,4826.401637,5329.482782,4441.235652
243.231310,766.095498,888.247130,8438.347739
243.231618,-3753.867940,-4219.173869,12879.583391
243.231926,-6818.249932,-8438.347739,17320.819043
243.232234,-10725.336972,-10510.924376,18579.169144
243.232542,-9959.241474,-10510.924376,19837.519246
243.232850,-7507.735880,-8586.388927,18283.086767
243.233158,-3064.381992,-4293.194464,13619.789333
243.233466,612.876398,-0.000000,8586.388927
243.233774,5515.887586,4367.215058,4737.318029
243.234082,7354.516781,7550.100608,2442.679609
243.234390,9729.412825,10066.800811,962.267725
243.234698,9729.412825,11547.212695,74.020594
243.235006,7660.954980,9252.574275,1850.514855
243.235314,4749.792088,5329.482782,5625.565159
243.235622,919.314598,1110.308913,9400.615463
243.235929,-3140.991542,-3627.009116,14063.912898
243.236237,-7354.516781,-8512.368333,17246.798449
243.236545,-9806.022374,-11103.089130,19245.354492
243.236853,-11414.822920,-11843.295072,21095.869347
243.237161,-9269.755526,-10584.944971,19689.478057
243.237469,-4290.134789,-6143.709319,15840.407159
243.237777,0.000000,-1554.432478,10658.965565
243.238085,4903.011187,2960.823768,5551.544565
243.238393,7354.516781,6291.750507,2812.782580
243.238701,10495.508323,9770.718434,1258.350101
243.239009,10801.946522,11399.171507,-888.247130
243.239317,9959.241474,11473.192101,-296.082377
243.239625,7507.735880,8364.327145,2294.638420
243.239933,3983.696590,4589.276840,5107.421000
243.240241,-153.219100,-0.000000,10288.862594
243.240549,-4290.134789,-4959.379811,14878.139434
243.240857,-7890.783629,-8882.471304,17394.839637
243.241165,-9882.631924,-10436.903782,19467.416275
243.241473,-9269.755526,-10658.965565,20281.642811
243.241781,-5898.935335,-8142.265362,17838.963202
243.242089,-1608.800546,-4219.173869,13397.727550
243.242397,2911.162892,296.082377,8438.347739
243.242705,6588.421283,4811.338623,4737.318029
243.243013,9193.145976,8290.306550,3108.864956
243.243321,10955.165621,10955.047942,296.082377
243.243629,10801.946522,11917.315666,-296.082377
243.243937,8350.440928,9178.553681,1776.494261
243.244245,5669.106685,5995.668130,5107.421000
243.244553,2068.457845,1776.494261,9474.636058
243.244861,-1685.410096,-3701.029710,14730.098246
243.245169,-6588.421283,-7772.162391,17098.757260
243.245477,-9499.584175,-10436.903782,18431.127956
243.245785,-10801.946522,-11177.109724,21317.931130
243.246093,-8503.660028,-9770.718434,20059.581028
243.246401,-2987.772442,-5995.668130,15322.262999
243.246709,689.485948,-1110.308913,10362.883188
243.247017,5898.935335,2738.761985,5255.462188
243.247325,8427.050478,6809.894666,2590.720797
243.247633,10418.898773,10066.800811,1036.288319
243.247941,10725.336972,10732.986159,-296.082377
243.248249,9039.926876,10807.006753,148.041188
243.248557,6511.811733,7624.121203,2886.803174
243.248865,3294.210641,3627.009116,5403.503377
243.249173,-766.095498,-1184.329507,10288.862594
243.249480,-4673.182538,-5847.626942,14508.036463
243.249788,-7967.393179,-9696.697840,17024.736666
243.250096,-10418.898773,-11103.089130,19763.498651
243.250404,-10189.070123,-10658.965565,19689.478057
243.250712,-6435.202183,-7254.018232,17024.736666
243.251020,-1762.019645,-2960.823768,12065.356855
243.251328,2528.115143,1554.432478,7105.977043
243.251636,5975.544884,5625.565159,3552.988522
243.251944,9193.145976,8512.368333,2072.576638
243.252252,10342.289223,10658.965565,0.000000
243.252560,9652.803275,11029.068536,-592.164754
243.252868,7354.516781,8882.471304,2738.761985
243.253176,3983.696590,3775.050304,6587.832884
243.253484,-766.095498,-370.102971,10140.821405
243.253792,-4366.744339,-5995.668130,14952.160028
243.254100,-8886.707777,-9918.759623,18135.045579
243.254408,-11874.480219,-12065.356855,19763.498651
243.254716,-11338.213370,-11251.130318,21317.931130
243.255024,-7967.393179,-9400.615463,19837.519246
243.255332,-3907.087040,-4737.318029,14359.995275
243.255640,919.314598,592.164754,8882.471304
243.255948,5975.544884,4145.153275,4737.318029
243.256256,8120.612279,7402.059420,1776.494261
243.256564,9959.241474,10510.924376,148.041188
243.256872,10495.508323,11621.233289,-592.164754
243.257180,7737.564530,10732.986159,814.226536
243.257488,6358.592633,6957.935855,3330.926739
243.257796,2374.896044,3330.926739,6291.750507
243.258104,-2298.286494,-1776.494261,11917.315666
243.258412,-6205.373534,-7328.038826,16210.510130
243.258720,-9576.193725,-9178.553681,18505.148550
243.259028,-10572.117872,-10288.862594,20059.581028
243.259336,-8350.440928,-9474.636058,19467.416275
243.259644,-5132.839837,-6513.812290,16358.551318
243.259952,-306.438199,-1850.514855,11473.192101
243.260260,4749.792088,2590.720797,6439.791695
243.260568,7277.907231,6439.791695,3478.967927
243.260876,9729.412825,9696.697840,1702.473667
243.261184,10112.460574,11325.150913,666.185348
243.261493,9039.926876,10955.047942,1036.288319
243.261801,6894.859482,7476.080014,3775.050304
243.262109,3217.601092,3478.967927,6883.915261
243.262417,-612.876398,-962.267725,11177.109724
243.262725,-4673.182538,-6661.853478,15988.448347
243.263033,-8656.879127,-9622.677246,18283.086767
243.263341,-10648.727422,-11177.109724,20281.642811
243.263649,-9959.241474,-11325.150913,20873.807564
243.263957,-7354.516781,-8808.450710,18061.024985
243.264265,-1915.238745,-3552.988522,13397.727550
243.264573,3294.210641,740.205942,9474.636058
243.264881,6971.469032,4737.318029,3775.050304
243.265189,8733.488677,8512.368333,962.267725
243.265497,10955.165621,9844.739029,1184.329507
243.265805,10495.508323,10881.027347,0.000000
243.266113,8733.488677,9696.697840,1628.453072
243.266421,6205.373534,6735.874072,3552.988522
243.266729,2451.505594,2442.679609,5847.626942
243.267037,-1838.629195,-2590.720797,11695.253884
243.267345,-6205.373534,-6809.894666,15766.386565
243.267653,-8963.317327,-9252.574275,17987.004391
243.267961,-10035.851024,-9992.780217,19467.416275
243.268269,-8350.440928,-9178.553681,19171.333898
243.268577,-4673.182538,-5477.523971,15840.407159
243.268885,0.000000,-1702.473667,11177.109724
243.269194,3753.867940,2812.782580,6217.729913
243.269502,6665.030833,6661.853478,3256.906145
243.269810,9116.536426,8808.450710,2590.720797
243.270118,9346.365076,10362.883188,1036.288319
243.270426,8580.269578,9844.739029,1628.453072
243.270734,6052.154434,6957.935855,3997.112087
243.271042,2604.724693,2368.659014,7254.018232
243.271350,-995.924147,-1924.535449,11325.150913
243.271658,-5209.449386,-7105.977043,16136.489536
243.271966,-8810.098227,-9844.739029,17468.860231
243.272274,-10265.679673,-10658.965565,18949.272115
243.272582,-9193.145976,-10436.903782,20133.601622
243.272890,-5975.544884,-7550.100608,17246.798449
243.273198,-1991.848295,-2886.803174,12287.418637
243.273506,3217.601092,888.247130,7920.203579
243.273814,6588.421283,4737.318029,3923.091493
243.274122,8810.098227,7179.997637,2146.597232
243.274430,10648.727422,9622.677246,592.164754
243.274738,9882.631924,10807.006753,-222.061783
243.275046,8273.831378,9030.512492,1406.391290
243.275354,5132.839837,5699.585753,3849.070898
243.275662,1072.533697,1776.494261,7179.997637
243.275970,-2298.286494,-3997.112087,13101.645173
243.276278,-6511.811733,-7624.121203,16802.674883
243.276587,-9039.926876,-9548.656652,17764.942608
243.276895,-9499.584175,-9696.697840,18949.272115
243.277203,-7431.126331,-8364.327145,18653.189738
243.277511,-3600.648841,-5107.421000,15026.180623
243.277819,306.438199,-666.185348,10510.924376
243.278127,5056.230287,3256.906145,6513.812290
243.278435,7124.688131,6513.812290,3923.091493
243.278743,9269.755526,9474.636058,1998.556043
243.279051,9116.536426,10362.883188,740.205942
243.279359,8197.221829,9548.656652,1776.494261
243.279667,5592.497135,6661.853478,4367.215058
243.279975,2145.067394,2738.761985,7624.121203
243.280283,-1608.800546,-1850.514855,12139.377449
243.280591,-5592.497135,-6957.935855,15988.448347
243.280899,-8733.488677,-8882.471304,18061.024985
243.281207,-9806.022374,-9992.780217,19245.354492
243.281515,-8580.269578,-9474.636058,19393.395680
243.281823,-5515.887586,-6365.771101,16580.613101
243.282131,-766.095498,-1924.535449,12435.459826
243.282439,3830.477490,1332.370696,8364.327145
243.282747,6281.983084,5033.400406,3478.967927
243.283055,8503.660028,7846.182985,2516.700203
243.283363,10112.460574,9622.677246,1110.308913
243.283671,8810.098227,10436.903782,1332.370696
243.283979,7354.516781,8586.388927,2590.720797
243.284288,4519.963438,5255.462188,4441.235652
243.284596,76.609550,1110.308913,8142.265362
243.284904,-3064.381992,-3997.112087,13397.727550
243.285212,-6741.640382,-7179.997637,16950.716072
243.285520,-8886.707777,-9326.594869,17616.901420
243.285828,-8810.098227,-9622.677246,19319.375086
243.286136,-6281.983084,-7994.224174,18135.045579
243.286444,-3370.820191,-4367.215058,13619.789333
243.286752,1685.410096,-740.205942,11251.130318
243.287060,5745.716235,3701.029710,5403.503377
243.287368,6741.640382,7476.080014,2442.679609
243.287676,9806.022374,8808.450710,2516.700203
243.287984,9499.584175,10881.027347,444.123565
243.288292,7967.393179,9622.677246,2516.700203
243.288600,5132.839837,5995.668130,4737.318029
243.288908,1838.629195,2072.576638,7402.059420
243.289216,-2145.067394,-2442.679609,12805.562797
243.289524,-6205.373534,-6957.935855,16432.571912
243.289832,-9422.974625,-9030.512492,18357.107362
243.290140,-10955.165621,-10362.883188,19171.333898
243.290448,-9499.584175,-9030.512492,19837.519246
243.290756,-5056.230287,-6587.832884,16580.613101
243.291064,-1455.581446,-2368.659014,13027.624579
243.291372,3447.429741,1332.370696,7105.977043
243.291681,6281.983084,4959.379811,3701.029710
243.291989,8273.831378,7550.100608,2590.720797
243.292297,9116.536426,9622.677246,592.164754
243.292605,9499.584175,10140.821405,592.164754
243.292913,7201.297681,8438.347739,2590.720797
243.293221,4596.572988,4737.318029,4219.173869
243.293529,842.705048,592.164754,7846.182985
243.293837,-2681.334243,-4515.256246,12805.562797
243.294145,-6205.373534,-7624.121203,15914.427753
243.294453,-8580.269578,-9252.574275,17172.777854
243.294761,-8963.317327,-9622.677246,18875.251521
243.295069,-6588.421283,-8142.265362,17542.880825
243.295377,-2757.943793,-4441.235652,13841.851115
243.295685,919.314598,-74.020594,9622.677246
243.295993,5669.106685,3034.844362,5995.668130
243.296301,8427.050478,7402.059420,2220.617826
243.296609,9652.803275,9770.718434,1110.308913
243.296917,10112.460574,10214.842000,962.267725
243.297225,8350.440928,9474.636058,1554.432478
243.297533,5745.716235,5995.668130,4885.359217
243.297841,1685.410096,1924.535449,8068.244768
243.298149,-1915.238745,-3108.864956,12657.521608
243.298457,-5898.935335,-7105.977043,17024.736666
243.298765,-9499.584175,-9696.697840,18949.272115
243.299074,-10572.117872,-10436.903782,19911.539840
243.299382,-9039.926876,-9326.594869,20207.622217
243.299690,-4979.620737,-6069.688724,16580.613101
243.299998,-536.266849,-1998.556043,12287.418637
243.300306,4213.525239,1628.453072,7772.162391
243.300614,6741.640382,5551.544565,3478.967927
243.300922,9039.926876,8438.347739,2368.659014
243.301230,9806.022374,10510.924376,740.205942
243.301538,9269.755526,10658.965565,518.144159
243.301846,7507.735880,8808.450710,2220.617826
243.302154,4749.792088,5107.421000,4293.194464
243.302462,766.095498,592.164754,8364.327145
243.302770,-3140.991542,-4885.359217,13693.809927
243.303078,-6665.030833,-8290.306550,17616.901420
243.303386,-8810.098227,-9770.718434,17838.963202
243.303694,-9499.584175,-10140.821405,19393.395680
243.304002,-6435.202183,-7698.141797,17764.942608
243.304310,-2374.896044,-3923.091493,13767.830521
243.304618,2145.067394,-0.000000,9622.677246
243.304926,5898.935335,4885.359217,4441.235652
243.305234,8656.879127,8290.306550,2368.659014
243.305542,10572.117872,9770.718434,962.267725
243.305850,10189.070123,11399.171507,222.061783
243.306158,8197.221829,9622.677246,2368.659014
243.306466,5209.449386,5403.503377,5625.565159
243.306775,919.314598,1110.308913,9030.512492
243.307083,-3140.991542,-4071.132681,14063.912898
243.307391,-7201.297681,-8216.285956,17912.983796
243.307699,-10342.289223,-10436.903782,19097.313304
243.308007,-11261.603821,-10807.006753,21021.848753
243.308315,-9269.755526,-9548.656652,20429.683999
243.308623,-4903.011187,-6143.709319,16136.489536
243.308931,-383.047749,-1332.370696,11769.274478
243.309239,5669.106685,2368.659014,7031.956449
243.309547,7201.297681,6957.935855,1776.494261
243.309855,9422.974625,9474.636058,1332.370696
243.310163,10801.946522,10732.986159,296.082377
243.310471,8733.488677,11695.253884,0.000000
243.310779,6971.469032,7920.203579,3404.947333
243.311087,3753.867940,4737.318029,4441.235652
243.311395,-383.047749,-148.041188,9474.636058
243.311703,-5056.230287,-6069.688724,14878.139434
243.312011,-8656.879127,-8956.491898,17098.757260
243.312319,-10725.336972,-10510.924376,19097.313304
243.312627,-9806.022374,-10658.965565,20207.622217
243.312935,-6281.983084,-8438.347739,16802.674883
243.313243,-2068.457845,-3701.029710,12953.603985
243.313551,2681.334243,814.226536,8808.450710
243.313859,6205.373534,5181.441594,3182.885551
243.314168,9269.755526,8882.471304,2072.576638
243.314476,10648.727422,10214.842000,0.000000
243.314784,9652.803275,10955.047942,-592.164754
243.315092,8120.612279,8808.450710,2368.659014
243.315400,4596.572988,4663.297435,5699.585753
243.315708,0.000000,518.144159,9030.512492
243.316016,-3753.867940,-4885.359217,14508.036463
243.316324,-8044.002729,-9178.553681,17690.922014
243.316632,-10801.946522,-10807.006753,18949.272115
243.316940,-11184.994271,-11177.109724,20947.828159
243.317248,-8350.440928,-8882.471304,19319.375086
243.317556,-3370.820191,-4811.338623,14656.077652
243.317864,1378.971896,-296.082377,10584.944971
243.318172,5745.716235,3034.844362,4515.256246
243.318480,7737.564530,6587.832884,2146.597232
243.318788,10265.679673,9474.636058,1184.329507
243.319096,10342.289223,11103.089130,-592.164754
243.319404,9039.926876,10436.903782,666.185348
243.319712,6588.421283,7698.141797,2664.741391
243.320020,2987.772442,3182.885551,5699.585753
243.320328,-1149.143247,-1480.411884,11029.068536
243.320636,-5209.449386,-6957.935855,15470.304188
243.320944,-8197.221829,-9178.553681,17764.942608
243.321252,-9806.022374,-10288.862594,18801.230927
243.321560,-8656.879127,-9474.636058,19837.519246
243.321869,-5209.449386,-6513.812290,16358.551318
243.322177,-536.266849,-2590.720797,12287.418637
243.322485,4136.915689,1628.453072,7105.977043
243.322793,7660.954980,5921.647536,3552.988522
243.323101,10265.679673,9474.636058,2220.617826
243.323409,10801.946522,11251.130318,148.041188
243.323717,9729.412825,11103.089130,592.164754
243.324025,7507.735880,8364.327145,3034.844362
243.324333,4136.915689,3775.050304,6143.709319
243.324641,-229.828649,-518.144159,10362.883188
243.324949,-3753.867940,-5551.544565,15470.304188
243.325257,-8350.440928,-9104.533087,18135.045579
243.325565,-10725.336972,-10584.944971,19763.498651
243.325873,-10801.946522,-10955.047942,21317.931130
243.326181,-7737.564530,-8586.388927,19393.395680
243.326489,-2604.724693,-3997.112087,14137.933492
243.326797,1838.629195,-148.041188,9104.533087
243.327105,5898.935335,3775.050304,4885.359217
243.327413,9346.365076,7179.997637,2516.700203
243.327721,10342.289223,10584.944971,814.226536
243.328029,10572.117872,11029.068536,148.041188
243.328337,8656.879127,9992.780217,1702.473667
243.328645,6358.592633,7105.977043,2886.803174
243.328953,2145.067394,2960.823768,6883.915261
243.329262,-1838.629195,-2294.638420,11843.295072
243.329570,-5975.544884,-7328.038826,16210.510130
243.329878,-9269.755526,-9104.533087,18135.045579
243.330186,-10189.070123,-10658.965565,19245.354492
243.330494,-9039.926876,-9474.636058,19837.519246
243.330802,-4749.792088,-6143.709319,15840.407159
243.331110,-536.266849,-1998.556043,11103.089130
243.331418,4596.572988,2220.617826,7031.956449
243.331726,7354.516781,6069.688724,2960.823768
243.332034,9422.974625,9178.553681,1702.473667
243.332342,10801.946522,10436.903782,296.082377
243.332650,9499.584175,10140.821405,592.164754
243.332958,7048.078582,7179.997637,3627.009116
243.333266,3217.601092,2812.782580,6587.832884
243.333574,-1378.971896,-1332.370696,11251.130318
243.333882,-5286.058936,-6143.709319,16506.592507
243.334190,-8886.707777,-9326.594869,18209.066173
243.334498,-11338.213370,-10881.027347,19319.375086
243.334806,-10495.508323,-10584.944971,20799.786970
243.335114,-7201.297681,-7994.224174,18283.086767
243.335422,-2145.067394,-3552.988522,13693.809927
243.335730,2145.067394,888.247130,8734.430116
243.336038,5362.668486,4219.173869,4367.215058
243.336346,8044.002729,7920.203579,2146.597232
243.336654,9806.022374,10807.006753,444.123565
243.336963,9499.584175,11547.212695,-592.164754
243.337271,8427.050478,10214.842000,1628.453072
243.337579,5286.058936,6809.894666,3404.947333
243.337887,1072.533697,1702.473667,7254.018232
243.338195,-2298.286494,-3701.029710,13027.624579
243.338503,-6971.469032,-7772.162391,16728.654289
243.338811,-9729.412825,-10066.800811,18505.148550
243.339119,-9806.022374,-10807.006753,19763.498651
243.339427,-8427.050478,-9474.636058,19023.292709
243.339735,-3830.477490,-6143.709319,15100.201217
243.340043,536.266849,-1406.391290,10732.986159
243.340351,5745.716235,3034.844362,6291.750507
243.340659,8120.612279,7105.977043,2442.679609
243.340967,10801.946522,10436.903782,444.123565
243.341275,11721.261119,11621.233289,-814.226536
243.341583,9499.584175,10584.944971,74.020594
243.341891,6741.640382,7254.018232,2738.761985
243.342199,3217.601092,2516.700203,7328.038826
243.342507,-995.924147,-1406.391290,11917.315666
243.342815,-5286.058936,-7105.977043,15988.448347
243.343123,-9269.755526,-9918.759623,18875.251521
243.343431,-11568.042020,-11473.192101,20355.663405
243.343739,-10725.336972,-10658.965565,20429.683999
243.344047,-6358.592633,-7476.080014,18283.086767
243.344356,-1838.629195,-3034.844362,13027.624579
243.344664,2911.162892,592.164754,8216.285956
243.344972,5975.544884,4737.318029,3997.112087
243.345280,8810.098227,8142.265362,1406.391290
243.345588,10342.289223,10584.944971,148.041188
243.345896,9959.241474,11177.109724,-296.082377
243.346204,8350.440928,9474.636058,1480.411884
243.346512,5592.497135,5625.565159,3627.009116
243.346820,1072.533697,1036.288319,7920.203579
243.347128,-2987.772442,-4589.276840,13175.665768
243.347436,-6894.859482,-8882.471304,16876.695478
243.347744,-9806.022374,-10140.821405,18357.107362
243.348052,-10725.336972,-10436.903782,19467.416275
243.348360,-8044.002729,-8660.409521,19097.313304
243.348668,-3064.381992,-4663.297435,15100.201217
243.348976,766.095498,74.020594,9400.615463
243.349284,6281.983084,4219.173869,5403.503377
243.349592,9806.022374,8142.265362,1998.556043
243.349900,11338.213370,11177.109724,370.102971
243.350208,11261.603821,11843.295072,148.041188
243.350516,9499.584175,10066.800811,1406.391290
243.350824,5515.887586,6069.688724,4737.318029
243.351132,1302.362347,1480.411884,8882.471304
243.351440,-2451.505594,-3923.091493,13767.830521
243.351749,-7431.126331,-8290.306550,17912.983796
243.352057,-10265.679673,-10732.986159,19911.539840
243.352365,-11721.261119,-11473.192101,20799.786970
243.352673,-10035.851024,-9844.739029,20799.786970
243.352981,-5898.935335,-6513.812290,17542.880825
243.353289,-1072.533697,-1702.473667,12287.418637
243.353597,3907.087040,2590.720797,7328.038826
243.353905,7660.954980,5625.565159,2960.823768
243.354213,9652.803275,9474.636058,740.205942
243.354521,10725.336972,11251.130318,74.020594
243.354829,10035.851024,11103.089130,74.020594
243.355137,7431.126331,9474.636058,1850.514855
243.355445,4290.134789,4663.297435,4811.338623
243.355753,0.000000,-148.041188,9030.512492
243.356061,-4060.306139,-5033.400406,14434.015869
243.356369,-8044.002729,-8438.347739,17394.839637
243.356677,-9806.022374,-10362.883188,18505.148550
243.356985,-10189.070123,-10140.821405,19837.519246
243.357293,-6971.469032,-7846.182985,18283.086767
243.357601,-3370.820191,-3923.091493,13323.706956
243.357909,2374.896044,-0.000000,9474.636058
243.358217,6741.640382,3997.112087,3997.112087
243.358525,8733.488677,8216.285956,888.247130
243.358833,11644.651570,9770.718434,1332.370696
243.359141,10495.508323,10658.965565,-222.061783
243.359449,8656.879127,8512.368333,2294.638420
243.359757,5975.544884,4515.256246,4737.318029
243.360065,1072.533697,592.164754,8068.244768
243.360373,-2757.943793,-4071.132681,13693.809927
243.360681,-6818.249932,-8364.327145,16950.716072
243.360989,-9576.193725,-10214.842000,18727.210333
243.361297,-10495.508323,-11251.130318,20133.601622
243.361605,-8656.879127,-9622.677246,19911.539840
243.361914,-5669.106685,-5181.441594,15544.324782
243.362222,0.000000,-1332.370696,12213.398043
243.362530,5209.449386,2886.803174,6291.750507
243.362838,7124.688131,7254.018232,1628.453072
243.363146,10418.898773,8956.491898,1628.453072
243.363454,10265.679673,11473.192101,-1184.329507
243.363762,9882.631924,10881.027347,592.164754
243.364070,7584.345430,8290.306550,2812.782580
243.364378,3830.477490,3923.091493,5403.503377
243.364686,-689.485948,-1036.288319,10362.883188
243.364994,-4673.182538,-6217.729913,14656.077652
243.365302,-8197.221829,-9178.553681,17987.004391
243.365610,-10418.898773,-10436.903782,18653.189738
243.365918,-9576.193725,-9770.718434,20133.601622
243.366226,-6741.640382,-7550.100608,17320.819043
243.366534,-1225.752797,-3775.050304,13101.645173
243.366842,2528.115143,1258.350101,8660.409521
243.367150,6741.640382,5477.523971,3552.988522
243.367458,9806.022374,9030.512492,2220.617826
243.367766,10648.727422,11103.089130,148.041188
243.368074,10035.851024,10955.047942,740.205942
243.368382,7660.954980,8438.347739,2886.803174
243.368690,4136.915689,4071.132681,5625.565159
243.368998,-689.485948,-0.000000,9622.677246
243.369306,-3677.258390,-4737.318029,14582.057057
243.369614,-7737.564530,-8660.409521,18209.066173
243.369922,-10342.289223,-10066.800811,18801.230927
243.370230,-10878.556072,-10288.862594,20429.683999
243.370538,-8044.002729,-8882.471304,19171.333898
243.370846,-3370.820191,-4737.318029,14952.160028
243.371154,995.924147,-592.164754,10288.862594
243.371462,5056.230287,3404.947333,5255.462188
243.371770,7814.174080,6883.915261,2664.741391
243.372078,10265.679673,9326.594869,1258.350101
243.372386,9806.022374,11177.109724,-444.123565
243.372694,9116.536426,9696.697840,1554.432478
243.373002,6894.859482,7402.059420,3034.844362
243.373310,2528.115143,3478.967927,5699.585753
243.373618,-1225.752797,-1998.556043,11473.192101
243.373926,-5286.058936,-6735.874072,15026.180623
243.374234,-8580.269578,-9326.594869,17246.798449
243.374542,-10572.117872,-10214.842000,18875.251521
243.374850,-8810.098227,-9178.553681,19541.436869
243.375158,-5439.278036,-6069.688724,15988.448347
243.375466,-766.095498,-1702.473667,11695.253884
243.375774,4136.915689,2516.700203,7179.997637
243.376082,7124.688131,5625.565159,3108.864956
243.376390,9422.974625,7994.224174,2146.597232
243.376698,10725.336972,9770.718434,518.144159
243.377006,9346.365076,9622.677246,666.185348
243.377314,7124.688131,7105.977043,3627.009116
243.377622,3524.039291,3701.029710,6069.688724
243.377930,-306.438199,-370.102971,11177.109724
243.378238,-4519.963438,-5033.400406,14582.057057
243.378546,-7890.783629,-8512.368333,17024.736666
243.378854,-10035.851024,-10362.883188,19171.333898
243.379162,-10112.460574,-10362.883188,19763.498651
243.379470,-7201.297681,-7994.224174,18579.169144
243.379778,-2834.553343,-4219.173869,14285.974681
243.380086,1302.362347,-0.000000,9622.677246
243.380394,5056.230287,3552.988522,4885.359217
243.380702,7584.345430,6735.874072,2664.741391
243.381010,9806.022374,9178.553681,1702.473667
243.381318,9576.193725,10658.965565,74.020594
243.381626,8810.098227,9252.574275,1924.535449
243.381934,6052.154434,6291.750507,3552.988522
243.382242,1991.848295,2442.679609,6809.894666
243.382550,-1532.190996,-2294.638420,11843.295072
243.382858,-5592.497135,-6365.771101,15026.180623
243.383166,-8733.488677,-8586.388927,17098.757260
243.383474,-9729.412825,-9696.697840,19023.292709
243.383782,-8273.831378,-8290.306550,17838.963202
243.384090,-4903.011187,-5403.503377,14952.160028
243.384398,153.219100,-1776.494261,11029.068536
243.384706,4060.306139,2294.638420,6291.750507
243.385014,6971.469032,5551.544565,3775.050304
243.385322,9652.803275,7846.182985,2368.659014
243.385630,10189.070123,9770.718434,444.123565
243.385938,9039.926876,9030.512492,1258.350101
243.386246,6435.202183,6957.935855,3997.112087
243.386554,2987.772442,3627.009116,7550.100608
243.386862,-383.047749,-592.164754,11399.171507
243.387170,-4136.915689,-4663.297435,14878.139434
243.387478,-7967.393179,-7994.224174,17024.736666
243.387786,-9959.241474,-10140.821405,19245.354492
243.388094,-9422.974625,-9770.718434,20133.601622
243.388402,-6894.859482,-7550.100608,18431.127956
243.388710,-2911.162892,-3775.050304,13915.871710
243.389018,1685.410096,296.082377,9474.636058
243.389326,5209.449386,3404.947333,4737.318029
243.389634,7814.174080,6957.935855,2664.741391
243.389942,9652.803275,8956.491898,1406.391290
243.390250,9422.974625,9992.780217,296.082377
243.390558,8733.488677,8438.347739,2442.679609
243.390866,5132.839837,5921.647536,3997.112087
243.391174,1608.800546,2072.576638,7920.203579
243.391482,-1608.800546,-2146.597232,12213.398043
243.391790,-5822.325785,-5625.565159,15248.242405
243.392098,-8656.879127,-8142.265362,16950.716072
243.392406,-9499.584175,-9104.533087,17987.004391
243.392714,-7124.688131,-7254.018232,17912.983796
243.393022,-3907.087040,-4663.297435,14730.098246
243.393330,229.828649,-1628.453072,10658.965565
243.393638,3983.696590,2368.659014,5921.647536
243.393946,8350.440928,5551.544565,4589.276840
243.394254,9269.755526,7550.100608,2368.659014
243.394562,8886.707777,9622.677246,296.082377
243.394870,9269.755526,7846.182985,3108.864956
243.395178,6052.154434,7031.956449,3478.967927
243.395486,2681.334243,2590.720797,8068.244768
243.395794,-459.657299,-592.164754,11769.274478
243.396102,-4290.134789,-4959.379811,15026.180623
243.396410,-8503.660028,-7994.224174,17690.922014
243.396718,-9806.022374,-9696.697840,19171.333898
243.397026,-9039.926876,-9326.594869,20725.766376
243.397334,-6665.030833,-7105.977043,17098.757260
243.397642,-1838.629195,-3478.967927,13619.789333
243.397950,2757.943793,222.061783,9104.533087
243.398258,4903.011187,3552.988522,4737.318029
243.398566,7737.564530,6513.812290,3108.864956
243.398874,9346.365076,8438.347739,1924.535449
243.399182,9652.803275,9622.677246,222.061783
243.399490,7584.345430,8660.409521,1924.535449
243.399798,5592.497135,6217.729913,4219.173869
243.400106,1838.629195,2146.597232,7994.224174
243.400414,-995.924147,-1776.494261,11473.192101
243.400722,-4903.011187,-5551.544565,14878.139434
243.401030,-8810.098227,-8290.306550,16580.613101
243.401338,-9499.584175,-8882.471304,18727.210333
243.401646,-7431.126331,-7105.977043,17987.004391
243.401954,-3524.039291,-4293.194464,14359.995275
243.402262,229.828649,-1110.308913,10732.986159
243.402570,4290.134789,2516.700203,6513.812290
243.402878,7354.516781,5477.523971,3997.112087
243.403186,8656.879127,7328.038826,2960.823768
243.403494,9193.145976,8512.368333,1258.350101
243.403802,8044.002729,8512.368333,1776.494261
243.404110,6052.154434,5773.606348,4737.318029
243.404418,2451.505594,2442.679609,7254.018232
243.404726,-1149.143247,-1258.350101,11769.274478
243.405034,-4443.353888,-5329.482782,15100.201217
243.405342,-7354.516781,-8512.368333,17246.798449
243.405650,-9882.631924,-10584.944971,19171.333898
243.405958,-8886.707777,-9400.615463,19319.375086
243.406266,-5592.497135,-6513.812290,16506.592507
243.406574,-995.924147,-3108.864956,12583.501014
243.406882,2987.772442,444.123565,7846.182985
243.407190,5898.935335,4367.215058,3701.029710
243.407498,8427.050478,6587.832884,3182.885551
243.407806,9422.974625,9030.512492,814.226536
243.408114,9269.755526,10140.821405,222.061783
243.408422,8120.612279,8364.327145,2516.700203
243.408730,5132.839837,5699.585753,4441.235652
243.409038,1072.533697,2072.576638,8142.265362
243.409346,-2911.162892,-2072.576638,12879.583391
243.409654,-6818.249932,-5921.647536,15840.407159
243.409962,-9576.193725,-8660.409521,17912.983796
243.410270,-9882.631924,-8734.430116,19541.436869
243.410578,-7354.516781,-7031.956449,17987.004391
243.410886,-3447.429741,-3997.112087,13989.892304
243.411194,536.266849,-518.144159,10732.986159
243.411502,4596.572988,2738.761985,5625.565159
243.411810,7124.688131,5773.606348,4367.215058
243.412118,8580.269578,7476.080014,3034.844362
243.412426,8886.707777,9400.615463,666.185348
243.412734,7737.564530,7698.141797,2664.741391
243.413042,5132.839837,5921.647536,5403.503377
243.413350,1762.019645,1850.514855,8734.430116
243.413658,-1225.752797,-1184.329507,12805.562797
243.413966,-4903.011187,-5181.441594,15470.304188
243.414274,-8580.269578,-8808.450710,17320.819043
243.414582,-10112.460574,-9992.780217,18949.272115
243.414890,-7967.393179,-8808.450710,19393.395680
243.415198,-4749.792088,-6439.791695,15544.324782
243.415506,76.609550,-2220.617826,11325.150913
243.415814,3600.648841,592.164754,6883.915261
243.416122,7354.516781,4663.297435,3182.885551
243.416431,8656.879127,6883.915261,1924.535449
243.416739,9576.193725,8586.388927,1258.350101
243.417047,9652.803275,9474.636058,296.082377
243.417355,7201.297681,8068.244768,1850.514855
243.417663,4826.401637,4219.173869,6069.688724
243.417971,919.314598,814.226536,8364.327145
243.418279,-3600.648841,-3478.967927,13101.645173
243.418587,-7201.297681,-7402.059420,16728.654289
243.418895,-9422.974625,-9548.656652,17838.963202
243.419203,-9269.755526,-9252.574275,19023.292709
243.419511,-6588.421283,-7105.977043,16728.654289
243.419819,-2221.676944,-3923.091493,12953.603985
243.420127,2145.067394,-444.123565,9400.615463
243.420435,4749.792088,2590.720797,4663.297435
243.420743,8503.660028,5773.606348,2960.823768
243.421051,8963.317327,8216.285956,2294.638420
243.421359,9499.584175,9696.697840,888.247130
243.421667,7814.174080,8660.409521,2368.659014
243.421975,4749.792088,5625.565159,5255.462188
243.422283,995.924147,2368.659014,9400.615463
243.422591,-2221.676944,-1850.514855,13545.768739
243.422899,-6281.983084,-5995.668130,17172.777854
243.423207,-9499.584175,-9696.697840,18801.230927
243.423515,-10955.165621,-10140.821405,19393.395680
243.423823,-8350.440928,-8512.368333,19763.498651
243.424131,-3907.087040,-5403.503377,15470.304188
243.424439,0.000000,-1036.288319,10066.800811
243.424747,4366.744339,1776.494261,6365.771101
243.425055,7354.516781,5329.482782,2960.823768
243.425363,8810.098227,7550.100608,1480.411884
243.425671,9882.631924,9696.697840,1036.288319
243.425979,9729.412825,9548.656652,740.205942
243.426287,6894.859482,8438.347739,2294.638420
243.426595,3677.258390,4145.153275,6439.791695
243.426903,0.000000,370.102971,10214.842000
243.427211,-4213.525239,-3627.009116,14211.954086
243.427519,-7431.126331,-7105.977043,17024.736666
243.427827,-9576.193725,-9326.594869,18283.086767
243.428135,-9346.365076,-7994.224174,19171.333898
243.428443,-5515.887586,-6957.935855,16654.633695
243.428751,-1378.971896,-2886.803174,11843.295072
243.429059,2374.896044,-0.000000,8290.306550
243.429367,5745.716235,3256.906145,4811.338623
243.429675,7967.393179,6069.688724,3478.967927
243.429983,8503.660028,7920.203579,2220.617826
243.430291,8886.707777,9252.574275,1332.370696
243.430599,6818.249932,8586.388927,3182.885551
243.430907,4519.963438,4737.318029,6513.812290
243.431215,459.657299,1110.308913,10140.821405
243.431523,-2604.724693,-2072.576638,13841.851115
243.431831,-6588.421283,-6291.750507,16580.613101
243.432139,-9959.241474,-9770.718434,18505.148550
243.432447,-9729.412825,-10362.883188,19911.539840
243.432755,-7967.393179,-8438.347739,18431.127956
243.433063,-2834.553343,-4885.359217,14137.933492
243.433371,842.705048,-1258.350101,9696.697840
243.433679,4519.963438,1924.535449,5255.462188
243.433987,7354.516781,5181.441594,3182.885551
243.434295,9116.536426,7476.080014,1924.535449
243.434603,9959.241474,9178.553681,222.061783
243.434911,9269.755526,9178.553681,1036.288319
243.435219,5822.325785,7105.977043,2664.741391
243.435527,3524.039291,3256.906145,6587.832884
243.435835,-536.266849,-0.000000,10510.924376
243.436143,-4673.182538,-3849.070898,14211.954086
243.436451,-8197.221829,-7772.162391,16802.674883
243.436759,-10189.070123,-9474.636058,18061.024985
243.437067,-8120.612279,-8586.388927,18949.272115
243.437375,-4979.620737,-6143.709319,15544.324782
243.437683,-1072.533697,-2516.700203,11251.130318
243.437991,2757.943793,148.041188,7772.162391
243.438299,6128.763984,4071.132681,4367.215058
243.438607,8427.050478,6587.832884,3034.844362
243.438915,9193.145976,8512.368333,1184.329507
243.439223,9499.584175,9252.574275,1036.288319
243.439531,7431.126331,7994.224174,3256.906145
243.439839,3830.477490,4441.235652,6883.915261
243.440147,0.000000,444.123565,11029.068536
243.440455,-2911.162892,-3108.864956,14582.057057
243.440763,-7354.516781,-7179.997637,17172.777854
243.441071,-10035.851024,-10140.821405,19393.395680
243.441379,-10035.851024,-9696.697840,20059.581028
243.441687,-7277.907231,-7920.203579,18653.189738
243.441995,-3217.601092,-4071.132681,13619.789333
243.442303,995.924147,-518.144159,9474.636058
243.442611,5592.497135,2146.597232,5921.647536
243.442919,8427.050478,5995.668130,2294.638420
243.443227,9039.926876,8438.347739,1258.350101
243.443535,10418.898773,9622.677246,518.144159
243.443843,8656.879127,9474.636058,888.247130
243.444151,6128.763984,7254.018232,3552.988522
243.444459,2681.334243,3478.967927,7179.997637
243.444767,-306.438199,-0.000000,11251.130318
243.445075,-5286.058936,-4589.276840,15396.283594
243.445383,-7967.393179,-8142.265362,17616.901420
243.445691,-9806.022374,-9178.553681,18727.210333
243.445999,-8656.879127,-7624.121203,18357.107362
243.446307,-4213.525239,-5329.482782,15692.365970
243.446615,-306.438199,-1480.411884,10881.027347
243.446923,3830.477490,1110.308913,7105.977043
243.447231,6971.469032,4589.276840,4293.194464
243.447539,8810.098227,6957.935855,2220.617826
243.447847,9652.803275,8808.450710,1036.288319
243.448155,8886.707777,9326.594869,1406.391290
243.448463,6741.640382,7846.182985,3404.947333
243.448771,2911.162892,3775.050304,7402.059420
243.449079,-306.438199,-0.000000,11769.274478
243.449387,-4213.525239,-3552.988522,14804.118840
243.449695,-7660.954980,-8364.327145,17542.880825
243.450003,-10189.070123,-10807.006753,19097.313304
243.450311,-9806.022374,-10510.924376,19541.436869
243.450619,-6435.202183,-7920.203579,17542.880825
243.450927,-2451.505594,-3552.988522,12065.356855
243.451235,2757.943793,-370.102971,8882.471304
243.451543,5745.716235,2812.782580,4293.194464
243.451851,8810.098227,6291.750507,2146.597232
243.452159,9499.584175,7846.182985,1258.350101
243.452467,10801.946522,9696.697840,-296.082377
243.452775,8963.317327,9400.615463,1110.308913
243.453083,5822.325785,6365.771101,3330.926739
243.453391,2145.067394,2220.617826,8068.244768
243.453699,-1532.190996,-1258.350101,11917.315666
243.454007,-6052.154434,-5033.400406,14804.118840
243.454315,-9652.803275,-8734.430116,17394.839637
243.454623,-9959.241474,-9474.636058,18801.230927
243.454931,-8120.612279,-8068.244768,18431.127956
243.455239,-4213.525239,-4663.297435,14211.954086
243.455547,0.000000,-1406.391290,9844.739029
243.455855,3830.477490,1480.411884,6883.915261
243.456163,6665.030833,4811.338623,3478.967927
243.456471,8197.221829,6957.935855,2590.720797
243.456779,9729.412825,8660.409521,1036.288319
243.457087,8580.269578,8438.347739,1480.411884
243.457395,5745.716235,6883.915261,4293.194464
243.457703,2604.724693,2812.782580,8068.244768
243.458011,-1302.362347,-666.185348,12065.356855
243.458319,-4673.182538,-4737.318029,15840.407159
243.458627,-8580.269578,-8586.388927,17912.983796
243.458935,-10418.898773,-10510.924376,19393.395680
243.459243,-9806.022374,-10140.821405,19023.292709
243.459551,-5898.935335,-6883.915261,17246.798449
243.459859,-1685.410096,-2590.720797,11917.315666
243.460167,3447.429741,222.061783,8290.306550
243.460475,6052.154434,3849.070898,3627.009116
243.460783,8656.879127,6513.812290,2294.638420
243.461091,9652.803275,8512.368333,1480.411884
243.461399,10035.851024,9696.697840,1258.350101
243.461707,8197.221829,9104.533087,2146.597232
243.462015,5132.839837,5625.565159,4959.379811
243.462323,1532.190996,1850.514855,8734.430116
243.462631,-2068.457845,-1776.494261,13101.645173
243.462939,-6128.763984,-5477.523971,16210.510130
243.463247,-8656.879127,-8290.306550,17838.963202
243.463555,-10189.070123,-8586.388927,18875.251521
243.463863,-7660.954980,-7328.038826,18801.230927
243.464171,-3217.601092,-3701.029710,13915.871710
243.464479,842.705048,-444.123565,10584.944971
243.464787,4673.182538,2294.638420,5847.626942
243.465095,7201.297681,6291.750507,3108.864956
243.465403,8733.488677,7476.080014,3849.070898
243.465711,9422.974625,9770.718434,1332.370696
243.466019,8273.831378,9104.533087,2072.576638
243.466327,4903.011187,6883.915261,5107.421000
243.466635,1378.971896,1850.514855,9548.656652
243.466943,-2221.676944,-1110.308913,13767.830521
243.467251,-6128.763984,-5181.441594,16580.613101
243.467559,-9269.755526,-9400.615463,18949.272115
243.467867,-10801.946522,-9770.718434,19393.395680
243.468175,-9806.022374,-9030.512492,19319.375086
243.468483,-4826.401637,-5773.606348,16136.489536
243.468791,76.609550,-1702.473667,10658.965565
243.469099,3064.381992,1332.370696,6143.709319
243.469407,7660.954980,4367.215058,3627.009116
243.469715,9193.145976,6587.832884,2368.659014
243.470023,9346.365076,8734.430116,814.226536
243.470331,10112.460574,9622.677246,740.205942
243.470639,7124.688131,7920.203579,1850.514855
243.470947,4136.915689,3775.050304,5773.606348
243.471255,612.876398,666.185348,9030.512492
243.471563,-2604.724693,-2960.823768,13471.748144
243.471871,-7431.126331,-7328.038826,16136.489536
243.472179,-8886.707777,-9326.594869,16876.695478
243.472487,-9652.803275,-8586.388927,18801.230927
243.472795,-5669.106685,-7254.018232,17172.777854
243.473103,-1838.629195,-2590.720797,11473.192101
243.473411,2221.676944,-0.000000,7994.224174
243.473719,5592.497135,2368.659014,4959.379811
243.474027,7584.345430,6143.709319,3108.864956
243.474336,8044.002729,7254.018232,2664.741391
243.474644,9422.974625,8734.430116,1480.411884
243.474952,7507.735880,8216.285956,1702.473667
243.475260,4519.963438,5551.544565,5403.503377
243.475568,1302.362347,1258.350101,9326.594869
243.475876,-2221.676944,-1776.494261,12731.542202
243.476184,-6205.373534,-5995.668130,16358.551318
243.476492,-9116.536426,-9326.594869,18801.230927
243.476800,-10648.727422,-10140.821405,18801.230927
243.477108,-8273.831378,-8882.471304,18949.272115
243.477416,-3217.601092,-5181.441594,14137.933492
243.477724,689.485948,-1332.370696,9548.656652
243.478032,3830.477490,1332.370696,5847.626942
243.478340,7431.126331,4885.359217,2812.782580
243.478648,8886.707777,7031.956449,2368.659014
243.478956,9576.193725,8364.327145,1184.329507
243.479264,9116.536426,9104.533087,592.164754
243.479572,6052.154434,7105.977043,3701.029710
243.479880,3064.381992,3330.926739,6661.853478
243.480188,-612.876398,592.164754,9548.656652
243.480496,-3983.696590,-3034.844362,13915.871710
243.480804,-7354.516781,-6661.853478,16802.674883
243.481112,-9499.584175,-7994.224174,17616.901420
243.481420,-8580.269578,-8068.244768,18801.230927
243.481728,-5439.278036,-5773.606348,16506.592507
243.482036,-1302.362347,-2294.638420,11473.192101
243.482344,2221.676944,370.102971,8586.388927
243.482652,5669.106685,3775.050304,5477.523971
243.482960,7507.735880,5847.626942,3849.070898
