#time,accel_x,accel_y,accel_z
750.693921,-38.285162,-861.416136,-9571.290400
750.696587,-57.427742,-918.843878,-9686.145885
750.699253,-76.570323,-918.843878,-9686.145885
750.701919,-172.283227,-880.558717,-9628.718142
750.704585,-114.855485,-880.558717,-9647.860723
750.707251,-133.998066,-861.416136,-9686.145885
750.709916,-57.427742,-823.130974,-9609.575562
750.712582,-76.570323,-918.843878,-9571.290400
750.715248,-133.998066,-861.416136,-9686.145885
750.717914,-76.570323,-918.843878,-9609.575562
750.720580,-57.427742,-899.701298,-9686.145885
750.723246,-38.285162,-861.416136,-9743.573627
750.725911,-76.570323,-899.701298,-9552.147819
750.728577,-76.570323,-937.986459,-9667.003304
750.731243,-76.570323,-861.416136,-9762.716208
750.733909,-95.712904,-861.416136,-9552.147819
750.736575,76.570323,-1263.410333,-9169.296203
750.739241,-57.427742,-1282.552914,-9609.575562
750.741906,210.568389,-1684.547110,-9590.432981
750.744572,-172.283227,-3120.240670,-8843.872330
750.747238,-535.992262,-5417.350366,-10241.280728
750.749904,210.568389,-10107.282662,-8614.161360
750.752570,-574.277424,-9934.999435,-11294.122672
750.755236,-38.285162,-9092.725880,-9418.149754
750.757901,459.421939,-5302.494882,-5130.211654
750.760567,-344.566454,1263.410333,-12653.245909
750.763233,287.138712,2354.537438,-9016.155557
750.765899,-631.705166,1091.127106,-7408.178770
750.768509,421.136778,-5034.498750,-10662.417506
750.771119,727.418070,-5685.346498,-9150.153622
750.773729,-1282.552914,-6374.479406,-11600.403965
750.776339,-0.000000,-7216.752962,-7063.612315
750.778949,593.420005,-57.427742,-10892.128475
750.781558,-1435.693560,4287.938099,-11121.839445
750.784168,478.564520,2986.242605,-7082.754896
750.786778,344.566454,5015.356170,-9188.438784
750.789388,-995.414202,2124.826469,-11830.114934
750.791998,478.564520,-4651.647134,-8346.165229
750.794608,-1071.984525,-4096.512291,-7369.893608
750.797218,861.416136,-6604.190376,-13093.525267
750.799828,-516.849682,-4287.938099,-7714.460062
750.802438,-497.707101,2526.820666,-10317.851051
750.805048,133.998066,3120.240670,-11638.689126
750.807658,-535.992262,2220.539373,-5934.200048
750.810268,899.701298,3139.383251,-10815.558152
750.812878,-957.129040,-19.142581,-10968.698798
750.815488,-516.849682,-4536.791650,-8001.598774
750.818097,1416.550979,-5130.211654,-7446.463931
750.820707,-2277.967115,-4498.506488,-14854.642701
750.823317,401.994197,-3273.381317,-7408.178770
750.825927,76.570323,2086.541307,-9896.714274
750.828537,-497.707101,1914.258080,-9896.714274
750.831147,497.707101,2143.969050,-10432.706536
750.833757,19.142581,3598.805190,-8346.165229
750.836367,-114.855485,-1512.263883,-12461.820101
750.838977,-765.703232,-4977.071008,-6814.758765
750.841587,191.425808,-3158.525832,-8920.442653
750.844197,-267.996131,-4804.787781,-13476.376883
750.846807,76.570323,-1550.549045,-7714.460062
750.849417,669.990328,3158.525832,-8059.026517
750.852027,-2029.113565,1512.263883,-12136.396227
750.854636,1703.689691,-267.996131,-9303.294269
750.857246,-229.710970,2411.965181,-6163.911018
750.859856,-1416.550979,-2737.389054,-12136.396227
750.862466,995.414202,-4421.936165,-11045.269122
750.865076,-689.132909,-1493.121302,-5819.344563
750.867686,76.570323,-3885.943902,-11236.694930
750.870296,-0.000000,-401.994197,-12768.101394
750.872878,-401.994197,2105.683888,-9054.440718
750.875460,3426.521963,-2182.254211,-12423.534939
750.878043,-5800.201982,4498.506488,-8556.733618
750.880625,3637.090352,38.285162,-4957.928427
750.883207,-1339.980656,-3369.094221,-15026.925928
750.885789,-1856.830338,-1741.974853,-8958.727814
750.888372,2928.814862,-3809.373579,-7484.749093
750.890954,-2201.396792,-1971.685822,-10375.278794
750.893536,325.423874,-708.275490,-12557.533005
750.896118,593.420005,669.990328,-5857.629725
750.898700,-918.843878,-306.281293,-10049.854920
750.901283,861.416136,1225.125171,-12251.251712
750.903865,-669.990328,899.701298,-6451.049730
750.906447,-344.566454,-3541.377448,-10413.563955
750.909029,574.277424,-1856.830338,-11676.974288
750.911611,-574.277424,-823.130974,-6604.190376
750.914194,401.994197,-3369.094221,-11504.691061
750.916776,-1607.976787,440.279358,-7925.028451
750.919358,1186.840010,-2086.541307,-11064.411702
750.921940,2124.826469,-4900.500685,-9494.720077
750.924523,-746.560651,3311.666478,-7944.171032
750.927105,-3139.383251,4134.797453,-10643.274925
750.929687,3024.527766,-3656.232933,-8901.300072
750.932269,-823.130974,1186.840010,-8824.729749
750.934851,1225.125171,-2737.389054,-13380.663979
750.937434,-1244.267752,-3235.096155,-6604.190376
750.940016,-2124.826469,1225.125171,-11083.554283
750.942598,2469.392923,-5627.918755,-7829.315547
750.945180,-0.000000,-2852.244539,-11772.687192
750.947762,-1512.263883,1378.265818,-8709.874264
750.950345,612.562586,-2641.676150,-11026.126541
750.952927,-1052.841944,153.140646,-5972.485210
750.955493,1205.982590,1378.265818,-13227.523333
750.958059,-842.273555,267.996131,-9035.298138
750.960625,95.712904,-3215.953574,-6604.190376
750.963191,191.425808,-1454.836141,-12614.960747
750.965757,-210.568389,-2947.957443,-9647.860723
750.968324,-267.996131,-2469.392923,-8078.169098
750.970890,229.710970,-19.142581,-10336.993632
750.973456,-459.421939,-1052.841944,-10317.851051
750.976022,-267.996131,401.994197,-8441.878133
750.978588,-229.710970,2143.969050,-10298.708470
750.981154,497.707101,-1856.830338,-11542.976222
750.983720,229.710970,-459.421939,-6910.471669
750.986286,-0.000000,-574.277424,-9839.286531
750.988852,-210.568389,-3311.666478,-12729.816232
750.991418,287.138712,-2450.250342,-3483.949706
750.993985,191.425808,-76.570323,-13361.521398
750.996551,-1435.693560,-727.418070,-11370.692995
750.999117,-478.564520,1493.121302,-6278.766502
751.001683,2124.826469,-574.277424,-10279.565890
751.004249,-1550.549045,-2411.965181,-12232.109131
751.006815,593.420005,-1225.125171,-6278.766502
751.009381,76.570323,-1378.265818,-11179.267187
751.011947,-114.855485,-4192.225195,-10145.567824
751.014513,287.138712,-19.142581,-8039.883936
751.017080,-1741.974853,2143.969050,-10566.704602
751.019646,1780.260014,-2584.248408,-10068.997501
751.022212,-842.273555,2316.252277,-7982.456194
751.024778,-382.851616,114.855485,-11619.546546
751.027344,229.710970,-3196.810994,-8441.878133
751.029910,-899.701298,-1129.412267,-7216.752962
751.032476,516.849682,-2239.681954,-12806.386555
751.035042,-1665.404530,-2756.531635,-7542.176835
751.037608,1301.695494,-497.707101,-10049.854920
751.040175,76.570323,1588.834206,-13189.238171
751.042741,-1205.982590,1339.980656,-5570.491013
751.045307,765.703232,1205.982590,-9379.864592
751.047873,689.132909,-2373.680019,-12691.531070
751.050439,-1263.410333,-3713.660675,-6010.770371
751.053005,516.849682,-2297.109696,-10432.706536
751.055571,-727.418070,-2890.529701,-11313.265253
751.057926,995.414202,-2890.529701,-7101.897477
751.060283,-478.564520,3139.383251,-12117.253646
751.062641,-344.566454,2392.822600,-8901.300072
751.064998,1167.697429,-1837.687757,-7197.610381
751.067356,-1493.121302,1454.836141,-11217.552349
751.069713,880.558717,-2584.248408,-11906.685258
751.072071,-363.709035,-4575.076811,-5168.496816
751.074428,-918.843878,-1186.840010,-13572.089787
751.076786,1033.699363,-2852.244539,-9322.436850
751.079144,-1933.400661,-76.570323,-5570.491013
751.081501,4115.654872,555.134843,-18396.020149
751.083859,-3905.086483,4134.797453,-2967.100024
751.086216,1818.545176,574.277424,-5417.350366
751.088574,-784.845813,-38.285162,-18357.734987
751.090931,-1244.267752,-4441.078746,-4938.785846
751.093289,1856.830338,-5953.342629,-6872.186507
751.095646,-2105.683888,-1416.550979,-17381.463366
751.098004,1244.267752,-1761.117434,-3464.807125
751.100361,1071.984525,-1741.974853,-8614.161360
751.102719,-2258.824534,5111.069074,-17438.891109
751.105076,650.847747,1607.976787,-1875.972918
751.107434,803.988394,-1091.127106,-10509.276859
751.109792,-1473.978722,937.986459,-14012.369146
751.112149,1129.412267,-4996.213589,-5704.489078
751.114507,-382.851616,-3503.092286,-9111.868461
751.116864,-1014.556782,-1301.695494,-14624.931731
751.119222,823.130974,-3292.523898,-4058.227130
751.121579,-1014.556782,708.275490,-11791.829773
751.123937,2182.254211,1091.127106,-14720.644635
751.126294,-1684.547110,1569.691626,-3369.094221
751.128652,1416.550979,1205.982590,-10183.852986
751.131009,-114.855485,-918.843878,-13036.097525
751.133367,-229.710970,-4077.369710,-5513.063270
751.135725,1473.978722,-4689.932296,-9705.288466
751.138082,-2163.111630,-38.285162,-13629.517530
751.140440,1301.695494,-3924.229064,-5321.637462
751.142797,344.566454,95.712904,-9169.296203
751.145155,-1378.265818,3235.096155,-15199.209155
751.147512,401.994197,114.855485,-4058.227130
751.149870,669.990328,995.414202,-10700.702667
751.152301,-1397.408398,784.845813,-12346.964616
751.154733,1339.980656,-5264.209720,-6278.766502
751.157164,-823.130974,-1550.549045,-9801.001370
751.159596,-191.425808,-3101.098090,-13495.519464
751.162027,248.853550,-3388.236802,-4536.791650
751.164459,-210.568389,1014.556782,-14644.074312
751.166890,574.277424,574.277424,-9762.716208
751.169321,-267.996131,-191.425808,-5895.914886
751.171753,497.707101,440.279358,-14222.937534
751.174184,-2182.254211,2239.681954,-9016.155557
751.176616,2603.390989,-5742.774240,-4900.500685
751.179047,-842.273555,-3139.383251,-15735.201418
751.181479,-899.701298,-2182.254211,-8173.882002
751.183910,1684.547110,-4039.084549,-5761.916821
751.186342,-153.140646,535.992262,-14146.367211
751.188773,-363.709035,2048.256146,-9111.868461
751.191205,-1148.554848,2009.970984,-4843.072942
751.193636,1952.543242,1014.556782,-14854.642701
751.196068,-2411.965181,-95.712904,-7255.038123
751.198499,1148.554848,-4326.223261,-7810.172966
751.200931,-516.849682,-2909.672282,-11523.833642
751.203362,-612.562586,-2105.683888,-12136.396227
751.205793,1607.976787,-2469.392923,-2297.109696
751.208225,-1320.838075,3215.953574,-14758.929797
751.210656,-76.570323,1416.550979,-11772.687192
751.213088,689.132909,-57.427742,-1205.982590
751.215519,-918.843878,1531.406464,-15888.342064
751.217951,-765.703232,-1895.115499,-11523.833642
751.220382,1493.121302,-3503.092286,-2622.533570
751.222814,-650.847747,-2316.252277,-13801.800757
751.225245,-803.988394,-4134.797453,-11696.116869
751.227677,918.843878,-1052.841944,-4632.504554
751.230108,497.707101,-440.279358,-12787.243974
751.232540,478.564520,-612.562586,-11351.550414
751.234971,-4211.367776,5991.627790,-4881.358104
751.237403,4192.225195,-1588.834206,-10356.136213
751.239834,-4441.078746,153.140646,-9303.294269
751.242266,3426.521963,-5608.776174,-5168.496816
751.244697,-1205.982590,-823.130974,-12212.966550
751.247128,-114.855485,-2986.242605,-12002.398162
751.249604,765.703232,-459.421939,-5857.629725
751.252079,-1052.841944,2067.398726,-12136.396227
751.254555,612.562586,-2182.254211,-10260.423309
751.257030,-76.570323,1071.984525,-6604.190376
751.259506,-114.855485,95.712904,-12212.966550
751.261981,-1225.125171,-2354.537438,-9418.149754
751.264456,1129.412267,-995.414202,-8193.024582
751.266932,727.418070,-2545.963246,-10604.989763
751.269407,-2660.818731,-2163.111630,-9820.143950
751.271883,2277.967115,-861.416136,-9475.577496
751.274358,-555.134843,267.996131,-11523.833642
751.276833,-669.990328,-937.986459,-10930.413637
751.279309,-440.279358,2890.529701,-6470.192310
751.281784,421.136778,1627.119368,-11274.980091
751.284260,57.427742,-2335.394858,-9226.723946
751.286735,-708.275490,-746.560651,-10777.272990
751.289211,612.562586,-2048.256146,-7695.317482
751.291686,210.568389,-4555.934230,-10375.278794
751.294161,-2124.826469,708.275490,-12729.816232
751.296637,1895.115499,-2411.965181,-6853.043926
751.299112,-1052.841944,-478.564520,-9226.723946
751.301588,-95.712904,2373.680019,-13323.236237
751.304063,267.996131,-306.281293,-6374.479406
751.306538,-1416.550979,-325.423874,-10317.851051
751.309014,1397.408398,-1129.412267,-9877.571693
751.311489,-1473.978722,-1263.410333,-11983.255581
751.313965,612.562586,-4211.367776,-8269.594906
751.316440,95.712904,-19.142581,-10375.278794
751.318916,-516.849682,-38.285162,-10088.140082
751.321391,191.425808,-1110.269686,-8097.311678
751.323866,-1454.836141,1837.687757,-9513.862658
751.326342,57.427742,-1282.552914,-9801.001370
751.328817,-516.849682,-2603.390989,-13533.804626
751.331293,2277.967115,784.845813,-5091.926493
751.333768,267.996131,-1818.545176,-7006.184573
751.336243,-2143.969050,-631.705166,-17630.316917
751.338719,1454.836141,-229.710970,-5666.203917
751.341194,172.283227,-2545.963246,-5111.069074
751.343670,-899.701298,-976.271621,-18568.303376
751.346145,727.418070,-440.279358,-5570.491013
751.348522,842.273555,-2794.816797,-9265.009107
751.350899,-2737.389054,133.998066,-16960.326589
751.353275,267.996131,2660.818731,-3943.371645
751.355652,3426.521963,-3254.238736,-6948.756830
751.358029,-4173.082614,957.129040,-16768.900781
751.360406,1550.549045,-114.855485,-8078.169098
751.362782,1588.834206,-4249.652938,-2143.969050
751.365159,-3120.240670,-574.277424,-19965.711774
751.367536,1761.117434,-976.271621,-6872.186507
751.369913,248.853550,-2737.389054,-1990.828403
751.372289,-1761.117434,669.990328,-19468.004674
751.374666,1244.267752,76.570323,-8901.300072
751.377043,401.994197,-1761.117434,-440.279358
751.379420,-1071.984525,593.420005,-19755.143386
751.381796,-57.427742,-593.420005,-6929.614250
751.384173,765.703232,-3771.088418,-4211.367776
751.386550,-1129.412267,-1320.838075,-18262.022083
751.388927,-191.425808,325.423874,-6814.758765
751.391303,2086.541307,-4153.940034,-2335.394858
751.393680,-1435.693560,727.418070,-18989.440154
751.396057,-2852.244539,3120.240670,-9762.716208
751.398434,4555.934230,-4211.367776,-650.847747
751.400811,-2450.250342,1167.697429,-16692.330458
751.403187,-1397.408398,535.992262,-12557.533005
751.405564,3522.234867,-5091.926493,689.132909
751.407941,-2469.392923,669.990328,-16405.191746
751.410318,-593.420005,-1205.982590,-13284.951075
751.412694,2067.398726,-3235.096155,-1569.691626
751.415071,-1282.552914,727.418070,-11657.831707
751.417448,191.425808,-325.423874,-15294.922059
751.419825,1225.125171,-2833.101958,-478.564520
751.422201,-57.427742,669.990328,-12500.105262
751.424578,-1741.974853,976.271621,-16079.767872
751.426955,1493.121302,-3101.098090,-248.853550
751.429332,153.140646,-172.283227,-12500.105262
751.431708,-1837.687757,-76.570323,-15237.494317
751.434085,2450.250342,-4651.647134,-1397.408398
751.436462,689.132909,-765.703232,-11562.118803
751.438839,-5532.205851,2411.965181,-16539.189811
751.441215,3349.951640,-2603.390989,-2603.390989
751.443656,803.988394,574.277424,-9150.153622
751.446096,-1588.834206,191.425808,-16366.906584
751.448536,1722.832272,-803.988394,-5953.342629
751.450977,-2603.390989,2124.826469,-4364.508422
751.453417,1263.410333,-4498.506488,-18070.596275
751.455857,-2067.398726,-2469.392923,-5934.200048
751.458298,1761.117434,-2048.256146,-6068.198114
751.460738,-1933.400661,-1665.404530,-17017.754331
751.463179,1263.410333,-267.996131,-3790.230998
751.465619,133.998066,2622.533570,-10317.851051
751.468059,-1244.267752,0.000000,-13572.089787
751.470500,1033.699363,-669.990328,-4019.941968
751.472940,-2239.681954,2163.111630,-12653.245909
751.475380,-478.564520,-4134.797453,-11083.554283
751.477821,2718.246474,-5321.637462,-5149.354235
751.480261,-1914.258080,-995.414202,-13246.665914
751.482701,1129.412267,-3560.520029,-7350.751027
751.485142,-823.130974,2201.396792,-9188.438784
751.487582,1052.841944,574.277424,-13878.371080
751.490022,-153.140646,421.136778,-7082.754896
751.492463,-823.130974,1493.121302,-10202.995566
751.494903,650.847747,0.000000,-10030.712339
751.497343,-1110.269686,-3235.096155,-7178.467800
751.499784,19.142581,-3407.379382,-12040.683323
751.502224,-153.140646,-2182.254211,-10222.138147
751.504664,-287.138712,-2909.672282,-7369.893608
751.507105,823.130974,-38.285162,-10911.271056
751.509545,-1205.982590,1627.119368,-11332.407834
751.511986,535.992262,-823.130974,-4843.072942
751.514426,-172.283227,1416.550979,-12040.683323
751.516866,-1435.693560,1263.410333,-13380.663979
751.519307,1512.263883,-2833.101958,-4919.643266
751.521747,803.988394,-1091.127106,-9322.436850
751.524187,-1895.115499,-1493.121302,-14778.072378
751.526628,1895.115499,-5149.354235,-3637.090352
751.529068,-1378.265818,669.990328,-10145.567824
751.531508,1244.267752,-1990.828403,-15007.783347
751.533949,1091.127106,-1244.267752,-1205.982590
751.536389,-4804.787781,6891.329088,-15696.916256
751.538829,3866.801322,-650.847747,-9035.298138
751.541312,-2507.678085,-803.988394,-6451.049730
751.543794,114.855485,-1052.841944,-12882.956878
751.546276,669.990328,-4575.076811,-9418.149754
751.548758,-593.420005,-4058.227130,-7216.752962
751.551240,95.712904,-1454.836141,-12672.388490
751.553723,-1110.269686,-1225.125171,-8499.305875
751.556205,1167.697429,363.709035,-8346.165229
751.558687,210.568389,3943.371645,-13629.517530
751.561169,-1473.978722,3637.090352,-9513.862658
751.563651,2220.539373,-4670.789715,-7523.034254
751.566133,-1473.978722,-1148.554848,-12270.394293
751.568616,555.134843,-4996.213589,-7216.752962
751.571098,-689.132909,-4900.500685,-11504.691061
751.573580,76.570323,-631.705166,-10049.854920
751.576062,57.427742,-1703.689691,-7982.456194
751.578544,-593.420005,2488.535504,-11408.978157
751.581027,535.992262,4613.361973,-9571.290400
751.583509,-555.134843,-153.140646,-8518.448456
751.585991,535.992262,-1550.549045,-9839.286531
751.588473,-497.707101,-555.134843,-10432.706536
751.590955,95.712904,-5493.920690,-7791.030386
751.593438,-421.136778,-3158.525832,-11504.691061
751.595920,-765.703232,-382.851616,-9245.866526
751.598402,727.418070,-669.990328,-11064.411702
751.600884,19.142581,765.703232,-5264.209720
751.603366,-516.849682,2833.101958,-12404.392358
751.605849,-325.423874,-1780.260014,-10834.700733
751.608331,287.138712,-1435.693560,-5647.061336
751.610813,842.273555,-1665.404530,-12117.253646
751.613295,-631.705166,-3751.945837,-9820.143950
751.615777,38.285162,-1052.841944,-8212.167163
751.618260,574.277424,-1033.699363,-10777.272990
751.620742,401.994197,-2699.103893,-8020.741355
751.623224,-2622.533570,3235.096155,-12748.958813
751.625706,2182.254211,363.709035,-8403.592971
751.628188,-1263.410333,-1148.554848,-7369.893608
751.630670,-191.425808,440.279358,-12098.111066
751.633153,-267.996131,-1320.838075,-10872.985894
751.635635,-382.851616,-3560.520029,-8097.311678
751.638117,363.709035,-2354.537438,-10566.704602
751.640630,-306.281293,-631.705166,-10834.700733
751.643144,-0.000000,-2871.387120,-6757.331022
751.645657,-516.849682,440.279358,-10758.130410
751.648170,708.275490,401.994197,-13820.943338
751.650683,95.712904,440.279358,-5876.772306
751.653197,-114.855485,2584.248408,-4709.074877
751.655710,363.709035,-2316.252277,-17075.182074
751.658223,-2143.969050,-3158.525832,-6814.758765
751.660736,2105.683888,-3196.810994,-7523.034254
751.663250,-1780.260014,-3464.807125,-12844.671717
751.665763,3062.812928,-4421.936165,-7025.327154
751.668276,-3962.514226,5283.352301,-11925.827838
751.670789,2756.531635,1665.404530,-11332.407834
751.673303,-1110.269686,-114.855485,-6068.198114
751.675816,267.996131,1512.263883,-11562.118803
751.678329,133.998066,-363.709035,-11600.403965
751.680842,-287.138712,-593.420005,-6470.192310
751.683356,-344.566454,1665.404530,-12346.964616
751.685869,114.855485,3235.096155,-10241.280728
751.688382,-669.990328,3579.662610,-7389.036189
751.690895,248.853550,3426.521963,-12997.812363
751.693409,-382.851616,3981.656806,-7350.751027
751.695922,516.849682,3771.088418,-10356.136213
751.698435,-229.710970,1761.117434,-10490.134278
751.700948,-363.709035,765.703232,-8116.454259
751.703462,363.709035,-57.427742,-9513.862658
751.705975,-918.843878,727.418070,-12480.962682
751.708488,459.421939,1263.410333,-8671.589102
751.711001,-229.710970,2143.969050,-9513.862658
751.713515,-0.000000,-1186.840010,-10700.702667
751.716028,-937.986459,-19.142581,-9743.573627
751.718541,363.709035,-19.142581,-9073.583299
751.721055,57.427742,899.701298,-10317.851051
751.723568,-38.285162,5608.776174,-9265.009107
751.726081,19.142581,7848.458128,-9226.723946
751.728594,325.423874,10241.280728,-11045.269122
751.731108,19.142581,7044.469734,-8384.450390
751.733621,-516.849682,957.129040,-11026.126541
751.736134,95.712904,-3215.953574,-9188.438784
751.738647,-650.847747,-2411.965181,-8671.589102
751.741181,401.994197,-4689.932296,-11332.407834
751.743715,306.281293,421.136778,-7389.036189
751.746249,-363.709035,3254.238736,-7791.030386
751.748783,-325.423874,4153.940034,-12480.962682
751.751317,344.566454,4153.940034,-9073.583299
751.753851,-2124.826469,-440.279358,-7216.752962
751.756385,2545.963246,-6910.471669,-12442.677520
751.758919,-880.558717,-2143.969050,-9513.862658
751.761452,-1320.838075,-4039.084549,-6336.194245
751.763986,1665.404530,-6278.766502,-13533.804626
751.766520,-2545.963246,4881.358104,-9035.298138
751.769054,1531.406464,1435.693560,-9954.142016
751.771588,-306.281293,2488.535504,-7810.172966
751.774122,-0.000000,1933.400661,-7810.172966
751.776656,1244.267752,-4479.363907,-15926.627226
751.779190,-2411.965181,-1722.832272,-4364.508422
751.781724,2163.111630,-4421.936165,-12040.683323
751.784258,-2373.680019,-1952.543242,-14031.511726
751.786792,1359.123237,-1722.832272,-3579.662610
751.789325,57.427742,2411.965181,-11676.974288
751.791859,-1703.689691,1646.261949,-12232.109131
751.794393,1473.978722,133.998066,-5972.485210
751.796927,-727.418070,1722.832272,-9743.573627
751.799461,-2201.396792,-2545.963246,-11964.113000
751.801995,3081.955509,-5283.352301,-8575.876198
751.804529,-1952.543242,229.710970,-8001.598774
751.807063,459.421939,-4039.084549,-12538.390424
751.809597,-267.996131,19.142581,-8193.024582
751.812131,-382.851616,1914.258080,-8939.585234
751.814665,957.129040,-1493.121302,-12385.249778
751.817198,-918.843878,2718.246474,-8575.876198
751.819732,133.998066,-248.853550,-12270.394293
751.822266,-899.701298,-3139.383251,-12059.825904
751.824800,229.710970,-1703.689691,-4326.223261
751.827334,861.416136,-1799.402595,-12557.533005
751.829868,-1761.117434,-2584.248408,-12500.105262
751.832402,1416.550979,-555.134843,-4670.789715
751.834936,-382.851616,1818.545176,-11485.548480
751.837470,-1129.412267,-535.992262,-11715.259450
751.840004,803.988394,1263.410333,-7637.889739
751.842550,-382.851616,133.998066,-7791.030386
751.845097,-516.849682,-3139.383251,-12614.960747
751.847644,191.425808,-593.420005,-8633.303941
751.850191,-459.421939,-2143.969050,-7618.747158
751.852738,631.705166,-4689.932296,-13629.517530
751.855285,-995.414202,1493.121302,-8384.450390
751.857832,287.138712,708.275490,-13016.954944
751.860379,-95.712904,-516.849682,-11294.122672
751.862926,555.134843,2277.967115,-5838.487144
751.865472,-2067.398726,555.134843,-8748.159426
751.868019,1071.984525,-4517.649069,-14165.509792
751.870566,-784.845813,-784.845813,-7025.327154
751.873113,38.285162,-3215.953574,-9418.149754
751.875660,325.423874,-4383.651003,-12940.384621
751.878207,-976.271621,1665.404530,-8748.159426
751.880754,1531.406464,-1186.840010,-7350.751027
751.883301,-3120.240670,1627.119368,-12078.968485
751.885848,2584.248408,1741.974853,-12902.099459
751.888394,-842.273555,1167.697429,-842.273555
751.890941,-823.130974,-95.712904,-15620.345933
751.893488,325.423874,-1148.554848,-7389.036189
751.896035,19.142581,-4211.367776,-10279.565890
751.898582,-133.998066,-5283.352301,-11600.403965
751.901129,-19.142581,516.849682,-8461.020714
751.903676,401.994197,-976.271621,-9054.440718
751.906223,-459.421939,287.138712,-10451.849117
751.908770,976.271621,3139.383251,-11600.403965
751.911316,-1952.543242,1110.269686,-3407.379382
751.913863,363.709035,-2545.963246,-16060.625291
751.916410,-19.142581,-669.990328,-9303.294269
751.918957,-229.710970,-3790.230998,-4441.078746
751.921504,631.705166,-4307.080680,-15084.353670
751.924051,-1033.699363,229.710970,-11026.126541
751.926598,937.986459,-2048.256146,-3656.232933
751.929145,-363.709035,765.703232,-14337.793019
751.931691,3177.668413,95.712904,-7044.469734
751.934238,-3637.090352,1665.404530,-6029.912952
751.936785,1493.121302,-3598.805190,-18587.445957
751.939332,-1052.841944,1129.412267,-3177.668413
751.941879,38.285162,-2909.672282,-6240.481341
751.944434,114.855485,-2833.101958,-19295.721446
751.946989,-2545.963246,1646.261949,-7197.610381
751.949544,4058.227130,-4957.928427,-5666.203917
751.952099,-1052.841944,1339.980656,-15180.066574
751.954655,344.566454,3101.098090,-4345.365842
751.957210,-363.709035,-803.988394,-7255.038123
751.959765,-1014.556782,-210.568389,-19219.151123
751.962320,1148.554848,-2699.103893,-2201.396792
751.964875,-248.853550,-4498.506488,-7733.602643
751.967430,-803.988394,-1952.543242,-17726.029821
751.969985,76.570323,535.992262,-4249.652938
751.972540,401.994197,-1397.408398,-9533.005238
751.975095,-1454.836141,1895.115499,-15448.062706
751.977651,-459.421939,3522.234867,-7140.182638
751.980206,555.134843,-325.423874,-6565.905214
751.982761,-1971.685822,1282.552914,-11236.694930
751.985316,3866.801322,-5819.344563,-10796.415571
751.987871,-1454.836141,-5398.207786,-8939.585234
751.990426,-2641.676150,-229.710970,-8231.309744
751.992981,2335.394858,-4077.369710,-13246.665914
751.995536,-287.138712,-861.416136,-8920.442653
751.998091,-765.703232,4536.791650,-6297.909083
752.000646,1148.554848,1052.841944,-13208.380752
752.003202,-1129.412267,1454.836141,-8307.880067
752.005757,421.136778,-248.853550,-8173.882002
752.008312,-1435.693560,-2967.100024,-15907.484645
752.010867,2718.246474,-7829.315547,-2163.111630
752.013422,-1435.693560,-1282.552914,-12308.679454
752.015977,-593.420005,-1473.978722,-15850.056902
752.018532,306.281293,631.705166,-1416.550979
752.021087,-746.560651,4594.219392,-11868.400096
752.023642,689.132909,133.998066,-14261.222696
752.026198,-708.275490,440.279358,-3617.947771
752.028753,669.990328,-1014.556782,-10834.700733
752.031308,-593.420005,-5111.069074,-14663.216893
752.033863,-689.132909,-3005.385186,-3426.521963
752.036418,-248.853550,-1435.693560,-10528.419440
752.038973,803.988394,-4670.789715,-15716.058837
752.041528,-114.855485,1665.404530,-3885.943902
752.044083,-325.423874,3579.662610,-9877.571693
752.046644,-497.707101,842.273555,-12480.962682
752.049205,153.140646,478.564520,-3062.812928
752.051766,612.562586,-708.275490,-12404.392358
752.054327,-1339.980656,-4651.647134,-13055.240106
752.056888,823.130974,-3847.658741,-2545.963246
752.059449,-267.996131,-1110.269686,-13016.954944
752.062010,401.994197,-3866.801322,-13016.954944
752.064571,-363.709035,382.851616,-2411.965181
752.067132,-19.142581,2507.678085,-16098.910453
752.069693,-612.562586,1014.556782,-10413.563955
752.072254,-421.136778,3464.807125,-2163.111630
752.074815,957.129040,-1148.554848,-14395.220762
752.077375,-1052.841944,-3235.096155,-11006.983960
752.079936,593.420005,-2124.826469,-4632.504554
752.082497,-1531.406464,-3694.518094,-13323.236237
752.085058,976.271621,-4039.084549,-7752.745224
752.087619,-1818.545176,2450.250342,-1703.689691
752.090180,1703.689691,1071.984525,-22147.965986
752.092741,-2086.541307,2048.256146,-2794.816797
752.095302,1799.402595,708.275490,-6010.770371
752.097863,-1301.695494,-363.709035,-18032.311114
752.100424,440.279358,-4479.363907,-3981.656806
752.102985,114.855485,-2086.541307,-9590.432981
752.105546,-1167.697429,-2163.111630,-13514.662045
752.108107,918.843878,-4307.080680,-6431.907149
752.110668,-957.129040,2239.681954,-8920.442653
752.113229,-191.425808,995.414202,-13342.378818
752.115789,1091.127106,-287.138712,-5819.344563
752.118350,-1244.267752,3311.666478,-11140.982026
752.120911,1569.691626,-3024.527766,-11562.118803
752.123472,-1320.838075,-3522.234867,-5187.639397
752.126033,-401.994197,-1263.410333,-15046.068509
752.128594,95.712904,-937.986459,-7561.319416
752.131155,535.992262,-2450.250342,-6451.049730
752.133716,-2316.252277,2143.969050,-15180.066574
752.136277,1780.260014,-1359.123237,-8786.444587
752.138838,-842.273555,-995.414202,-3866.801322
752.141399,-0.000000,421.136778,-17649.459498
752.143960,-133.998066,-1167.697429,-5761.916821
752.146521,421.136778,-1914.258080,-6297.909083
752.149084,-650.847747,535.992262,-18836.299507
752.151647,-708.275490,-1129.412267,-4575.076811
752.154210,1110.269686,-1473.978722,-6929.614250
752.156774,-1531.406464,669.990328,-15352.349802
752.159337,746.560651,-3943.371645,-7255.038123
752.161900,-1780.260014,-1933.400661,-6853.043926
752.164464,2373.680019,-1665.404530,-18300.307245
752.167027,-1071.984525,459.421939,-2354.537438
752.169590,344.566454,-650.847747,-8441.878133
752.172153,-38.285162,1320.838075,-18472.590472
752.174717,-210.568389,133.998066,-1359.123237
752.177280,1359.123237,-2143.969050,-9303.294269
752.179843,-2871.387120,57.427742,-16960.326589
752.182407,1895.115499,-5379.065205,-3847.658741
752.184970,-344.566454,-2258.824534,-7542.176835
752.187533,-995.414202,708.275490,-17936.598210
752.190097,1339.980656,-1416.550979,-2431.107762
752.192660,-1148.554848,2450.250342,-9667.003304
752.195223,-57.427742,1244.267752,-17056.039493
752.197786,-76.570323,-650.847747,650.847747
752.200350,650.847747,-3790.230998,-12078.968485
752.202913,-631.705166,-1722.832272,-17534.604013
752.205476,-1588.834206,-2775.674216,823.130974
752.208040,1703.689691,-4460.221326,-12002.398162
752.210603,-1359.123237,1588.834206,-19582.860158
752.213166,1263.410333,880.558717,4977.071008
752.215729,-153.140646,1684.547110,-16405.191746
752.218293,-1359.123237,1741.974853,-15850.056902
752.220856,2086.541307,-2737.389054,2450.250342
752.223419,-765.703232,-1148.554848,-15830.914322
752.225983,-2048.256146,-2986.242605,-13572.089787
752.228546,2392.822600,-6010.770371,-2029.113565
752.231109,-1741.974853,574.277424,-11504.691061
752.233672,593.420005,-1071.984525,-16290.336261
752.236236,-669.990328,1895.115499,76.570323
752.238799,861.416136,842.273555,-12959.527202
752.241362,-1320.838075,1167.697429,-17075.182074
752.243926,363.709035,-1263.410333,2201.396792
752.246489,880.558717,-3158.525832,-12251.251712
752.249052,-1416.550979,-3637.090352,-17534.604013
752.251616,-1205.982590,-3713.660675,-0.000000
752.254180,2469.392923,-2679.961312,-12500.105262
752.256744,-1952.543242,1263.410333,-17324.035624
752.259307,669.990328,1990.828403,2277.967115
752.261871,1512.263883,2182.254211,-14471.791085
752.264435,-2450.250342,861.416136,-14624.931731
752.266999,2086.541307,-2048.256146,-1014.556782
752.269563,19.142581,-1148.554848,-13859.228499
752.272127,-2737.389054,-4173.082614,-11944.970419
752.274690,2469.392923,-6355.336826,-3254.238736
752.277254,-1435.693560,210.568389,-11140.982026
752.279818,-363.709035,-363.709035,-14682.359474
752.282382,669.990328,765.703232,-2947.957443
752.284946,-248.853550,3885.943902,-11140.982026
752.287510,-229.710970,38.285162,-14433.505923
752.290073,-306.281293,-248.853550,-4785.645200
752.292637,746.560651,-1244.267752,-8939.585234
752.295201,229.710970,-6853.043926,-13399.806560
752.297765,1722.832272,-7369.893608,-5091.926493
752.300329,-1397.408398,-937.986459,-12040.683323
752.302893,1301.695494,-2163.111630,-17840.885306
752.305457,-1914.258080,6125.625856,-746.560651
752.308020,650.847747,5245.067139,-8977.870395
752.310584,-957.129040,1301.695494,-18242.879502
752.313148,2163.111630,-2067.398726,-229.710970
752.315712,-478.564520,-3426.521963,-17151.752397
752.318276,-2852.244539,-6948.756830,-9533.005238
752.320840,2967.100024,-7714.460062,-4115.654872
752.323403,-2450.250342,1186.840010,-14395.220762
752.325967,574.277424,-459.421939,-11351.550414
752.328531,325.423874,3924.229064,-2871.387120
752.331095,-497.707101,4728.217458,-14376.078181
752.333659,76.570323,363.709035,-10107.282662
752.336223,-1301.695494,1473.978722,-5187.639397
752.338786,727.418070,-3962.514226,-13820.943338
752.341350,-2258.824534,-5742.774240,-4938.785846
752.343914,1703.689691,-5876.772306,-12155.538808
752.346478,-76.570323,-2699.103893,-12251.251712
752.349042,-1320.838075,899.701298,-4383.651003
752.351606,1091.127106,2737.389054,-12327.822035
752.354170,-1454.836141,5111.069074,-9667.003304
752.356735,555.134843,-516.849682,-7905.885870
752.359299,1091.127106,-1167.697429,-12155.538808
752.361864,-1033.699363,-3330.809059,-7484.749093
752.364428,-306.281293,-8384.450390,-8537.591037
752.366993,210.568389,-3426.521963,-15314.064640
752.369558,-1397.408398,727.418070,-3713.660675
752.372122,1780.260014,-1454.836141,-11906.685258
752.374687,-1378.265818,5838.487144,-13016.954944
752.377251,669.990328,2565.105827,-3445.664544
752.379816,842.273555,-95.712904,-12174.681389
752.382380,-3522.234867,3120.240670,-15754.343998
752.384945,1033.699363,-3828.516160,-3598.805190
752.387510,1244.267752,-6795.616184,-861.416136
752.390074,1818.545176,-7025.327154,-27565.316352
752.392639,-1339.980656,-1301.695494,-5838.487144
752.395203,-2316.252277,2201.396792,7121.040058
752.397768,3656.232933,2277.967115,-22703.100829
752.400333,-2201.396792,6144.768437,-4594.219392
752.402897,861.416136,1378.265818,-957.129040
752.405462,-1052.841944,459.421939,-24942.782782
752.408026,-382.851616,-4268.795518,-3675.375514
752.410591,2660.818731,-6929.614250,-937.986459
752.413155,-3081.955509,-2048.256146,-24330.220197
752.415720,-382.851616,-4498.506488,-5225.924558
752.418285,2067.398726,-2354.537438,-727.418070
752.420849,-1914.258080,4689.932296,-21516.260819
752.423414,497.707101,2143.969050,-6795.616184
752.425978,38.285162,1684.547110,-3981.656806
752.428543,-1378.265818,842.273555,-20195.422744
752.431108,1837.687757,-5493.920690,-4862.215523
752.433672,-1550.549045,-4115.654872,-3617.947771
752.436237,-19.142581,-3062.812928,-21631.116304
752.438801,-1071.984525,-2718.246474,-3943.371645
752.441366,1339.980656,-1148.554848,-5876.772306
752.443930,-19.142581,3541.377448,-19008.582734
752.446495,-1378.265818,3847.658741,-2890.529701
752.449060,2143.969050,382.851616,-6910.471669
752.451624,-2526.820666,823.130974,-17726.029821
752.454189,1799.402595,-6125.625856,-3483.949706
752.456752,612.562586,-4058.227130,-9360.722011
752.459316,-2756.531635,-1569.691626,-15026.925928
752.461879,1780.260014,-5168.496816,-6929.614250
752.464443,-1186.840010,535.992262,-7561.319416
752.467006,191.425808,3254.238736,-17400.605947
752.469570,555.134843,899.701298,-3713.660675
752.472133,-612.562586,1339.980656,-7925.028451
752.474697,497.707101,-1416.550979,-15830.914322
752.477260,937.986459,-4900.500685,-5436.492947
752.479824,-1569.691626,-1722.832272,-8288.737486
752.482387,1263.410333,-3809.373579,-15562.918190
752.484951,-957.129040,-1990.828403,-5781.059402
752.487514,440.279358,937.986459,-8231.309744
752.490078,153.140646,689.132909,-15180.066574
752.492642,-842.273555,1359.123237,-5015.356170
752.495205,1148.554848,650.847747,-10107.282662
752.497769,-1148.554848,-1148.554848,-11830.114934
752.500332,555.134843,-3598.805190,-6508.477472
752.502896,937.986459,-2584.248408,-9781.858789
752.505459,-2737.389054,-306.281293,-13552.947206
752.508023,1416.550979,-4460.221326,-7886.743290
752.510586,-19.142581,153.140646,-7446.463931
752.513150,-1397.408398,1416.550979,-13093.525267
752.515713,38.285162,-976.271621,-7733.602643
752.518277,3120.240670,-1914.258080,-7197.610381
752.520840,-4326.223261,2392.822600,-11581.261384
752.523404,3847.658741,-4153.940034,-13648.660110
752.525967,-3311.666478,3885.943902,-1569.691626
752.528531,1110.269686,-3732.803256,-15275.779478
752.531094,-0.000000,-2488.535504,-9686.145885
752.533658,-631.705166,1091.127106,-5570.491013
752.536221,708.275490,-3713.660675,-14720.644635
752.538785,-727.418070,-344.566454,-1646.261949
752.541348,1014.556782,555.134843,-10394.421374
752.543912,-1014.556782,-306.281293,-14261.222696
752.546475,593.420005,-1378.265818,-4919.643266
752.549039,1129.412267,267.996131,-10834.700733
752.551602,-2641.676150,-1320.838075,-10892.128475
752.554166,497.707101,-4134.797453,-8556.733618
752.556729,1110.269686,-1990.828403,-10509.276859
752.559292,-2603.390989,-344.566454,-10298.708470
752.561856,2009.970984,-1225.125171,-7503.891674
752.564419,-1627.119368,3120.240670,-11140.982026
752.566982,516.849682,-823.130974,-9245.866526
752.569545,-593.420005,976.271621,-8863.014910
752.572108,-76.570323,-421.136778,-9992.427178
752.574671,421.136778,-4575.076811,-9954.142016
752.577234,-555.134843,-1454.836141,-7082.754896
752.579797,-95.712904,-344.566454,-13227.523333
752.582360,-1435.693560,-1052.841944,-9647.860723
752.584923,1339.980656,-2124.826469,-4823.930362
752.587486,267.996131,478.564520,-16405.191746
752.590049,-1205.982590,669.990328,-7848.458128
752.592612,842.273555,2277.967115,-5838.487144
752.595175,1263.410333,1148.554848,-15677.773675
752.597738,-2239.681954,-1512.263883,-3771.088418
752.600301,669.990328,-4192.225195,-11562.118803
752.602864,459.421939,-5321.637462,-15830.914322
752.605427,-1550.549045,-3732.803256,-1071.984525
752.607990,1684.547110,-1167.697429,-13935.798822
752.610553,-1684.547110,3024.527766,-12519.247843
752.613116,861.416136,1416.550979,-1722.832272
752.615679,-1741.974853,3120.240670,-14605.789150
752.618242,689.132909,-191.425808,-8556.733618
752.620805,-172.283227,-3866.801322,-5704.489078
752.623368,-746.560651,-2603.390989,-16520.047230
752.625931,957.129040,-4460.221326,-5034.498750
752.628494,-2450.250342,-4307.080680,-8652.446522
752.631057,2545.963246,-1205.982590,-17458.033690
752.633620,-937.986459,3847.658741,114.855485
752.636183,-344.566454,2316.252277,-12672.388490
752.638746,-267.996131,4000.799387,-16558.332392
752.641309,-76.570323,-172.283227,1225.125171
752.643872,382.851616,-4460.221326,-10662.417506
752.646435,-0.000000,-4077.369710,-20693.129845
752.648998,-1454.836141,-4173.082614,2852.244539
752.651561,2067.398726,-5704.489078,-12404.392358
752.654124,-1895.115499,2986.242605,-12538.390424
752.656687,1301.695494,2756.531635,-1684.547110
752.659250,-287.138712,1493.121302,-15945.769806
