#time,accel_x,accel_y,accel_z
261.132820,842.705048,-0.000000,9326.594869
261.133128,689.485948,-0.000000,9696.697840
261.133436,459.657299,-0.000000,9474.636058
261.133744,689.485948,-0.000000,9474.636058
261.134052,766.095498,-74.020594,9252.574275
261.134359,766.095498,148.041188,9474.636058
261.134667,383.047749,296.082377,9696.697840
261.134975,612.876398,296.082377,9622.677246
261.135283,612.876398,370.102971,9696.697840
261.135591,536.266849,370.102971,9696.697840
261.135899,536.266849,-0.000000,9770.718434
261.136207,766.095498,-148.041188,9400.615463
261.136515,995.924147,296.082377,9474.636058
261.136823,842.705048,296.082377,9474.636058
261.137131,689.485948,222.061783,9622.677246
261.137439,383.047749,296.082377,9474.636058
261.137747,842.705048,222.061783,9548.656652
261.138055,689.485948,-0.000000,9770.718434
261.138363,459.657299,296.082377,9696.697840
261.138671,842.705048,296.082377,9696.697840
261.138979,842.705048,296.082377,9548.656652
261.139286,536.266849,-0.000000,9474.636058
261.139594,689.485948,-0.000000,9696.697840
261.139902,612.876398,-0.000000,9474.636058
261.140210,766.095498,370.102971,9474.636058
261.140518,459.657299,-0.000000,9474.636058
261.140826,689.485948,-74.020594,9548.656652
261.141134,842.705048,222.061783,9548.656652
261.141442,383.047749,148.041188,9844.739029
261.141750,459.657299,148.041188,9696.697840
261.142058,766.095498,222.061783,9474.636058
261.142366,459.657299,74.020594,9622.677246
261.142674,689.485948,-0.000000,9474.636058
261.142982,919.314598,-74.020594,9696.697840
261.143290,1072.533697,-222.061783,9474.636058
261.143598,1072.533697,-740.205942,9696.697840
261.143906,459.657299,-814.226536,9918.759623
261.144213,612.876398,-592.164754,9992.780217
261.144521,459.657299,-370.102971,9992.780217
261.144829,1149.143247,-74.020594,10066.800811
261.145137,1302.362347,-148.041188,9844.739029
261.145445,1532.190996,666.185348,9104.533087
261.145753,2068.457845,888.247130,8808.450710
261.146061,2298.286494,370.102971,8660.409521
261.146369,2221.676944,592.164754,9178.553681
261.146677,2145.067394,444.123565,9178.553681
261.146985,1608.800546,296.082377,9400.615463
261.147293,1532.190996,-0.000000,9696.697840
261.147601,1685.410096,-0.000000,9918.759623
261.147909,1685.410096,-74.020594,9918.759623
261.148217,2068.457845,-74.020594,10066.800811
261.148525,1302.362347,-370.102971,10288.862594
261.148833,2221.676944,-222.061783,10140.821405
261.149140,1838.629195,-148.041188,9992.780217
261.149448,2298.286494,-0.000000,9696.697840
261.149756,2451.505594,222.061783,9474.636058
261.150064,3217.601092,444.123565,9326.594869
261.150372,2911.162892,296.082377,9548.656652
261.150680,2757.943793,592.164754,9474.636058
261.150988,2604.724693,518.144159,9326.594869
261.151296,2911.162892,370.102971,9104.533087
261.151604,2451.505594,222.061783,9622.677246
261.151912,2451.505594,222.061783,9696.697840
261.152220,2604.724693,296.082377,9844.739029
261.152528,3064.381992,-0.000000,9622.677246
261.152836,2757.943793,-518.144159,9918.759623
261.153144,3140.991542,-222.061783,10510.924376
261.153452,3217.601092,-74.020594,10362.883188
261.153760,3140.991542,-74.020594,9992.780217
261.154067,3294.210641,-0.000000,9918.759623
261.154375,3447.429741,296.082377,9696.697840
261.154683,3983.696590,444.123565,9474.636058
261.154991,4213.525239,592.164754,9474.636058
261.155299,4519.963438,962.267725,9400.615463
261.155607,4136.915689,148.041188,9030.512492
261.155915,4673.182538,370.102971,9548.656652
261.156223,4136.915689,296.082377,9252.574275
261.156531,4060.306139,296.082377,9400.615463
261.156839,4060.306139,148.041188,9548.656652
261.157147,4060.306139,296.082377,9474.636058
261.157455,4136.915689,148.041188,9326.594869
261.157763,4290.134789,444.123565,9548.656652
261.158071,4673.182538,740.205942,9252.574275
261.158379,4673.182538,888.247130,9104.533087
261.158687,4136.915689,962.267725,8808.450710
261.158994,4749.792088,1332.370696,9326.594869
261.159302,4213.525239,592.164754,8882.471304
261.159610,4596.572988,1406.391290,9400.615463
261.159918,3830.477490,592.164754,8586.388927
261.160226,3830.477490,444.123565,9474.636058
261.160534,3677.258390,740.205942,10214.842000
261.160842,2987.772442,-0.000000,9992.780217
261.161150,3217.601092,222.061783,10732.986159
261.161458,2604.724693,518.144159,9918.759623
261.161766,2451.505594,814.226536,9770.718434
261.162074,2604.724693,740.205942,9548.656652
261.162382,2757.943793,740.205942,9696.697840
261.162690,2068.457845,666.185348,10288.862594
261.162998,2298.286494,-74.020594,9992.780217
261.163306,1608.800546,-148.041188,10362.883188
261.163614,1225.752797,-666.185348,10510.924376
261.163921,1225.752797,-814.226536,10807.006753
261.164229,1378.971896,-962.267725,10436.903782
261.164537,1838.629195,-1332.370696,10732.986159
261.164845,2374.896044,-1998.556043,10732.986159
261.165153,2145.067394,-2146.597232,10362.883188
261.165461,2987.772442,-1776.494261,10510.924376
261.165769,2911.162892,-1258.350101,9918.759623
261.166077,3907.087040,-1258.350101,9178.553681
261.166385,3907.087040,-518.144159,9104.533087
261.166693,4826.401637,-370.102971,9252.574275
261.167001,4596.572988,-0.000000,8586.388927
261.167309,4749.792088,370.102971,8364.327145
261.167617,5515.887586,222.061783,8364.327145
261.167925,4903.011187,814.226536,8586.388927
261.168233,4673.182538,666.185348,8586.388927
261.168541,4519.963438,518.144159,8438.347739
261.168848,3983.696590,-0.000000,9326.594869
261.169156,3524.039291,-74.020594,9474.636058
261.169464,3370.820191,-0.000000,9696.697840
261.169772,3140.991542,-222.061783,9548.656652
261.170080,3600.648841,740.205942,9770.718434
261.170388,3677.258390,1480.411884,8882.471304
261.170696,4596.572988,2294.638420,8660.409521
261.171004,4443.353888,2960.823768,8586.388927
261.171312,4443.353888,3108.864956,8290.306550
261.171620,4290.134789,2516.700203,9252.574275
261.171928,3140.991542,1110.308913,9918.759623
261.172236,1991.848295,-74.020594,11103.089130
261.172544,842.705048,-2220.617826,11991.336260
261.172852,229.828649,-2886.803174,12805.562797
261.173160,229.828649,-3627.009116,13101.645173
261.173468,1149.143247,-3552.988522,13693.809927
261.173775,2451.505594,-2960.823768,12435.459826
261.174083,2911.162892,-1554.432478,10362.883188
261.174391,4903.011187,-0.000000,9474.636058
261.174699,7814.174080,888.247130,8734.430116
261.175007,7354.516781,2664.741391,6069.688724
261.175315,7431.126331,3849.070898,6143.709319
261.175623,8197.221829,4811.338623,5551.544565
261.175931,6818.249932,5033.400406,4737.318029
261.176239,5745.716235,5477.523971,5181.441594
261.176547,4979.620737,4663.297435,6217.729913
261.176855,3447.429741,3404.947333,7328.038826
261.177163,1685.410096,1184.329507,8808.450710
261.177471,919.314598,-0.000000,10732.986159
261.177779,-153.219100,-2442.679609,11991.336260
261.178087,-1378.971896,-3775.050304,13027.624579
261.178395,-1685.410096,-4219.173869,14582.057057
261.178702,-1302.362347,-4959.379811,14656.077652
261.179010,-689.485948,-4589.276840,14063.912898
261.179318,306.438199,-3108.864956,12731.542202
261.179626,2451.505594,-2664.741391,11991.336260
261.179934,3370.820191,-1036.288319,10288.862594
261.180242,4366.744339,-148.041188,7550.100608
261.180550,4903.011187,962.267725,7476.080014
261.180858,4903.011187,2368.659014,5921.647536
261.181166,4903.011187,3330.926739,5847.626942
261.181474,4749.792088,3330.926739,5699.585753
261.181782,3983.696590,2664.741391,6143.709319
261.182090,2604.724693,1628.453072,7254.018232
261.182398,2145.067394,222.061783,8808.450710
261.182706,1149.143247,-1406.391290,10066.800811
261.183014,-459.657299,-3256.906145,12065.356855
261.183322,-919.314598,-3330.926739,12657.521608
261.183629,-612.876398,-3034.844362,12731.542202
261.183937,536.266849,-2146.597232,12065.356855
261.184245,2298.286494,-814.226536,10362.883188
261.184553,3447.429741,814.226536,8734.430116
261.184861,4903.011187,2664.741391,6809.894666
261.185169,5209.449386,4219.173869,5699.585753
261.185477,4979.620737,4885.359217,5255.462188
261.185785,4366.744339,4959.379811,5773.606348
261.186093,3677.258390,4589.276840,6735.874072
261.186401,2604.724693,2368.659014,7994.224174
261.186709,-612.876398,370.102971,9548.656652
261.187017,-1378.971896,-1332.370696,12731.542202
261.187325,-3907.087040,-4071.132681,14804.118840
261.187633,-4903.011187,-5699.585753,16728.654289
261.187941,-4519.963438,-5847.626942,16950.716072
261.188249,-3140.991542,-5477.523971,15692.365970
261.188556,-1149.143247,-3627.009116,13619.789333
261.188864,1608.800546,-592.164754,9696.697840
261.189172,3830.477490,2368.659014,7328.038826
261.189480,5439.278036,4219.173869,5329.482782
261.189788,6511.811733,6291.750507,4293.194464
261.190096,7048.078582,7402.059420,2738.761985
261.190404,6435.202183,7105.977043,3034.844362
261.190712,4519.963438,4737.318029,5329.482782
261.191020,1149.143247,1406.391290,7698.141797
261.191328,-1838.629195,-2220.617826,11473.192101
261.191636,-4596.572988,-5255.462188,14804.118840
261.191944,-6358.592633,-7328.038826,16284.530724
261.192252,-5669.106685,-7179.997637,16580.613101
261.192560,-3370.820191,-6217.729913,15470.304188
261.192868,-689.485948,-2664.741391,13027.624579
261.193176,2145.067394,296.082377,9252.574275
261.193483,4213.525239,3775.050304,5551.544565
261.193791,5745.716235,6809.894666,3627.009116
261.194099,7048.078582,8290.306550,3627.009116
261.194407,6971.469032,7772.162391,3552.988522
261.194715,5056.230287,6661.853478,4071.132681
261.195023,2451.505594,3404.947333,6513.812290
261.195331,-612.876398,-1258.350101,11547.212695
261.195639,-4213.525239,-5699.585753,15692.365970
261.195947,-7124.688131,-7846.182985,17172.777854
261.196255,-7660.954980,-9474.636058,18061.024985
261.196563,-5898.935335,-9252.574275,18061.024985
261.196871,-2451.505594,-5921.647536,14952.160028
261.197179,995.924147,-2516.700203,10510.924376
261.197486,3524.039291,1628.453072,6217.729913
261.197794,6128.763984,5107.421000,3330.926739
261.198102,8120.612279,7920.203579,3034.844362
261.198410,8810.098227,9030.512492,2368.659014
261.198718,7737.564530,9252.574275,962.267725
261.199026,5822.325785,7105.977043,2590.720797
261.199334,3294.210641,2812.782580,7179.997637
261.199642,-1455.581446,-1850.514855,11769.274478
261.199949,-4596.572988,-5255.462188,15174.221811
261.200257,-7201.297681,-7402.059420,16284.530724
261.200565,-7507.735880,-8734.430116,16580.613101
261.200873,-4826.401637,-6809.894666,16432.571912
261.201181,-995.924147,-2442.679609,12879.583391
261.201489,1762.019645,-0.000000,8734.430116
261.201797,4673.182538,3330.926739,6143.709319
261.202104,6128.763984,6957.935855,3923.091493
261.202412,6511.811733,7920.203579,3404.947333
261.202720,5898.935335,7846.182985,4441.235652
261.203028,3753.867940,6217.729913,5329.482782
261.203336,1072.533697,2368.659014,8216.285956
261.203644,-2298.286494,-1924.535449,12213.398043
261.203952,-4519.963438,-4515.256246,15470.304188
261.204259,-6894.859482,-7550.100608,17394.839637
261.204567,-7814.174080,-10288.862594,18135.045579
261.204875,-7201.297681,-7254.018232,16728.654289
261.205183,-2068.457845,-4663.297435,12953.603985
261.205491,919.314598,-74.020594,7994.224174
261.205799,3830.477490,2886.803174,4885.359217
261.206107,6741.640382,6439.791695,2146.597232
261.206415,7890.783629,7550.100608,2368.659014
261.206722,7967.393179,7772.162391,2220.617826
261.207030,6128.763984,7402.059420,1998.556043
261.207338,3983.696590,4293.194464,5995.668130
261.207646,536.266849,-370.102971,9992.780217
261.207954,-3217.601092,-3849.070898,13249.686362
261.208262,-5515.887586,-5699.585753,15840.407159
261.208570,-6971.469032,-8438.347739,17320.819043
261.208877,-5439.278036,-7476.080014,16728.654289
261.209185,-2834.553343,-4367.215058,14211.954086
261.209493,459.657299,-1036.288319,10807.006753
261.209801,2451.505594,1998.556043,6587.832884
261.210109,5056.230287,4959.379811,5033.400406
261.210417,5745.716235,6439.791695,5107.421000
261.210725,5439.278036,6291.750507,4811.338623
261.211032,4366.744339,5995.668130,5403.503377
261.211340,1915.238745,2886.803174,7105.977043
261.211648,-612.876398,-962.267725,11695.253884
261.211956,-2987.772442,-4071.132681,14952.160028
261.212264,-5439.278036,-5403.503377,16284.530724
261.212572,-6052.154434,-7550.100608,16432.571912
261.212880,-5439.278036,-6957.935855,15544.324782
261.213188,-2298.286494,-3404.947333,13397.727550
261.213495,766.095498,-0.000000,8808.450710
261.213803,3907.087040,3182.885551,5329.482782
261.214111,6281.983084,5403.503377,3849.070898
261.214419,8120.612279,6883.915261,2738.761985
261.214727,7354.516781,6513.812290,2960.823768
261.215035,5975.544884,5921.647536,3256.906145
261.215343,3983.696590,3997.112087,6143.709319
261.215650,1072.533697,-0.000000,10066.800811
261.215958,-1532.190996,-2664.741391,12435.459826
261.216266,-3983.696590,-4589.276840,14063.912898
261.216574,-4290.134789,-5329.482782,15174.221811
261.216882,-3830.477490,-5255.462188,15470.304188
261.217190,-2298.286494,-2812.782580,13249.686362
261.217498,536.266849,-0.000000,10140.821405
261.217805,2451.505594,1924.535449,7179.997637
261.218113,4136.915689,3923.091493,5625.565159
261.218421,4749.792088,4959.379811,5477.523971
261.218729,3983.696590,4811.338623,5847.626942
261.219037,3217.601092,3552.988522,6809.894666
261.219345,842.705048,1184.329507,9474.636058
261.219653,-1685.410096,-2072.576638,12509.480420
261.219961,-3370.820191,-4145.153275,14063.912898
261.220268,-4903.011187,-5403.503377,14952.160028
261.220576,-4903.011187,-6217.729913,15618.345376
261.220884,-3753.867940,-4811.338623,14063.912898
261.221192,-383.047749,-2220.617826,11103.089130
261.221500,2298.286494,1628.453072,7698.141797
261.221808,4290.134789,3775.050304,4959.379811
261.222116,6205.373534,5329.482782,3256.906145
261.222423,6511.811733,5847.626942,3923.091493
261.222731,5822.325785,5477.523971,3849.070898
261.223039,4213.525239,4071.132681,5181.441594
261.223347,2298.286494,1850.514855,7920.203579
261.223655,-612.876398,-1332.370696,10288.862594
261.223963,-1838.629195,-3330.926739,12879.583391
261.224271,-3370.820191,-3701.029710,13619.789333
261.224578,-3447.429741,-4367.215058,14359.995275
261.224886,-2145.067394,-3182.885551,13619.789333
261.225194,-689.485948,-1332.370696,11103.089130
261.225502,766.095498,962.267725,8734.430116
261.225810,2681.334243,2738.761985,7328.038826
261.226118,3447.429741,3256.906145,6513.812290
261.226426,3753.867940,3701.029710,6809.894666
261.226734,2604.724693,2664.741391,7105.977043
261.227041,383.047749,1258.350101,9474.636058
261.227349,-1072.533697,-1258.350101,11991.336260
261.227657,-3064.381992,-2886.803174,13545.768739
261.227965,-3830.477490,-4145.153275,14285.974681
261.228273,-4213.525239,-4737.318029,14137.933492
261.228581,-2987.772442,-3478.967927,13175.665768
261.228889,-1532.190996,-1554.432478,11251.130318
261.229196,1302.362347,1184.329507,8290.306550
261.229504,3370.820191,3627.009116,5551.544565
261.229812,5209.449386,5033.400406,4367.215058
261.230120,5745.716235,5107.421000,3849.070898
261.230428,5209.449386,4737.318029,4145.153275
261.230736,3830.477490,3108.864956,5773.606348
261.231044,2068.457845,666.185348,8956.491898
261.231351,-536.266849,-1776.494261,11621.233289
261.231659,-1915.238745,-3256.906145,12805.562797
261.231967,-3064.381992,-4145.153275,13619.789333
261.232275,-2987.772442,-3923.091493,13767.830521
261.232583,-2221.676944,-2664.741391,13397.727550
261.232891,-306.438199,-1110.308913,11917.315666
261.233199,1378.971896,592.164754,9400.615463
261.233507,3370.820191,2590.720797,7105.977043
261.233814,4290.134789,3627.009116,5847.626942
261.234122,4136.915689,3627.009116,5773.606348
261.234430,3370.820191,3478.967927,6957.935855
261.234738,2221.676944,1480.411884,8364.327145
261.235046,-229.828649,-518.144159,11177.109724
261.235354,-2528.115143,-3330.926739,13693.809927
261.235662,-4519.963438,-4663.297435,15248.242405
261.235969,-4826.401637,-4737.318029,15026.180623
261.236277,-4290.134789,-3552.988522,13915.871710
261.236585,-1762.019645,-1998.556043,12953.603985
261.236893,995.924147,814.226536,9696.697840
261.237201,3217.601092,4145.153275,5995.668130
261.237509,5286.058936,5255.462188,4663.297435
261.237817,6128.763984,5847.626942,3775.050304
261.238124,5209.449386,5847.626942,3997.112087
261.238432,4366.744339,4293.194464,6143.709319
261.238740,2528.115143,1554.432478,7698.141797
261.239048,0.000000,-1258.350101,10881.027347
261.239356,-2298.286494,-3256.906145,13027.624579
261.239664,-3983.696590,-4959.379811,13989.892304
261.239972,-4290.134789,-5107.421000,14285.974681
261.240280,-2987.772442,-3997.112087,14211.954086
261.240587,-842.705048,-2368.659014,12657.521608
261.240895,1072.533697,-0.000000,9400.615463
261.241203,2987.772442,2738.761985,7328.038826
261.241511,4903.011187,4293.194464,5699.585753
261.241819,5056.230287,4885.359217,4589.276840
261.242127,4596.572988,4663.297435,5403.503377
261.242435,3447.429741,2886.803174,6957.935855
261.242742,842.705048,222.061783,9326.594869
261.243050,-1378.971896,-2590.720797,12805.562797
261.243358,-3600.648841,-4959.379811,14211.954086
261.243666,-5286.058936,-5625.565159,15100.201217
261.243974,-4979.620737,-5551.544565,14582.057057
261.244282,-2911.162892,-3330.926739,13545.768739
261.244590,-383.047749,-1036.288319,10881.027347
261.244897,2374.896044,2590.720797,7105.977043
261.245205,5056.230287,4367.215058,5033.400406
261.245513,6665.030833,5551.544565,3478.967927
261.245821,6665.030833,5995.668130,3256.906145
261.246129,5745.716235,5255.462188,4293.194464
261.246437,3677.258390,3034.844362,6735.874072
261.246745,995.924147,296.082377,9548.656652
261.247053,-1608.800546,-2368.659014,12213.398043
261.247360,-3983.696590,-4737.318029,14211.954086
261.247668,-4903.011187,-5921.647536,14952.160028
261.247976,-4213.525239,-4737.318029,14434.015869
261.248284,-2528.115143,-3404.947333,14063.912898
261.248592,-612.876398,-666.185348,11547.212695
261.248900,2374.896044,2368.659014,8290.306550
261.249208,4060.306139,4071.132681,5995.668130
261.249515,5592.497135,5107.421000,4811.338623
261.249823,5362.668486,5551.544565,4589.276840
261.250131,4290.134789,4737.318029,5625.565159
261.250439,2451.505594,1998.556043,8290.306550
261.250747,-229.828649,-962.267725,11547.212695
261.251055,-2911.162892,-4071.132681,14063.912898
261.251363,-4903.011187,-6291.750507,14656.077652
261.251670,-6052.154434,-6291.750507,15322.262999
261.251978,-4673.182538,-4737.318029,14434.015869
261.252286,-2451.505594,-2516.700203,12361.439231
261.252594,842.705048,370.102971,9548.656652
261.252902,4366.744339,3701.029710,5995.668130
261.253210,5286.058936,5255.462188,3997.112087
261.253518,6818.249932,5551.544565,3627.009116
261.253826,6665.030833,5847.626942,3627.009116
261.254133,4903.011187,4885.359217,4811.338623
261.254441,2451.505594,1628.453072,8068.244768
261.254749,-153.219100,-1406.391290,11251.130318
261.255057,-2528.115143,-3478.967927,13693.809927
261.255365,-4749.792088,-5995.668130,14804.118840
261.255673,-4749.792088,-6217.729913,15766.386565
261.255981,-4290.134789,-4441.235652,14434.015869
261.256288,-1685.410096,-2368.659014,12731.542202
261.256596,995.924147,1184.329507,9474.636058
261.256904,3447.429741,3256.906145,7105.977043
261.257212,4749.792088,5181.441594,5255.462188
261.257520,5669.106685,5921.647536,4589.276840
261.257828,5439.278036,5477.523971,4737.318029
261.258136,3600.648841,3701.029710,6217.729913
261.258443,1455.581446,740.205942,9474.636058
261.258751,-1225.752797,-2146.597232,12435.459826
261.259059,-3907.087040,-4737.318029,14508.036463
261.259367,-5439.278036,-6513.812290,15988.448347
261.259675,-5745.716235,-5921.647536,15100.201217
261.259983,-4290.134789,-3701.029710,13989.892304
261.260291,-1072.533697,-1628.453072,11843.295072
261.260599,1991.848295,2368.659014,7254.018232
261.260906,5056.230287,4811.338623,4663.297435
261.261214,6281.983084,5477.523971,4293.194464
261.261522,6741.640382,5995.668130,3182.885551
261.261830,5822.325785,6069.688724,2886.803174
261.262138,4443.353888,3478.967927,5773.606348
261.262446,2145.067394,666.185348,8808.450710
261.262754,-995.924147,-2442.679609,12509.480420
261.263061,-3140.991542,-4515.256246,14211.954086
261.263369,-4903.011187,-6069.688724,14656.077652
261.263677,-4213.525239,-5699.585753,14656.077652
261.263985,-2604.724693,-3552.988522,13471.748144
261.264293,-459.657299,-962.267725,11103.089130
261.264601,2604.724693,1776.494261,8364.327145
261.264909,3830.477490,3627.009116,5625.565159
261.265216,5822.325785,4663.297435,4737.318029
261.265524,5286.058936,5107.421000,4811.338623
261.265832,4749.792088,4737.318029,5033.400406
261.266140,2911.162892,1702.473667,7994.224174
261.266448,-153.219100,-814.226536,11325.150913
261.266756,-3294.210641,-3478.967927,14137.933492
261.267064,-4826.401637,-5329.482782,15248.242405
261.267372,-5745.716235,-5921.647536,15322.262999
261.267679,-4596.572988,-4589.276840,14359.995275
261.267987,-2528.115143,-2294.638420,12435.459826
261.268295,766.095498,1036.288319,9696.697840
261.268603,3677.258390,3701.029710,5699.585753
261.268911,5132.839837,4737.318029,4515.256246
261.269219,5975.544884,5329.482782,3552.988522
261.269527,5898.935335,5847.626942,3330.926739
261.269834,4903.011187,4811.338623,4811.338623
261.270142,2145.067394,1850.514855,7179.997637
261.270450,459.657299,-1184.329507,11177.109724
261.270758,-1991.848295,-2960.823768,13101.645173
261.271066,-3677.258390,-4515.256246,13841.851115
261.271374,-4060.306139,-5181.441594,14656.077652
261.271682,-3140.991542,-3997.112087,14137.933492
261.271989,-1532.190996,-2220.617826,12657.521608
261.272297,1225.752797,518.144159,9696.697840
261.272605,3217.601092,3330.926739,7031.956449
261.272913,4826.401637,4515.256246,6069.688724
261.273221,5592.497135,4737.318029,5107.421000
261.273529,4673.182538,5107.421000,5255.462188
261.273837,2987.772442,2960.823768,7254.018232
261.274145,612.876398,296.082377,9474.636058
261.274452,-1915.238745,-2664.741391,13175.665768
261.274760,-3447.429741,-4737.318029,15322.262999
261.275068,-5132.839837,-5773.606348,15174.221811
261.275376,-4979.620737,-5625.565159,15248.242405
261.275684,-3140.991542,-3923.091493,14211.954086
261.275992,-1072.533697,-1036.288319,10436.903782
261.276300,2451.505594,2368.659014,8068.244768
261.276607,4749.792088,4145.153275,5551.544565
261.276915,5286.058936,5699.585753,3034.844362
261.277223,6128.763984,5699.585753,3256.906145
261.277531,5362.668486,5255.462188,4663.297435
261.277839,3447.429741,3404.947333,6143.709319
261.278147,1149.143247,814.226536,9474.636058
261.278455,-383.047749,-1850.514855,12139.377449
261.278762,-3370.820191,-3775.050304,13101.645173
261.279070,-4060.306139,-4959.379811,14211.954086
261.279378,-3677.258390,-4441.235652,14434.015869
261.279686,-2911.162892,-3330.926739,13323.706956
261.279994,0.000000,-1332.370696,11251.130318
261.280302,2681.334243,2368.659014,8216.285956
261.280610,3983.696590,3478.967927,6143.709319
261.280918,4826.401637,4737.318029,4737.318029
261.281225,4979.620737,4811.338623,5033.400406
261.281533,3600.648841,3404.947333,6957.935855
261.281841,1302.362347,814.226536,8586.388927
261.282149,-919.314598,-1776.494261,11843.295072
261.282457,-2451.505594,-4441.235652,14359.995275
261.282765,-4979.620737,-6143.709319,15248.242405
261.283073,-4749.792088,-5773.606348,14730.098246
261.283380,-3524.039291,-3701.029710,13915.871710
261.283688,-1149.143247,-1998.556043,11769.274478
261.283996,1685.410096,1702.473667,7476.080014
261.284304,4290.134789,4219.173869,5625.565159
261.284612,5592.497135,4885.359217,3923.091493
261.284920,6205.373534,5625.565159,2738.761985
261.285228,5975.544884,5625.565159,3552.988522
261.285535,4673.182538,4071.132681,4885.359217
261.285843,1991.848295,1554.432478,7920.203579
261.286151,0.000000,-1628.453072,11769.274478
261.286459,-2834.553343,-3775.050304,13027.624579
261.286767,-4366.744339,-5625.565159,14211.954086
261.287075,-4213.525239,-6143.709319,15322.262999
261.287383,-3447.429741,-4071.132681,14434.015869
261.287691,-1302.362347,-2294.638420,12583.501014
261.287998,995.924147,1258.350101,9770.718434
261.288306,3294.210641,3552.988522,6661.853478
261.288614,4749.792088,4885.359217,5033.400406
261.288922,5286.058936,5329.482782,4737.318029
261.289230,4673.182538,4737.318029,5255.462188
261.289538,3064.381992,2590.720797,7624.121203
261.289846,229.828649,-592.164754,10510.924376
261.290153,-2068.457845,-2590.720797,13841.851115
261.290461,-4290.134789,-5255.462188,15618.345376
261.290769,-5362.668486,-5995.668130,15396.283594
261.291077,-4596.572988,-4811.338623,14359.995275
261.291385,-2604.724693,-2664.741391,12805.562797
261.291693,612.876398,444.123565,10140.821405
261.292001,3524.039291,3478.967927,6661.853478
261.292308,5515.887586,4885.359217,4811.338623
261.292616,6052.154434,5995.668130,3256.906145
261.292924,6358.592633,6143.709319,3256.906145
261.293232,5439.278036,5477.523971,4515.256246
261.293540,3677.258390,3256.906145,6143.709319
261.293848,766.095498,222.061783,9622.677246
261.294156,-1378.971896,-2738.761985,13027.624579
261.294464,-4136.915689,-4737.318029,14582.057057
261.294771,-4749.792088,-5847.626942,15692.365970
261.295079,-4903.011187,-5255.462188,15322.262999
261.295387,-2604.724693,-2886.803174,14063.912898
261.295695,-153.219100,-74.020594,10732.986159
261.296003,2145.067394,2590.720797,8438.347739
261.296311,4136.915689,4219.173869,5847.626942
261.296619,5592.497135,4885.359217,4441.235652
261.296926,4979.620737,5181.441594,4885.359217
261.297234,4290.134789,3997.112087,6735.874072
261.297542,1532.190996,1258.350101,9030.512492
261.297850,-1072.533697,-1924.535449,11991.336260
261.298158,-3524.039291,-4589.276840,14285.974681
261.298466,-4903.011187,-5995.668130,15544.324782
261.298773,-4903.011187,-5921.647536,15026.180623
261.299081,-4213.525239,-4145.153275,13989.892304
261.299389,-1532.190996,-2072.576638,11843.295072
261.299697,2374.896044,1998.556043,8438.347739
261.300005,4290.134789,3849.070898,5181.441594
261.300312,5745.716235,5551.544565,3256.906145
261.300620,6588.421283,6069.688724,3034.844362
261.300928,6205.373534,6365.771101,3404.947333
261.301236,4443.353888,4589.276840,4367.215058
261.301544,2221.676944,1406.391290,8142.265362
261.301851,153.219100,-888.247130,11473.192101
261.302159,-2681.334243,-4071.132681,13915.871710
261.302467,-4749.792088,-5773.606348,15026.180623
261.302775,-5362.668486,-5847.626942,15100.201217
261.303083,-4290.134789,-4071.132681,14211.954086
261.303390,-1991.848295,-1776.494261,11917.315666
261.303698,1072.533697,1702.473667,9474.636058
261.304006,3370.820191,3775.050304,7031.956449
261.304314,5439.278036,5403.503377,4515.256246
261.304622,5975.544884,5477.523971,3997.112087
261.304929,4826.401637,4515.256246,5773.606348
261.305237,2987.772442,2220.617826,7179.997637
261.305545,229.828649,-444.123565,11029.068536
261.305853,-2451.505594,-3701.029710,14211.954086
261.306161,-4749.792088,-5995.668130,15174.221811
261.306468,-5822.325785,-6291.750507,15248.242405
261.306776,-4903.011187,-5329.482782,15100.201217
261.307084,-2451.505594,-3108.864956,13027.624579
261.307392,842.705048,148.041188,9992.780217
261.307699,3830.477490,3034.844362,6217.729913
261.308007,5439.278036,4737.318029,3552.988522
261.308315,6588.421283,5625.565159,2664.741391
261.308623,6511.811733,6291.750507,2812.782580
261.308931,5669.106685,5255.462188,3923.091493
261.309238,2757.943793,2886.803174,6587.832884
261.309546,536.266849,-296.082377,10288.862594
261.309854,-2374.896044,-3256.906145,12879.583391
261.310162,-4903.011187,-4737.318029,14211.954086
261.310470,-4979.620737,-6217.729913,15618.345376
261.310777,-4749.792088,-4663.297435,14656.077652
261.311085,-2604.724693,-3034.844362,13767.830521
261.311393,689.485948,148.041188,10362.883188
261.311701,3294.210641,3034.844362,7402.059420
261.312009,4749.792088,4219.173869,4811.338623
261.312316,5822.325785,5329.482782,4441.235652
261.312624,5362.668486,5181.441594,5107.421000
261.312932,3830.477490,3478.967927,6957.935855
261.313240,1608.800546,888.247130,9770.718434
261.313548,-1225.752797,-1998.556043,12435.459826
261.313855,-4060.306139,-4367.215058,14434.015869
261.314163,-4749.792088,-5329.482782,15396.283594
261.314471,-4903.011187,-4885.359217,15396.283594
261.314779,-3524.039291,-3478.967927,14137.933492
261.315087,-229.828649,-1406.391290,11251.130318
261.315394,2221.676944,2072.576638,8068.244768
261.315702,4519.963438,4071.132681,4959.379811
261.316010,5975.544884,5551.544565,3256.906145
261.316318,6741.640382,6439.791695,3404.947333
261.316625,6205.373534,5699.585753,4145.153275
261.316933,4136.915689,4441.235652,5773.606348
261.317241,1149.143247,592.164754,8808.450710
261.317549,-1072.533697,-1850.514855,12361.439231
261.317857,-3600.648841,-3997.112087,13767.830521
261.318164,-4903.011187,-5773.606348,15174.221811
261.318472,-4826.401637,-5625.565159,15618.345376
261.318780,-3370.820191,-4145.153275,14211.954086
261.319088,0.000000,-1702.473667,11621.233289
261.319396,2451.505594,1776.494261,7624.121203
261.319703,4136.915689,3775.050304,5181.441594
261.320011,5745.716235,5033.400406,3923.091493
261.320319,5439.278036,5403.503377,4663.297435
261.320627,4443.353888,4367.215058,5699.585753
261.320935,1685.410096,1628.453072,8216.285956
261.321242,-1302.362347,-1184.329507,11473.192101
261.321550,-3370.820191,-4367.215058,13989.892304
261.321858,-4443.353888,-5255.462188,15248.242405
261.322166,-6511.811733,-5773.606348,14804.118840
261.322474,-3447.429741,-5995.668130,15322.262999
261.322781,-1838.629195,-2886.803174,12435.459826
261.323089,612.876398,370.102971,9030.512492
261.323397,4060.306139,2072.576638,5181.441594
261.323705,5669.106685,5181.441594,3256.906145
261.324013,6052.154434,5551.544565,3701.029710
261.324320,5975.544884,6439.791695,3404.947333
261.324628,5822.325785,5329.482782,5181.441594
261.324936,2298.286494,2368.659014,7031.956449
261.325244,-689.485948,-592.164754,10140.821405
261.325552,-3064.381992,-3330.926739,12805.562797
261.325859,-5209.449386,-5181.441594,14730.098246
261.326167,-4673.182538,-6365.771101,16062.468941
261.326475,-4826.401637,-4885.359217,14285.974681
261.326783,-1302.362347,-1850.514855,13323.706956
261.327090,1225.752797,222.061783,9326.594869
261.327398,3524.039291,3256.906145,6291.750507
261.327706,4596.572988,5107.421000,5329.482782
261.328014,5286.058936,5403.503377,4959.379811
261.328322,4673.182538,5329.482782,5921.647536
261.328629,2451.505594,2960.823768,6957.935855
261.328937,153.219100,-0.000000,10066.800811
261.329245,-2221.676944,-3108.864956,12657.521608
261.329553,-4366.744339,-4515.256246,15026.180623
261.329861,-5209.449386,-6143.709319,16284.530724
261.330168,-4826.401637,-6069.688724,15840.407159
261.330476,-3064.381992,-3997.112087,14285.974681
261.330784,76.609550,-888.247130,10955.047942
261.331092,1991.848295,2072.576638,6957.935855
261.331400,5745.716235,4515.256246,4811.338623
261.331707,6741.640382,6291.750507,2516.700203
261.332015,7584.345430,6735.874072,3701.029710
261.332323,6358.592633,6143.709319,3775.050304
261.332631,4060.306139,4441.235652,4663.297435
261.332939,1532.190996,1036.288319,8364.327145
261.333246,-689.485948,-2072.576638,12139.377449
261.333554,-3294.210641,-4515.256246,14952.160028
261.333862,-4673.182538,-5921.647536,15840.407159
261.334170,-4903.011187,-5329.482782,16062.468941
261.334478,-2911.162892,-3775.050304,14656.077652
261.334785,-383.047749,-296.082377,11991.336260
261.335093,1991.848295,2664.741391,8586.388927
261.335401,3830.477490,3997.112087,6143.709319
261.335709,5132.839837,5329.482782,5255.462188
261.336017,5209.449386,5477.523971,5181.441594
261.336324,3524.039291,4071.132681,6365.771101
261.336632,1302.362347,1480.411884,9400.615463
261.336940,-766.095498,-1998.556043,12139.377449
261.337248,-3140.991542,-4145.153275,14434.015869
261.337555,-5132.839837,-5403.503377,15544.324782
261.337863,-4903.011187,-5847.626942,15322.262999
261.338171,-4060.306139,-4441.235652,14211.954086
261.338479,-995.924147,-2294.638420,12139.377449
261.338787,1838.629195,1110.308913,8142.265362
261.339094,4519.963438,3034.844362,5477.523971
261.339402,6818.249932,5107.421000,3330.926739
261.339710,6741.640382,6069.688724,2294.638420
261.340018,6894.859482,6513.812290,2886.803174
261.340326,5745.716235,4811.338623,4071.132681
261.340633,3140.991542,2738.761985,6957.935855
261.340941,1225.752797,-370.102971,9844.739029
261.341249,-1838.629195,-3404.947333,12065.356855
261.341557,-4596.572988,-4885.359217,13693.809927
261.341865,-5439.278036,-5847.626942,14434.015869
261.342172,-4366.744339,-4737.318029,15174.221811
261.342480,-2451.505594,-2738.761985,13249.686362
261.342788,383.047749,444.123565,10066.800811
261.343096,2298.286494,2294.638420,6957.935855
261.343404,4749.792088,3701.029710,4959.379811
261.343711,5132.839837,4441.235652,4811.338623
261.344019,4596.572988,3923.091493,5255.462188
261.344327,2604.724693,2146.597232,7328.038826
261.344635,76.609550,-296.082377,10066.800811
261.344943,-2298.286494,-3108.864956,12731.542202
261.345250,-4596.572988,-4737.318029,14656.077652
261.345558,-5515.887586,-6069.688724,15470.304188
261.345866,-4749.792088,-5773.606348,14730.098246
261.346174,-3140.991542,-3923.091493,14063.912898
261.346481,459.657299,-1776.494261,10732.986159
261.346789,3217.601092,2664.741391,6513.812290
261.347097,5286.058936,3997.112087,4737.318029
261.347405,6894.859482,5773.606348,2590.720797
261.347713,6818.249932,6809.894666,2960.823768
261.348020,6205.373534,5995.668130,4441.235652
261.348328,3983.696590,4515.256246,5329.482782
261.348636,1532.190996,1554.432478,9400.615463
261.348944,-1532.190996,-1554.432478,12509.480420
261.349252,-3983.696590,-3701.029710,14063.912898
261.349559,-4826.401637,-5181.441594,14804.118840
261.349867,-4903.011187,-4441.235652,15396.283594
261.350175,-3524.039291,-3256.906145,14211.954086
261.350483,-689.485948,-592.164754,11991.336260
261.350791,1838.629195,1776.494261,9770.718434
261.351098,4136.915689,3701.029710,5995.668130
261.351406,5286.058936,4885.359217,5107.421000
261.351714,4826.401637,4737.318029,6143.709319
261.352022,3600.648841,3997.112087,6809.894666
261.352330,1685.410096,1924.535449,9326.594869
261.352637,-766.095498,-740.205942,11769.274478
261.352945,-2911.162892,-3775.050304,13767.830521
261.353253,-4136.915689,-4367.215058,15396.283594
261.353561,-4136.915689,-5181.441594,15470.304188
261.353869,-4213.525239,-4219.173869,14285.974681
261.354176,-919.314598,-2590.720797,12287.418637
261.354484,1838.629195,370.102971,9104.533087
261.354792,3830.477490,2738.761985,6069.688724
261.355100,5975.544884,4367.215058,3923.091493
261.355408,6052.154434,5773.606348,3182.885551
261.355715,6588.421283,5847.626942,3997.112087
261.356023,5132.839837,4737.318029,4589.276840
261.356331,2681.334243,2368.659014,7105.977043
261.356639,76.609550,-0.000000,10510.924376
261.356946,-2528.115143,-3034.844362,12805.562797
261.357254,-4366.744339,-4589.276840,14656.077652
261.357562,-4826.401637,-5477.523971,14952.160028
261.357870,-4749.792088,-4441.235652,14656.077652
261.358178,-2221.676944,-2442.679609,13027.624579
261.358485,1608.800546,592.164754,9474.636058
261.358793,3140.991542,2738.761985,6735.874072
261.359101,4979.620737,4367.215058,4959.379811
261.359409,4903.011187,4737.318029,4811.338623
261.359717,3753.867940,4367.215058,5921.647536
261.360024,2528.115143,2516.700203,7624.121203
261.360332,76.609550,-0.000000,9696.697840
261.360640,-2757.943793,-2516.700203,12879.583391
261.360948,-3983.696590,-4737.318029,14582.057057
261.361256,-4596.572988,-5477.523971,14656.077652
261.361563,-5132.839837,-4885.359217,14878.139434
261.361871,-2681.334243,-3849.070898,13693.809927
261.362179,0.000000,-740.205942,10214.842000
261.362487,2451.505594,2072.576638,7105.977043
261.362795,4903.011187,3330.926739,5255.462188
261.363102,5975.544884,5329.482782,2516.700203
261.363410,6205.373534,6069.688724,3404.947333
261.363718,5975.544884,5107.421000,4145.153275
261.364026,3830.477490,3552.988522,5403.503377
261.364334,1302.362347,592.164754,9104.533087
261.364641,-1532.190996,-2368.659014,11769.274478
261.364949,-4290.134789,-4441.235652,14359.995275
261.365257,-4826.401637,-6365.771101,15544.324782
261.365565,-4136.915689,-5107.421000,14730.098246
261.365873,-2681.334243,-3034.844362,13915.871710
261.366180,306.438199,-370.102971,11547.212695
261.366488,2298.286494,1998.556043,8142.265362
261.366796,3907.087040,3997.112087,5107.421000
261.367104,5056.230287,4145.153275,4885.359217
261.367411,4596.572988,4589.276840,5847.626942
261.367719,3064.381992,3627.009116,6661.853478
261.368027,1608.800546,1332.370696,8808.450710
261.368335,-1608.800546,-1110.308913,11251.130318
261.368643,-3370.820191,-3701.029710,14137.933492
261.368950,-4826.401637,-4885.359217,15396.283594
261.369258,-4903.011187,-5181.441594,15544.324782
261.369566,-3907.087040,-4219.173869,14285.974681
261.369874,-995.924147,-1924.535449,11843.295072
261.370182,2068.457845,444.123565,9252.574275
261.370489,4366.744339,3034.844362,5107.421000
261.370797,6358.592633,5255.462188,3108.864956
261.371105,6588.421283,5921.647536,3701.029710
261.371413,6588.421283,6069.688724,3701.029710
261.371721,4903.011187,4737.318029,5033.400406
261.372028,2451.505594,2072.576638,7476.080014
261.372336,306.438199,-814.226536,10955.047942
261.372644,-2681.334243,-2886.803174,13471.748144
261.372952,-3600.648841,-4737.318029,15100.201217
261.373260,-3830.477490,-4811.338623,15026.180623
261.373567,-3294.210641,-2812.782580,13989.892304
261.373875,0.000000,-814.226536,12509.480420
261.374183,1915.238745,1480.411884,9252.574275
261.374491,3907.087040,3256.906145,6365.771101
261.374799,4903.011187,4737.318029,4885.359217
261.375106,4903.011187,5033.400406,5847.626942
261.375414,3753.867940,4071.132681,6883.915261
261.375722,2298.286494,2220.617826,8660.409521
261.376030,-306.438199,-740.205942,10807.006753
261.376337,-2681.334243,-3627.009116,13619.789333
261.376645,-4749.792088,-5033.400406,15174.221811
261.376953,-5669.106685,-5773.606348,15914.427753
261.377261,-4213.525239,-5551.544565,15396.283594
261.377569,-2298.286494,-3478.967927,13027.624579
261.377876,1225.752797,-740.205942,9770.718434
261.378184,4290.134789,2738.761985,5625.565159
261.378492,5592.497135,4367.215058,3775.050304
261.378800,7124.688131,5551.544565,2738.761985
261.379108,7048.078582,6291.750507,2664.741391
261.379415,5669.106685,5255.462188,3775.050304
261.379723,3447.429741,2590.720797,5921.647536
261.380031,995.924147,370.102971,8956.491898
261.380339,-1532.190996,-2738.761985,12435.459826
261.380647,-4519.963438,-4811.338623,13619.789333
261.380954,-4673.182538,-5625.565159,14804.118840
261.381262,-4366.744339,-4367.215058,14434.015869
261.381570,-2221.676944,-2664.741391,12731.542202
261.381878,229.828649,148.041188,10510.924376
261.382186,2528.115143,2368.659014,7920.203579
261.382493,4060.306139,3849.070898,5033.400406
261.382801,4213.525239,4441.235652,4737.318029
261.383109,3524.039291,4293.194464,6069.688724
261.383417,2374.896044,3108.864956,7328.038826
261.383725,459.657299,888.247130,9474.636058
261.384032,-1915.238745,-1998.556043,12139.377449
261.384340,-4290.134789,-4589.276840,14359.995275
261.384648,-4903.011187,-5551.544565,15396.283594
261.384956,-5515.887586,-5995.668130,15988.448347
261.385264,-3064.381992,-4293.194464,14359.995275
261.385571,-1378.971896,-1998.556043,11473.192101
261.385879,2068.457845,962.267725,8290.306550
261.386187,4443.353888,3404.947333,4811.338623
261.386495,6052.154434,5477.523971,3108.864956
261.386802,6665.030833,6069.688724,2886.803174
261.387110,6894.859482,5551.544565,3256.906145
261.387418,4903.011187,4589.276840,5033.400406
261.387726,2374.896044,1924.535449,7772.162391
261.388034,0.000000,-1406.391290,10881.027347
261.388341,-2987.772442,-3182.885551,13397.727550
261.388649,-4596.572988,-4737.318029,14582.057057
261.388957,-4903.011187,-4737.318029,15174.221811
261.389265,-3370.820191,-2960.823768,14285.974681
261.389573,-383.047749,-1036.288319,12287.418637
261.389880,2221.676944,1406.391290,9548.656652
261.390188,3677.258390,3701.029710,6735.874072
261.390496,4903.011187,4071.132681,5181.441594
261.390804,4519.963438,4959.379811,5551.544565
261.391112,3753.867940,4293.194464,6809.894666
261.391419,2145.067394,2294.638420,8290.306550
261.391727,-383.047749,-0.000000,11103.089130
261.392035,-2451.505594,-3404.947333,14434.015869
261.392343,-4213.525239,-5107.421000,15396.283594
261.392651,-5592.497135,-5625.565159,16506.592507
261.392958,-4673.182538,-5551.544565,15692.365970
261.393266,-2221.676944,-3330.926739,13249.686362
261.393574,536.266849,222.061783,9992.780217
261.393882,3907.087040,2220.617826,6513.812290
261.394190,5745.716235,5107.421000,3478.967927
261.394497,7354.516781,6069.688724,2664.741391
261.394805,7124.688131,6365.771101,3108.864956
261.395113,6128.763984,5921.647536,3775.050304
261.395421,4136.915689,2738.761985,6217.729913
261.395728,1378.971896,-0.000000,9770.718434
261.396036,-2298.286494,-2738.761985,12361.439231
261.396344,-4213.525239,-4589.276840,13989.892304
261.396652,-4519.963438,-5255.462188,14878.139434
261.396960,-3983.696590,-4219.173869,14434.015869
261.397268,-1455.581446,-2294.638420,13101.645173
261.397575,1685.410096,148.041188,10658.965565
261.397883,3064.381992,2812.782580,7328.038826
261.398191,4213.525239,3627.009116,4737.318029
261.398499,4749.792088,4515.256246,4885.359217
261.398807,4366.744339,4663.297435,5773.606348
261.399115,2987.772442,3182.885551,6957.935855
261.399422,536.266849,1258.350101,9252.574275
261.399730,-1915.238745,-2442.679609,12657.521608
261.400038,-4673.182538,-4737.318029,14730.098246
261.400346,-5745.716235,-5995.668130,15766.386565
261.400654,-5898.935335,-6365.771101,16062.468941
261.400962,-4136.915689,-4885.359217,14211.954086
261.401270,-612.876398,-1850.514855,11029.068536
261.401577,1838.629195,1110.308913,7402.059420
261.401885,5669.106685,3330.926739,4663.297435
261.402193,6665.030833,5181.441594,2590.720797
261.402501,7584.345430,6069.688724,2664.741391
261.402809,7201.297681,6291.750507,3108.864956
261.403117,4673.182538,4663.297435,4737.318029
261.403424,2145.067394,1480.411884,7772.162391
261.403732,-766.095498,-1628.453072,10807.006753
261.404040,-3524.039291,-3701.029710,13323.706956
261.404348,-4596.572988,-5699.585753,14582.057057
261.404656,-4903.011187,-4959.379811,15100.201217
261.404964,-2528.115143,-3552.988522,14211.954086
261.405271,0.000000,-1628.453072,12509.480420
261.405579,1455.581446,1332.370696,8438.347739
261.405887,3524.039291,2886.803174,6957.935855
261.406195,4749.792088,3775.050304,5625.565159
261.406503,3524.039291,5181.441594,4737.318029
261.406811,3447.429741,3627.009116,7105.977043
261.407119,1762.019645,2368.659014,8216.285956
261.407426,-1072.533697,-370.102971,11103.089130
261.407734,-2834.553343,-3775.050304,14063.912898
261.408042,-5209.449386,-4811.338623,15618.345376
261.408350,-6511.811733,-5847.626942,16284.530724
261.408658,-5209.449386,-5255.462188,15618.345376
261.408966,-2451.505594,-3034.844362,13841.851115
261.409273,536.266849,-296.082377,9696.697840
261.409581,3907.087040,2516.700203,6365.771101
261.409889,5975.544884,4811.338623,3404.947333
261.410197,7354.516781,5921.647536,2590.720797
261.410505,7201.297681,6291.750507,3404.947333
261.410813,5898.935335,5773.606348,3849.070898
261.411120,3753.867940,3404.947333,6365.771101
261.411428,612.876398,370.102971,9400.615463
261.411736,-1302.362347,-2368.659014,12731.542202
261.412044,-4060.306139,-3923.091493,14508.036463
261.412352,-4673.182538,-4663.297435,14804.118840
261.412660,-3217.601092,-4071.132681,14359.995275
261.412967,-1608.800546,-1924.535449,12879.583391
261.413275,383.047749,-0.000000,10288.862594
261.413583,2757.943793,2072.576638,8438.347739
261.413891,4290.134789,3775.050304,5625.565159
261.414199,3983.696590,4219.173869,5551.544565
261.414507,3600.648841,4219.173869,5921.647536
261.414815,2757.943793,3478.967927,7698.141797
261.415122,383.047749,444.123565,9770.718434
261.415430,-2145.067394,-2516.700203,12657.521608
261.415738,-4290.134789,-4589.276840,14952.160028
261.416046,-5439.278036,-5847.626942,16136.489536
261.416354,-4903.011187,-5477.523971,15470.304188
261.416662,-3370.820191,-4367.215058,13989.892304
261.416969,-229.828649,-1406.391290,10436.903782
261.417277,2757.943793,1332.370696,6957.935855
261.417585,5132.839837,4293.194464,5033.400406
261.417893,6818.249932,5773.606348,2812.782580
261.418201,7507.735880,6143.709319,2812.782580
261.418509,6665.030833,6217.729913,2812.782580
261.418816,4826.401637,4367.215058,4515.256246
261.419124,2298.286494,1110.308913,7772.162391
261.419432,-919.314598,-1554.432478,11177.109724
261.419740,-3217.601092,-3997.112087,13693.809927
261.420048,-4979.620737,-5329.482782,14508.036463
261.420356,-4596.572988,-5033.400406,15100.201217
261.420664,-3140.991542,-3404.947333,13841.851115
261.420971,-459.657299,-1036.288319,11547.212695
261.421279,1991.848295,1036.288319,8734.430116
261.421587,3524.039291,3182.885551,5921.647536
261.421895,4060.306139,4663.297435,4959.379811
261.422203,4519.963438,4737.318029,5329.482782
261.422511,3370.820191,4071.132681,6143.709319
261.422818,1532.190996,2368.659014,8142.265362
261.423126,-919.314598,-1184.329507,10881.027347
261.423434,-3447.429741,-3775.050304,13989.892304
261.423742,-5669.106685,-5477.523971,15840.407159
261.424050,-5975.544884,-6735.874072,16506.592507
261.424358,-4903.011187,-5255.462188,15322.262999
261.424665,-1685.410096,-2960.823768,13249.686362
261.424973,1072.533697,370.102971,8882.471304
261.425281,3983.696590,2738.761985,5773.606348
261.425589,5975.544884,4811.338623,3552.988522
261.425897,6971.469032,6217.729913,2294.638420
261.426205,7048.078582,5847.626942,3034.844362
261.426513,5898.935335,5329.482782,4367.215058
261.426820,3217.601092,2738.761985,6069.688724
261.427128,459.657299,-518.144159,9400.615463
261.427436,-2911.162892,-2368.659014,13101.645173
261.427744,-4903.011187,-4885.359217,15026.180623
261.428052,-5286.058936,-5477.523971,15544.324782
261.428360,-4366.744339,-4441.235652,15248.242405
261.428667,-1762.019645,-2368.659014,13175.665768
261.428975,1149.143247,-74.020594,10732.986159
261.429283,2757.943793,2146.597232,8290.306550
261.429591,4519.963438,3701.029710,5699.585753
261.429899,5286.058936,4959.379811,5181.441594
261.430207,4903.011187,5107.421000,5403.503377
261.430514,3524.039291,3923.091493,6661.853478
261.430822,995.924147,1332.370696,9252.574275
261.431130,-1072.533697,-2072.576638,12509.480420
261.431438,-4136.915689,-4145.153275,14878.139434
261.431746,-5056.230287,-5699.585753,16358.551318
261.432054,-5439.278036,-5403.503377,15914.427753
261.432362,-3217.601092,-3775.050304,13619.789333
261.432669,-383.047749,-1036.288319,10955.047942
261.432977,2757.943793,1628.453072,7624.121203
261.433285,4979.620737,3701.029710,4959.379811
261.433593,6435.202183,4811.338623,3182.885551
261.433901,7201.297681,5995.668130,3182.885551
261.434209,6358.592633,6217.729913,3849.070898
261.434516,4826.401637,4071.132681,5403.503377
261.434824,1608.800546,1332.370696,7920.203579
261.435132,-1149.143247,-1702.473667,11547.212695
261.435440,-3907.087040,-4071.132681,14063.912898
261.435748,-4903.011187,-5551.544565,15322.262999
261.436056,-4673.182538,-5403.503377,15544.324782
261.436363,-2451.505594,-4441.235652,14434.015869
261.436671,-153.219100,-1702.473667,11621.233289
261.436979,1532.190996,370.102971,9104.533087
261.437287,4290.134789,3034.844362,6661.853478
261.437595,5439.278036,4737.318029,4367.215058
261.437903,5592.497135,5403.503377,4293.194464
261.438211,4903.011187,5107.421000,5625.565159
261.438518,2451.505594,3478.967927,7105.977043
261.438826,-383.047749,148.041188,9770.718434
261.439134,-1991.848295,-2294.638420,12879.583391
261.439442,-4903.011187,-4293.194464,14878.139434
261.439750,-5745.716235,-5255.462188,15248.242405
261.440058,-4826.401637,-5255.462188,15396.283594
261.440365,-2451.505594,-3256.906145,12805.562797
261.440673,306.438199,-296.082377,9474.636058
261.440981,3370.820191,1924.535449,7179.997637
261.441289,5209.449386,3701.029710,4737.318029
261.441597,6511.811733,5255.462188,3330.926739
261.441905,5975.544884,5625.565159,3997.112087
261.442212,5209.449386,4811.338623,4737.318029
261.442520,2451.505594,3108.864956,6439.791695
261.442828,0.000000,-148.041188,9548.656652
261.443136,-2374.896044,-2368.659014,12657.521608
261.443444,-4290.134789,-4515.256246,14656.077652
261.443752,-4979.620737,-5107.421000,15618.345376
261.444060,-4366.744339,-4663.297435,14656.077652
261.444367,-1915.238745,-3034.844362,13101.645173
261.444675,306.438199,-740.205942,10955.047942
261.444983,2604.724693,1776.494261,7772.162391
261.445291,3907.087040,3330.926739,5551.544565
261.445599,4826.401637,4441.235652,5107.421000
261.445907,4366.744339,4959.379811,4959.379811
261.446214,3370.820191,3256.906145,6883.915261
261.446522,689.485948,1554.432478,8808.450710
261.446830,-1532.190996,-1776.494261,11547.212695
261.447138,-3753.867940,-3701.029710,14211.954086
261.447446,-5362.668486,-5033.400406,15174.221811
261.447754,-5132.839837,-5107.421000,15174.221811
261.448061,-3907.087040,-3627.009116,14063.912898
261.448369,-995.924147,-1110.308913,10732.986159
261.448677,1838.629195,1036.288319,8068.244768
261.448985,5132.839837,2886.803174,5773.606348
261.449293,5132.839837,4959.379811,3330.926739
261.449601,6205.373534,5329.482782,4219.173869
261.449909,5362.668486,5181.441594,4589.276840
261.450216,3524.039291,4071.132681,5625.565159
261.450524,1915.238745,1628.453072,8512.368333
261.450832,-1225.752797,-962.267725,11399.171507
261.451140,-3140.991542,-2886.803174,13471.748144
261.451448,-3983.696590,-4145.153275,14656.077652
261.451756,-3524.039291,-4367.215058,15026.180623
261.452063,-2451.505594,-3478.967927,13767.830521
261.452371,0.000000,-1184.329507,11473.192101
261.452679,2451.505594,814.226536,9474.636058
261.452987,3830.477490,2442.679609,6439.791695
261.453295,4673.182538,4145.153275,5625.565159
261.453603,4979.620737,4589.276840,5773.606348
261.453910,3983.696590,3552.988522,6069.688724
261.454218,1838.629195,1998.556043,8142.265362
261.454526,-229.828649,-222.061783,10436.903782
261.454834,-2528.115143,-3034.844362,13545.768739
261.455142,-4366.744339,-4515.256246,14952.160028
261.455450,-4903.011187,-4737.318029,15618.345376
261.455758,-4136.915689,-4589.276840,15100.201217
261.456065,-1302.362347,-1998.556043,11991.336260
261.456373,1302.362347,296.082377,9252.574275
261.456681,3907.087040,2146.597232,6439.791695
261.456989,5822.325785,4145.153275,4145.153275
261.457297,5898.935335,5403.503377,3627.009116
261.457605,5975.544884,5181.441594,4441.235652
261.457912,4979.620737,4737.318029,4811.338623
261.458220,2987.772442,2812.782580,6291.750507
261.458528,766.095498,-518.144159,9770.718434
261.458836,-1991.848295,-2442.679609,12213.398043
261.459144,-3600.648841,-3923.091493,13989.892304
261.459452,-3753.867940,-4515.256246,14730.098246
261.459759,-2911.162892,-3997.112087,13989.892304
261.460067,-766.095498,-2294.638420,12509.480420
261.460375,1532.190996,-0.000000,9696.697840
261.460683,3217.601092,2368.659014,7179.997637
261.460991,4366.744339,3701.029710,5181.441594
261.461299,4903.011187,4293.194464,5107.421000
261.461607,4060.306139,4441.235652,5699.585753
261.461914,2451.505594,2812.782580,7328.038826
261.462222,229.828649,296.082377,9548.656652
261.462530,-2451.505594,-2442.679609,12435.459826
261.462838,-4519.963438,-4589.276840,14878.139434
261.463146,-5132.839837,-5625.565159,15914.427753
261.463454,-5515.887586,-5181.441594,15988.448347
261.463761,-3830.477490,-3849.070898,14137.933492
261.464069,-459.657299,-814.226536,11103.089130
261.464377,2221.676944,1480.411884,7328.038826
261.464685,4519.963438,3478.967927,4959.379811
261.464993,5669.106685,4959.379811,3701.029710
261.465301,5669.106685,5699.585753,4071.132681
261.465608,4979.620737,4811.338623,4737.318029
261.465916,3064.381992,4145.153275,5625.565159
261.466224,1302.362347,1258.350101,8290.306550
261.466532,-1149.143247,-1110.308913,11251.130318
261.466840,-3524.039291,-2590.720797,12805.562797
261.467148,-3907.087040,-4145.153275,14878.139434
261.467456,-3983.696590,-4071.132681,14804.118840
261.467763,-2451.505594,-2812.782580,13471.748144
261.468071,459.657299,-962.267725,11473.192101
261.468379,1915.238745,1554.432478,8290.306550
261.468687,3600.648841,2664.741391,6439.791695
261.468995,4519.963438,3923.091493,5847.626942
261.469303,3983.696590,4367.215058,6069.688724
261.469610,3064.381992,3034.844362,7031.956449
261.469918,1455.581446,1480.411884,8882.471304
261.470226,-1225.752797,-1702.473667,11695.253884
261.470534,-3217.601092,-3997.112087,14137.933492
261.470842,-4443.353888,-5107.421000,16062.468941
261.471150,-5286.058936,-5255.462188,15544.324782
261.471457,-3983.696590,-4293.194464,14656.077652
261.471765,-919.314598,-1998.556043,12213.398043
261.472073,1915.238745,1036.288319,8808.450710
261.472381,4213.525239,3034.844362,5847.626942
261.472689,6281.983084,4367.215058,3701.029710
261.472997,7124.688131,6069.688724,3478.967927
261.473305,6358.592633,5551.544565,4367.215058
261.473612,5439.278036,4663.297435,4589.276840
261.473920,2604.724693,2960.823768,6513.812290
261.474228,459.657299,-518.144159,10066.800811
261.474536,-2221.676944,-2442.679609,12287.418637
261.474844,-3830.477490,-4367.215058,14285.974681
261.475152,-4060.306139,-5033.400406,15026.180623
261.475459,-3294.210641,-3701.029710,14285.974681
261.475767,-1378.971896,-2072.576638,12361.439231
261.476075,1838.629195,222.061783,9696.697840
261.476383,3753.867940,2738.761985,6883.915261
261.476691,5056.230287,4293.194464,4811.338623
261.476999,5056.230287,5181.441594,5033.400406
261.477306,4519.963438,3997.112087,6439.791695
261.477614,2451.505594,1998.556043,7476.080014
261.477922,-229.828649,-592.164754,10510.924376
261.478230,-2298.286494,-3108.864956,13397.727550
261.478538,-5209.449386,-5551.544565,15470.304188
261.478846,-5975.544884,-6291.750507,16210.510130
261.479154,-5286.058936,-5551.544565,15396.283594
261.479461,-2374.896044,-3478.967927,13545.768739
261.479769,766.095498,-0.000000,9622.677246
261.480077,3753.867940,2294.638420,6661.853478
261.480385,5822.325785,4811.338623,4071.132681
261.480693,6894.859482,6439.791695,2590.720797
261.481001,7354.516781,5995.668130,2960.823768
261.481308,6281.983084,6069.688724,3256.906145
261.481616,4290.134789,4367.215058,5033.400406
261.481924,1302.362347,814.226536,8660.409521
261.482232,-1685.410096,-2442.679609,11621.233289
261.482540,-4290.134789,-4663.297435,14434.015869
261.482848,-5362.668486,-6661.853478,16284.530724
261.483155,-5132.839837,-6143.709319,15914.427753
261.483463,-3370.820191,-3404.947333,13471.748144
261.483771,-306.438199,-888.247130,11547.212695
261.484079,2068.457845,1184.329507,8586.388927
261.484387,3907.087040,3552.988522,5699.585753
261.484695,4979.620737,5033.400406,5107.421000
261.485003,4519.963438,4811.338623,5551.544565
261.485310,4136.915689,3478.967927,6365.771101
261.485618,1302.362347,1480.411884,8438.347739
261.485926,-1532.190996,-1480.411884,11843.295072
261.486234,-3830.477490,-4663.297435,14804.118840
261.486542,-5898.935335,-5625.565159,15766.386565
261.486850,-6435.202183,-6143.709319,16136.489536
261.487157,-4749.792088,-5255.462188,14804.118840
261.487465,-1915.238745,-2146.597232,11843.295072
261.487773,1302.362347,814.226536,8734.430116
261.488081,4749.792088,3108.864956,5403.503377
261.488389,6281.983084,5033.400406,3330.926739
261.488697,7201.297681,6883.915261,2516.700203
261.489004,7124.688131,6883.915261,3182.885551
261.489312,5822.325785,5921.647536,3775.050304
261.489620,3140.991542,3627.009116,6513.812290
261.489928,0.000000,-370.102971,10732.986159
261.490236,-2451.505594,-2738.761985,13545.768739
261.490544,-5286.058936,-4737.318029,15322.262999
261.490852,-5286.058936,-5699.585753,16580.613101
261.491159,-4290.134789,-4737.318029,15248.242405
261.491467,-2145.067394,-1850.514855,12879.583391
261.491775,383.047749,148.041188,10584.944971
261.492083,3524.039291,2516.700203,8216.285956
261.492391,4596.572988,3923.091493,5995.668130
261.492699,4826.401637,4663.297435,5403.503377
261.493006,4903.011187,4293.194464,5551.544565
261.493314,2911.162892,3182.885551,7179.997637
261.493622,689.485948,666.185348,9474.636058
261.493930,-1838.629195,-2442.679609,13175.665768
261.494238,-3983.696590,-4663.297435,15174.221811
261.494546,-5515.887586,-5921.647536,15766.386565
261.494853,-4979.620737,-5551.544565,15248.242405
261.495161,-2757.943793,-3923.091493,13175.665768
261.495469,766.095498,-444.123565,10732.986159
261.495777,3447.429741,1850.514855,6439.791695
261.496085,5822.325785,4367.215058,4145.153275
261.496393,7431.126331,5921.647536,2960.823768
261.496700,7354.516781,7105.977043,2220.617826
261.497008,6665.030833,5773.606348,3034.844362
261.497316,5056.230287,4811.338623,4071.132681
261.497624,2451.505594,1332.370696,7994.224174
261.497932,-919.314598,-1258.350101,11177.109724
261.498240,-3600.648841,-4145.153275,13545.768739
261.498548,-4903.011187,-5921.647536,15322.262999
261.498856,-5209.449386,-5625.565159,15396.283594
261.499164,-3370.820191,-3627.009116,14211.954086
261.499472,-383.047749,-1702.473667,11473.192101
261.499779,1838.629195,740.205942,8882.471304
261.500087,4136.915689,3108.864956,6661.853478
261.500395,5209.449386,4293.194464,4959.379811
261.500703,4903.011187,4293.194464,5255.462188
261.501011,3753.867940,3701.029710,6143.709319
261.501319,1685.410096,1776.494261,8660.409521
261.501627,-995.924147,-1258.350101,11473.192101
261.501935,-3140.991542,-3701.029710,14582.057057
261.502243,-4903.011187,-5403.503377,15692.365970
261.502551,-5515.887586,-5921.647536,15618.345376
261.502859,-4366.744339,-4293.194464,14359.995275
261.503167,-1302.362347,-2368.659014,11621.233289
261.503475,1991.848295,888.247130,8512.368333
261.503783,4443.353888,3330.926739,5625.565159
261.504091,6358.592633,5329.482782,3256.906145
261.504399,7048.078582,6587.832884,2294.638420
261.504707,6894.859482,6365.771101,3034.844362
261.505015,5286.058936,5551.544565,4071.132681
261.505323,3064.381992,3034.844362,7179.997637
261.505631,-229.828649,-370.102971,10807.006753
261.505939,-3217.601092,-3552.988522,13545.768739
261.506246,-5286.058936,-5255.462188,15174.221811
261.506554,-5898.935335,-6069.688724,16136.489536
261.506862,-4826.401637,-4589.276840,15174.221811
261.507170,-1991.848295,-2072.576638,13471.748144
261.507478,536.266849,222.061783,10214.842000
261.507786,2374.896044,2368.659014,7550.100608
261.508094,4826.401637,4293.194464,5625.565159
261.508402,5209.449386,4737.318029,5033.400406
261.508710,4826.401637,4589.276840,5181.441594
261.509018,3064.381992,2960.823768,7031.956449
261.509326,612.876398,814.226536,9918.759623
261.509634,-1915.238745,-2516.700203,13027.624579
261.509942,-4213.525239,-4737.318029,15248.242405
261.510250,-5822.325785,-5403.503377,15692.365970
261.510558,-4903.011187,-5107.421000,15174.221811
261.510866,-2451.505594,-3330.926739,12953.603985
261.511174,306.438199,-222.061783,10214.842000
261.511482,3370.820191,2368.659014,7402.059420
261.511790,5822.325785,4293.194464,4589.276840
261.512098,6435.202183,5773.606348,3404.947333
261.512406,7124.688131,6069.688724,3849.070898
261.512713,6052.154434,5847.626942,3923.091493
261.513021,3447.429741,3997.112087,5699.585753
261.513329,995.924147,888.247130,9178.553681
261.513637,-1915.238745,-2442.679609,12953.603985
261.513945,-4290.134789,-4515.256246,14952.160028
261.514253,-5822.325785,-5551.544565,16210.510130
261.514561,-4826.401637,-5477.523971,15470.304188
261.514869,-2374.896044,-2886.803174,13693.809927
261.515177,842.705048,-0.000000,10732.986159
261.515485,2757.943793,2220.617826,8290.306550
261.515793,4903.011187,4367.215058,5477.523971
261.516101,5822.325785,4811.338623,4663.297435
261.516409,5286.058936,4885.359217,4663.297435
261.516717,4749.792088,3182.885551,6143.709319
261.517025,1455.581446,1184.329507,8882.471304
261.517333,-1302.362347,-1702.473667,11473.192101
261.517641,-3524.039291,-4589.276840,14582.057057
261.517949,-5132.839837,-5477.523971,15618.345376
261.518257,-5132.839837,-5847.626942,15470.304188
261.518565,-3524.039291,-4293.194464,13767.830521
261.518873,-306.438199,-1554.432478,10881.027347
261.519181,2451.505594,1332.370696,8290.306550
261.519488,4749.792088,3108.864956,5477.523971
261.519796,6894.859482,5477.523971,3108.864956
261.520104,6741.640382,5995.668130,2664.741391
261.520412,6818.249932,6291.750507,3108.864956
261.520720,5209.449386,4811.338623,4293.194464
261.521028,2145.067394,2146.597232,7328.038826
261.521336,-995.924147,-1406.391290,11177.109724
261.521644,-3830.477490,-4145.153275,13471.748144
261.521952,-5515.887586,-5699.585753,15544.324782
261.522260,-5745.716235,-6069.688724,15766.386565
261.522568,-3907.087040,-3404.947333,14656.077652
261.522876,-766.095498,-1110.308913,11843.295072
261.523184,1685.410096,1702.473667,8882.471304
261.523492,3830.477490,3108.864956,6513.812290
261.523800,5286.058936,4515.256246,4885.359217
261.524108,5132.839837,4959.379811,4811.338623
261.524416,4290.134789,3627.009116,5773.606348
261.524724,2374.896044,2368.659014,7920.203579
261.525032,-689.485948,-0.000000,11251.130318
261.525340,-3294.210641,-3182.885551,13471.748144
261.525648,-5286.058936,-4737.318029,15322.262999
261.525955,-6052.154434,-5921.647536,15988.448347
261.526263,-5209.449386,-5403.503377,15100.201217
261.526571,-2374.896044,-2664.741391,12731.542202
261.526879,1072.533697,-74.020594,9474.636058
261.527187,3524.039291,2442.679609,6439.791695
261.527495,5209.449386,4367.215058,4293.194464
261.527803,6741.640382,6069.688724,3034.844362
261.528111,6435.202183,6883.915261,2368.659014
261.528419,6128.763984,5625.565159,4145.153275
261.528727,3447.429741,3923.091493,5551.544565
261.529035,536.266849,888.247130,9474.636058
261.529343,-2145.067394,-2294.638420,13175.665768
261.529651,-4519.963438,-4589.276840,14656.077652
261.529959,-5362.668486,-5551.544565,15914.427753
261.530267,-4290.134789,-4441.235652,15026.180623
261.530575,-2068.457845,-2294.638420,13175.665768
261.530883,383.047749,74.020594,10732.986159
261.531191,2451.505594,2146.597232,7772.162391
261.531499,4060.306139,3404.947333,5699.585753
261.531807,4903.011187,4145.153275,5699.585753
261.532115,4136.915689,3775.050304,5995.668130
261.532422,2681.334243,2960.823768,6957.935855
261.532730,612.876398,592.164754,9548.656652
261.533038,-1838.629195,-2294.638420,12287.418637
261.533346,-4136.915689,-4071.132681,14434.015869
261.533654,-5822.325785,-6069.688724,15840.407159
261.533962,-4979.620737,-5773.606348,14952.160028
261.534270,-3447.429741,-4145.153275,14137.933492
261.534578,0.000000,-1702.473667,10510.924376
261.534886,2681.334243,1480.411884,7550.100608
261.535194,4979.620737,3775.050304,5403.503377
261.535502,6358.592633,5329.482782,3997.112087
261.535810,6665.030833,6439.791695,2812.782580
261.536118,5898.935335,6143.709319,3849.070898
261.536426,5439.278036,5107.421000,5255.462188
261.536734,2145.067394,2368.659014,7254.018232
261.537042,-766.095498,-888.247130,11325.150913
261.537350,-3064.381992,-3627.009116,13841.851115
261.537658,-4826.401637,-5107.421000,15174.221811
261.537966,-4826.401637,-5181.441594,15026.180623
261.538274,-2987.772442,-3404.947333,13841.851115
261.538582,-153.219100,-1110.308913,11399.171507
261.538890,2221.676944,1184.329507,9400.615463
261.539197,4290.134789,2960.823768,7031.956449
261.539505,4979.620737,4367.215058,5181.441594
261.539813,4979.620737,4737.318029,5477.523971
261.540121,4290.134789,3997.112087,6143.709319
261.540429,1915.238745,2146.597232,7846.182985
261.540737,-383.047749,-592.164754,10955.047942
261.541045,-2757.943793,-2886.803174,13249.686362
261.541353,-4596.572988,-4737.318029,15396.283594
261.541661,-5209.449386,-5847.626942,15914.427753
261.541969,-4826.401637,-5699.585753,14359.995275
261.542277,-1915.238745,-3108.864956,12361.439231
261.542585,1608.800546,-74.020594,8734.430116
261.542893,3753.867940,1924.535449,6513.812290
261.543201,5745.716235,3997.112087,4071.132681
261.543509,7277.907231,5773.606348,2886.803174
261.543817,7354.516781,5773.606348,3330.926739
261.544125,6052.154434,4885.359217,3997.112087
261.544433,3907.087040,3256.906145,6143.709319
261.544741,919.314598,-0.000000,9178.553681
261.545049,-2451.505594,-2812.782580,12213.398043
261.545357,-4596.572988,-4737.318029,14359.995275
261.545664,-5056.230287,-5921.647536,15988.448347
261.545972,-4903.011187,-5255.462188,15100.201217
261.546280,-2221.676944,-2442.679609,12361.439231
261.546588,766.095498,-0.000000,10510.924376
261.546896,2757.943793,2442.679609,8142.265362
261.547204,3907.087040,3849.070898,5847.626942
261.547512,4903.011187,4589.276840,5625.565159
261.547820,4366.744339,4663.297435,5403.503377
261.548128,2451.505594,3552.988522,6957.935855
261.548436,919.314598,962.267725,9770.718434
261.548744,-1685.410096,-1406.391290,12213.398043
261.549052,-4366.744339,-3849.070898,14434.015869
261.549360,-4903.011187,-5033.400406,15914.427753
261.549668,-4826.401637,-4811.338623,15026.180623
261.549976,-3294.210641,-3330.926739,14137.933492
261.550284,0.000000,-1184.329507,10881.027347
261.550592,2911.162892,1776.494261,7846.182985
261.550900,4136.915689,3182.885551,5773.606348
261.551208,5898.935335,4885.359217,4293.194464
261.551516,6435.202183,6069.688724,3108.864956
261.551824,6281.983084,5847.626942,3923.091493
261.552131,4979.620737,4367.215058,4959.379811
261.552439,1915.238745,1998.556043,7772.162391
261.552747,-995.924147,-1406.391290,11621.233289
261.553055,-3677.258390,-3775.050304,14063.912898
261.553363,-5745.716235,-5181.441594,14952.160028
261.553671,-5592.497135,-4885.359217,15766.386565
261.553979,-3524.039291,-3552.988522,14359.995275
261.554287,-766.095498,-1184.329507,11991.336260
261.554595,1685.410096,962.267725,9474.636058
261.554903,3140.991542,2738.761985,7179.997637
261.555211,4290.134789,3404.947333,5625.565159
261.555519,4213.525239,3849.070898,5625.565159
261.555827,3753.867940,3404.947333,5995.668130
261.556135,2145.067394,1628.453072,7994.224174
261.556443,-306.438199,-296.082377,10362.883188
261.556751,-2604.724693,-2960.823768,12805.562797
261.557059,-4443.353888,-4737.318029,14359.995275
261.557367,-5056.230287,-5033.400406,14952.160028
261.557675,-3753.867940,-4737.318029,14434.015869
261.557983,-1838.629195,-2664.741391,11769.274478
261.558291,1225.752797,-0.000000,8734.430116
261.558598,4366.744339,2294.638420,6883.915261
261.558906,5132.839837,4441.235652,4441.235652
261.559214,6435.202183,5477.523971,3182.885551
261.559522,6741.640382,6143.709319,3034.844362
261.559830,5669.106685,5477.523971,4219.173869
261.560138,3064.381992,3256.906145,5921.647536
261.560446,536.266849,222.061783,9474.636058
261.560754,-2528.115143,-2886.803174,13397.727550
261.561062,-4979.620737,-4885.359217,15026.180623
261.561370,-5745.716235,-5477.523971,15174.221811
261.561678,-4749.792088,-4663.297435,15100.201217
261.561986,-2068.457845,-2516.700203,12953.603985
261.562294,306.438199,148.041188,10658.965565
261.562602,2681.334243,1924.535449,8512.368333
261.562910,3983.696590,3256.906145,6291.750507
261.563218,4136.915689,4219.173869,5255.462188
261.563526,4903.011187,4441.235652,5847.626942
261.563834,2834.553343,3256.906145,6365.771101
261.564142,1225.752797,962.267725,8956.491898
261.564450,-995.924147,-1258.350101,11325.150913
261.564758,-3294.210641,-3330.926739,13545.768739
261.565066,-4519.963438,-5181.441594,15026.180623
261.565373,-4673.182538,-4959.379811,14656.077652
261.565681,-3600.648841,-3478.967927,13693.809927
261.565989,-459.657299,-1036.288319,10807.006753
261.566297,2451.505594,1776.494261,8216.285956
261.566605,4673.182538,3330.926739,5699.585753
261.566913,6358.592633,5107.421000,3997.112087
261.567221,6588.421283,5699.585753,3034.844362
261.567529,5822.325785,5329.482782,3849.070898
261.567837,4136.915689,3923.091493,5625.565159
261.568145,1225.752797,1184.329507,8882.471304
261.568453,-1455.581446,-1924.535449,12065.356855
261.568761,-3064.381992,-3923.091493,14582.057057
261.569069,-4749.792088,-4737.318029,15100.201217
261.569377,-4903.011187,-4293.194464,15396.283594
261.569685,-2528.115143,-3034.844362,14137.933492
261.569993,0.000000,-0.000000,10881.027347
261.570301,2451.505594,1850.514855,9178.553681
261.570609,4136.915689,3478.967927,6587.832884
261.570917,4749.792088,4589.276840,5551.544565
261.571225,4903.011187,4219.173869,5847.626942
261.571533,3447.429741,4367.215058,5921.647536
261.571840,1915.238745,2368.659014,7772.162391
261.572148,-612.876398,-592.164754,11029.068536
261.572456,-3064.381992,-3034.844362,13545.768739
261.572764,-5286.058936,-4737.318029,15396.283594
261.573072,-5592.497135,-5477.523971,15544.324782
261.573380,-4213.525239,-4515.256246,14656.077652
261.573688,-2145.067394,-2738.761985,12287.418637
261.573996,1302.362347,370.102971,9696.697840
261.574304,3753.867940,2294.638420,6439.791695
261.574612,5439.278036,4367.215058,4589.276840
261.574920,6205.373534,5477.523971,3034.844362
261.575228,6588.421283,5625.565159,3330.926739
261.575536,5975.544884,4811.338623,4589.276840
261.575844,3294.210641,2516.700203,6291.750507
261.576152,842.705048,-592.164754,9622.677246
261.576460,-2604.724693,-3256.906145,12731.542202
261.576768,-4749.792088,-5255.462188,14730.098246
261.577076,-5209.449386,-5107.421000,14508.036463
261.577384,-3217.601092,-4145.153275,14211.954086
261.577692,-306.438199,-1480.411884,11695.253884
261.578000,1915.238745,740.205942,9326.594869
261.578307,3677.258390,2294.638420,7402.059420
261.578615,4673.182538,3923.091493,5477.523971
261.578923,4979.620737,4145.153275,4959.379811
261.579231,4596.572988,4145.153275,5033.400406
261.579539,2834.553343,2738.761985,6809.894666
261.579847,612.876398,-0.000000,9696.697840
261.580155,-1838.629195,-2442.679609,12953.603985
261.580463,-4443.353888,-4811.338623,14656.077652
261.580771,-5592.497135,-5699.585753,15692.365970
261.581079,-5515.887586,-6069.688724,15692.365970
261.581387,-3600.648841,-4071.132681,13693.809927
261.581695,-766.095498,-962.267725,10732.986159
261.582003,2451.505594,1850.514855,7846.182985
261.582311,4903.011187,3997.112087,5181.441594
261.582619,6128.763984,5551.544565,3552.988522
261.582927,6741.640382,6143.709319,2886.803174
261.583235,6052.154434,5625.565159,3849.070898
261.583543,4136.915689,4293.194464,5551.544565
261.583851,1455.581446,1480.411884,8882.471304
261.584159,-1455.581446,-1924.535449,12065.356855
261.584467,-4136.915689,-3923.091493,14359.995275
261.584774,-4749.792088,-4959.379811,15322.262999
261.585082,-3830.477490,-4663.297435,14952.160028
261.585390,-2374.896044,-2442.679609,12953.603985
261.585698,919.314598,-370.102971,11177.109724
261.586006,2987.772442,2146.597232,8734.430116
261.586314,4519.963438,3849.070898,6809.894666
261.586622,4903.011187,4441.235652,5551.544565
261.586930,4903.011187,5033.400406,4959.379811
261.587238,3830.477490,3997.112087,6513.812290
261.587546,2298.286494,2220.617826,8438.347739
261.587854,-766.095498,-518.144159,11991.336260
261.588162,-3064.381992,-3552.988522,14285.974681
261.588470,-5132.839837,-5107.421000,15914.427753
261.588778,-5669.106685,-5847.626942,16284.530724
261.589086,-4903.011187,-4737.318029,14952.160028
261.589394,-2145.067394,-2072.576638,12065.356855
261.589702,1302.362347,666.185348,9178.553681
261.590010,3294.210641,3108.864956,6661.853478
261.590318,5975.544884,4293.194464,4663.297435
261.590626,6435.202183,5921.647536,2886.803174
261.590934,6435.202183,5625.565159,2812.782580
261.591242,5592.497135,5033.400406,4219.173869
261.591549,3294.210641,2516.700203,6809.894666
261.591857,229.828649,-592.164754,10140.821405
261.592165,-2604.724693,-3627.009116,13027.624579
261.592473,-4366.744339,-5773.606348,14656.077652
261.592781,-4749.792088,-6069.688724,15840.407159
261.593089,-3753.867940,-4293.194464,14211.954086
261.593397,-1455.581446,-2368.659014,11695.253884
261.593705,1378.971896,740.205942,9326.594869
261.594013,3830.477490,2960.823768,7105.977043
261.594321,4903.011187,4071.132681,5033.400406
261.594629,4596.572988,4367.215058,4515.256246
261.594937,3983.696590,4367.215058,4959.379811
261.595245,2374.896044,3256.906145,7179.997637
261.595553,383.047749,592.164754,10288.862594
261.595861,-2451.505594,-2664.741391,12731.542202
261.596169,-4826.401637,-4663.297435,14359.995275
261.596477,-5669.106685,-6291.750507,16136.489536
261.596785,-5515.887586,-6291.750507,15322.262999
261.597093,-3830.477490,-4071.132681,13693.809927
261.597401,0.000000,-1406.391290,10510.924376
261.597709,2374.896044,1702.473667,7476.080014
261.598016,5515.887586,3775.050304,5403.503377
261.598324,6435.202183,5329.482782,2960.823768
261.598632,7277.907231,6587.832884,2368.659014
261.598940,6971.469032,5625.565159,3256.906145
261.599248,4826.401637,4293.194464,4663.297435
261.599556,2068.457845,1036.288319,8882.471304
261.599864,-1378.971896,-2072.576638,11769.274478
261.600172,-3753.867940,-4145.153275,14359.995275
261.600480,-4826.401637,-5699.585753,15692.365970
261.600788,-4366.744339,-4589.276840,15026.180623
261.601096,-2451.505594,-2590.720797,13545.768739
261.601404,536.266849,296.082377,11103.089130
261.601712,2604.724693,2294.638420,8808.450710
261.602020,3983.696590,3849.070898,6143.709319
261.602328,4903.011187,4071.132681,5773.606348
261.602636,5209.449386,4441.235652,5255.462188
261.602944,3830.477490,3775.050304,6587.832884
261.603252,1838.629195,1480.411884,9400.615463
261.603560,-842.705048,-1184.329507,11695.253884
261.603868,-3600.648841,-3775.050304,14656.077652
261.604176,-5515.887586,-5625.565159,15914.427753
261.604484,-6052.154434,-6587.832884,16358.551318
261.604791,-4979.620737,-4737.318029,15174.221811
261.605099,-2681.334243,-2590.720797,11917.315666
261.605407,1225.752797,1406.391290,9770.718434
261.605715,4519.963438,3552.988522,6439.791695
261.606023,6511.811733,5773.606348,3034.844362
261.606331,7124.688131,6439.791695,2442.679609
261.606639,7431.126331,6587.832884,3256.906145
261.606947,5975.544884,5847.626942,4145.153275
261.607255,3217.601092,3404.947333,6957.935855
261.607563,383.047749,-518.144159,10658.965565
261.607871,-2834.553343,-3256.906145,13471.748144
261.608179,-4443.353888,-5255.462188,15100.201217
261.608487,-4903.011187,-5551.544565,15618.345376
261.608795,-3983.696590,-3923.091493,14434.015869
261.609103,-1455.581446,-1406.391290,11843.295072
261.609411,1685.410096,592.164754,10214.842000
261.609719,3140.991542,2590.720797,7550.100608
261.610027,4136.915689,3478.967927,5773.606348
261.610335,4596.572988,3923.091493,5329.482782
261.610643,4060.306139,4293.194464,5403.503377
261.610951,2298.286494,2664.741391,7698.141797
261.611258,153.219100,370.102971,10362.883188
261.611566,-2604.724693,-2886.803174,13249.686362
261.611874,-4979.620737,-4959.379811,15322.262999
261.612182,-6052.154434,-6957.935855,15914.427753
261.612490,-5439.278036,-6217.729913,14878.139434
261.612798,-3217.601092,-3775.050304,12583.501014
261.613106,76.609550,-0.000000,9844.739029
261.613414,3370.820191,2368.659014,6439.791695
261.613722,5745.716235,4811.338623,3775.050304
261.614030,6971.469032,5773.606348,2516.700203
261.614338,7201.297681,5921.647536,1924.535449
261.614646,6358.592633,5995.668130,3627.009116
261.614954,4136.915689,3182.885551,5107.421000
261.615262,1072.533697,148.041188,8808.450710
261.615570,-1915.238745,-2442.679609,12361.439231
261.615878,-4519.963438,-4737.318029,14063.912898
261.616186,-5439.278036,-5995.668130,15840.407159
261.616494,-4443.353888,-5107.421000,15026.180623
261.616802,-2451.505594,-2738.761985,12879.583391
261.617110,459.657299,-0.000000,10955.047942
261.617418,2451.505594,1702.473667,8734.430116
261.617726,3753.867940,3108.864956,6143.709319
261.618033,4290.134789,4071.132681,5477.523971
261.618341,4749.792088,4737.318029,5033.400406
261.618649,3677.258390,4071.132681,5847.626942
261.618957,1685.410096,1628.453072,8734.430116
261.619265,-766.095498,-1036.288319,11843.295072
261.619573,-3753.867940,-3627.009116,14434.015869
261.619881,-5362.668486,-5329.482782,15840.407159
261.620189,-5822.325785,-6143.709319,15766.386565
261.620497,-4213.525239,-4219.173869,13989.892304
261.620805,-1149.143247,-1258.350101,11547.212695
261.621113,2528.115143,1554.432478,8512.368333
261.621421,5056.230287,4367.215058,5181.441594
261.621729,7048.078582,5329.482782,3627.009116
261.622037,7354.516781,5995.668130,2516.700203
261.622345,6205.373534,5403.503377,3849.070898
261.622653,4673.182538,4071.132681,6069.688724
261.622961,1762.019645,2294.638420,7772.162391
261.623269,-766.095498,-1702.473667,11473.192101
261.623577,-3753.867940,-3701.029710,13989.892304
261.623885,-5592.497135,-5181.441594,15544.324782
261.624193,-5286.058936,-5551.544565,16506.592507
261.624501,-3677.258390,-3627.009116,14434.015869
261.624808,-1608.800546,-740.205942,11695.253884
261.625116,2451.505594,1258.350101,9548.656652
261.625424,4443.353888,2960.823768,7105.977043
261.625732,4749.792088,4293.194464,5255.462188
261.626040,5592.497135,4885.359217,5255.462188
261.626348,4903.011187,4367.215058,5255.462188
261.626656,2987.772442,2738.761985,7105.977043
261.626964,536.266849,-74.020594,10436.903782
261.627272,-2298.286494,-2516.700203,13249.686362
261.627580,-5362.668486,-4293.194464,15100.201217
261.627888,-5669.106685,-5699.585753,15692.365970
261.628196,-4673.182538,-4737.318029,15100.201217
261.628504,-2681.334243,-2590.720797,12657.521608
261.628812,842.705048,592.164754,9918.759623
261.629120,3370.820191,2516.700203,7105.977043
261.629428,4673.182538,4219.173869,4663.297435
261.629736,6052.154434,4885.359217,4071.132681
261.630044,5898.935335,5551.544565,3627.009116
261.630352,4749.792088,4885.359217,4737.318029
261.630660,2757.943793,2516.700203,7328.038826
261.630968,76.609550,-148.041188,9474.636058
261.631275,-2451.505594,-2886.803174,12879.583391
261.631583,-5132.839837,-4589.276840,14730.098246
261.631891,-5515.887586,-5403.503377,15470.304188
261.632199,-3983.696590,-4737.318029,15396.283594
261.632507,-2145.067394,-1998.556043,12435.459826
261.632815,919.314598,296.082377,9474.636058
261.633123,3370.820191,1924.535449,7254.018232
261.633431,5056.230287,3627.009116,5181.441594
261.633739,5132.839837,4515.256246,4663.297435
261.634047,5286.058936,4737.318029,5329.482782
261.634355,3753.867940,3330.926739,5847.626942
261.634663,2221.676944,1036.288319,8142.265362
261.634971,-1149.143247,-1776.494261,11843.295072
261.635279,-3677.258390,-3997.112087,13841.851115
261.635587,-5132.839837,-5477.523971,15322.262999
261.635895,-5592.497135,-5625.565159,14878.139434
261.636203,-3907.087040,-3923.091493,13767.830521
261.636511,-306.438199,-1406.391290,11029.068536
261.636819,2528.115143,1702.473667,7772.162391
261.637127,4749.792088,3627.009116,6069.688724
261.637435,6052.154434,4219.173869,3701.029710
261.637743,6052.154434,5403.503377,3256.906145
261.638050,5669.106685,5181.441594,4145.153275
261.638358,3830.477490,3108.864956,5921.647536
261.638666,1532.190996,1184.329507,8660.409521
261.638974,-1302.362347,-2294.638420,11769.274478
261.639282,-3907.087040,-4293.194464,14508.036463
261.639590,-5209.449386,-5551.544565,14952.160028
261.639898,-4673.182538,-4959.379811,15544.324782
261.640206,-2221.676944,-2812.782580,13619.789333
261.640514,153.219100,-74.020594,10732.986159
261.640822,2834.553343,2220.617826,8142.265362
261.641130,4443.353888,3627.009116,6217.729913
261.641438,5439.278036,4515.256246,4811.338623
261.641746,5439.278036,4959.379811,4811.338623
261.642054,4519.963438,4737.318029,5477.523971
261.642362,2298.286494,2738.761985,7550.100608
261.642670,-306.438199,-296.082377,10732.986159
261.642978,-2987.772442,-2886.803174,13545.768739
261.643286,-4979.620737,-4811.338623,15618.345376
261.643594,-5822.325785,-6143.709319,15988.448347
261.643902,-4596.572988,-4737.318029,14434.015869
261.644210,-2604.724693,-3034.844362,12731.542202
261.644518,1302.362347,592.164754,10288.862594
261.644825,3677.258390,3108.864956,6291.750507
261.645133,5439.278036,4663.297435,4515.256246
261.645441,6205.373534,5403.503377,3552.988522
261.645749,6052.154434,5847.626942,3330.926739
261.646057,5056.230287,4959.379811,4885.359217
261.646365,2757.943793,2516.700203,7179.997637
261.646673,383.047749,-444.123565,9770.718434
261.646981,-2604.724693,-3330.926739,13027.624579
261.647289,-4903.011187,-5255.462188,15026.180623
261.647597,-5286.058936,-5699.585753,15322.262999
261.647905,-4290.134789,-4737.318029,15026.180623
261.648213,-1378.971896,-2368.659014,12953.603985
261.648521,1838.629195,666.185348,9474.636058
261.648829,3600.648841,2960.823768,7550.100608
261.649137,4979.620737,3997.112087,6217.729913
261.649445,6128.763984,4663.297435,5033.400406
261.649753,4673.182538,5403.503377,4737.318029
261.650061,3677.258390,3775.050304,6513.812290
261.650369,1378.971896,1480.411884,8808.450710
261.650677,-1991.848295,-1480.411884,12139.377449
261.650985,-4290.134789,-4663.297435,14878.139434
261.651292,-5898.935335,-5625.565159,15396.283594
261.651600,-6205.373534,-5995.668130,16210.510130
261.651908,-3983.696590,-4145.153275,14434.015869
261.652216,-842.705048,-740.205942,10807.006753
261.652524,2451.505594,2146.597232,7994.224174
261.652832,4673.182538,3849.070898,5033.400406
261.653140,6052.154434,4811.338623,3997.112087
261.653448,5898.935335,5551.544565,3701.029710
261.653756,5209.449386,4737.318029,4071.132681
261.654064,3677.258390,3478.967927,5847.626942
261.654372,1532.190996,1332.370696,8438.347739
261.654680,-1149.143247,-1480.411884,11325.150913
261.654988,-3294.210641,-3775.050304,13471.748144
261.655296,-4519.963438,-5329.482782,14878.139434
261.655604,-4749.792088,-4737.318029,14730.098246
261.655912,-2068.457845,-3552.988522,13619.789333
261.656220,459.657299,-296.082377,10436.903782
261.656528,3140.991542,1184.329507,7994.224174
261.656836,4826.401637,3256.906145,6143.709319
261.657144,5362.668486,4367.215058,4959.379811
261.657452,4979.620737,4737.318029,4811.338623
261.657760,4519.963438,3997.112087,5921.647536
261.658067,2298.286494,2072.576638,7624.121203
261.658375,-229.828649,-888.247130,11473.192101
261.658683,-2757.943793,-3775.050304,13841.851115
261.658991,-5056.230287,-5625.565159,14952.160028
261.659299,-5975.544884,-6291.750507,15988.448347
261.659607,-4749.792088,-4959.379811,15248.242405
261.659915,-2068.457845,-2146.597232,12435.459826
261.660223,1302.362347,1184.329507,8956.491898
261.660531,3983.696590,3108.864956,6069.688724
261.660839,6205.373534,4811.338623,4737.318029
261.661147,6052.154434,5477.523971,2886.803174
261.661455,5975.544884,5477.523971,3923.091493
261.661763,5132.839837,4589.276840,4959.379811
261.662071,2451.505594,2368.659014,6809.894666
261.662379,-229.828649,-666.185348,9992.780217
261.662687,-2298.286494,-2664.741391,12805.562797
261.662995,-4213.525239,-4811.338623,14656.077652
261.663303,-4749.792088,-5033.400406,14804.118840
261.663611,-3600.648841,-4145.153275,14137.933492
261.663919,-842.705048,-2072.576638,12287.418637
261.664227,1838.629195,444.123565,9548.656652
261.664535,3830.477490,2886.803174,7328.038826
261.664842,5209.449386,4293.194464,5477.523971
261.665150,5209.449386,4737.318029,5107.421000
261.665458,4903.011187,4589.276840,5773.606348
261.665766,3370.820191,3034.844362,7105.977043
261.666074,842.705048,-0.000000,9770.718434
261.666382,-1532.190996,-1998.556043,12435.459826
261.666690,-4290.134789,-4145.153275,14434.015869
261.666998,-5669.106685,-5625.565159,16210.510130
261.667306,-4979.620737,-4959.379811,15544.324782
261.667614,-2911.162892,-3182.885551,13545.768739
261.667922,0.000000,-444.123565,10658.965565
261.668230,3217.601092,1776.494261,7031.956449
261.668538,4749.792088,4145.153275,5625.565159
261.668846,5592.497135,5255.462188,4219.173869
261.669154,5669.106685,5625.565159,3404.947333
261.669462,4903.011187,4737.318029,4885.359217
261.669770,3370.820191,3182.885551,6291.750507
261.670078,1149.143247,962.267725,8956.491898
261.670386,-1532.190996,-1776.494261,12287.418637
261.670694,-3217.601092,-3775.050304,14063.912898
261.671002,-4519.963438,-4737.318029,15322.262999
261.671310,-3907.087040,-4663.297435,15174.221811
261.671617,-2145.067394,-3108.864956,12731.542202
261.671925,766.095498,-74.020594,10066.800811
261.672233,3217.601092,2146.597232,7846.182985
261.672541,4673.182538,3627.009116,5921.647536
261.672849,5439.278036,3923.091493,5329.482782
261.673157,4979.620737,4589.276840,5329.482782
261.673465,4290.134789,3182.885551,6217.729913
261.673773,1608.800546,1258.350101,8660.409521
261.674081,-766.095498,-1332.370696,11621.233289
261.674389,-3600.648841,-3404.947333,13915.871710
261.674697,-5439.278036,-5255.462188,15322.262999
261.675005,-5669.106685,-5403.503377,15618.345376
261.675313,-4596.572988,-4293.194464,14359.995275
261.675621,-1838.629195,-1628.453072,11843.295072
261.675929,1608.800546,1184.329507,8882.471304
261.676237,4290.134789,3552.988522,5995.668130
261.676545,5745.716235,4589.276840,3701.029710
261.676853,5975.544884,5403.503377,3108.864956
261.677161,5669.106685,5699.585753,3997.112087
261.677469,4136.915689,4441.235652,4885.359217
261.677777,1762.019645,2220.617826,7402.059420
261.678084,-766.095498,-888.247130,10807.006753
261.678392,-2911.162892,-3182.885551,13767.830521
261.678700,-4673.182538,-4885.359217,14804.118840
261.679008,-5592.497135,-5329.482782,14952.160028
261.679316,-3447.429741,-4441.235652,14434.015869
261.679624,-919.314598,-1924.535449,11769.274478
261.679932,1838.629195,1036.288319,8734.430116
261.680240,3907.087040,2590.720797,6809.894666
261.680548,5209.449386,4293.194464,5477.523971
261.680856,5592.497135,4441.235652,5107.421000
261.681164,4596.572988,4145.153275,5921.647536
261.681472,2604.724693,2664.741391,7402.059420
261.681780,153.219100,-0.000000,9770.718434
261.682088,-2221.676944,-2368.659014,12657.521608
261.682396,-4366.744339,-4959.379811,15100.201217
261.682704,-6205.373534,-5995.668130,15988.448347
261.683012,-5209.449386,-5255.462188,15544.324782
261.683320,-2604.724693,-3182.885551,13323.706956
261.683628,919.314598,-74.020594,10288.862594
261.683936,3830.477490,2368.659014,7105.977043
261.684244,5056.230287,4071.132681,4589.276840
261.684552,6511.811733,5255.462188,3701.029710
261.684859,6281.983084,5773.606348,3627.009116
261.685167,5822.325785,4959.379811,4219.173869
261.685475,3600.648841,3849.070898,6217.729913
261.685783,1149.143247,1110.308913,9400.615463
261.686091,-1455.581446,-1998.556043,12213.398043
261.686399,-3217.601092,-3627.009116,13841.851115
261.686707,-4903.011187,-5181.441594,15322.262999
261.687015,-4673.182538,-4811.338623,15396.283594
261.687323,-2298.286494,-2590.720797,13545.768739
261.687631,0.000000,518.144159,10510.924376
261.687939,3140.991542,1924.535449,8290.306550
261.688247,4979.620737,3256.906145,6069.688724
261.688555,5362.668486,4885.359217,4885.359217
261.688863,5132.839837,4293.194464,5255.462188
261.689171,3830.477490,3552.988522,6217.729913
261.689479,1608.800546,1258.350101,8882.471304
261.689787,-766.095498,-1332.370696,11843.295072
261.690095,-2528.115143,-3404.947333,14137.933492
261.690403,-4903.011187,-5625.565159,15470.304188
261.690711,-5362.668486,-6291.750507,16062.468941
261.691019,-3677.258390,-4441.235652,13915.871710
261.691327,-1302.362347,-1628.453072,11695.253884
261.691634,2374.896044,962.267725,8364.327145
261.691942,4903.011187,3478.967927,4885.359217
261.692250,6665.030833,4885.359217,3849.070898
261.692558,6588.421283,5551.544565,3256.906145
261.692866,6128.763984,5477.523971,3182.885551
261.693174,4519.963438,4959.379811,5033.400406
261.693482,1838.629195,2516.700203,7624.121203
261.693790,-612.876398,-444.123565,10955.047942
261.694098,-3370.820191,-2738.761985,13397.727550
261.694406,-4979.620737,-5255.462188,14878.139434
261.694714,-5898.935335,-5847.626942,15544.324782
261.695022,-3907.087040,-4145.153275,15026.180623
261.695330,-1838.629195,-2442.679609,11991.336260
261.695638,1149.143247,740.205942,9178.553681
261.695946,4366.744339,2516.700203,6957.935855
261.696254,5362.668486,4293.194464,4959.379811
261.696562,5362.668486,4737.318029,4811.338623
261.696870,4903.011187,4145.153275,5181.441594
261.697178,3294.210641,3330.926739,6957.935855
261.697486,76.609550,296.082377,10436.903782
261.697794,-2528.115143,-2960.823768,13323.706956
261.698101,-5362.668486,-4811.338623,15692.365970
261.698409,-6588.421283,-6069.688724,16432.571912
261.698717,-6128.763984,-5773.606348,15544.324782
261.699025,-3447.429741,-3478.967927,13545.768739
261.699333,0.000000,-0.000000,10066.800811
261.699641,3294.210641,2442.679609,6587.832884
261.699949,5439.278036,4367.215058,4589.276840
261.700257,5975.544884,5107.421000,2960.823768
261.700565,6435.202183,5551.544565,2960.823768
261.700873,5592.497135,5181.441594,4145.153275
261.701181,3447.429741,3849.070898,5995.668130
261.701489,766.095498,962.267725,9030.512492
261.701797,-1991.848295,-2368.659014,12139.377449
261.702105,-4443.353888,-4145.153275,13915.871710
261.702413,-5515.887586,-5921.647536,15544.324782
261.702721,-5209.449386,-4811.338623,15988.448347
261.703029,-3064.381992,-2960.823768,13767.830521
261.703337,-536.266849,-0.000000,11103.089130
261.703645,3370.820191,2146.597232,7846.182985
261.703953,5056.230287,3997.112087,5403.503377
261.704261,5592.497135,4293.194464,4737.318029
261.704569,5515.887586,3997.112087,5255.462188
261.704877,3830.477490,3330.926739,6439.791695
261.705185,1225.752797,1184.329507,9252.574275
261.705493,-1302.362347,-2368.659014,12509.480420
261.705801,-3600.648841,-3775.050304,14656.077652
261.706109,-5132.839837,-5329.482782,16210.510130
261.706416,-6128.763984,-5773.606348,15766.386565
261.706724,-3830.477490,-4071.132681,14730.098246
261.707032,-842.705048,-1184.329507,11621.233289
261.707340,2451.505594,2072.576638,7920.203579
261.707648,4826.401637,3627.009116,4959.379811
261.707956,6894.859482,5255.462188,3849.070898
261.708264,7124.688131,5921.647536,2960.823768
261.708572,6128.763984,6439.791695,3034.844362
261.708880,4903.011187,5107.421000,4885.359217
261.709188,2604.724693,2516.700203,7328.038826
261.709496,-306.438199,-592.164754,10658.965565
261.709804,-3064.381992,-3256.906145,13619.789333
261.710112,-4519.963438,-5255.462188,14952.160028
261.710420,-4826.401637,-6143.709319,15766.386565
261.710728,-3370.820191,-4145.153275,14211.954086
261.711036,-766.095498,-962.267725,11399.171507
261.711344,2298.286494,1480.411884,9104.533087
261.711652,4596.572988,3108.864956,6217.729913
261.711960,5515.887586,4515.256246,5033.400406
261.712268,6205.373534,4219.173869,5403.503377
261.712576,4903.011187,3627.009116,6217.729913
261.712884,2451.505594,1702.473667,8068.244768
261.713192,-612.876398,-370.102971,11177.109724
261.713500,-2757.943793,-3404.947333,14137.933492
261.713808,-5132.839837,-5033.400406,15248.242405
261.714116,-6358.592633,-5773.606348,15914.427753
261.714423,-5132.839837,-5551.544565,15100.201217
261.714731,-2528.115143,-2590.720797,12805.562797
261.715039,1149.143247,592.164754,9326.594869
261.715347,4136.915689,2886.803174,5625.565159
261.715655,6052.154434,4737.318029,3849.070898
261.715963,6741.640382,6143.709319,2812.782580
261.716271,6818.249932,5995.668130,2516.700203
261.716579,5592.497135,5699.585753,3775.050304
261.716887,3447.429741,3478.967927,6069.688724
261.717195,459.657299,-0.000000,9326.594869
261.717503,-2451.505594,-2738.761985,12583.501014
261.717811,-4673.182538,-4219.173869,15026.180623
261.718119,-6358.592633,-6291.750507,16062.468941
261.718427,-5669.106685,-5477.523971,15766.386565
261.718735,-3140.991542,-2664.741391,12805.562797
261.719043,306.438199,444.123565,9770.718434
261.719351,3217.601092,2368.659014,7476.080014
261.719659,5362.668486,3552.988522,5625.565159
261.719967,5745.716235,4219.173869,4885.359217
261.720275,5362.668486,3997.112087,5551.544565
261.720583,2911.162892,2516.700203,6809.894666
261.720891,459.657299,370.102971,10066.800811
261.721199,-2221.676944,-1998.556043,12731.542202
261.721507,-4903.011187,-4293.194464,14730.098246
261.721815,-6358.592633,-5699.585753,15988.448347
261.722123,-6281.983084,-5773.606348,16284.530724
261.722431,-4596.572988,-4663.297435,14211.954086
261.722738,-383.047749,-1184.329507,11103.089130
261.723046,2451.505594,2072.576638,7772.162391
261.723354,5209.449386,3849.070898,5181.441594
261.723662,6741.640382,5329.482782,3330.926739
261.723970,6894.859482,7031.956449,2590.720797
261.724278,6511.811733,5921.647536,3552.988522
261.724586,5209.449386,4737.318029,4959.379811
261.724894,1685.410096,2072.576638,7698.141797
261.725202,-1149.143247,-1332.370696,11325.150913
261.725510,-3140.991542,-3182.885551,14063.912898
261.725818,-5362.668486,-4885.359217,15174.221811
261.726126,-5592.497135,-5403.503377,15692.365970
261.726434,-3677.258390,-3478.967927,14211.954086
261.726742,-153.219100,-444.123565,11029.068536
261.727050,2757.943793,1702.473667,8586.388927
261.727358,4290.134789,3034.844362,6291.750507
261.727666,5822.325785,4145.153275,5995.668130
261.727974,5056.230287,4071.132681,6439.791695
261.728282,3677.258390,3256.906145,6513.812290
261.728590,1915.238745,1628.453072,8438.347739
261.728898,-995.924147,-666.185348,11251.130318
261.729206,-2987.772442,-3108.864956,13767.830521
261.729514,-4903.011187,-5255.462188,15322.262999
261.729822,-5898.935335,-6143.709319,16580.613101
261.730130,-5362.668486,-5329.482782,15692.365970
261.730438,-2757.943793,-2590.720797,12435.459826
261.730746,919.314598,444.123565,9178.553681
261.731053,4443.353888,3404.947333,6217.729913
261.731361,6665.030833,4959.379811,4219.173869
261.731669,7201.297681,6365.771101,2664.741391
261.731977,7354.516781,6587.832884,2368.659014
261.732285,5898.935335,5255.462188,3923.091493
261.732593,3983.696590,3108.864956,5847.626942
261.732901,1072.533697,888.247130,9178.553681
261.733209,-1378.971896,-2442.679609,12139.377449
261.733517,-4290.134789,-3923.091493,13841.851115
261.733825,-5286.058936,-5625.565159,14878.139434
261.734133,-4290.134789,-4885.359217,15174.221811
261.734441,-2068.457845,-1924.535449,12139.377449
261.734749,1455.581446,666.185348,9326.594869
261.735057,3677.258390,2368.659014,7550.100608
261.735365,4979.620737,3627.009116,6291.750507
261.735673,4979.620737,3775.050304,5181.441594
261.735981,4519.963438,3627.009116,5773.606348
261.736289,2604.724693,2146.597232,7179.997637
261.736597,766.095498,-148.041188,9992.780217
261.736905,-2068.457845,-2516.700203,12879.583391
261.737213,-4749.792088,-4737.318029,14285.974681
261.737521,-6894.859482,-5551.544565,16580.613101
261.737829,-6128.763984,-6957.935855,16062.468941
261.738137,-4290.134789,-3997.112087,14211.954086
261.738445,-919.314598,-1332.370696,10807.006753
261.738753,2528.115143,1924.535449,6883.915261
261.739060,5286.058936,3849.070898,4663.297435
261.739368,6894.859482,4885.359217,3404.947333
261.739676,7737.564530,5551.544565,2072.576638
261.739984,6665.030833,6291.750507,2886.803174
261.740292,4443.353888,4367.215058,4293.194464
261.740600,2068.457845,2146.597232,7105.977043
261.740908,-766.095498,-814.226536,10955.047942
261.741216,-3370.820191,-3478.967927,13397.727550
261.741524,-5439.278036,-4811.338623,14878.139434
261.741832,-5515.887586,-6365.771101,15840.407159
261.742140,-3600.648841,-3478.967927,14434.015869
261.742448,-229.828649,-962.267725,11251.130318
261.742756,1762.019645,1850.514855,8512.368333
261.743064,3830.477490,3256.906145,7105.977043
261.743372,5132.839837,4219.173869,5551.544565
261.743680,4366.744339,4071.132681,5625.565159
261.743988,3524.039291,3256.906145,6957.935855
261.744296,1838.629195,1184.329507,9030.512492
261.744604,-1072.533697,-518.144159,11325.150913
261.744912,-3294.210641,-2590.720797,13767.830521
261.745220,-5209.449386,-4811.338623,15100.201217
261.745528,-5132.839837,-5255.462188,16136.489536
261.745836,-4749.792088,-4589.276840,15174.221811
261.746144,-2451.505594,-2738.761985,13027.624579
261.746452,536.266849,-0.000000,9696.697840
261.746760,3907.087040,2960.823768,6587.832884
261.747068,6052.154434,3923.091493,4367.215058
261.747375,7354.516781,6217.729913,3478.967927
261.747683,7201.297681,6143.709319,2590.720797
261.747991,5745.716235,5477.523971,4071.132681
261.748299,4366.744339,3627.009116,6661.853478
261.748607,1302.362347,1036.288319,8882.471304
261.748915,-1608.800546,-1924.535449,12435.459826
261.749223,-3830.477490,-4293.194464,14434.015869
261.749531,-5439.278036,-4811.338623,16210.510130
261.749839,-4749.792088,-4737.318029,15766.386565
261.750147,-1915.238745,-2072.576638,13397.727550
261.750455,1072.533697,1332.370696,9474.636058
261.750763,3677.258390,3034.844362,7105.977043
261.751071,4979.620737,3849.070898,5995.668130
261.751379,5056.230287,3849.070898,5625.565159
261.751687,4596.572988,3256.906145,5921.647536
261.751995,2834.553343,1702.473667,7402.059420
261.752303,612.876398,148.041188,9770.718434
261.752611,-1685.410096,-2220.617826,11991.336260
261.752919,-3830.477490,-3701.029710,14359.995275
261.753227,-5209.449386,-5403.503377,15322.262999
261.753535,-5669.106685,-5773.606348,15618.345376
261.753843,-3983.696590,-4071.132681,14285.974681
261.754151,-766.095498,-1924.535449,11177.109724
261.754459,3064.381992,1480.411884,7476.080014
261.754767,5362.668486,3923.091493,5477.523971
261.755075,6511.811733,5551.544565,3108.864956
261.755383,6741.640382,5773.606348,2886.803174
261.755690,5975.544884,5995.668130,2812.782580
261.755998,4443.353888,4145.153275,5847.626942
261.756306,3064.381992,1258.350101,8142.265362
261.756614,-1608.800546,-222.061783,9474.636058
261.756922,-2681.334243,-3923.091493,14359.995275
261.757230,-5209.449386,-5329.482782,14508.036463
261.757538,-5592.497135,-4959.379811,14952.160028
261.757846,-3524.039291,-3997.112087,14211.954086
261.758154,-612.876398,-444.123565,10362.883188
261.758462,1915.238745,1184.329507,9178.553681
261.758770,3830.477490,2516.700203,6291.750507
261.759078,5286.058936,3330.926739,5477.523971
261.759386,4519.963438,3182.885551,5403.503377
261.759694,3600.648841,2664.741391,6809.894666
261.760002,1378.971896,1332.370696,8068.244768
261.760310,-1225.752797,-1480.411884,11251.130318
261.760618,-3140.991542,-2590.720797,13545.768739
261.760926,-5209.449386,-4293.194464,14359.995275
261.761234,-5745.716235,-5773.606348,16284.530724
261.761542,-5362.668486,-5255.462188,14878.139434
261.761850,-2987.772442,-2442.679609,12213.398043
261.762158,995.924147,962.267725,9696.697840
261.762466,3524.039291,3182.885551,6513.812290
261.762774,5822.325785,5255.462188,4589.276840
261.763082,6588.421283,5995.668130,3182.885551
261.763390,6818.249932,6069.688724,3256.906145
261.763697,5439.278036,5255.462188,4367.215058
261.764005,3677.258390,3108.864956,6809.894666
261.764313,842.705048,-0.000000,9030.512492
261.764621,-1762.019645,-2294.638420,12361.439231
261.764929,-3677.258390,-4071.132681,14359.995275
261.765237,-4903.011187,-4811.338623,14804.118840
261.765545,-3830.477490,-3775.050304,14878.139434
261.765853,-1225.752797,-1036.288319,11917.315666
261.766161,1915.238745,1628.453072,9622.677246
261.766469,3983.696590,2886.803174,7402.059420
261.766777,4903.011187,3627.009116,6365.771101
261.767085,5515.887586,3627.009116,6069.688724
261.767393,3983.696590,2886.803174,6809.894666
261.767701,2145.067394,2072.576638,8290.306550
261.768009,0.000000,-74.020594,10732.986159
261.768317,-2604.724693,-2294.638420,12953.603985
261.768625,-5132.839837,-4515.256246,15248.242405
261.768933,-6205.373534,-5921.647536,16728.654289
261.769241,-5132.839837,-5551.544565,15988.448347
261.769549,-3753.867940,-3775.050304,14137.933492
261.769857,0.000000,-1036.288319,10658.965565
261.770165,3600.648841,2664.741391,7105.977043
261.770473,5439.278036,4441.235652,4959.379811
261.770781,7431.126331,5773.606348,3108.864956
261.771089,7814.174080,6661.853478,2220.617826
261.771397,6588.421283,5181.441594,3404.947333
261.771705,5362.668486,3997.112087,5107.421000
261.772012,2911.162892,1702.473667,6957.935855
261.772320,-919.314598,-1628.453072,10732.986159
261.772628,-3064.381992,-3849.070898,13323.706956
261.772936,-4903.011187,-4959.379811,14063.912898
261.773244,-5132.839837,-5403.503377,15248.242405
261.773552,-2528.115143,-3478.967927,14211.954086
261.773860,383.047749,222.061783,9770.718434
261.774168,2757.943793,2442.679609,7920.203579
261.774476,4443.353888,3108.864956,6661.853478
261.774784,4979.620737,3997.112087,5477.523971
261.775092,4290.134789,3775.050304,5921.647536
261.775400,3524.039291,2960.823768,6513.812290
261.775708,1302.362347,1184.329507,8808.450710
261.776016,-1072.533697,-1998.556043,11399.171507
261.776324,-3983.696590,-3775.050304,14211.954086
261.776632,-6052.154434,-5847.626942,16876.695478
261.776940,-6052.154434,-6809.894666,16432.571912
261.777248,-5669.106685,-5773.606348,15026.180623
261.777556,-2528.115143,-2886.803174,12509.480420
261.777864,1378.971896,592.164754,8660.409521
261.778172,4596.572988,3478.967927,5477.523971
261.778480,6894.859482,4293.194464,3997.112087
261.778788,8044.002729,6735.874072,2146.597232
261.779096,7277.907231,7105.977043,1850.514855
261.779404,6052.154434,5181.441594,3997.112087
261.779712,3370.820191,3182.885551,6661.853478
261.780020,0.000000,518.144159,9622.677246
261.780327,-3064.381992,-2812.782580,13101.645173
261.780635,-5286.058936,-4811.338623,14730.098246
261.780943,-5822.325785,-5773.606348,16284.530724
261.781251,-4826.401637,-4515.256246,16210.510130
261.781559,-2451.505594,-1554.432478,12953.603985
261.781867,459.657299,1702.473667,9474.636058
261.782175,3447.429741,3034.844362,7328.038826
261.782483,4519.963438,4219.173869,5847.626942
261.782791,4826.401637,4515.256246,6069.688724
261.783099,4290.134789,3775.050304,6587.832884
261.783407,2374.896044,2368.659014,7772.162391
261.783715,76.609550,-148.041188,10362.883188
261.784023,-1838.629195,-2146.597232,13101.645173
261.784331,-3983.696590,-4219.173869,14730.098246
261.784639,-5286.058936,-5477.523971,15988.448347
261.784947,-5056.230287,-5625.565159,15766.386565
261.785255,-3447.429741,-3701.029710,13175.665768
261.785563,153.219100,-814.226536,10288.862594
261.785871,3294.210641,2368.659014,6809.894666
261.786179,5898.935335,4145.153275,4811.338623
261.786487,7584.345430,5403.503377,3256.906145
261.786795,6665.030833,6069.688724,2590.720797
261.787103,6358.592633,5403.503377,3182.885551
261.787411,4673.182538,4071.132681,5181.441594
261.787719,2298.286494,1702.473667,7624.121203
261.788027,-766.095498,-1850.514855,11473.192101
261.788334,-3830.477490,-4071.132681,13841.851115
261.788642,-5132.839837,-5551.544565,15174.221811
261.788950,-5286.058936,-5995.668130,15692.365970
261.789258,-2757.943793,-3701.029710,14063.912898
261.789566,229.828649,-444.123565,10510.924376
261.789874,2298.286494,1924.535449,8068.244768
261.790182,4826.401637,3108.864956,6143.709319
261.790490,5056.230287,4515.256246,4885.359217
261.790798,4596.572988,3627.009116,5033.400406
261.791106,3983.696590,3108.864956,6217.729913
261.791414,2298.286494,1554.432478,8216.285956
261.791722,-459.657299,-740.205942,11177.109724
261.792030,-2911.162892,-3256.906145,13101.645173
261.792338,-4979.620737,-4959.379811,14878.139434
261.792646,-5745.716235,-6069.688724,15544.324782
261.792954,-4749.792088,-5107.421000,14730.098246
261.793262,-1991.848295,-2368.659014,12139.377449
261.793570,1302.362347,1184.329507,8364.327145
261.793878,4519.963438,3627.009116,5699.585753
261.794186,6205.373534,4885.359217,3923.091493
261.794494,6818.249932,6069.688724,3034.844362
261.794802,6511.811733,6143.709319,2738.761985
261.795110,4903.011187,4737.318029,4515.256246
261.795418,2604.724693,2516.700203,7031.956449
261.795726,0.000000,-0.000000,10066.800811
261.796034,-2604.724693,-3256.906145,12953.603985
261.796342,-4519.963438,-5329.482782,15100.201217
261.796649,-5669.106685,-5921.647536,15766.386565
261.796957,-3830.477490,-4737.318029,15100.201217
261.797265,-1532.190996,-1702.473667,12287.418637
261.797573,1302.362347,962.267725,9622.677246
261.797881,2987.772442,2738.761985,7624.121203
261.798189,4749.792088,4071.132681,5773.606348
261.798497,4903.011187,4293.194464,5921.647536
261.798805,4136.915689,3627.009116,6217.729913
261.799113,2374.896044,2886.803174,7624.121203
261.799421,153.219100,370.102971,10510.924376
261.799729,-2604.724693,-2146.597232,12805.562797
261.800037,-5056.230287,-4367.215058,14730.098246
261.800345,-5362.668486,-5699.585753,16728.654289
261.800653,-5515.887586,-5033.400406,15988.448347
261.800961,-3370.820191,-3404.947333,13915.871710
261.801269,0.000000,-74.020594,10214.842000
261.801577,2681.334243,3256.906145,6957.935855
261.801885,5975.544884,4959.379811,4959.379811
261.802193,6588.421283,6291.750507,3182.885551
261.802501,6971.469032,6439.791695,3034.844362
261.802809,6511.811733,5625.565159,4737.318029
261.803117,3447.429741,3404.947333,6069.688724
261.803425,1225.752797,740.205942,8808.450710
261.803733,-995.924147,-2072.576638,11695.253884
261.804041,-3677.258390,-4219.173869,13915.871710
261.804350,-5132.839837,-5847.626942,15322.262999
261.804658,-4596.572988,-5255.462188,15840.407159
261.804966,-1608.800546,-2368.659014,13619.789333
261.805274,612.876398,740.205942,9992.780217
261.805582,2145.067394,2294.638420,7402.059420
261.805890,5592.497135,3330.926739,7550.100608
261.806198,4749.792088,4071.132681,4441.235652
261.806506,3753.867940,4219.173869,6365.771101
261.806814,3677.258390,2072.576638,7772.162391
261.807122,383.047749,1406.391290,7994.224174
261.807430,-2068.457845,-2368.659014,12657.521608
261.807738,-3064.381992,-3849.070898,13027.624579
261.808046,-5056.230287,-6217.729913,15840.407159
261.808354,-6435.202183,-6291.750507,15766.386565
261.808662,-3830.477490,-5181.441594,14137.933492
261.808970,-766.095498,-1776.494261,11769.274478
261.809278,2145.067394,1480.411884,7105.977043
261.809586,5592.497135,4071.132681,4811.338623
261.809894,7277.907231,5699.585753,2590.720797
261.810202,7201.297681,6217.729913,2516.700203
261.810510,6588.421283,5403.503377,2886.803174
261.810818,4903.011187,4441.235652,4663.297435
261.811126,2834.553343,1554.432478,7179.997637
261.811434,-689.485948,-1406.391290,10214.842000
261.811742,-2757.943793,-3478.967927,13249.686362
261.812050,-5056.230287,-5551.544565,15322.262999
261.812358,-4903.011187,-5699.585753,15026.180623
261.812666,-3140.991542,-3404.947333,14137.933492
261.812974,0.000000,-666.185348,11103.089130
261.813282,2528.115143,1850.514855,9030.512492
261.813590,4673.182538,3701.029710,6735.874072
261.813899,4903.011187,4811.338623,5107.421000
261.814207,4903.011187,4589.276840,5255.462188
261.814515,4213.525239,3997.112087,5847.626942
261.814823,2604.724693,2442.679609,7772.162391
261.815131,459.657299,-1110.308913,10436.903782
261.815439,-2604.724693,-3108.864956,13101.645173
261.815747,-4903.011187,-5107.421000,15618.345376
261.816055,-6205.373534,-6439.791695,16802.674883
261.816363,-5898.935335,-5699.585753,15988.448347
261.816671,-2834.553343,-2886.803174,14137.933492
261.816979,536.266849,518.144159,9992.780217
261.817287,3677.258390,3404.947333,6439.791695
261.817595,5439.278036,5255.462188,5477.523971
261.817903,7277.907231,6365.771101,3478.967927
261.818211,7048.078582,6439.791695,3330.926739
261.818519,5669.106685,5477.523971,4293.194464
261.818827,3140.991542,3256.906145,6735.874072
261.819135,0.000000,444.123565,9696.697840
261.819443,-2604.724693,-2368.659014,12435.459826
261.819751,-4519.963438,-4737.318029,14582.057057
261.820059,-5898.935335,-6291.750507,16136.489536
261.820367,-4826.401637,-5181.441594,15618.345376
261.820675,-1225.752797,-2442.679609,12731.542202
261.820983,1302.362347,1406.391290,10214.842000
261.821291,3447.429741,2664.741391,7624.121203
261.821599,4903.011187,4515.256246,5551.544565
261.821907,5286.058936,5033.400406,5255.462188
261.822215,4903.011187,4663.297435,5477.523971
261.822523,3294.210641,3256.906145,6439.791695
261.822831,1378.971896,1036.288319,9104.533087
261.823139,-1685.410096,-2368.659014,12213.398043
261.823448,-4443.353888,-4737.318029,14656.077652
261.823756,-6588.421283,-6069.688724,16284.530724
261.824064,-6358.592633,-6291.750507,16654.633695
261.824372,-4136.915689,-4737.318029,14508.036463
261.824680,-1302.362347,-814.226536,10732.986159
261.824988,2528.115143,1924.535449,8364.327145
261.825296,5056.230287,4293.194464,5255.462188
261.825604,6741.640382,5847.626942,3627.009116
261.825912,6971.469032,5847.626942,3701.029710
261.826220,6281.983084,5773.606348,3330.926739
261.826528,4213.525239,3923.091493,5329.482782
261.826836,1991.848295,2072.576638,7624.121203
261.827144,-1072.533697,-1184.329507,10881.027347
261.827452,-2757.943793,-3997.112087,13915.871710
261.827760,-5362.668486,-5477.523971,14582.057057
261.828068,-4903.011187,-5477.523971,16062.468941
261.828376,-3064.381992,-3923.091493,14211.954086
261.828684,-383.047749,-518.144159,10955.047942
261.828992,2451.505594,1554.432478,8216.285956
261.829300,4596.572988,3108.864956,6513.812290
261.829608,4673.182538,4515.256246,4737.318029
261.829916,5132.839837,4219.173869,5181.441594
261.830224,4979.620737,3627.009116,5995.668130
261.830532,2987.772442,2146.597232,7105.977043
261.830840,0.000000,-666.185348,10066.800811
261.831148,-2451.505594,-3552.988522,13249.686362
261.831456,-4749.792088,-5181.441594,15174.221811
261.831764,-5439.278036,-6217.729913,15544.324782
261.832072,-4903.011187,-5699.585753,14804.118840
261.832380,-2757.943793,-2960.823768,12583.501014
261.832688,995.924147,444.123565,9326.594869
261.832997,4213.525239,3849.070898,6217.729913
261.833305,6435.202183,5181.441594,3997.112087
261.833613,6818.249932,6069.688724,2886.803174
261.833921,6741.640382,5995.668130,3034.844362
261.834229,5362.668486,4885.359217,4367.215058
261.834537,2681.334243,2812.782580,6883.915261
261.834845,-153.219100,-444.123565,9622.677246
261.835153,-2145.067394,-3182.885551,12731.542202
261.835461,-4903.011187,-5255.462188,14878.139434
261.835769,-6052.154434,-5773.606348,16284.530724
261.836077,-3983.696590,-4737.318029,15248.242405
261.836385,-2145.067394,-2220.617826,12731.542202
261.836693,536.266849,592.164754,9770.718434
261.837001,3524.039291,2738.761985,7920.203579
261.837309,5056.230287,4367.215058,5995.668130
261.837617,4826.401637,5181.441594,4811.338623
261.837925,4979.620737,4737.318029,5181.441594
261.838233,3907.087040,3552.988522,6735.874072
261.838541,1072.533697,1332.370696,8956.491898
261.838849,-1685.410096,-1702.473667,11547.212695
261.839157,-3983.696590,-3997.112087,14137.933492
261.839465,-5515.887586,-5625.565159,15692.365970
261.839773,-5975.544884,-6069.688724,15544.324782
261.840081,-3907.087040,-4367.215058,13841.851115
261.840389,-766.095498,-1110.308913,10955.047942
261.840697,2374.896044,2368.659014,7476.080014
261.841005,5286.058936,4219.173869,5107.421000
261.841313,6128.763984,5773.606348,3923.091493
261.841621,6205.373534,6143.709319,3330.926739
261.841929,5439.278036,5329.482782,4367.215058
261.842237,3524.039291,3478.967927,6365.771101
261.842546,1225.752797,592.164754,8808.450710
261.842854,-1685.410096,-1998.556043,11695.253884
261.843162,-3907.087040,-3627.009116,14508.036463
261.843470,-5362.668486,-5699.585753,15618.345376
261.843778,-4749.792088,-5477.523971,15914.427753
261.844086,-3140.991542,-3552.988522,14063.912898
261.844394,-229.828649,-666.185348,11029.068536
261.844702,2757.943793,1554.432478,8734.430116
261.845010,4519.963438,3182.885551,6439.791695
261.845318,5362.668486,4811.338623,5033.400406
261.845626,5439.278036,4515.256246,5329.482782
261.845934,4443.353888,4145.153275,5995.668130
261.846242,2298.286494,2368.659014,7402.059420
261.846550,0.000000,-370.102971,10658.965565
261.846858,-2374.896044,-3256.906145,13397.727550
261.847166,-4903.011187,-5107.421000,14878.139434
261.847474,-5515.887586,-6365.771101,16358.551318
261.847782,-4826.401637,-5107.421000,15100.201217
261.848090,-2068.457845,-2812.782580,12361.439231
261.848398,1762.019645,1406.391290,9252.574275
261.848706,4366.744339,3775.050304,5551.544565
261.849014,6052.154434,5033.400406,3997.112087
261.849322,7124.688131,5995.668130,3182.885551
261.849630,5669.106685,5477.523971,3182.885551
261.849938,4826.401637,4219.173869,4737.318029
261.850246,2681.334243,2146.597232,7105.977043
261.850554,0.000000,-148.041188,9622.677246
261.850862,-2374.896044,-3478.967927,12731.542202
261.851170,-4903.011187,-4959.379811,14656.077652
261.851478,-4979.620737,-5847.626942,15988.448347
261.851786,-3600.648841,-5255.462188,15174.221811
261.852094,-1532.190996,-2516.700203,12583.501014
261.852403,1608.800546,518.144159,9474.636058
261.852711,3907.087040,2220.617826,7105.977043
261.853019,5056.230287,4663.297435,5773.606348
261.853327,5515.887586,5255.462188,4885.359217
261.853635,5439.278036,4811.338623,5033.400406
261.853943,3753.867940,3775.050304,5921.647536
261.854251,1532.190996,1258.350101,8734.430116
261.854559,-1302.362347,-1850.514855,11917.315666
261.854867,-3753.867940,-4293.194464,14211.954086
261.855175,-5439.278036,-5847.626942,15692.365970
261.855483,-5209.449386,-6217.729913,15914.427753
261.855791,-3983.696590,-4145.153275,13841.851115
261.856099,-842.705048,-1184.329507,11399.171507
261.856407,2451.505594,1776.494261,7698.141797
261.856715,5056.230287,3478.967927,5255.462188
261.857023,5822.325785,5329.482782,4071.132681
261.857331,6052.154434,5551.544565,3552.988522
261.857639,5898.935335,5255.462188,4071.132681
261.857947,3907.087040,3849.070898,5847.626942
261.858255,1378.971896,1554.432478,8216.285956
261.858563,-1608.800546,-1554.432478,11177.109724
261.858871,-3830.477490,-4071.132681,13915.871710
261.859179,-5515.887586,-5403.503377,15692.365970
261.859487,-4979.620737,-5625.565159,15914.427753
261.859795,-2987.772442,-4515.256246,14137.933492
261.860103,-229.828649,-962.267725,11399.171507
261.860411,2298.286494,1702.473667,8660.409521
261.860719,3830.477490,3627.009116,6957.935855
261.861027,4903.011187,4737.318029,5033.400406
261.861335,5592.497135,5033.400406,4959.379811
261.861643,4519.963438,4219.173869,5403.503377
261.861952,2528.115143,2220.617826,7105.977043
261.862260,76.609550,-888.247130,10362.883188
261.862568,-2298.286494,-3256.906145,13323.706956
261.862876,-5056.230287,-5329.482782,15026.180623
261.863184,-5669.106685,-6513.812290,15914.427753
261.863492,-4979.620737,-5773.606348,15100.201217
261.863800,-2681.334243,-3108.864956,12953.603985
261.864108,766.095498,518.144159,9474.636058
261.864416,4213.525239,3256.906145,6291.750507
261.864724,5669.106685,4885.359217,4737.318029
261.865032,6358.592633,6217.729913,3034.844362
261.865340,6128.763984,6069.688724,3552.988522
261.865648,4903.011187,5033.400406,4885.359217
261.865956,2451.505594,3034.844362,6957.935855
261.866264,0.000000,148.041188,9696.697840
261.866572,-2604.724693,-2886.803174,12805.562797
261.866880,-4903.011187,-4959.379811,15026.180623
261.867188,-5132.839837,-5551.544565,15692.365970
261.867496,-4673.182538,-4959.379811,15322.262999
261.867804,-1762.019645,-2368.659014,13175.665768
261.868112,995.924147,370.102971,10066.800811
261.868420,3524.039291,3108.864956,7328.038826
261.868728,4826.401637,4663.297435,5551.544565
261.869036,6128.763984,4959.379811,4959.379811
261.869344,5056.230287,4737.318029,4959.379811
261.869652,3294.210641,3330.926739,6439.791695
261.869960,1149.143247,888.247130,9474.636058
261.870268,-1915.238745,-1998.556043,12361.439231
261.870576,-3983.696590,-4293.194464,14804.118840
261.870884,-5898.935335,-5403.503377,15692.365970
261.871192,-5439.278036,-6069.688724,15988.448347
261.871501,-3677.258390,-3552.988522,13841.851115
261.871809,0.000000,-370.102971,10658.965565
261.872117,2987.772442,2294.638420,7031.956449
261.872425,5056.230287,4441.235652,4885.359217
261.872733,6741.640382,5551.544565,3775.050304
261.873041,6588.421283,6143.709319,2960.823768
261.873349,6052.154434,5181.441594,3701.029710
261.873657,3830.477490,3182.885551,5847.626942
261.873965,1378.971896,1184.329507,8882.471304
261.874273,-1378.971896,-1998.556043,11621.233289
261.874581,-3830.477490,-4663.297435,14359.995275
261.874889,-5056.230287,-5847.626942,15470.304188
261.875197,-4903.011187,-6365.771101,15470.304188
261.875505,-2834.553343,-3849.070898,13841.851115
261.875813,0.000000,-444.123565,10362.883188
261.876121,2911.162892,1998.556043,7846.182985
261.876429,4596.572988,3849.070898,6069.688724
261.876737,4903.011187,4959.379811,5033.400406
261.877045,5286.058936,5477.523971,5477.523971
261.877353,4136.915689,3849.070898,5995.668130
261.877661,2145.067394,1776.494261,8142.265362
261.877969,-689.485948,-1110.308913,10732.986159
261.878277,-3294.210641,-3552.988522,13989.892304
261.878585,-5362.668486,-5847.626942,14730.098246
261.878893,-5898.935335,-6217.729913,15470.304188
261.879201,-4903.011187,-5551.544565,15026.180623
261.879509,-1225.752797,-2590.720797,11991.336260
261.879817,1685.410096,888.247130,8290.306550
261.880125,4290.134789,3182.885551,5477.523971
261.880433,6281.983084,4959.379811,3552.988522
261.880741,6818.249932,5773.606348,2738.761985
261.881050,7048.078582,5773.606348,3108.864956
261.881358,5362.668486,4515.256246,4737.318029
261.881666,2604.724693,2516.700203,7254.018232
261.881974,-306.438199,-444.123565,10288.862594
261.882282,-2911.162892,-3108.864956,13397.727550
261.882590,-5286.058936,-5329.482782,15470.304188
261.882898,-5975.544884,-6069.688724,16580.613101
261.883206,-4903.011187,-5181.441594,15322.262999
261.883514,-1762.019645,-1998.556043,11991.336260
261.883822,1072.533697,1036.288319,9474.636058
261.884130,3524.039291,2738.761985,7402.059420
261.884438,4903.011187,4219.173869,5699.585753
261.884746,5669.106685,5181.441594,4811.338623
261.885054,4826.401637,4811.338623,5107.421000
261.885362,3294.210641,3404.947333,7105.977043
261.885670,995.924147,666.185348,9696.697840
261.885978,-1838.629195,-2146.597232,12509.480420
261.886286,-4596.572988,-4589.276840,14582.057057
261.886594,-5975.544884,-5921.647536,15914.427753
261.886902,-5822.325785,-6069.688724,15988.448347
261.887210,-3600.648841,-3923.091493,14137.933492
261.887518,0.000000,-296.082377,10362.883188
261.887826,3217.601092,2886.803174,6883.915261
261.888134,5669.106685,4589.276840,4737.318029
261.888442,7124.688131,5477.523971,3627.009116
261.888750,7354.516781,6143.709319,3256.906145
261.889058,5745.716235,5625.565159,3627.009116
261.889366,3294.210641,3552.988522,5773.606348
261.889674,1072.533697,1332.370696,8882.471304
261.889982,-1838.629195,-2146.597232,12139.377449
261.890290,-4519.963438,-4515.256246,14359.995275
261.890599,-6128.763984,-6069.688724,15988.448347
261.890907,-5592.497135,-6069.688724,16580.613101
261.891215,-3524.039291,-4145.153275,14063.912898
261.891523,-306.438199,-222.061783,10955.047942
261.891831,2911.162892,2220.617826,8216.285956
261.892139,4903.011187,4145.153275,6069.688724
261.892447,5362.668486,5477.523971,4589.276840
261.892755,5975.544884,5033.400406,4959.379811
261.893063,4443.353888,4441.235652,5329.482782
261.893371,2451.505594,1998.556043,8290.306550
261.893679,-842.705048,-962.267725,11177.109724
261.893987,-3524.039291,-3552.988522,13471.748144
261.894295,-5439.278036,-6069.688724,15914.427753
261.894603,-6052.154434,-6735.874072,15840.407159
261.894911,-4596.572988,-5255.462188,14730.098246
261.895219,-1532.190996,-2590.720797,11991.336260
261.895527,2451.505594,1258.350101,8216.285956
261.895835,4519.963438,4145.153275,5625.565159
261.896143,7584.345430,4959.379811,3478.967927
261.896451,7890.783629,6143.709319,2960.823768
261.896759,6894.859482,6291.750507,3108.864956
261.897067,5056.230287,4885.359217,4737.318029
261.897375,2451.505594,2590.720797,7105.977043
261.897683,-842.705048,-444.123565,10732.986159
261.897991,-3753.867940,-3627.009116,13323.706956
261.898299,-6281.983084,-5921.647536,15618.345376
261.898607,-6665.030833,-6883.915261,17468.860231
261.898915,-5898.935335,-5773.606348,16284.530724
261.899223,-2451.505594,-2294.638420,12805.562797
261.899531,1302.362347,814.226536,10066.800811
261.899839,4136.915689,3034.844362,6661.853478
261.900148,5515.887586,4811.338623,4959.379811
261.900456,6358.592633,5625.565159,4737.318029
261.900764,6205.373534,4959.379811,4811.338623
261.901072,4596.572988,3627.009116,5995.668130
261.901380,995.924147,888.247130,8882.471304
261.901688,-1149.143247,-1924.535449,12213.398043
261.901996,-4213.525239,-3997.112087,14285.974681
261.902304,-5745.716235,-5551.544565,15396.283594
